"trial_type","trial_index","time_elapsed","internal_node_id","value","metadata","success","timeout","failed_images","failed_audio","failed_video","browser_interaction","low_quality","rt","stimulus","response","button_pressed","island_rt","island_response","boat_rt","boat_response","boat","reward","island_key","island","boat_key","reward_probabilities","responses","num_errors","view_history"
"pavlovia","0","9","0.0-0.0","","","","","","","","","","","","","","","","","","","","","","","","","",""
"call-function","1","10","0.0-1.0","","{""task_version"":""sailing_part1_v1"",""task_condition"":""good"",""boats"":[""A"",""B"",""D"",""C""],""boats_demo"":[""H"",""F"",""G"",""E""],""islands"":[""B"",""A""],""subject_id"":""13853"",""age"":""12"",""gender"":""Male""}","","","","","","","","","","","","","","","","","","","","","","","",""
"preload","2","2106","0.0-2.0","","","true","false","[]","[]","[]","[{""event"":""fullscreenenter"",""trial"":3,""time"":6784}]","false","","","","","","","","","","","","","","","","",""
"fullscreen","3","7743","0.0-3.0","","","true","","","","","","","","","","","","","","","","","","","","","","",""
"audio-keyboard-response","4","10937","0.0-4.0-0.0","","","","","","","","","","3018.666666666667","audio/beep_loop.wav"," ","","","","","","","","","","","","","",""
"audio-test","5","13114","0.0-4.0-1.0","","","","","","","","","","null","audio/turtle.mp3","","3","","","","","","","","","","","","",""
"audio-test","6","16203","0.0-4.0-2.0","","","","","","","","","","null","audio/shark.mp3","","2","","","","","","","","","","","","",""
"sailing-instructions","7","49203","0.0-5.0-0.0-0.0","","","","","","","","","","","","","","null","null","null","null","null","null","","","","","","",""
"sailing-trial","8","53631","0.0-5.0-0.0-1.0-0.0","","","","false","","","","","","","","","","3303.5","","null","","null","null","arrowleft","0","null","null","","",""
"sailing-trial","9","55799","0.0-5.0-0.0-1.0-1.0","","","","false","","","","","","","","","","1042","","null","","null","null","arrowright","1","null","null","","",""
"sailing-trial","10","58612","0.0-5.0-0.0-1.0-2.0","","","","false","","","","","","","","","","1694.5999999996275","","null","","null","null","arrowleft","0","null","null","","",""
"sailing-instructions","11","99428","0.0-5.0-0.0-2.0","","","","","","","","","","","","","","null","null","null","null","0","null","","","","","","",""
"sailing-trial","12","106331","0.0-5.0-0.0-3.0-0.0","","","","false","","","","","","","","","","null","","1704.800000000745","","2","1","null","null","arrowleft","[1,1,1,1]","","",""
"sailing-trial","13","110245","0.0-5.0-0.0-3.0-1.0","","","","false","","","","","","","","","","null","","828.5","","3","1","null","null","arrowright","[1,1,1,1]","","",""
"sailing-trial","14","115663","0.0-5.0-0.0-3.0-2.0","","","","false","","","","","","","","","","null","","952.3999999985099","","3","0","null","null","arrowright","[0,0,0,0]","","",""
"sailing-instructions","15","123063","0.0-5.0-0.0-4.0","","","","","","","","","","","","","","null","null","null","null","null","null","","","","","","",""
"sailing-comprehension","16","145910","0.0-5.0-0.0-5.0","","","","","","","","","","19464.300000000745","","","","","","","","","","","","","","[""true"",""true"",""false"",""true""]","0",""
"sailing-instructions","17","206136","0.0-6.0-0.0-0.0","","","","","","","","","","","","","","null","null","null","null","null","null","","","","","","",""
"sailing-comprehension","18","226342","0.0-6.0-0.0-1.0","","","","","","","","","","16099.5","","","","","","","","","","","","","","[""true"",""false"",""true""]","0",""
"sailing-instructions","19","240436","0.0-7.0-0.0-0.0","","","","","","","","","","","","","","null","null","null","null","null","null","","","","","","",""
"sailing-trial","20","247784","0.0-7.0-0.0-1.0-0.0","","","","false","","","","","","","","","","null","","3779.699999999255","","0","0","null","null","arrowup","[0.2,0.8,0.2,0.8]","","",""
"sailing-trial","21","252797","0.0-7.0-0.0-1.0-1.0","","","","false","","","","","","","","","","null","","1989.8999999985099","","1","1","null","null","arrowup","[0.2,0.8,0.2,0.8]","","",""
"sailing-trial","22","257422","0.0-7.0-0.0-1.0-2.0","","","","false","","","","","","","","","","null","","2382.400000002235","","2","0","null","null","arrowup","[0.2,0.8,0.2,0.8]","","",""
"sailing-trial","23","261161","0.0-7.0-0.0-1.0-3.0","","","","false","","","","","","","","","","null","","1431.5","","3","1","null","null","arrowup","[0.2,0.8,0.2,0.8]","","",""
"sailing-comprehension","24","278081","0.0-7.0-0.0-2.0","","","","","","","","","","14081.10000000149","","","","","","","","","","","","","","[""false""]","0",""
"sailing-instructions","25","290100","0.0-8.0-0.0-0.0","","","","","","","","","","","","","","null","null","null","null","null","null","","","","","","",""
"sailing-comprehension","26","300153","0.0-8.0-0.0-1.0","","","","","","","","","","5826.199999999255","","","","","","","","","","","","","","[""true""]","0",""
"sailing-instructions","27","334899","0.0-9.0-0.0-0.0","","","","","","","","","","","","","","null","null","null","null","null","null","","","","","","",""
"sailing-trial","28","342431","0.0-9.0-0.0-1.0-0.0","","","","false","","","","","","","","","","2279.5","","767.9000000022352","","0","0","arrowleft","0","arrowleft","[0.2,0.8,0.2,0.8]","","",""
"sailing-trial","29","347412","0.0-9.0-0.0-1.0-1.0","","","","false","","","","","","","","","","571.8999999985099","","967.1000000014901","","2","0","arrowright","1","arrowleft","[0.2,0.8,0.2,0.8]","","",""
"sailing-trial","30","351898","0.0-9.0-0.0-1.0-2.0","","","","false","","","","","","","","","","null","","1612.5","","0","1","null","null","arrowup","[0.2,0.8,0.2,0.8]","","",""
"sailing-trial","31","356479","0.0-9.0-0.0-1.0-3.0","","","","false","","","","","","","","","","658.1999999992549","","15.099999997764826","","3","1","arrowright","1","arrowright","[0.2,0.8,0.2,0.8]","","",""
"sailing-trial","32","360125","0.0-9.0-0.0-1.0-4.0","","","","false","","","","","","","","","","null","","1687.6000000014901","","3","0","null","null","arrowup","[0.2,0.8,0.2,0.8]","","",""
"sailing-trial","33","364947","0.0-9.0-0.0-1.0-5.0","","","","false","","","","","","","","","","987","","65","","3","1","arrowright","1","arrowright","[0.2,0.8,0.2,0.8]","","",""
"sailing-instructions","34","394114","0.0-10.0","","","","","","","","","","","","","","null","null","null","null","null","null","","","","","","",""
"sailing-trial","35","405363","0.0-11.0-0.0","","","","false","","","","","","","","","","5923.10000000149","","230","","3","1","arrowright","1","arrowright","[0.675,0.325,0.15,0.85]","","",""
"sailing-trial","36","410082","0.0-11.0-1.0","","","","false","","","","","","","","","","null","","2170.699999999255","","2","0","null","null","arrowup","[0.675,0.325,0.15,0.85]","","",""
"sailing-trial","37","416906","0.0-11.0-2.0","","","","false","","","","","","","","","","862.8000000007451","","893.1999999992549","","0","0","arrowleft","0","arrowleft","[0.675,0.325,0.15,0.85]","","",""
"sailing-trial","38","421458","0.0-11.0-3.0","","","","false","","","","","","","","","","null","","1529.5","","2","0","null","null","arrowup","[0.675,0.325,0.15,0.85]","","",""
"sailing-trial","39","428072","0.0-11.0-4.0","","","","false","","","","","","","","","","1807.0999999977648","","994.4000000022352","","2","1","arrowright","1","arrowleft","[0.675,0.325,0.15,0.85]","","",""
"sailing-trial","40","432155","0.0-11.0-5.0","","","","false","","","","","","","","","","null","","1843.4000000022352","","3","1","null","null","arrowup","[0.675,0.325,0.15,0.85]","","",""
"sailing-trial","41","437971","0.0-11.0-6.0","","","","false","","","","","","","","","","1277.199999999255","","359.5999999977648","","3","1","arrowright","1","arrowright","[0.675,0.325,0.15,0.85]","","",""
"sailing-trial","42","442969","0.0-11.0-7.0","","","","false","","","","","","","","","","null","","2865.5","","3","1","null","null","arrowup","[0.675,0.325,0.15,0.85]","","",""
"sailing-trial","43","448749","0.0-11.0-8.0","","","","false","","","","","","","","","","863.5999999977648","","365","","2","0","arrowright","1","arrowleft","[0.675,0.325,0.15,0.85]","","",""
"sailing-trial","44","453264","0.0-11.0-9.0","","","","false","","","","","","","","","","null","","1496.699999999255","","1","0","null","null","arrowup","[0.675,0.325,0.15,0.85]","","",""
"sailing-trial","45","458812","0.0-11.0-10.0","","","","false","","","","","","","","","","14.100000001490116","","536.5999999977648","","3","0","arrowright","1","arrowright","[0.675,0.325,0.15,0.85]","","",""
"sailing-trial","46","463078","0.0-11.0-11.0","","","","false","","","","","","","","","","null","","1269.800000000745","","2","0","null","null","arrowup","[0.675,0.325,0.15,0.85]","","",""
"sailing-trial","47","468991","0.0-11.0-12.0","","","","false","","","","","","","","","","1105.5","","149.89999999850988","","1","1","arrowleft","0","arrowright","[0.675,0.325,0.15,0.85]","","",""
"sailing-trial","48","473041","0.0-11.0-13.0","","","","false","","","","","","","","","","null","","1255.6000000014901","","0","1","null","null","arrowup","[0.675,0.325,0.15,0.85]","","",""
"sailing-trial","49","478007","0.0-11.0-14.0","","","","false","","","","","","","","","","898.8999999985099","","158.30000000074506","","1","1","arrowleft","0","arrowright","[0.675,0.325,0.15,0.85]","","",""
"sailing-trial","50","480398","0.0-11.0-15.0","","","","false","","","","","","","","","","null","","1247.5999999977648","","2","0","null","null","arrowup","[0.675,0.325,0.15,0.85]","","",""
"sailing-trial","51","486871","0.0-11.0-16.0","","","","false","","","","","","","","","","881.5","","1216.7000000029802","","3","1","arrowright","1","arrowright","[0.675,0.325,0.15,0.85]","","",""
"sailing-trial","52","491552","0.0-11.0-17.0","","","","false","","","","","","","","","","null","","2327.89999999851","","3","1","null","null","arrowup","[0.675,0.325,0.15,0.85]","","",""
"sailing-trial","53","497466","0.0-11.0-18.0","","","","false","","","","","","","","","","1185.8999999985099","","220.19999999925494","","0","0","arrowleft","0","arrowleft","[0.15,0.85,0.675,0.325]","","",""
"sailing-trial","54","501814","0.0-11.0-19.0","","","","false","","","","","","","","","","null","","1335.1000000014901","","2","0","null","null","arrowup","[0.15,0.85,0.675,0.325]","","",""
"sailing-trial","55","508230","0.0-11.0-20.0","","","","false","","","","","","","","","","357.1000000014901","","1463","","3","0","arrowright","1","arrowright","[0.15,0.85,0.675,0.325]","","",""
"sailing-trial","56","511779","0.0-11.0-21.0","","","","false","","","","","","","","","","null","","1266.800000000745","","1","1","null","null","arrowup","[0.15,0.85,0.675,0.325]","","",""
"sailing-trial","57","519544","0.0-11.0-22.0","","","","false","","","","","","","","","","2634.199999999255","","395.8999999985099","","1","1","arrowleft","0","arrowright","[0.15,0.85,0.675,0.325]","","",""
"sailing-trial","58","524525","0.0-11.0-23.0","","","","false","","","","","","","","","","null","","1964.800000000745","","1","0","null","null","arrowup","[0.15,0.85,0.675,0.325]","","",""
"sailing-trial","59","530806","0.0-11.0-24.0","","","","false","","","","","","","","","","1190.800000000745","","214.80000000074506","","3","0","arrowright","1","arrowright","[0.15,0.85,0.675,0.325]","","",""
"sailing-trial","60","534703","0.0-11.0-25.0","","","","false","","","","","","","","","","null","","1380.7999999970198","","1","1","null","null","arrowup","[0.15,0.85,0.675,0.325]","","",""
"sailing-trial","61","540904","0.0-11.0-26.0","","","","false","","","","","","","","","","838.7000000029802","","287.5999999977648","","1","1","arrowleft","0","arrowright","[0.15,0.85,0.675,0.325]","","",""
"sailing-trial","62","544868","0.0-11.0-27.0","","","","false","","","","","","","","","","null","","1245.5","","2","1","null","null","arrowup","[0.15,0.85,0.675,0.325]","","",""
"sailing-trial","63","550065","0.0-11.0-28.0","","","","false","","","","","","","","","","919.1000000014901","","36.30000000074506","","2","1","arrowright","1","arrowleft","[0.15,0.85,0.675,0.325]","","",""
"sailing-trial","64","553629","0.0-11.0-29.0","","","","false","","","","","","","","","","null","","965.8999999985099","","0","1","null","null","arrowup","[0.15,0.85,0.675,0.325]","","",""
"sailing-trial","65","556567","0.0-11.0-30.0","","","","false","","","","","","","","","","79.60000000149012","","182.10000000149012","","0","0","arrowleft","0","arrowleft","[0.15,0.85,0.675,0.325]","","",""
"sailing-trial","66","561681","0.0-11.0-31.0","","","","false","","","","","","","","","","null","","2213.60000000149","","3","0","null","null","arrowup","[0.15,0.85,0.675,0.325]","","",""
"sailing-trial","67","567593","0.0-11.0-32.0","","","","false","","","","","","","","","","1265.2999999970198","","511.5","","3","1","arrowright","1","arrowright","[0.15,0.85,0.675,0.325]","","",""
"sailing-trial","68","571824","0.0-11.0-33.0","","","","false","","","","","","","","","","null","","2059.300000000745","","1","1","null","null","arrowup","[0.15,0.85,0.675,0.325]","","",""
"sailing-trial","69","576173","0.0-11.0-34.0","","","","false","","","","","","","","","","646.0999999977648","","102.10000000149012","","1","1","arrowleft","0","arrowright","[0.15,0.85,0.675,0.325]","","",""
"sailing-trial","70","582163","0.0-11.0-35.0","","","","false","","","","","","","","","","null","","4119.900000002235","","2","0","null","null","arrowup","[0.15,0.85,0.675,0.325]","","",""
"sailing-trial","71","586901","0.0-11.0-36.0","","","","false","","","","","","","","","","772.5999999977648","","379.70000000298023","","2","1","arrowright","1","arrowleft","[0.325,0.675,0.85,0.15]","","",""
"sailing-trial","72","591659","0.0-11.0-37.0","","","","false","","","","","","","","","","null","","3213.39999999851","","0","0","null","null","arrowup","[0.325,0.675,0.85,0.15]","","",""
"sailing-trial","73","598947","0.0-11.0-38.0","","","","false","","","","","","","","","","730.6999999992549","","979.5","","0","1","arrowleft","0","arrowleft","[0.325,0.675,0.85,0.15]","","",""
"sailing-trial","74","605411","0.0-11.0-39.0","","","","false","","","","","","","","","","null","","3156.5","","1","1","null","null","arrowup","[0.325,0.675,0.85,0.15]","","",""
"sailing-trial","75","610610","0.0-11.0-40.0","","","","false","","","","","","","","","","939.9000000022352","","93.5","","1","1","arrowleft","0","arrowright","[0.325,0.675,0.85,0.15]","","",""
"sailing-trial","76","615725","0.0-11.0-41.0","","","","false","","","","","","","","","","null","","2179.699999999255","","3","1","null","null","arrowup","[0.325,0.675,0.85,0.15]","","",""
"sailing-trial","77","620822","0.0-11.0-42.0","","","","false","","","","","","","","","","465.19999999925494","","1260","","3","0","arrowright","1","arrowright","[0.325,0.675,0.85,0.15]","","",""
"sailing-trial","78","624388","0.0-11.0-43.0","","","","false","","","","","","","","","","null","","1855.8999999985099","","1","1","null","null","arrowup","[0.325,0.675,0.85,0.15]","","",""
"sailing-trial","79","628837","0.0-11.0-44.0","","","","false","","","","","","","","","","662.3000000007451","","188.89999999850988","","1","1","arrowleft","0","arrowright","[0.325,0.675,0.85,0.15]","","",""
"sailing-trial","80","633219","0.0-11.0-45.0","","","","false","","","","","","","","","","null","","1033.9000000022352","","3","0","null","null","arrowup","[0.325,0.675,0.85,0.15]","","",""
"sailing-trial","81","638701","0.0-11.0-46.0","","","","false","","","","","","","","","","864.6999999992549","","92.5","","3","0","arrowright","1","arrowright","[0.325,0.675,0.85,0.15]","","",""
"sailing-trial","82","644068","0.0-11.0-47.0","","","","false","","","","","","","","","","null","","1950.2999999970198","","0","0","null","null","arrowup","[0.325,0.675,0.85,0.15]","","",""
"sailing-trial","83","649631","0.0-11.0-48.0","","","","false","","","","","","","","","","93.89999999850988","","114.5","","1","1","arrowleft","0","arrowright","[0.325,0.675,0.85,0.15]","","",""
"sailing-trial","84","653081","0.0-11.0-49.0","","","","false","","","","","","","","","","null","","1344.5","","2","1","null","null","arrowup","[0.325,0.675,0.85,0.15]","","",""
"sailing-trial","85","657001","0.0-11.0-50.0","","","","false","","","","","","","","","","935.6000000014901","","199.19999999925494","","1","0","arrowleft","0","arrowright","[0.325,0.675,0.85,0.15]","","",""
"sailing-trial","86","658951","0.0-11.0-51.0","","","","false","","","","","","","","","","null","","782.1999999992549","","0","0","null","null","arrowup","[0.325,0.675,0.85,0.15]","","",""
"sailing-trial","87","664495","0.0-11.0-52.0","","","","false","","","","","","","","","","820.1000000014901","","1079.1000000014901","","0","1","arrowleft","0","arrowleft","[0.85,0.15,0.325,0.675]","","",""
"sailing-trial","88","667659","0.0-11.0-53.0","","","","false","","","","","","","","","","null","","1401.5999999977648","","1","0","null","null","arrowup","[0.85,0.15,0.325,0.675]","","",""
"sailing-trial","89","672876","0.0-11.0-54.0","","","","false","","","","","","","","","","196.80000000074506","","222.69999999925494","","2","1","arrowright","1","arrowleft","[0.85,0.15,0.325,0.675]","","",""
"sailing-trial","90","677506","0.0-11.0-55.0","","","","false","","","","","","","","","","null","","1722.699999999255","","2","1","null","null","arrowup","[0.85,0.15,0.325,0.675]","","",""
"sailing-trial","91","682688","0.0-11.0-56.0","","","","false","","","","","","","","","","473.5999999977648","","33.100000001490116","","2","0","arrowright","1","arrowleft","[0.85,0.15,0.325,0.675]","","",""
"sailing-trial","92","687352","0.0-11.0-57.0","","","","false","","","","","","","","","","null","","1258.9000000022352","","1","0","null","null","arrowup","[0.85,0.15,0.325,0.675]","","",""
"sailing-trial","93","693468","0.0-11.0-58.0","","","","false","","","","","","","","","","1172.4000000022352","","354.4000000022352","","2","0","arrowright","1","arrowleft","[0.85,0.15,0.325,0.675]","","",""
"sailing-trial","94","697432","0.0-11.0-59.0","","","","false","","","","","","","","","","null","","772.8000000007451","","3","1","null","null","arrowup","[0.85,0.15,0.325,0.675]","","",""
"sailing-trial","95","702779","0.0-11.0-60.0","","","","false","","","","","","","","","","2.699999999254942","","609.5","","0","1","arrowleft","0","arrowleft","[0.85,0.15,0.325,0.675]","","",""
"sailing-trial","96","706991","0.0-11.0-61.0","","","","false","","","","","","","","","","null","","1199.4000000022352","","1","0","null","null","arrowup","[0.85,0.15,0.325,0.675]","","",""
"sailing-trial","97","712795","0.0-11.0-62.0","","","","false","","","","","","","","","","1625.199999999255","","214","","1","1","arrowleft","0","arrowright","[0.85,0.15,0.325,0.675]","","",""
"sailing-trial","98","716947","0.0-11.0-63.0","","","","false","","","","","","","","","","null","","1792.199999999255","","0","0","null","null","arrowup","[0.85,0.15,0.325,0.675]","","",""
"sailing-trial","99","720918","0.0-11.0-64.0","","","","false","","","","","","","","","","771.2999999970198","","557.1000000014901","","1","0","arrowleft","0","arrowright","[0.85,0.15,0.325,0.675]","","",""
"sailing-trial","100","725274","0.0-11.0-65.0","","","","false","","","","","","","","","","null","","1350.3999999985099","","1","0","null","null","arrowup","[0.85,0.15,0.325,0.675]","","",""
"sailing-trial","101","729388","0.0-11.0-66.0","","","","false","","","","","","","","","","645.9000000022352","","123.30000000074506","","0","1","arrowleft","0","arrowleft","[0.85,0.15,0.325,0.675]","","",""
"sailing-trial","102","732493","0.0-11.0-67.0","","","","false","","","","","","","","","","null","","1235.8999999985099","","2","0","null","null","arrowup","[0.85,0.15,0.325,0.675]","","",""
"sailing-trial","103","738601","0.0-11.0-68.0","","","","false","","","","","","","","","","705.8000000007451","","1099.8999999985099","","3","1","arrowright","1","arrowright","[0.675,0.325,0.15,0.85]","","",""
"sailing-trial","104","741998","0.0-11.0-69.0","","","","false","","","","","","","","","","null","","1264.8999999985099","","3","1","null","null","arrowup","[0.675,0.325,0.15,0.85]","","",""
"sailing-trial","105","747499","0.0-11.0-70.0","","","","false","","","","","","","","","","472","","17.700000002980232","","3","1","arrowright","1","arrowright","[0.675,0.325,0.15,0.85]","","",""
"sailing-trial","106","750829","0.0-11.0-71.0","","","","false","","","","","","","","","","null","","1362","","3","1","null","null","arrowup","[0.675,0.325,0.15,0.85]","","",""
"sailing-trial","107","754915","0.0-11.0-72.0","","","","false","","","","","","","","","","451.79999999701977","","401.69999999925494","","3","1","arrowright","1","arrowright","[0.675,0.325,0.15,0.85]","","",""
"sailing-trial","108","758399","0.0-11.0-73.0","","","","false","","","","","","","","","","null","","1846.9000000022352","","2","0","null","null","arrowup","[0.675,0.325,0.15,0.85]","","",""
"sailing-trial","109","762222","0.0-11.0-74.0","","","","false","","","","","","","","","","653","","675.1999999992549","","3","0","arrowright","1","arrowright","[0.675,0.325,0.15,0.85]","","",""
"sailing-trial","110","766993","0.0-11.0-75.0","","","","false","","","","","","","","","","null","","2092.800000000745","","3","1","null","null","arrowup","[0.675,0.325,0.15,0.85]","","",""
"sailing-trial","111","770729","0.0-11.0-76.0","","","","false","","","","","","","","","","704.1999999992549","","185.5","","2","0","arrowright","1","arrowleft","[0.675,0.325,0.15,0.85]","","",""
"sailing-trial","112","778807","0.0-11.0-77.0","","","","false","","","","","","","","","","null","","3290","","0","1","null","null","arrowup","[0.675,0.325,0.15,0.85]","","",""
"sailing-trial","113","786386","0.0-11.0-78.0","","","","false","","","","","","","","","","1105.0999999977648","","499","","0","1","arrowleft","0","arrowleft","[0.675,0.325,0.15,0.85]","","",""
"sailing-trial","114","789869","0.0-11.0-79.0","","","","false","","","","","","","","","","null","","1765.8999999985099","","2","1","null","null","arrowup","[0.675,0.325,0.15,0.85]","","",""
"sailing-trial","115","793385","0.0-11.0-80.0","","","","false","","","","","","","","","","96.10000000149012","","58.100000001490116","","3","1","arrowright","1","arrowright","[0.675,0.325,0.15,0.85]","","",""
"sailing-trial","116","796316","0.0-11.0-81.0","","","","false","","","","","","","","","","null","","1786.0999999977648","","2","0","null","null","arrowup","[0.675,0.325,0.15,0.85]","","",""
"sailing-trial","117","799329","0.0-11.0-82.0","","","","false","","","","","","","","","","101.60000000149012","","150.80000000074506","","1","0","arrowleft","0","arrowright","[0.675,0.325,0.15,0.85]","","",""
"sailing-trial","118","802241","0.0-11.0-83.0","","","","false","","","","","","","","","","null","","1208.5","","2","0","null","null","arrowup","[0.675,0.325,0.15,0.85]","","",""
"sailing-trial","119","807145","0.0-11.0-84.0","","","","false","","","","","","","","","","49.399999998509884","","151.39999999850988","","1","1","arrowleft","0","arrowright","[0.675,0.325,0.15,0.85]","","",""
"sailing-trial","120","810710","0.0-11.0-85.0","","","","false","","","","","","","","","","null","","1051.800000000745","","0","1","null","null","arrowup","[0.675,0.325,0.15,0.85]","","",""
"sailing-trial","121","815006","0.0-11.0-86.0","","","","false","","","","","","","","","","769.0999999977648","","489","","0","0","arrowleft","0","arrowleft","[0.85,0.15,0.325,0.675]","","",""
"sailing-trial","122","821107","0.0-11.0-87.0","","","","false","","","","","","","","","","null","","1288.800000000745","","0","1","null","null","arrowup","[0.85,0.15,0.325,0.675]","","",""
"sailing-trial","123","826173","0.0-11.0-88.0","","","","false","","","","","","","","","","154.30000000074506","","270.80000000074506","","3","1","arrowright","1","arrowright","[0.85,0.15,0.325,0.675]","","",""
"sailing-trial","124","833168","0.0-11.0-89.0","","","","false","","","","","","","","","","null","","3799.2999999970198","","2","1","null","null","arrowup","[0.85,0.15,0.325,0.675]","","",""
"sailing-trial","125","839552","0.0-11.0-90.0","","","","false","","","","","","","","","","794.8000000007451","","767","","1","0","arrowleft","0","arrowright","[0.85,0.15,0.325,0.675]","","",""
"sailing-trial","126","842125","0.0-11.0-91.0","","","","false","","","","","","","","","","null","","1427.5","","1","0","null","null","arrowup","[0.85,0.15,0.325,0.675]","","",""
"sailing-trial","127","847966","0.0-11.0-92.0","","","","false","","","","","","","","","","808","","155.30000000074506","","3","1","arrowright","1","arrowright","[0.85,0.15,0.325,0.675]","","",""
"sailing-trial","128","851731","0.0-11.0-93.0","","","","false","","","","","","","","","","null","","1569.699999999255","","0","1","null","null","arrowup","[0.85,0.15,0.325,0.675]","","",""
"sailing-trial","129","858761","0.0-11.0-94.0","","","","false","","","","","","","","","","792","","1336.4000000022352","","1","0","arrowleft","0","arrowright","[0.85,0.15,0.325,0.675]","","",""
"sailing-trial","130","865309","0.0-11.0-95.0","","","","false","","","","","","","","","","null","","2106.39999999851","","1","1","null","null","arrowup","[0.85,0.15,0.325,0.675]","","",""
"sailing-trial","131","870108","0.0-11.0-96.0","","","","false","","","","","","","","","","496.19999999925494","","948.6999999992549","","3","1","arrowright","1","arrowright","[0.85,0.15,0.325,0.675]","","",""
"sailing-trial","132","875573","0.0-11.0-97.0","","","","false","","","","","","","","","","null","","1836.2999999970198","","3","1","null","null","arrowup","[0.85,0.15,0.325,0.675]","","",""
"sailing-trial","133","882919","0.0-11.0-98.0","","","","false","","","","","","","","","","1970.199999999255","","851.9000000022352","","2","0","arrowright","1","arrowleft","[0.85,0.15,0.325,0.675]","","",""
"sailing-trial","134","887919","0.0-11.0-99.0","","","","false","","","","","","","","","","null","","2339.39999999851","","2","1","null","null","arrowup","[0.85,0.15,0.325,0.675]","","",""
"sailing-trial","135","902148","0.0-11.0-100.0","","","","false","","","","","","","","","","2975.5","","601","","2","1","arrowright","1","arrowleft","[0.85,0.15,0.325,0.675]","","",""
"sailing-trial","136","907446","0.0-11.0-101.0","","","","false","","","","","","","","","","null","","2854.599999997765","","1","0","null","null","arrowup","[0.85,0.15,0.325,0.675]","","",""
"sailing-trial","137","913059","0.0-11.0-102.0","","","","false","","","","","","","","","","637","","385.8999999985099","","1","0","arrowleft","0","arrowright","[0.675,0.325,0.15,0.85]","","",""
"sailing-trial","138","918291","0.0-11.0-103.0","","","","false","","","","","","","","","","null","","2240.900000002235","","3","1","null","null","arrowup","[0.675,0.325,0.15,0.85]","","",""
"sailing-trial","139","928429","0.0-11.0-104.0","","","","false","","","","","","","","","","5021.900000002235","","1080.5","","2","0","arrowright","1","arrowleft","[0.675,0.325,0.15,0.85]","","",""
"sailing-trial","140","940032","0.0-11.0-105.0","","","","false","","","","","","","","","","null","","8612.199999999255","","2","1","null","null","arrowup","[0.675,0.325,0.15,0.85]","","",""
"sailing-trial","141","945680","0.0-11.0-106.0","","","","false","","","","","","","","","","802.9000000022352","","11.300000000745058","","3","1","arrowright","1","arrowright","[0.675,0.325,0.15,0.85]","","",""
"sailing-trial","142","950381","0.0-11.0-107.0","","","","false","","","","","","","","","","null","","1692.0999999977648","","2","0","null","null","arrowup","[0.675,0.325,0.15,0.85]","","",""
"sailing-trial","143","957695","0.0-11.0-108.0","","","","false","","","","","","","","","","1509.6000000014901","","742","","1","0","arrowleft","0","arrowright","[0.675,0.325,0.15,0.85]","","",""
"sailing-trial","144","963475","0.0-11.0-109.0","","","","false","","","","","","","","","","null","","2749.89999999851","","1","0","null","null","arrowup","[0.675,0.325,0.15,0.85]","","",""
"sailing-trial","145","969743","0.0-11.0-110.0","","","","false","","","","","","","","","","1069.8999999985099","","94.10000000149012","","3","1","arrowright","1","arrowright","[0.675,0.325,0.15,0.85]","","",""
"sailing-trial","146","975723","0.0-11.0-111.0","","","","false","","","","","","","","","","null","","2887.199999999255","","0","1","null","null","arrowup","[0.675,0.325,0.15,0.85]","","",""
"sailing-trial","147","982901","0.0-11.0-112.0","","","","false","","","","","","","","","","1554.800000000745","","1046.5","","0","1","arrowleft","0","arrowleft","[0.675,0.325,0.15,0.85]","","",""
"sailing-trial","148","987982","0.0-11.0-113.0","","","","false","","","","","","","","","","null","","2333.5","","1","1","null","null","arrowup","[0.675,0.325,0.15,0.85]","","",""
"sailing-trial","149","994065","0.0-11.0-114.0","","","","false","","","","","","","","","","1161.8999999985099","","449.30000000074506","","2","0","arrowright","1","arrowleft","[0.675,0.325,0.15,0.85]","","",""
"sailing-trial","150","1001811","0.0-11.0-115.0","","","","false","","","","","","","","","","null","","4524.20000000298","","3","1","null","null","arrowup","[0.675,0.325,0.15,0.85]","","",""
"sailing-trial","151","1008078","0.0-11.0-116.0","","","","false","","","","","","","","","","865.1999999992549","","876.3000000007451","","0","0","arrowleft","0","arrowleft","[0.675,0.325,0.15,0.85]","","",""
"sailing-trial","152","1012275","0.0-11.0-117.0","","","","false","","","","","","","","","","null","","783.8999999985099","","1","0","null","null","arrowup","[0.675,0.325,0.15,0.85]","","",""
"sailing-trial","153","1017526","0.0-11.0-118.0","","","","false","","","","","","","","","","878.1999999992549","","60.29999999701977","","3","1","arrowright","1","arrowright","[0.85,0.15,0.325,0.675]","","",""
"sailing-trial","154","1024041","0.0-11.0-119.0","","","","false","","","","","","","","","","null","","453.8999999985099","","0","1","null","null","arrowup","[0.85,0.15,0.325,0.675]","","",""
"sailing-trial","155","1031137","0.0-11.0-120.0","","","","false","","","","","","","","","","1557.6000000014901","","1016.5","","1","0","arrowleft","0","arrowright","[0.85,0.15,0.325,0.675]","","",""
"sailing-trial","156","1036401","0.0-11.0-121.0","","","","false","","","","","","","","","","null","","2230.89999999851","","2","0","null","null","arrowup","[0.85,0.15,0.325,0.675]","","",""
"sailing-trial","157","1042199","0.0-11.0-122.0","","","","false","","","","","","","","","","846","","517.6000000014901","","2","1","arrowright","1","arrowleft","[0.85,0.15,0.325,0.675]","","",""
"sailing-trial","158","1050597","0.0-11.0-123.0","","","","false","","","","","","","","","","null","","4890.199999999255","","1","0","null","null","arrowup","[0.85,0.15,0.325,0.675]","","",""
"sailing-trial","159","1061327","0.0-11.0-124.0","","","","false","","","","","","","","","","5171.89999999851","","946.3999999985099","","2","0","arrowright","1","arrowleft","[0.85,0.15,0.325,0.675]","","",""
"sailing-trial","160","1065892","0.0-11.0-125.0","","","","false","","","","","","","","","","null","","1560.3999999985099","","3","0","null","null","arrowup","[0.85,0.15,0.325,0.675]","","",""
"sailing-trial","161","1073672","0.0-11.0-126.0","","","","false","","","","","","","","","","2207.2999999970198","","670.8000000007451","","2","0","arrowright","1","arrowleft","[0.85,0.15,0.325,0.675]","","",""
"sailing-trial","162","1081201","0.0-11.0-127.0","","","","false","","","","","","","","","","null","","4070.699999999255","","1","0","null","null","arrowup","[0.85,0.15,0.325,0.675]","","",""
"sailing-trial","163","1086837","0.0-11.0-128.0","","","","false","","","","","","","","","","68.69999999925494","","327.19999999925494","","3","1","arrowright","1","arrowright","[0.85,0.15,0.325,0.675]","","",""
"sailing-trial","164","1101661","0.0-11.0-129.0","","","","false","","","","","","","","","","null","","5324.300000000745","","1","1","null","null","arrowup","[0.85,0.15,0.325,0.675]","","",""
"sailing-trial","165","1108942","0.0-11.0-130.0","","","","false","","","","","","","","","","2374.699999999255","","445.80000000074506","","3","1","arrowright","1","arrowright","[0.85,0.15,0.325,0.675]","","",""
"sailing-trial","166","1116505","0.0-11.0-131.0","","","","false","","","","","","","","","","null","","4668.300000000745","","0","1","null","null","arrowup","[0.85,0.15,0.325,0.675]","","",""
"sailing-trial","167","1122207","0.0-11.0-132.0","","","","false","","","","","","","","","","49.100000001490116","","693.6999999992549","","2","0","arrowright","1","arrowleft","[0.85,0.15,0.325,0.675]","","",""
"sailing-trial","168","1126956","0.0-11.0-133.0","","","","false","","","","","","","","","","null","","1744.3999999985099","","2","0","null","null","arrowup","[0.85,0.15,0.325,0.675]","","",""
"sailing-trial","169","1132218","0.0-11.0-134.0","","","","false","","","","","","","","","","95.10000000149012","","267.19999999925494","","0","1","arrowleft","0","arrowleft","[0.675,0.325,0.15,0.85]","","",""
"sailing-trial","170","1136399","0.0-11.0-135.0","","","","false","","","","","","","","","","null","","1390.800000000745","","0","1","null","null","arrowup","[0.675,0.325,0.15,0.85]","","",""
"sailing-trial","171","1142349","0.0-11.0-136.0","","","","false","","","","","","","","","","1449.300000000745","","15.600000001490116","","1","0","arrowleft","0","arrowright","[0.675,0.325,0.15,0.85]","","",""
"sailing-trial","172","1145629","0.0-11.0-137.0","","","","false","","","","","","","","","","null","","565.8999999985099","","0","1","null","null","arrowup","[0.675,0.325,0.15,0.85]","","",""
"sailing-trial","173","1151062","0.0-11.0-138.0","","","","false","","","","","","","","","","589.3999999985099","","254.69999999925494","","0","0","arrowleft","0","arrowleft","[0.675,0.325,0.15,0.85]","","",""
"sailing-trial","174","1162358","0.0-11.0-139.0","","","","false","","","","","","","","","","null","","7845.900000002235","","2","0","null","null","arrowup","[0.675,0.325,0.15,0.85]","","",""
"sailing-trial","175","1167178","0.0-11.0-140.0","","","","false","","","","","","","","","","1249","","450.5999999977648","","1","0","arrowleft","0","arrowright","[0.675,0.325,0.15,0.85]","","",""
"sailing-trial","176","1171238","0.0-11.0-141.0","","","","false","","","","","","","","","","null","","1725.1000000014901","","3","1","null","null","arrowup","[0.675,0.325,0.15,0.85]","","",""
"sailing-trial","177","1177102","0.0-11.0-142.0","","","","false","","","","","","","","","","695.5","","1078.5","","3","1","arrowright","1","arrowright","[0.675,0.325,0.15,0.85]","","",""
"sailing-trial","178","1185216","0.0-11.0-143.0","","","","false","","","","","","","","","","null","","4945.300000000745","","0","1","null","null","arrowup","[0.675,0.325,0.15,0.85]","","",""
"sailing-trial","179","1190411","0.0-11.0-144.0","","","","false","","","","","","","","","","996","","224.59999999776483","","1","0","arrowleft","0","arrowright","[0.675,0.325,0.15,0.85]","","",""
"sailing-trial","180","1193193","0.0-11.0-145.0","","","","false","","","","","","","","","","null","","1632.8999999985099","","1","0","null","null","arrowup","[0.675,0.325,0.15,0.85]","","",""
"sailing-trial","181","1195953","0.0-11.0-146.0","","","","false","","","","","","","","","","122.60000000149012","","82.10000000149012","","2","0","arrowright","1","arrowleft","[0.675,0.325,0.15,0.85]","","",""
"sailing-trial","182","1198351","0.0-11.0-147.0","","","","false","","","","","","","","","","null","","148.70000000298023","","0","1","null","null","arrowup","[0.675,0.325,0.15,0.85]","","",""
"sailing-trial","183","1201947","0.0-11.0-148.0","","","","false","","","","","","","","","","54.70000000298023","","45.30000000074506","","3","1","arrowright","1","arrowright","[0.675,0.325,0.15,0.85]","","",""
"sailing-trial","184","1204059","0.0-11.0-149.0","","","","false","","","","","","","","","","null","","193.69999999925494","","0","1","null","null","arrowup","[0.675,0.325,0.15,0.85]","","",""
"sailing-trial","185","1207365","0.0-11.0-150.0","","","","false","","","","","","","","","","29","","40.5","","3","0","arrowright","1","arrowright","[0.675,0.325,0.15,0.85]","","",""
"sailing-trial","186","1208952","0.0-11.0-151.0","","","","false","","","","","","","","","","null","","343.5","","2","0","null","null","arrowup","[0.675,0.325,0.15,0.85]","","",""
"sailing-trial","187","1212008","0.0-11.0-152.0","","","","false","","","","","","","","","","57.80000000074506","","78.89999999850988","","2","0","arrowright","1","arrowleft","[0.675,0.325,0.15,0.85]","","",""
"sailing-trial","188","1215309","0.0-11.0-153.0","","","","false","","","","","","","","","","null","","1504.5","","2","1","null","null","arrowup","[0.675,0.325,0.15,0.85]","","",""
"sailing-trial","189","1218552","0.0-11.0-154.0","","","","false","","","","","","","","","","0.30000000074505806","","77.60000000149012","","3","0","arrowright","1","arrowright","[0.85,0.15,0.325,0.675]","","",""
"sailing-trial","190","1225157","0.0-11.0-155.0","","","","false","","","","","","","","","","null","","5374.800000000745","","2","0","null","null","arrowup","[0.85,0.15,0.325,0.675]","","",""
"sailing-trial","191","1229471","0.0-11.0-156.0","","","","false","","","","","","","","","","373.6000000014901","","137.30000000074506","","0","1","arrowleft","0","arrowleft","[0.85,0.15,0.325,0.675]","","",""
"sailing-trial","192","1231586","0.0-11.0-157.0","","","","false","","","","","","","","","","null","","4.800000000745058","","3","1","null","null","arrowup","[0.85,0.15,0.325,0.675]","","",""
"sailing-trial","193","1235320","0.0-11.0-158.0","","","","false","","","","","","","","","","11.899999998509884","","125.5","","3","1","arrowright","1","arrowright","[0.85,0.15,0.325,0.675]","","",""
"sailing-trial","194","1237286","0.0-11.0-159.0","","","","false","","","","","","","","","","null","","239.20000000298023","","3","1","null","null","arrowup","[0.85,0.15,0.325,0.675]","","",""
"sailing-trial","195","1240545","0.0-11.0-160.0","","","","false","","","","","","","","","","606.3000000007451","","106.90000000223517","","2","0","arrowright","1","arrowleft","[0.85,0.15,0.325,0.675]","","",""
"sailing-trial","196","1242915","0.0-11.0-161.0","","","","false","","","","","","","","","","null","","84.60000000149012","","0","1","null","null","arrowup","[0.85,0.15,0.325,0.675]","","",""
"sailing-trial","197","1248878","0.0-11.0-162.0","","","","false","","","","","","","","","","2734.10000000149","","22.800000000745058","","1","0","arrowleft","0","arrowright","[0.85,0.15,0.325,0.675]","","",""
"sailing-trial","198","1250268","0.0-11.0-163.0","","","","false","","","","","","","","","","null","","0.30000000074505806","","1","0","null","null","arrowup","[0.85,0.15,0.325,0.675]","","",""
"sailing-trial","199","1253861","0.0-11.0-164.0","","","","false","","","","","","","","","","103","","20","","0","1","arrowleft","0","arrowleft","[0.85,0.15,0.325,0.675]","","",""
"sailing-trial","200","1255243","0.0-11.0-165.0","","","","false","","","","","","","","","","null","","185.40000000223517","","2","0","null","null","arrowup","[0.85,0.15,0.325,0.675]","","",""
"sailing-trial","201","1258895","0.0-11.0-166.0","","","","false","","","","","","","","","","334.80000000074506","","40.5","","0","1","arrowleft","0","arrowleft","[0.85,0.15,0.325,0.675]","","",""
"sailing-trial","202","1260683","0.0-11.0-167.0","","","","false","","","","","","","","","","null","","384.6000000014901","","1","0","null","null","arrowup","[0.85,0.15,0.325,0.675]","","",""
"sailing-trial","203","1263698","0.0-11.0-168.0","","","","false","","","","","","","","","","19.199999999254942","","65.39999999850988","","1","0","arrowleft","0","arrowright","[0.85,0.15,0.325,0.675]","","",""
"sailing-trial","204","1265538","0.0-11.0-169.0","","","","false","","","","","","","","","","null","","625.1999999992549","","2","0","null","null","arrowup","[0.85,0.15,0.325,0.675]","","",""
"sailing-trial","205","1268990","0.0-11.0-170.0","","","","false","","","","","","","","","","21.400000002235174","","40.69999999925494","","0","1","arrowleft","0","arrowleft","[0.85,0.15,0.325,0.675]","","",""
"sailing-trial","206","1270971","0.0-11.0-171.0","","","","false","","","","","","","","","","null","","223.10000000149012","","3","1","null","null","arrowup","[0.85,0.15,0.325,0.675]","","",""
"sailing-trial","207","1274092","0.0-11.0-172.0","","","","false","","","","","","","","","","231","","53.69999999925494","","1","0","arrowleft","0","arrowright","[0.85,0.15,0.325,0.675]","","",""
"sailing-trial","208","1275435","0.0-11.0-173.0","","","","false","","","","","","","","","","null","","158.09999999776483","","1","0","null","null","arrowup","[0.85,0.15,0.325,0.675]","","",""
"sailing-trial","209","1279104","0.0-11.0-174.0","","","","false","","","","","","","","","","1.5","","32.899999998509884","","3","1","arrowright","1","arrowright","[0.675,0.325,0.15,0.85]","","",""
"sailing-trial","210","1280659","0.0-11.0-175.0","","","","false","","","","","","","","","","null","","35.899999998509884","","1","0","null","null","arrowup","[0.675,0.325,0.15,0.85]","","",""
"sailing-trial","211","1284636","0.0-11.0-176.0","","","","false","","","","","","","","","","819.5","","9.399999998509884","","3","1","arrowright","1","arrowright","[0.675,0.325,0.15,0.85]","","",""
"sailing-trial","212","1286007","0.0-11.0-177.0","","","","false","","","","","","","","","","null","","88.40000000223517","","0","0","null","null","arrowup","[0.675,0.325,0.15,0.85]","","",""
"sailing-trial","213","1289685","0.0-11.0-178.0","","","","false","","","","","","","","","","60.5","","38","","3","1","arrowright","1","arrowright","[0.675,0.325,0.15,0.85]","","",""
"sailing-trial","214","1290958","0.0-11.0-179.0","","","","false","","","","","","","","","","null","","100.30000000074506","","2","0","null","null","arrowup","[0.675,0.325,0.15,0.85]","","",""
"sailing-trial","215","1294714","0.0-11.0-180.0","","","","false","","","","","","","","","","58.5","","117.69999999925494","","3","1","arrowright","1","arrowright","[0.675,0.325,0.15,0.85]","","",""
"sailing-trial","216","1296001","0.0-11.0-181.0","","","","false","","","","","","","","","","null","","203","","0","0","null","null","arrowup","[0.675,0.325,0.15,0.85]","","",""
"sailing-trial","217","1299075","0.0-11.0-182.0","","","","false","","","","","","","","","","248.90000000223517","","104.69999999925494","","0","0","arrowleft","0","arrowleft","[0.675,0.325,0.15,0.85]","","",""
"sailing-trial","218","1300919","0.0-11.0-183.0","","","","false","","","","","","","","","","null","","555.7999999970198","","2","0","null","null","arrowup","[0.675,0.325,0.15,0.85]","","",""
"sailing-trial","219","1304312","0.0-11.0-184.0","","","","false","","","","","","","","","","14.399999998509884","","8.100000001490116","","1","1","arrowleft","0","arrowright","[0.675,0.325,0.15,0.85]","","",""
"sailing-trial","220","1306326","0.0-11.0-185.0","","","","false","","","","","","","","","","null","","30.900000002235174","","0","1","null","null","arrowup","[0.675,0.325,0.15,0.85]","","",""
"sailing-trial","221","1309908","0.0-11.0-186.0","","","","false","","","","","","","","","","0.9000000022351742","","496.80000000074506","","1","0","arrowleft","0","arrowright","[0.675,0.325,0.15,0.85]","","",""
"sailing-trial","222","1311455","0.0-11.0-187.0","","","","false","","","","","","","","","","null","","48.600000001490116","","3","0","null","null","arrowup","[0.675,0.325,0.15,0.85]","","",""
"sailing-trial","223","1315241","0.0-11.0-188.0","","","","false","","","","","","","","","","115.79999999701977","","152.60000000149012","","0","1","arrowleft","0","arrowleft","[0.675,0.325,0.15,0.85]","","",""
"sailing-trial","224","1316547","0.0-11.0-189.0","","","","false","","","","","","","","","","null","","160.89999999850988","","0","0","null","null","arrowup","[0.675,0.325,0.15,0.85]","","",""
"sailing-trial","225","1320221","0.0-11.0-190.0","","","","false","","","","","","","","","","125.69999999925494","","75.19999999925494","","0","1","arrowleft","0","arrowleft","[0.675,0.325,0.15,0.85]","","",""
"sailing-trial","226","1321722","0.0-11.0-191.0","","","","false","","","","","","","","","","null","","238.89999999850988","","1","0","null","null","arrowup","[0.675,0.325,0.15,0.85]","","",""
"sailing-trial","227","1325503","0.0-11.0-192.0","","","","false","","","","","","","","","","3.399999998509884","","233.5","","3","1","arrowright","1","arrowright","[0.675,0.325,0.15,0.85]","","",""
"sailing-trial","228","1327668","0.0-11.0-193.0","","","","false","","","","","","","","","","null","","429.69999999925494","","0","1","null","null","arrowup","[0.675,0.325,0.15,0.85]","","",""
"sailing-trial","229","1331203","0.0-11.0-194.0","","","","false","","","","","","","","","","41.70000000298023","","142.09999999776483","","0","1","arrowleft","0","arrowleft","[0.675,0.325,0.15,0.85]","","",""
"sailing-trial","230","1333202","0.0-11.0-195.0","","","","false","","","","","","","","","","null","","68.19999999925494","","3","1","null","null","arrowup","[0.675,0.325,0.15,0.85]","","",""
"sailing-trial","231","1337418","0.0-11.0-196.0","","","","false","","","","","","","","","","1526.199999999255","","43.69999999925494","","3","0","arrowright","1","arrowright","[0.675,0.325,0.15,0.85]","","",""
"sailing-trial","232","1338930","0.0-11.0-197.0","","","","false","","","","","","","","","","null","","482.3999999985099","","2","0","null","null","arrowup","[0.675,0.325,0.15,0.85]","","",""
"sailing-trial","233","1342565","0.0-11.0-198.0","","","","false","","","","","","","","","","255.5","","137","","0","1","arrowleft","0","arrowleft","[0.85,0.15,0.325,0.675]","","",""
"sailing-trial","234","1344024","0.0-11.0-199.0","","","","false","","","","","","","","","","null","","54.099999997764826","","0","0","null","null","arrowup","[0.85,0.15,0.325,0.675]","","",""
"sailing-trial","235","1348481","0.0-11.0-200.0","","","","false","","","","","","","","","","61.5","","287.30000000074506","","0","1","arrowleft","0","arrowleft","[0.85,0.15,0.325,0.675]","","",""
"sailing-trial","236","1350631","0.0-11.0-201.0","","","","false","","","","","","","","","","null","","424.0999999977648","","0","1","null","null","arrowup","[0.85,0.15,0.325,0.675]","","",""
"sailing-trial","237","1354746","0.0-11.0-202.0","","","","false","","","","","","","","","","833.9000000022352","","74.89999999850988","","3","1","arrowright","1","arrowright","[0.85,0.15,0.325,0.675]","","",""
"sailing-trial","238","1356019","0.0-11.0-203.0","","","","false","","","","","","","","","","null","","220","","1","0","null","null","arrowup","[0.85,0.15,0.325,0.675]","","",""
"sailing-trial","239","1359118","0.0-11.0-204.0","","","","false","","","","","","","","","","105.89999999850988","","20.900000002235174","","3","0","arrowright","1","arrowright","[0.85,0.15,0.325,0.675]","","",""
"sailing-trial","240","1360754","0.0-11.0-205.0","","","","false","","","","","","","","","","null","","384.80000000074506","","1","0","null","null","arrowup","[0.85,0.15,0.325,0.675]","","",""
"sailing-trial","241","1363643","0.0-11.0-206.0","","","","false","","","","","","","","","","0.5","","141.5","","1","0","arrowleft","0","arrowright","[0.85,0.15,0.325,0.675]","","",""
"sailing-trial","242","1365756","0.0-11.0-207.0","","","","false","","","","","","","","","","null","","145","","2","1","null","null","arrowup","[0.85,0.15,0.325,0.675]","","",""
"sailing-trial","243","1368792","0.0-11.0-208.0","","","","false","","","","","","","","","","120","","70.29999999701977","","2","0","arrowright","1","arrowleft","[0.85,0.15,0.325,0.675]","","",""
"sailing-trial","244","1371222","0.0-11.0-209.0","","","","false","","","","","","","","","","null","","670.6999999992549","","3","1","null","null","arrowup","[0.85,0.15,0.325,0.675]","","",""
"sailing-trial","245","1375008","0.0-11.0-210.0","","","","false","","","","","","","","","","2.199999999254942","","391.80000000074506","","3","1","arrowright","1","arrowright","[0.85,0.15,0.325,0.675]","","",""
"sailing-trial","246","1378288","0.0-11.0-211.0","","","","false","","","","","","","","","","null","","1153.699999999255","","0","1","null","null","arrowup","[0.85,0.15,0.325,0.675]","","",""
"sailing-trial","247","1381886","0.0-11.0-212.0","","","","false","","","","","","","","","","181.69999999925494","","121.39999999850988","","0","1","arrowleft","0","arrowleft","[0.85,0.15,0.325,0.675]","","",""
"sailing-trial","248","1384116","0.0-11.0-213.0","","","","false","","","","","","","","","","null","","298.8999999985099","","0","1","null","null","arrowup","[0.85,0.15,0.325,0.675]","","",""
"sailing-trial","249","1387507","0.0-11.0-214.0","","","","false","","","","","","","","","","58.099999997764826","","53.80000000074506","","3","0","arrowright","1","arrowright","[0.15,0.85,0.675,0.325]","","",""
"sailing-trial","250","1388983","0.0-11.0-215.0","","","","false","","","","","","","","","","null","","161.09999999776483","","0","0","null","null","arrowup","[0.15,0.85,0.675,0.325]","","",""
"sailing-trial","251","1392096","0.0-11.0-216.0","","","","false","","","","","","","","","","213.69999999925494","","71.30000000074506","","0","0","arrowleft","0","arrowleft","[0.15,0.85,0.675,0.325]","","",""
"sailing-trial","252","1394264","0.0-11.0-217.0","","","","false","","","","","","","","","","null","","206.10000000149012","","1","1","null","null","arrowup","[0.15,0.85,0.675,0.325]","","",""
"sailing-trial","253","1398246","0.0-11.0-218.0","","","","false","","","","","","","","","","145.60000000149012","","30.199999999254942","","1","1","arrowleft","0","arrowright","[0.15,0.85,0.675,0.325]","","",""
"sailing-trial","254","1400929","0.0-11.0-219.0","","","","false","","","","","","","","","","null","","971.6999999992549","","1","1","null","null","arrowup","[0.15,0.85,0.675,0.325]","","",""
"sailing-trial","255","1404378","0.0-11.0-220.0","","","","false","","","","","","","","","","72.79999999701977","","33.69999999925494","","1","1","arrowleft","0","arrowright","[0.15,0.85,0.675,0.325]","","",""
"sailing-trial","256","1406377","0.0-11.0-221.0","","","","false","","","","","","","","","","null","","157.19999999925494","","0","1","null","null","arrowup","[0.15,0.85,0.675,0.325]","","",""
"sailing-trial","257","1410126","0.0-11.0-222.0","","","","false","","","","","","","","","","1163.300000000745","","56.30000000074506","","3","0","arrowright","1","arrowright","[0.15,0.85,0.675,0.325]","","",""
"sailing-trial","258","1411658","0.0-11.0-223.0","","","","false","","","","","","","","","","null","","437","","3","0","null","null","arrowup","[0.15,0.85,0.675,0.325]","","",""
"sailing-trial","259","1415157","0.0-11.0-224.0","","","","false","","","","","","","","","","4.100000001490116","","117.59999999776483","","3","1","arrowright","1","arrowright","[0.15,0.85,0.675,0.325]","","",""
"sailing-trial","260","1416847","0.0-11.0-225.0","","","","false","","","","","","","","","","null","","116.10000000149012","","3","0","null","null","arrowup","[0.15,0.85,0.675,0.325]","","",""
"sailing-trial","261","1419817","0.0-11.0-226.0","","","","false","","","","","","","","","","12.300000000745058","","53.599999997764826","","2","0","arrowright","1","arrowleft","[0.15,0.85,0.675,0.325]","","",""
"sailing-trial","262","1421160","0.0-11.0-227.0","","","","false","","","","","","","","","","null","","201.5","","2","0","null","null","arrowup","[0.15,0.85,0.675,0.325]","","",""
"sailing-trial","263","1424539","0.0-11.0-228.0","","","","false","","","","","","","","","","169.59999999776483","","21","","2","1","arrowright","1","arrowleft","[0.15,0.85,0.675,0.325]","","",""
"sailing-trial","264","1426584","0.0-11.0-229.0","","","","false","","","","","","","","","","null","","215.5","","1","1","null","null","arrowup","[0.15,0.85,0.675,0.325]","","",""
"sailing-trial","265","1430273","0.0-11.0-230.0","","","","false","","","","","","","","","","262","","239.60000000149012","","3","0","arrowright","1","arrowright","[0.15,0.85,0.675,0.325]","","",""
"sailing-trial","266","1431577","0.0-11.0-231.0","","","","false","","","","","","","","","","null","","263.29999999701977","","3","0","null","null","arrowup","[0.15,0.85,0.675,0.325]","","",""
"sailing-trial","267","1434951","0.0-11.0-232.0","","","","false","","","","","","","","","","457.9000000022352","","170.89999999850988","","2","0","arrowright","1","arrowleft","[0.675,0.325,0.15,0.85]","","",""
"sailing-trial","268","1436580","0.0-11.0-233.0","","","","false","","","","","","","","","","null","","279.69999999925494","","2","0","null","null","arrowup","[0.675,0.325,0.15,0.85]","","",""
"sailing-trial","269","1440248","0.0-11.0-234.0","","","","false","","","","","","","","","","103.09999999776483","","67","","0","1","arrowleft","0","arrowleft","[0.675,0.325,0.15,0.85]","","",""
"sailing-trial","270","1442185","0.0-11.0-235.0","","","","false","","","","","","","","","","null","","175","","0","1","null","null","arrowup","[0.675,0.325,0.15,0.85]","","",""
"sailing-trial","271","1445311","0.0-11.0-236.0","","","","false","","","","","","","","","","102","","228","","2","0","arrowright","1","arrowleft","[0.675,0.325,0.15,0.85]","","",""
"sailing-trial","272","1446637","0.0-11.0-237.0","","","","false","","","","","","","","","","null","","238.90000000223517","","2","0","null","null","arrowup","[0.675,0.325,0.15,0.85]","","",""
"sailing-trial","273","1450245","0.0-11.0-238.0","","","","false","","","","","","","","","","106.39999999850988","","28.899999998509884","","0","1","arrowleft","0","arrowleft","[0.675,0.325,0.15,0.85]","","",""
"sailing-trial","274","1451596","0.0-11.0-239.0","","","","false","","","","","","","","","","null","","124.70000000298023","","2","0","null","null","arrowup","[0.675,0.325,0.15,0.85]","","",""
"sailing-trial","275","1455810","0.0-11.0-240.0","","","","false","","","","","","","","","","705.3000000007451","","234.30000000074506","","3","1","arrowright","1","arrowright","[0.675,0.325,0.15,0.85]","","",""
"sailing-trial","276","1457979","0.0-11.0-241.0","","","","false","","","","","","","","","","null","","437","","0","1","null","null","arrowup","[0.675,0.325,0.15,0.85]","","",""
"sailing-trial","277","1462742","0.0-11.0-242.0","","","","false","","","","","","","","","","1401.6000000014901","","189.5","","2","1","arrowright","1","arrowleft","[0.675,0.325,0.15,0.85]","","",""
"sailing-trial","278","1464278","0.0-11.0-243.0","","","","false","","","","","","","","","","null","","133.30000000074506","","2","0","null","null","arrowup","[0.675,0.325,0.15,0.85]","","",""
"sailing-trial","279","1467862","0.0-11.0-244.0","","","","false","","","","","","","","","","15.300000000745058","","453.30000000074506","","1","0","arrowleft","0","arrowright","[0.675,0.325,0.15,0.85]","","",""
"sailing-trial","280","1470256","0.0-11.0-245.0","","","","false","","","","","","","","","","null","","399.19999999925494","","3","1","null","null","arrowup","[0.675,0.325,0.15,0.85]","","",""
"sailing-trial","281","1473470","0.0-11.0-246.0","","","","false","","","","","","","","","","193.59999999776483","","155.39999999850988","","2","0","arrowright","1","arrowleft","[0.675,0.325,0.15,0.85]","","",""
"sailing-trial","282","1475179","0.0-11.0-247.0","","","","false","","","","","","","","","","null","","511.80000000074506","","1","0","null","null","arrowup","[0.675,0.325,0.15,0.85]","","",""
"sailing-trial","283","1478985","0.0-11.0-248.0","","","","false","","","","","","","","","","160.30000000074506","","198.30000000074506","","1","1","arrowleft","0","arrowright","[0.675,0.325,0.15,0.85]","","",""
"sailing-trial","284","1480952","0.0-11.0-249.0","","","","false","","","","","","","","","","null","","46","","1","1","null","null","arrowup","[0.675,0.325,0.15,0.85]","","",""
"sailing-trial","285","1484799","0.0-11.0-250.0","","","","false","","","","","","","","","","211.10000000149012","","182.09999999776483","","3","1","arrowright","1","arrowright","[0.675,0.325,0.15,0.85]","","",""
"sailing-trial","286","1494298","0.0-11.0-251.0","","","","false","","","","","","","","","","null","","3114.699999999255","","0","1","null","null","arrowup","[0.675,0.325,0.15,0.85]","","",""
"sailing-trial","287","1501231","0.0-11.0-252.0","","","","false","","","","","","","","","","1528.3999999985099","","498.6000000014901","","2","0","arrowright","1","arrowleft","[0.85,0.15,0.325,0.675]","","",""
"sailing-trial","288","1509724","0.0-11.0-253.0","","","","false","","","","","","","","","","null","","5011.800000000745","","2","0","null","null","arrowup","[0.85,0.15,0.325,0.675]","","",""
"sailing-trial","289","1516440","0.0-11.0-254.0","","","","false","","","","","","","","","","1303.5","","857.1000000014901","","2","0","arrowright","1","arrowleft","[0.85,0.15,0.325,0.675]","","",""
"sailing-trial","290","1520637","0.0-11.0-255.0","","","","false","","","","","","","","","","null","","512.0999999977648","","2","1","null","null","arrowup","[0.85,0.15,0.325,0.675]","","",""
"sailing-trial","291","1525454","0.0-11.0-256.0","","","","false","","","","","","","","","","583.1999999992549","","186.30000000074506","","2","1","arrowright","1","arrowleft","[0.85,0.15,0.325,0.675]","","",""
"sailing-trial","292","1527267","0.0-11.0-257.0","","","","false","","","","","","","","","","null","","614.3999999985099","","3","0","null","null","arrowup","[0.85,0.15,0.325,0.675]","","",""
"sailing-trial","293","1531399","0.0-11.0-258.0","","","","false","","","","","","","","","","88.10000000149012","","135.60000000149012","","2","1","arrowright","1","arrowleft","[0.85,0.15,0.325,0.675]","","",""
"sailing-trial","294","1533743","0.0-11.0-259.0","","","","false","","","","","","","","","","null","","611","","3","0","null","null","arrowup","[0.85,0.15,0.325,0.675]","","",""
"sailing-trial","295","1539031","0.0-11.0-260.0","","","","false","","","","","","","","","","40.69999999925494","","1392.1000000014901","","0","1","arrowleft","0","arrowleft","[0.85,0.15,0.325,0.675]","","",""
"sailing-trial","296","1543847","0.0-11.0-261.0","","","","false","","","","","","","","","","null","","1811.800000000745","","2","0","null","null","arrowup","[0.85,0.15,0.325,0.675]","","",""
"sailing-trial","297","1548994","0.0-11.0-262.0","","","","false","","","","","","","","","","39.099999997764826","","356.6000000014901","","1","0","arrowleft","0","arrowright","[0.85,0.15,0.325,0.675]","","",""
"sailing-trial","298","1555041","0.0-11.0-263.0","","","","false","","","","","","","","","","null","","2727.699999999255","","3","1","null","null","arrowup","[0.85,0.15,0.325,0.675]","","",""
"sailing-trial","299","1560208","0.0-11.0-264.0","","","","false","","","","","","","","","","865.1999999992549","","73.10000000149012","","3","1","arrowright","1","arrowright","[0.85,0.15,0.325,0.675]","","",""
"sailing-trial","300","1566883","0.0-11.0-265.0","","","","false","","","","","","","","","","null","","4849.5","","3","0","null","null","arrowup","[0.85,0.15,0.325,0.675]","","",""
"sailing-trial","301","1571434","0.0-11.0-266.0","","","","false","","","","","","","","","","925.4000000022352","","44.599999997764826","","1","0","arrowleft","0","arrowright","[0.85,0.15,0.325,0.675]","","",""
"sailing-trial","302","1579033","0.0-11.0-267.0","","","","false","","","","","","","","","","null","","1800.6000000014901","","3","1","null","null","arrowup","[0.85,0.15,0.325,0.675]","","",""
"sailing-trial","303","1583701","0.0-11.0-268.0","","","","false","","","","","","","","","","104","","233.69999999925494","","0","1","arrowleft","0","arrowleft","[0.85,0.15,0.325,0.675]","","",""
"sailing-trial","304","1586378","0.0-11.0-269.0","","","","false","","","","","","","","","","null","","1557.300000000745","","0","0","null","null","arrowup","[0.85,0.15,0.325,0.675]","","",""
"sailing-trial","305","1589965","0.0-11.0-270.0","","","","false","","","","","","","","","","196.39999999850988","","79.89999999850988","","3","1","arrowright","1","arrowright","[0.675,0.325,0.15,0.85]","","",""
"sailing-trial","306","1592149","0.0-11.0-271.0","","","","false","","","","","","","","","","null","","354.5999999977648","","3","1","null","null","arrowup","[0.675,0.325,0.15,0.85]","","",""
"sailing-trial","307","1595086","0.0-11.0-272.0","","","","false","","","","","","","","","","84.39999999850988","","31.5","","1","0","arrowleft","0","arrowright","[0.675,0.325,0.15,0.85]","","",""
"sailing-trial","308","1597094","0.0-11.0-273.0","","","","false","","","","","","","","","","null","","248.80000000074506","","0","1","null","null","arrowup","[0.675,0.325,0.15,0.85]","","",""
"sailing-trial","309","1600151","0.0-11.0-274.0","","","","false","","","","","","","","","","10.100000001490116","","77.59999999776483","","1","0","arrowleft","0","arrowright","[0.675,0.325,0.15,0.85]","","",""
"sailing-trial","310","1602129","0.0-11.0-275.0","","","","false","","","","","","","","","","null","","103.89999999850988","","3","1","null","null","arrowup","[0.675,0.325,0.15,0.85]","","",""
"sailing-trial","311","1605844","0.0-11.0-276.0","","","","false","","","","","","","","","","175.70000000298023","","206.90000000223517","","3","1","arrowright","1","arrowright","[0.675,0.325,0.15,0.85]","","",""
"sailing-trial","312","1609025","0.0-11.0-277.0","","","","false","","","","","","","","","","null","","1078.1000000014901","","0","1","null","null","arrowup","[0.675,0.325,0.15,0.85]","","",""
"sailing-trial","313","1613157","0.0-11.0-278.0","","","","false","","","","","","","","","","121.90000000223517","","145.89999999850988","","0","1","arrowleft","0","arrowleft","[0.675,0.325,0.15,0.85]","","",""
"sailing-trial","314","1615240","0.0-11.0-279.0","","","","false","","","","","","","","","","null","","311.5999999977648","","3","1","null","null","arrowup","[0.675,0.325,0.15,0.85]","","",""
"sailing-trial","315","1618669","0.0-11.0-280.0","","","","false","","","","","","","","","","0.5","","30.299999997019768","","1","1","arrowleft","0","arrowright","[0.675,0.325,0.15,0.85]","","",""
"sailing-trial","316","1620672","0.0-11.0-281.0","","","","false","","","","","","","","","","null","","66","","3","1","null","null","arrowup","[0.675,0.325,0.15,0.85]","","",""
"sailing-trial","317","1623506","0.0-11.0-282.0","","","","false","","","","","","","","","","48.5","","2.600000001490116","","2","0","arrowright","1","arrowleft","[0.675,0.325,0.15,0.85]","","",""
"sailing-trial","318","1625489","0.0-11.0-283.0","","","","false","","","","","","","","","","null","","14.899999998509884","","0","1","null","null","arrowup","[0.675,0.325,0.15,0.85]","","",""
"sailing-trial","319","1628455","0.0-11.0-284.0","","","","false","","","","","","","","","","243","","109.89999999850988","","2","0","arrowright","1","arrowleft","[0.675,0.325,0.15,0.85]","","",""
"sailing-trial","320","1629982","0.0-11.0-285.0","","","","false","","","","","","","","","","null","","333.8999999985099","","2","0","null","null","arrowup","[0.675,0.325,0.15,0.85]","","",""
"sailing-trial","321","1633227","0.0-11.0-286.0","","","","false","","","","","","","","","","60.5","","58.600000001490116","","1","0","arrowleft","0","arrowright","[0.85,0.15,0.325,0.675]","","",""
"sailing-trial","322","1634641","0.0-11.0-287.0","","","","false","","","","","","","","","","null","","57.399999998509884","","1","0","null","null","arrowup","[0.85,0.15,0.325,0.675]","","",""
"sailing-trial","323","1638314","0.0-11.0-288.0","","","","false","","","","","","","","","","100.19999999925494","","308.79999999701977","","0","1","arrowleft","0","arrowleft","[0.85,0.15,0.325,0.675]","","",""
"sailing-trial","324","1639983","0.0-11.0-289.0","","","","false","","","","","","","","","","null","","148.39999999850988","","2","0","null","null","arrowup","[0.85,0.15,0.325,0.675]","","",""
"sailing-trial","325","1643677","0.0-11.0-290.0","","","","false","","","","","","","","","","543.2000000029802","","1.800000000745058","","1","0","arrowleft","0","arrowright","[0.85,0.15,0.325,0.675]","","",""
"sailing-trial","326","1645209","0.0-11.0-291.0","","","","false","","","","","","","","","","null","","293.30000000074506","","3","0","null","null","arrowup","[0.85,0.15,0.325,0.675]","","",""
"sailing-trial","327","1648713","0.0-11.0-292.0","","","","false","","","","","","","","","","133.5","","123.10000000149012","","0","1","arrowleft","0","arrowleft","[0.85,0.15,0.325,0.675]","","",""
"sailing-trial","328","1649995","0.0-11.0-293.0","","","","false","","","","","","","","","","null","","197.09999999776483","","3","0","null","null","arrowup","[0.85,0.15,0.325,0.675]","","",""
"sailing-trial","329","1653135","0.0-11.0-294.0","","","","false","","","","","","","","","","62.70000000298023","","88.39999999850988","","1","0","arrowleft","0","arrowright","[0.85,0.15,0.325,0.675]","","",""
"sailing-trial","330","1655108","0.0-11.0-295.0","","","","false","","","","","","","","","","null","","116.5","","3","1","null","null","arrowup","[0.85,0.15,0.325,0.675]","","",""
"sailing-trial","331","1658944","0.0-11.0-296.0","","","","false","","","","","","","","","","76.69999999925494","","239","","3","1","arrowright","1","arrowright","[0.85,0.15,0.325,0.675]","","",""
"sailing-trial","332","1660996","0.0-11.0-297.0","","","","false","","","","","","","","","","null","","823.6000000014901","","1","0","null","null","arrowup","[0.85,0.15,0.325,0.675]","","",""
"sailing-trial","333","1664708","0.0-11.0-298.0","","","","false","","","","","","","","","","120.19999999925494","","179.19999999925494","","3","1","arrowright","1","arrowright","[0.85,0.15,0.325,0.675]","","",""
"sailing-trial","334","1666561","0.0-11.0-299.0","","","","false","","","","","","","","","","null","","362.0999999977648","","1","0","null","null","arrowup","[0.85,0.15,0.325,0.675]","","",""
"sailing-trial","335","1669655","0.0-11.0-300.0","","","","false","","","","","","","","","","86.69999999925494","","195.60000000149012","","1","0","arrowleft","0","arrowright","[0.85,0.15,0.325,0.675]","","",""
"sailing-trial","336","1672769","0.0-11.0-301.0","","","","false","","","","","","","","","","null","","984.7999999970198","","0","1","null","null","arrowup","[0.85,0.15,0.325,0.675]","","",""
"sailing-trial","337","1676351","0.0-11.0-302.0","","","","false","","","","","","","","","","19.599999997764826","","186.30000000074506","","3","1","arrowright","1","arrowright","[0.85,0.15,0.325,0.675]","","",""
"sailing-trial","338","1679235","0.0-11.0-303.0","","","","false","","","","","","","","","","null","","889.3999999985099","","0","1","null","null","arrowup","[0.85,0.15,0.325,0.675]","","",""
"sailing-trial","339","1682718","0.0-11.0-304.0","","","","false","","","","","","","","","","109","","43.79999999701977","","0","1","arrowleft","0","arrowleft","[0.85,0.15,0.325,0.675]","","",""
"sailing-trial","340","1684783","0.0-11.0-305.0","","","","false","","","","","","","","","","null","","255.40000000223517","","1","1","null","null","arrowup","[0.85,0.15,0.325,0.675]","","",""
"sailing-trial","341","1687689","0.0-11.0-306.0","","","","false","","","","","","","","","","187","","21.599999997764826","","3","0","arrowright","1","arrowright","[0.85,0.15,0.325,0.675]","","",""
"sailing-trial","342","1689832","0.0-11.0-307.0","","","","false","","","","","","","","","","null","","264.6000000014901","","3","1","null","null","arrowup","[0.85,0.15,0.325,0.675]","","",""
"sailing-trial","343","1693129","0.0-11.0-308.0","","","","false","","","","","","","","","","298.8999999985099","","35.599999997764826","","0","0","arrowleft","0","arrowleft","[0.15,0.85,0.675,0.325]","","",""
"sailing-trial","344","1694877","0.0-11.0-309.0","","","","false","","","","","","","","","","null","","638.7999999970198","","2","0","null","null","arrowup","[0.15,0.85,0.675,0.325]","","",""
"sailing-trial","345","1698825","0.0-11.0-310.0","","","","false","","","","","","","","","","488.30000000074506","","5.600000001490116","","3","1","arrowright","1","arrowright","[0.15,0.85,0.675,0.325]","","",""
"sailing-trial","346","1700223","0.0-11.0-311.0","","","","false","","","","","","","","","","null","","104.39999999850988","","0","0","null","null","arrowup","[0.15,0.85,0.675,0.325]","","",""
"sailing-trial","347","1703932","0.0-11.0-312.0","","","","false","","","","","","","","","","30","","142.59999999776483","","1","1","arrowleft","0","arrowright","[0.15,0.85,0.675,0.325]","","",""
"sailing-trial","348","1705333","0.0-11.0-313.0","","","","false","","","","","","","","","","null","","193.79999999701977","","3","0","null","null","arrowup","[0.15,0.85,0.675,0.325]","","",""
"sailing-trial","349","1708475","0.0-11.0-314.0","","","","false","","","","","","","","","","175.19999999925494","","67.20000000298023","","0","0","arrowleft","0","arrowleft","[0.15,0.85,0.675,0.325]","","",""
"sailing-trial","350","1710474","0.0-11.0-315.0","","","","false","","","","","","","","","","null","","188.10000000149012","","1","1","null","null","arrowup","[0.15,0.85,0.675,0.325]","","",""
"sailing-trial","351","1713781","0.0-11.0-316.0","","","","false","","","","","","","","","","104.39999999850988","","279.6000000014901","","0","0","arrowleft","0","arrowleft","[0.15,0.85,0.675,0.325]","","",""
"sailing-trial","352","1715737","0.0-11.0-317.0","","","","false","","","","","","","","","","null","","198.69999999925494","","2","1","null","null","arrowup","[0.15,0.85,0.675,0.325]","","",""
"sailing-trial","353","1719082","0.0-11.0-318.0","","","","false","","","","","","","","","","22.600000001490116","","212.5","","0","0","arrowleft","0","arrowleft","[0.15,0.85,0.675,0.325]","","",""
"sailing-trial","354","1721151","0.0-11.0-319.0","","","","false","","","","","","","","","","null","","348","","2","1","null","null","arrowup","[0.15,0.85,0.675,0.325]","","",""
"sailing-trial","355","1724835","0.0-11.0-320.0","","","","false","","","","","","","","","","144.19999999925494","","59.599999997764826","","1","1","arrowleft","0","arrowright","[0.15,0.85,0.675,0.325]","","",""
"sailing-trial","356","1727049","0.0-11.0-321.0","","","","false","","","","","","","","","","null","","442.80000000074506","","2","1","null","null","arrowup","[0.15,0.85,0.675,0.325]","","",""
"sailing-trial","357","1730059","0.0-11.0-322.0","","","","false","","","","","","","","","","1.199999999254942","","364.30000000074506","","3","0","arrowright","1","arrowright","[0.15,0.85,0.675,0.325]","","",""
"sailing-trial","358","1731694","0.0-11.0-323.0","","","","false","","","","","","","","","","null","","341.79999999701977","","3","0","null","null","arrowup","[0.15,0.85,0.675,0.325]","","",""
"sailing-trial","359","1734694","0.0-11.0-324.0","","","","false","","","","","","","","","","131.30000000074506","","225.30000000074506","","1","0","arrowleft","0","arrowright","[0.325,0.675,0.85,0.15]","","",""
"sailing-trial","360","1736862","0.0-11.0-325.0","","","","false","","","","","","","","","","null","","1014","","0","0","null","null","arrowup","[0.325,0.675,0.85,0.15]","","",""
"sailing-trial","361","1739955","0.0-11.0-326.0","","","","false","","","","","","","","","","204.79999999701977","","284.80000000074506","","3","0","arrowright","1","arrowright","[0.325,0.675,0.85,0.15]","","",""
"sailing-trial","362","1741996","0.0-11.0-327.0","","","","false","","","","","","","","","","null","","242.5","","0","1","null","null","arrowup","[0.325,0.675,0.85,0.15]","","",""
"sailing-trial","363","1746245","0.0-11.0-328.0","","","","false","","","","","","","","","","468.19999999925494","","252.09999999776483","","3","1","arrowright","1","arrowright","[0.325,0.675,0.85,0.15]","","",""
"sailing-trial","364","1750175","0.0-11.0-329.0","","","","false","","","","","","","","","","null","","2168.89999999851","","1","1","null","null","arrowup","[0.325,0.675,0.85,0.15]","","",""
"sailing-trial","365","1753379","0.0-11.0-330.0","","","","false","","","","","","","","","","115.19999999925494","","50.30000000074506","","0","0","arrowleft","0","arrowleft","[0.325,0.675,0.85,0.15]","","",""
"sailing-trial","366","1754878","0.0-11.0-331.0","","","","false","","","","","","","","","","null","","262.5999999977648","","3","0","null","null","arrowup","[0.325,0.675,0.85,0.15]","","",""
"sailing-trial","367","1758167","0.0-11.0-332.0","","","","false","","","","","","","","","","502.20000000298023","","66.59999999776483","","3","0","arrowright","1","arrowright","[0.325,0.675,0.85,0.15]","","",""
"sailing-trial","368","1760339","0.0-11.0-333.0","","","","false","","","","","","","","","","null","","363.30000000074506","","1","1","null","null","arrowup","[0.325,0.675,0.85,0.15]","","",""
"sailing-trial","369","1763887","0.0-11.0-334.0","","","","false","","","","","","","","","","74.10000000149012","","186.30000000074506","","0","1","arrowleft","0","arrowleft","[0.325,0.675,0.85,0.15]","","",""
"sailing-trial","370","1765413","0.0-11.0-335.0","","","","false","","","","","","","","","","null","","304.80000000074506","","1","0","null","null","arrowup","[0.325,0.675,0.85,0.15]","","",""
"sailing-trial","371","1768920","0.0-11.0-336.0","","","","false","","","","","","","","","","168.89999999850988","","35.79999999701977","","3","1","arrowright","1","arrowright","[0.325,0.675,0.85,0.15]","","",""
"sailing-trial","372","1771484","0.0-11.0-337.0","","","","false","","","","","","","","","","null","","1454.8999999985099","","3","0","null","null","arrowup","[0.325,0.675,0.85,0.15]","","",""
"sailing-trial","373","1774987","0.0-11.0-338.0","","","","false","","","","","","","","","","31.199999999254942","","348","","3","0","arrowright","1","arrowright","[0.325,0.675,0.85,0.15]","","",""
"sailing-trial","374","1777051","0.0-11.0-339.0","","","","false","","","","","","","","","","null","","141.10000000149012","","0","1","null","null","arrowup","[0.325,0.675,0.85,0.15]","","",""
"sailing-trial","375","1781984","0.0-11.0-340.0","","","","false","","","","","","","","","","1511","","84.80000000074506","","3","1","arrowright","1","arrowright","[0.325,0.675,0.85,0.15]","","",""
"sailing-trial","376","1786227","0.0-11.0-341.0","","","","false","","","","","","","","","","null","","3005.5","","1","0","null","null","arrowup","[0.325,0.675,0.85,0.15]","","",""
"sailing-trial","377","1790964","0.0-11.0-342.0","","","","false","","","","","","","","","","77.70000000298023","","1677.5999999977648","","1","0","arrowleft","0","arrowright","[0.325,0.675,0.85,0.15]","","",""
"sailing-trial","378","1793396","0.0-11.0-343.0","","","","false","","","","","","","","","","null","","283.69999999925494","","2","1","null","null","arrowup","[0.325,0.675,0.85,0.15]","","",""
"sailing-trial","379","1796572","0.0-11.0-344.0","","","","false","","","","","","","","","","181.5","","33.69999999925494","","0","0","arrowleft","0","arrowleft","[0.15,0.85,0.675,0.325]","","",""
"sailing-trial","380","1800062","0.0-11.0-345.0","","","","false","","","","","","","","","","null","","1735.5999999977648","","2","1","null","null","arrowup","[0.15,0.85,0.675,0.325]","","",""
"sailing-trial","381","1804087","0.0-11.0-346.0","","","","false","","","","","","","","","","34.100000001490116","","818.6999999992549","","2","0","arrowright","1","arrowleft","[0.15,0.85,0.675,0.325]","","",""
"sailing-trial","382","1806706","0.0-11.0-347.0","","","","false","","","","","","","","","","null","","901.9000000022352","","0","1","null","null","arrowup","[0.15,0.85,0.675,0.325]","","",""
"sailing-trial","383","1809783","0.0-11.0-348.0","","","","false","","","","","","","","","","29.199999999254942","","152.5","","2","0","arrowright","1","arrowleft","[0.15,0.85,0.675,0.325]","","",""
"sailing-trial","384","1812387","0.0-11.0-349.0","","","","false","","","","","","","","","","null","","1219.699999999255","","0","0","null","null","arrowup","[0.15,0.85,0.675,0.325]","","",""
"sailing-trial","385","1815469","0.0-11.0-350.0","","","","false","","","","","","","","","","26.900000002235174","","225.40000000223517","","3","0","arrowright","1","arrowright","[0.15,0.85,0.675,0.325]","","",""
"sailing-trial","386","1824636","0.0-11.0-351.0","","","","false","","","","","","","","","","null","","6898.89999999851","","2","1","null","null","arrowup","[0.15,0.85,0.675,0.325]","","",""
"sailing-trial","387","1829085","0.0-11.0-352.0","","","","false","","","","","","","","","","15.300000000745058","","166.69999999925494","","3","1","arrowright","1","arrowright","[0.15,0.85,0.675,0.325]","","",""
"sailing-trial","388","1833099","0.0-11.0-353.0","","","","false","","","","","","","","","","null","","2050.800000000745","","3","0","null","null","arrowup","[0.15,0.85,0.675,0.325]","","",""
"sailing-trial","389","1836895","0.0-11.0-354.0","","","","false","","","","","","","","","","566.5","","197.89999999850988","","1","0","arrowleft","0","arrowright","[0.15,0.85,0.675,0.325]","","",""
"sailing-trial","390","1839703","0.0-11.0-355.0","","","","false","","","","","","","","","","null","","1509.0999999977648","","0","0","null","null","arrowup","[0.15,0.85,0.675,0.325]","","",""
"sailing-trial","391","1844776","0.0-11.0-356.0","","","","false","","","","","","","","","","785.5","","201.80000000074506","","3","1","arrowright","1","arrowright","[0.15,0.85,0.675,0.325]","","",""
"sailing-trial","392","1847378","0.0-11.0-357.0","","","","false","","","","","","","","","","null","","495.80000000074506","","1","1","null","null","arrowup","[0.15,0.85,0.675,0.325]","","",""
"sailing-trial","393","1850781","0.0-11.0-358.0","","","","false","","","","","","","","","","301.30000000074506","","42.30000000074506","","0","0","arrowleft","0","arrowleft","[0.15,0.85,0.675,0.325]","","",""
"sailing-trial","394","1852617","0.0-11.0-359.0","","","","false","","","","","","","","","","null","","170.60000000149012","","0","0","null","null","arrowup","[0.15,0.85,0.675,0.325]","","",""
"sailing-trial","395","1856193","0.0-11.0-360.0","","","","false","","","","","","","","","","37.100000001490116","","24.699999999254942","","2","1","arrowright","1","arrowleft","[0.15,0.85,0.675,0.325]","","",""
"sailing-trial","396","1858391","0.0-11.0-361.0","","","","false","","","","","","","","","","null","","449.9000000022352","","3","1","null","null","arrowup","[0.15,0.85,0.675,0.325]","","",""
"sailing-trial","397","1861598","0.0-11.0-362.0","","","","false","","","","","","","","","","36.19999999925494","","63.899999998509884","","2","0","arrowright","1","arrowleft","[0.15,0.85,0.675,0.325]","","",""
"sailing-trial","398","1863890","0.0-11.0-363.0","","","","false","","","","","","","","","","null","","9.100000001490116","","1","1","null","null","arrowup","[0.15,0.85,0.675,0.325]","","",""
"sailing-trial","399","1866916","0.0-11.0-364.0","","","","false","","","","","","","","","","107.60000000149012","","21.800000000745058","","0","0","arrowleft","0","arrowleft","[0.15,0.85,0.675,0.325]","","",""
"sailing-trial","400","1878416","0.0-11.0-365.0","","","","false","","","","","","","","","","null","","8500.10000000149","","1","1","null","null","arrowup","[0.15,0.85,0.675,0.325]","","",""
"sailing-trial","401","1881427","0.0-11.0-366.0","","","","false","","","","","","","","","","39","","52.5","","1","0","arrowleft","0","arrowright","[0.85,0.15,0.325,0.675]","","",""
"sailing-trial","402","1883416","0.0-11.0-367.0","","","","false","","","","","","","","","","null","","81","","3","1","null","null","arrowup","[0.85,0.15,0.325,0.675]","","",""
"sailing-trial","403","1886693","0.0-11.0-368.0","","","","false","","","","","","","","","","90.10000000149012","","64","","2","0","arrowright","1","arrowleft","[0.85,0.15,0.325,0.675]","","",""
"sailing-trial","404","1888121","0.0-11.0-369.0","","","","false","","","","","","","","","","null","","167.90000000223517","","1","0","null","null","arrowup","[0.85,0.15,0.325,0.675]","","",""
"sailing-trial","405","1892147","0.0-11.0-370.0","","","","false","","","","","","","","","","188","","59.20000000298023","","0","1","arrowleft","0","arrowleft","[0.85,0.15,0.325,0.675]","","",""
"sailing-trial","406","1894499","0.0-11.0-371.0","","","","false","","","","","","","","","","null","","1163.199999999255","","3","0","null","null","arrowup","[0.85,0.15,0.325,0.675]","","",""
"sailing-trial","407","1897389","0.0-11.0-372.0","","","","false","","","","","","","","","","179.29999999701977","","64.30000000074506","","1","0","arrowleft","0","arrowright","[0.85,0.15,0.325,0.675]","","",""
"sailing-trial","408","1899395","0.0-11.0-373.0","","","","false","","","","","","","","","","null","","157.90000000223517","","3","1","null","null","arrowup","[0.85,0.15,0.325,0.675]","","",""
"sailing-trial","409","1903159","0.0-11.0-374.0","","","","false","","","","","","","","","","128.5","","118.69999999925494","","3","1","arrowright","1","arrowright","[0.85,0.15,0.325,0.675]","","",""
"sailing-trial","410","1904586","0.0-11.0-375.0","","","","false","","","","","","","","","","null","","50.899999998509884","","3","0","null","null","arrowup","[0.85,0.15,0.325,0.675]","","",""
"sailing-trial","411","1907988","0.0-11.0-376.0","","","","false","","","","","","","","","","207.10000000149012","","58.19999999925494","","2","1","arrowright","1","arrowleft","[0.85,0.15,0.325,0.675]","","",""
"sailing-trial","412","1909923","0.0-11.0-377.0","","","","false","","","","","","","","","","null","","900.1999999992549","","1","0","null","null","arrowup","[0.85,0.15,0.325,0.675]","","",""
"sailing-trial","413","1913019","0.0-11.0-378.0","","","","false","","","","","","","","","","134.69999999925494","","105.59999999776483","","2","0","arrowright","1","arrowleft","[0.85,0.15,0.325,0.675]","","",""
"sailing-trial","414","1917582","0.0-11.0-379.0","","","","false","","","","","","","","","","null","","3479.699999999255","","1","0","null","null","arrowup","[0.85,0.15,0.325,0.675]","","",""
"sailing-trial","415","1921119","0.0-11.0-380.0","","","","false","","","","","","","","","","13.600000001490116","","64.59999999776483","","2","1","arrowright","1","arrowleft","[0.85,0.15,0.325,0.675]","","",""
"sailing-trial","416","1926185","0.0-11.0-381.0","","","","false","","","","","","","","","","null","","3280.5","","0","1","null","null","arrowup","[0.85,0.15,0.325,0.675]","","",""
"sailing-trial","417","1929566","0.0-11.0-382.0","","","","false","","","","","","","","","","472.3999999985099","","168.89999999850988","","3","0","arrowright","1","arrowright","[0.675,0.325,0.15,0.85]","","",""
"sailing-trial","418","1931901","0.0-11.0-383.0","","","","false","","","","","","","","","","null","","599.5999999977648","","0","1","null","null","arrowup","[0.675,0.325,0.15,0.85]","","",""
"sailing-trial","419","1935365","0.0-11.0-384.0","","","","false","","","","","","","","","","0.8000000007450581","","112.89999999850988","","0","1","arrowleft","0","arrowleft","[0.675,0.325,0.15,0.85]","","",""
"sailing-trial","420","1938647","0.0-11.0-385.0","","","","false","","","","","","","","","","null","","1574.8999999985099","","3","1","null","null","arrowup","[0.675,0.325,0.15,0.85]","","",""
"sailing-trial","421","1942582","0.0-11.0-386.0","","","","false","","","","","","","","","","763.1999999992549","","56.600000001490116","","3","0","arrowright","1","arrowright","[0.675,0.325,0.15,0.85]","","",""
"sailing-trial","422","1943871","0.0-11.0-387.0","","","","false","","","","","","","","","","null","","48.29999999701977","","1","0","null","null","arrowup","[0.675,0.325,0.15,0.85]","","",""
"sailing-trial","423","1946953","0.0-11.0-388.0","","","","false","","","","","","","","","","23.399999998509884","","96.39999999850988","","2","0","arrowright","1","arrowleft","[0.675,0.325,0.15,0.85]","","",""
"sailing-trial","424","1948321","0.0-11.0-389.0","","","","false","","","","","","","","","","null","","169.39999999850988","","2","0","null","null","arrowup","[0.675,0.325,0.15,0.85]","","",""
"sailing-trial","425","1952681","0.0-11.0-390.0","","","","false","","","","","","","","","","1392.1000000014901","","12.800000000745058","","1","0","arrowleft","0","arrowright","[0.675,0.325,0.15,0.85]","","",""
"sailing-trial","426","1954758","0.0-11.0-391.0","","","","false","","","","","","","","","","null","","207.39999999850988","","3","1","null","null","arrowup","[0.675,0.325,0.15,0.85]","","",""
"sailing-trial","427","1958624","0.0-11.0-392.0","","","","false","","","","","","","","","","23.300000000745058","","172.89999999850988","","0","1","arrowleft","0","arrowleft","[0.675,0.325,0.15,0.85]","","",""
"sailing-trial","428","1962134","0.0-11.0-393.0","","","","false","","","","","","","","","","null","","1483.4000000022352","","2","0","null","null","arrowup","[0.675,0.325,0.15,0.85]","","",""
"sailing-trial","429","1965669","0.0-11.0-394.0","","","","false","","","","","","","","","","79.5","","171.30000000074506","","0","1","arrowleft","0","arrowleft","[0.675,0.325,0.15,0.85]","","",""
"sailing-trial","430","1967837","0.0-11.0-395.0","","","","false","","","","","","","","","","null","","154.90000000223517","","0","1","null","null","arrowup","[0.675,0.325,0.15,0.85]","","",""
"sailing-trial","431","1970905","0.0-11.0-396.0","","","","false","","","","","","","","","","0.9000000022351742","","94","","2","0","arrowright","1","arrowleft","[0.675,0.325,0.15,0.85]","","",""
"sailing-trial","432","1973250","0.0-11.0-397.0","","","","false","","","","","","","","","","null","","104.69999999925494","","1","1","null","null","arrowup","[0.675,0.325,0.15,0.85]","","",""
"sailing-trial","433","1976867","0.0-11.0-398.0","","","","false","","","","","","","","","","0.8999999985098839","","85.59999999776483","","3","1","arrowright","1","arrowright","[0.675,0.325,0.15,0.85]","","",""
"sailing-trial","434","1978323","0.0-11.0-399.0","","","","false","","","","","","","","","","null","","31.5","","2","0","null","null","arrowup","[0.675,0.325,0.15,0.85]","","",""
"instructions","435","1978334","0.0-12.0","","","","","","","","","","9.800000000745058","","","","","","","","","","","","","","","","[{""page_index"":0,""viewing_time"":9.5}]"
"survey-debrief","436","2087308","0.0-13.0","","","","","","","","","","108971.10000000149","","","","","","","","","","","","","","{""difficulty"":""3"",""fun"":""1"",""clarity"":""5"",""strategy"":""used one store until it showed an x, then waited for it to cool down by using a different store, then repeat that process."",""feedback"":""No.""}","",""
