"trial_type","trial_index","time_elapsed","internal_node_id","value","metadata","success","timeout","failed_images","failed_audio","failed_video","browser_interaction","low_quality","rt","stimulus","response","button_pressed","island_rt","island_response","boat_rt","boat_response","boat","reward","island_key","island","boat_key","reward_probabilities","responses","num_errors","view_history"
"pavlovia","0","2","0.0-0.0","","","","","","","","","","","","","","","","","","","","","","","","","",""
"call-function","1","3","0.0-1.0","","{""task_version"":""sailing_part1_v1"",""task_condition"":""good"",""boats"":[""A"",""B"",""C"",""D""],""boats_demo"":[""E"",""H"",""F"",""G""],""islands"":[""A"",""B""],""subject_id"":""13855"",""age"":""12"",""gender"":""Male""}","","","","","","","","","","","","","","","","","","","","","","","",""
"preload","2","5940","0.0-2.0","","","true","false","[]","[]","[]","[{""event"":""fullscreenenter"",""trial"":3,""time"":7863}]","false","","","","","","","","","","","","","","","","",""
"fullscreen","3","8811","0.0-3.0","","","true","","","","","","","","","","","","","","","","","","","","","","",""
"audio-keyboard-response","4","10046","0.0-4.0-0.0","","","","","","","","","","1226.6666666666665","audio/beep_loop.wav"," ","","","","","","","","","","","","","",""
"audio-test","5","11342","0.0-4.0-1.0","","","","","","","","","","null","audio/turtle.mp3","","3","","","","","","","","","","","","",""
"audio-test","6","13325","0.0-4.0-2.0","","","","","","","","","","null","audio/shark.mp3","","2","","","","","","","","","","","","",""
"sailing-instructions","7","43025","0.0-5.0-0.0-0.0","","","","","","","","","","","","","","null","null","null","null","null","null","","","","","","",""
"sailing-trial","8","47597","0.0-5.0-0.0-1.0-0.0","","","","false","","","","","","","","","","3442.399999856949","","null","","null","null","arrowleft","0","null","null","","",""
"sailing-trial","9","49813","0.0-5.0-0.0-1.0-1.0","","","","false","","","","","","","","","","1089.4000000953674","","null","","null","null","arrowright","1","null","null","","",""
"sailing-trial","10","52564","0.0-5.0-0.0-1.0-2.0","","","","false","","","","","","","","","","1589.3999998569489","","null","","null","null","arrowleft","0","null","null","","",""
"sailing-instructions","11","91696","0.0-5.0-0.0-2.0","","","","","","","","","","","","","","null","null","null","null","0","null","","","","","","",""
"sailing-trial","12","96563","0.0-5.0-0.0-3.0-0.0","","","","false","","","","","","","","","","null","","1758.4000000953674","","2","1","null","null","arrowleft","[1,1,1,1]","","",""
"sailing-trial","13","100130","0.0-5.0-0.0-3.0-1.0","","","","false","","","","","","","","","","null","","739.2999999523163","","3","1","null","null","arrowright","[1,1,1,1]","","",""
"sailing-trial","14","103703","0.0-5.0-0.0-3.0-2.0","","","","false","","","","","","","","","","null","","1188.2000000476837","","3","0","null","null","arrowright","[0,0,0,0]","","",""
"sailing-instructions","15","110918","0.0-5.0-0.0-4.0","","","","","","","","","","","","","","null","null","null","null","null","null","","","","","","",""
"sailing-comprehension","16","131207","0.0-5.0-0.0-5.0","","","","","","","","","","13088","","","","","","","","","","","","","","[""true"",""false"",""false"",""true""]","1",""
"sailing-instructions","17","158227","0.0-5.0-0.1-0.1","","","","","","","","","","","","","","null","null","null","null","null","null","","","","","","",""
"sailing-trial","18","159929","0.0-5.0-0.1-1.1-0.1","","","","false","","","","","","","","","","613.5","","null","","null","null","arrowleft","0","null","null","","",""
"sailing-trial","19","161715","0.0-5.0-0.1-1.1-1.1","","","","false","","","","","","","","","","667.7000000476837","","null","","null","null","arrowright","1","null","null","","",""
"sailing-trial","20","162964","0.0-5.0-0.1-1.1-2.1","","","","false","","","","","","","","","","125.20000004768372","","null","","null","null","arrowleft","0","null","null","","",""
"sailing-instructions","21","219478","0.0-5.0-0.1-2.1","","","","","","","","","","","","","","null","null","null","null","0","null","","","","","","",""
"sailing-trial","22","226345","0.0-5.0-0.1-3.1-0.1","","","","false","","","","","","","","","","null","","3192.899999856949","","2","1","null","null","arrowleft","[1,1,1,1]","","",""
"sailing-trial","23","228579","0.0-5.0-0.1-3.1-1.1","","","","false","","","","","","","","","","null","","22.300000190734863","","3","1","null","null","arrowright","[1,1,1,1]","","",""
"sailing-trial","24","230515","0.0-5.0-0.1-3.1-2.1","","","","false","","","","","","","","","","null","","125.10000014305115","","3","0","null","null","arrowright","[0,0,0,0]","","",""
"sailing-instructions","25","238379","0.0-5.0-0.1-4.1","","","","","","","","","","","","","","null","null","null","null","null","null","","","","","","",""
"sailing-comprehension","26","247023","0.0-5.0-0.1-5.1","","","","","","","","","","5676.099999904633","","","","","","","","","","","","","","[""true"",""true"",""false"",""true""]","0",""
"sailing-instructions","27","312159","0.0-6.0-0.0-0.0","","","","","","","","","","","","","","null","null","null","null","null","null","","","","","","",""
"sailing-comprehension","28","325090","0.0-6.0-0.0-1.0","","","","","","","","","","9146.299999952316","","","","","","","","","","","","","","[""true"",""false"",""true""]","0",""
"sailing-instructions","29","342515","0.0-7.0-0.0-0.0","","","","","","","","","","","","","","null","null","null","null","null","null","","","","","","",""
"sailing-trial","30","348143","0.0-7.0-0.0-1.0-0.0","","","","false","","","","","","","","","","null","","2672.7000000476837","","0","0","null","null","arrowup","[0.2,0.8,0.2,0.8]","","",""
"sailing-trial","31","351393","0.0-7.0-0.0-1.0-1.0","","","","false","","","","","","","","","","null","","1616.4000000953674","","1","0","null","null","arrowup","[0.2,0.8,0.2,0.8]","","",""
"sailing-trial","32","354302","0.0-7.0-0.0-1.0-2.0","","","","false","","","","","","","","","","null","","1371.7000000476837","","2","0","null","null","arrowup","[0.2,0.8,0.2,0.8]","","",""
"sailing-trial","33","357161","0.0-7.0-0.0-1.0-3.0","","","","false","","","","","","","","","","null","","793.5","","3","1","null","null","arrowup","[0.2,0.8,0.2,0.8]","","",""
"sailing-comprehension","34","369372","0.0-7.0-0.0-2.0","","","","","","","","","","10509.900000095367","","","","","","","","","","","","","","[""false""]","0",""
"sailing-instructions","35","382085","0.0-8.0-0.0-0.0","","","","","","","","","","","","","","null","null","null","null","null","null","","","","","","",""
"sailing-comprehension","36","385996","0.0-8.0-0.0-1.0","","","","","","","","","","2936","","","","","","","","","","","","","","[""true""]","0",""
"sailing-instructions","37","411605","0.0-9.0-0.0-0.0","","","","","","","","","","","","","","null","null","null","null","null","null","","","","","","",""
"sailing-trial","38","418228","0.0-9.0-0.0-1.0-0.0","","","","false","","","","","","","","","","1772.8999998569489","","992.7000000476837","","0","1","arrowleft","0","arrowleft","[0.2,0.8,0.2,0.8]","","",""
"sailing-trial","39","421997","0.0-9.0-0.0-1.0-1.0","","","","false","","","","","","","","","","778.3999998569489","","200.19999980926514","","0","0","arrowleft","0","arrowleft","[0.2,0.8,0.2,0.8]","","",""
"sailing-trial","40","426144","0.0-9.0-0.0-1.0-2.0","","","","false","","","","","","","","","","null","","1863.8000001907349","","0","1","null","null","arrowup","[0.2,0.8,0.2,0.8]","","",""
"sailing-trial","41","431892","0.0-9.0-0.0-1.0-3.0","","","","false","","","","","","","","","","1269.2000000476837","","1159.8999998569489","","1","1","arrowleft","0","arrowright","[0.2,0.8,0.2,0.8]","","",""
"sailing-trial","42","435803","0.0-9.0-0.0-1.0-4.0","","","","false","","","","","","","","","","null","","1949.2000000476837","","3","0","null","null","arrowup","[0.2,0.8,0.2,0.8]","","",""
"sailing-trial","43","440294","0.0-9.0-0.0-1.0-5.0","","","","false","","","","","","","","","","596.1999998092651","","951","","1","1","arrowleft","0","arrowright","[0.2,0.8,0.2,0.8]","","",""
"sailing-instructions","44","466439","0.0-10.0","","","","","","","","","","","","","","null","null","null","null","null","null","","","","","","",""
"sailing-trial","45","471811","0.0-11.0-0.0","","","","false","","","","","","","","","","1290","","342.2999999523163","","0","1","arrowleft","0","arrowleft","[0.675,0.325,0.15,0.85]","","",""
"sailing-trial","46","475278","0.0-11.0-1.0","","","","false","","","","","","","","","","null","","1583.6999998092651","","1","0","null","null","arrowup","[0.675,0.325,0.15,0.85]","","",""
"sailing-trial","47","480065","0.0-11.0-2.0","","","","false","","","","","","","","","","676.7999999523163","","281.5","","0","0","arrowleft","0","arrowleft","[0.675,0.325,0.15,0.85]","","",""
"sailing-trial","48","483277","0.0-11.0-3.0","","","","false","","","","","","","","","","null","","1217.2000000476837","","3","1","null","null","arrowup","[0.675,0.325,0.15,0.85]","","",""
"sailing-trial","49","487360","0.0-11.0-4.0","","","","false","","","","","","","","","","569.4000000953674","","82.70000004768372","","3","1","arrowright","1","arrowright","[0.675,0.325,0.15,0.85]","","",""
"sailing-trial","50","489972","0.0-11.0-5.0","","","","false","","","","","","","","","","null","","1124.2000000476837","","2","0","null","null","arrowup","[0.675,0.325,0.15,0.85]","","",""
"sailing-trial","51","493477","0.0-11.0-6.0","","","","false","","","","","","","","","","504.7999999523163","","28.300000190734863","","3","1","arrowright","1","arrowright","[0.675,0.325,0.15,0.85]","","",""
"sailing-trial","52","496596","0.0-11.0-7.0","","","","false","","","","","","","","","","null","","1232.5999999046326","","2","0","null","null","arrowup","[0.675,0.325,0.15,0.85]","","",""
"sailing-trial","53","500476","0.0-11.0-8.0","","","","false","","","","","","","","","","588.7999999523163","","85.79999995231628","","3","1","arrowright","1","arrowright","[0.675,0.325,0.15,0.85]","","",""
"sailing-trial","54","503634","0.0-11.0-9.0","","","","false","","","","","","","","","","null","","1452","","0","0","null","null","arrowup","[0.675,0.325,0.15,0.85]","","",""
"sailing-trial","55","507560","0.0-11.0-10.0","","","","false","","","","","","","","","","561","","412.89999985694885","","3","1","arrowright","1","arrowright","[0.675,0.325,0.15,0.85]","","",""
"sailing-trial","56","510227","0.0-11.0-11.0","","","","false","","","","","","","","","","null","","1025.9000000953674","","1","0","null","null","arrowup","[0.675,0.325,0.15,0.85]","","",""
"sailing-trial","57","514693","0.0-11.0-12.0","","","","false","","","","","","","","","","603.7999999523163","","942.7000000476837","","3","1","arrowright","1","arrowright","[0.675,0.325,0.15,0.85]","","",""
"sailing-trial","58","517384","0.0-11.0-13.0","","","","false","","","","","","","","","","null","","1066.9000000953674","","2","0","null","null","arrowup","[0.675,0.325,0.15,0.85]","","",""
"sailing-trial","59","521360","0.0-11.0-14.0","","","","false","","","","","","","","","","694.8000001907349","","302.2000000476837","","3","1","arrowright","1","arrowright","[0.675,0.325,0.15,0.85]","","",""
"sailing-trial","60","523995","0.0-11.0-15.0","","","","false","","","","","","","","","","null","","1108.8999998569489","","2","0","null","null","arrowup","[0.675,0.325,0.15,0.85]","","",""
"sailing-trial","61","527594","0.0-11.0-16.0","","","","false","","","","","","","","","","549.7999999523163","","113.09999990463257","","3","1","arrowright","1","arrowright","[0.675,0.325,0.15,0.85]","","",""
"sailing-trial","62","530023","0.0-11.0-17.0","","","","false","","","","","","","","","","null","","955.3999998569489","","3","0","null","null","arrowup","[0.675,0.325,0.15,0.85]","","",""
"sailing-trial","63","534526","0.0-11.0-18.0","","","","false","","","","","","","","","","720.2000000476837","","643.7999999523163","","3","1","arrowright","1","arrowright","[0.85,0.15,0.325,0.675]","","",""
"sailing-trial","64","536857","0.0-11.0-19.0","","","","false","","","","","","","","","","null","","745.9000000953674","","2","0","null","null","arrowup","[0.85,0.15,0.325,0.675]","","",""
"sailing-trial","65","540914","0.0-11.0-20.0","","","","false","","","","","","","","","","485.09999990463257","","335.5","","3","0","arrowright","1","arrowright","[0.85,0.15,0.325,0.675]","","",""
"sailing-trial","66","543885","0.0-11.0-21.0","","","","false","","","","","","","","","","null","","1436.7999999523163","","1","0","null","null","arrowup","[0.85,0.15,0.325,0.675]","","",""
"sailing-trial","67","548226","0.0-11.0-22.0","","","","false","","","","","","","","","","558.8999998569489","","598.9000000953674","","0","1","arrowleft","0","arrowleft","[0.85,0.15,0.325,0.675]","","",""
"sailing-trial","68","550804","0.0-11.0-23.0","","","","false","","","","","","","","","","null","","1077.2999999523163","","1","0","null","null","arrowup","[0.85,0.15,0.325,0.675]","","",""
"sailing-trial","69","555043","0.0-11.0-24.0","","","","false","","","","","","","","","","837.5999999046326","","101.80000019073486","","0","1","arrowleft","0","arrowleft","[0.85,0.15,0.325,0.675]","","",""
"sailing-trial","70","558410","0.0-11.0-25.0","","","","false","","","","","","","","","","null","","1058.5","","2","1","null","null","arrowup","[0.85,0.15,0.325,0.675]","","",""
"sailing-trial","71","562561","0.0-11.0-26.0","","","","false","","","","","","","","","","582.2000000476837","","519.7999999523163","","0","1","arrowleft","0","arrowleft","[0.85,0.15,0.325,0.675]","","",""
"sailing-trial","72","566042","0.0-11.0-27.0","","","","false","","","","","","","","","","null","","1335.9000000953674","","3","1","null","null","arrowup","[0.85,0.15,0.325,0.675]","","",""
"sailing-trial","73","570092","0.0-11.0-28.0","","","","false","","","","","","","","","","742.2999999523163","","343.7000000476837","","0","1","arrowleft","0","arrowleft","[0.85,0.15,0.325,0.675]","","",""
"sailing-trial","74","573509","0.0-11.0-29.0","","","","false","","","","","","","","","","null","","1628","","0","1","null","null","arrowup","[0.85,0.15,0.325,0.675]","","",""
"sailing-trial","75","577425","0.0-11.0-30.0","","","","false","","","","","","","","","","478.10000014305115","","371","","0","1","arrowleft","0","arrowleft","[0.85,0.15,0.325,0.675]","","",""
"sailing-trial","76","580326","0.0-11.0-31.0","","","","false","","","","","","","","","","null","","875.7999999523163","","3","1","null","null","arrowup","[0.85,0.15,0.325,0.675]","","",""
"sailing-trial","77","584358","0.0-11.0-32.0","","","","false","","","","","","","","","","552.0999999046326","","571.9000000953674","","0","1","arrowleft","0","arrowleft","[0.85,0.15,0.325,0.675]","","",""
"sailing-trial","78","587023","0.0-11.0-33.0","","","","false","","","","","","","","","","null","","1121.2999999523163","","1","0","null","null","arrowup","[0.85,0.15,0.325,0.675]","","",""
"sailing-trial","79","590507","0.0-11.0-34.0","","","","false","","","","","","","","","","484.5","","351.7000000476837","","0","0","arrowleft","0","arrowleft","[0.85,0.15,0.325,0.675]","","",""
"sailing-trial","80","593023","0.0-11.0-35.0","","","","false","","","","","","","","","","null","","1103.1999998092651","","0","0","null","null","arrowup","[0.85,0.15,0.325,0.675]","","",""
"sailing-trial","81","596826","0.0-11.0-36.0","","","","false","","","","","","","","","","517.5999999046326","","425.2999999523163","","3","1","arrowright","1","arrowright","[0.675,0.325,0.15,0.85]","","",""
"sailing-trial","82","599495","0.0-11.0-37.0","","","","false","","","","","","","","","","null","","1241.8999998569489","","1","0","null","null","arrowup","[0.675,0.325,0.15,0.85]","","",""
"sailing-trial","83","603291","0.0-11.0-38.0","","","","false","","","","","","","","","","763.4000000953674","","100.39999985694885","","3","1","arrowright","1","arrowright","[0.675,0.325,0.15,0.85]","","",""
"sailing-trial","84","605958","0.0-11.0-39.0","","","","false","","","","","","","","","","null","","825.7999999523163","","3","1","null","null","arrowup","[0.675,0.325,0.15,0.85]","","",""
"sailing-trial","85","609643","0.0-11.0-40.0","","","","false","","","","","","","","","","616.8999998569489","","135.89999985694885","","3","1","arrowright","1","arrowright","[0.675,0.325,0.15,0.85]","","",""
"sailing-trial","86","612142","0.0-11.0-41.0","","","","false","","","","","","","","","","null","","1240.9000000953674","","1","0","null","null","arrowup","[0.675,0.325,0.15,0.85]","","",""
"sailing-trial","87","616194","0.0-11.0-42.0","","","","false","","","","","","","","","","766","","334.2000000476837","","3","1","arrowright","1","arrowright","[0.675,0.325,0.15,0.85]","","",""
"sailing-trial","88","619142","0.0-11.0-43.0","","","","false","","","","","","","","","","null","","941","","0","1","null","null","arrowup","[0.675,0.325,0.15,0.85]","","",""
"sailing-trial","89","623258","0.0-11.0-44.0","","","","false","","","","","","","","","","724.3999998569489","","334.89999985694885","","3","1","arrowright","1","arrowright","[0.675,0.325,0.15,0.85]","","",""
"sailing-trial","90","625945","0.0-11.0-45.0","","","","false","","","","","","","","","","null","","1249","","2","0","null","null","arrowup","[0.675,0.325,0.15,0.85]","","",""
"sailing-trial","91","629602","0.0-11.0-46.0","","","","false","","","","","","","","","","677.6000001430511","","145.20000004768372","","3","0","arrowright","1","arrowright","[0.675,0.325,0.15,0.85]","","",""
"sailing-trial","92","632908","0.0-11.0-47.0","","","","false","","","","","","","","","","null","","999","","3","1","null","null","arrowup","[0.675,0.325,0.15,0.85]","","",""
"sailing-trial","93","636426","0.0-11.0-48.0","","","","false","","","","","","","","","","551.5999999046326","","48","","3","1","arrowright","1","arrowright","[0.675,0.325,0.15,0.85]","","",""
"sailing-trial","94","639625","0.0-11.0-49.0","","","","false","","","","","","","","","","null","","782.2999999523163","","0","1","null","null","arrowup","[0.675,0.325,0.15,0.85]","","",""
"sailing-trial","95","643021","0.0-11.0-50.0","","","","false","","","","","","","","","","597.1000001430511","","350.2000000476837","","3","0","arrowright","1","arrowright","[0.675,0.325,0.15,0.85]","","",""
"sailing-trial","96","645183","0.0-11.0-51.0","","","","false","","","","","","","","","","null","","763.2000000476837","","1","0","null","null","arrowup","[0.675,0.325,0.15,0.85]","","",""
"sailing-trial","97","648675","0.0-11.0-52.0","","","","false","","","","","","","","","","337.90000009536743","","293.90000009536743","","0","1","arrowleft","0","arrowleft","[0.675,0.325,0.15,0.85]","","",""
"sailing-trial","98","650654","0.0-11.0-53.0","","","","false","","","","","","","","","","null","","683.2999999523163","","2","0","null","null","arrowup","[0.675,0.325,0.15,0.85]","","",""
"sailing-trial","99","654641","0.0-11.0-54.0","","","","false","","","","","","","","","","538.4000000953674","","301.90000009536743","","0","1","arrowleft","0","arrowleft","[0.85,0.15,0.325,0.675]","","",""
"sailing-trial","100","657959","0.0-11.0-55.0","","","","false","","","","","","","","","","null","","1326.1000001430511","","3","1","null","null","arrowup","[0.85,0.15,0.325,0.675]","","",""
"sailing-trial","101","661691","0.0-11.0-56.0","","","","false","","","","","","","","","","495.7999999523163","","310.2999999523163","","0","1","arrowleft","0","arrowleft","[0.85,0.15,0.325,0.675]","","",""
"sailing-trial","102","663624","0.0-11.0-57.0","","","","false","","","","","","","","","","null","","497.60000014305115","","1","0","null","null","arrowup","[0.85,0.15,0.325,0.675]","","",""
"sailing-trial","103","667957","0.0-11.0-58.0","","","","false","","","","","","","","","","780.7000000476837","","386.2999999523163","","0","1","arrowleft","0","arrowleft","[0.85,0.15,0.325,0.675]","","",""
"sailing-trial","104","670811","0.0-11.0-59.0","","","","false","","","","","","","","","","null","","996.8999998569489","","3","0","null","null","arrowup","[0.85,0.15,0.325,0.675]","","",""
"sailing-trial","105","675523","0.0-11.0-60.0","","","","false","","","","","","","","","","766.6999998092651","","393.2999999523163","","0","1","arrowleft","0","arrowleft","[0.85,0.15,0.325,0.675]","","",""
"sailing-trial","106","678140","0.0-11.0-61.0","","","","false","","","","","","","","","","null","","776","","0","1","null","null","arrowup","[0.85,0.15,0.325,0.675]","","",""
"sailing-trial","107","682309","0.0-11.0-62.0","","","","false","","","","","","","","","","558","","527.0999999046326","","0","1","arrowleft","0","arrowleft","[0.85,0.15,0.325,0.675]","","",""
"sailing-trial","108","685108","0.0-11.0-63.0","","","","false","","","","","","","","","","null","","955.9000000953674","","2","1","null","null","arrowup","[0.85,0.15,0.325,0.675]","","",""
"sailing-trial","109","689607","0.0-11.0-64.0","","","","false","","","","","","","","","","750.1000001430511","","782.3000001907349","","0","1","arrowleft","0","arrowleft","[0.85,0.15,0.325,0.675]","","",""
"sailing-trial","110","691690","0.0-11.0-65.0","","","","false","","","","","","","","","","null","","752.4000000953674","","1","0","null","null","arrowup","[0.85,0.15,0.325,0.675]","","",""
"sailing-trial","111","695558","0.0-11.0-66.0","","","","false","","","","","","","","","","547.2000000476837","","397.5","","0","1","arrowleft","0","arrowleft","[0.85,0.15,0.325,0.675]","","",""
"sailing-trial","112","697678","0.0-11.0-67.0","","","","false","","","","","","","","","","null","","759.5","","2","0","null","null","arrowup","[0.85,0.15,0.325,0.675]","","",""
"sailing-trial","113","702590","0.0-11.0-68.0","","","","false","","","","","","","","","","965.5999999046326","","433.90000009536743","","0","1","arrowleft","0","arrowleft","[0.85,0.15,0.325,0.675]","","",""
"sailing-trial","114","705690","0.0-11.0-69.0","","","","false","","","","","","","","","","null","","941.6999998092651","","3","1","null","null","arrowup","[0.85,0.15,0.325,0.675]","","",""
"sailing-trial","115","710708","0.0-11.0-70.0","","","","false","","","","","","","","","","675.7000000476837","","436.60000014305115","","0","1","arrowleft","0","arrowleft","[0.85,0.15,0.325,0.675]","","",""
"sailing-trial","116","718357","0.0-11.0-71.0","","","","false","","","","","","","","","","null","","3977.2999999523163","","1","1","null","null","arrowup","[0.85,0.15,0.325,0.675]","","",""
"sailing-trial","117","723427","0.0-11.0-72.0","","","","false","","","","","","","","","","597.7999999523163","","1508.5999999046326","","0","0","arrowleft","0","arrowleft","[0.85,0.15,0.325,0.675]","","",""
"sailing-trial","118","727890","0.0-11.0-73.0","","","","false","","","","","","","","","","null","","2296.5999999046326","","0","1","null","null","arrowup","[0.85,0.15,0.325,0.675]","","",""
"sailing-trial","119","732507","0.0-11.0-74.0","","","","false","","","","","","","","","","708.2999999523163","","358.80000019073486","","0","1","arrowleft","0","arrowleft","[0.85,0.15,0.325,0.675]","","",""
"sailing-trial","120","735685","0.0-11.0-75.0","","","","false","","","","","","","","","","null","","1494.8999998569489","","3","0","null","null","arrowup","[0.85,0.15,0.325,0.675]","","",""
"sailing-trial","121","740056","0.0-11.0-76.0","","","","false","","","","","","","","","","672.7999999523163","","147.89999985694885","","0","1","arrowleft","0","arrowleft","[0.85,0.15,0.325,0.675]","","",""
"sailing-trial","122","743189","0.0-11.0-77.0","","","","false","","","","","","","","","","null","","1318.7000000476837","","1","0","null","null","arrowup","[0.85,0.15,0.325,0.675]","","",""
"sailing-trial","123","748856","0.0-11.0-78.0","","","","false","","","","","","","","","","698.1000001430511","","776.5999999046326","","0","1","arrowleft","0","arrowleft","[0.675,0.325,0.15,0.85]","","",""
"sailing-trial","124","752107","0.0-11.0-79.0","","","","false","","","","","","","","","","null","","1040","","3","1","null","null","arrowup","[0.675,0.325,0.15,0.85]","","",""
"sailing-trial","125","756039","0.0-11.0-80.0","","","","false","","","","","","","","","","694.7999999523163","","116","","0","1","arrowleft","0","arrowleft","[0.675,0.325,0.15,0.85]","","",""
"sailing-trial","126","758915","0.0-11.0-81.0","","","","false","","","","","","","","","","null","","1267.0999999046326","","1","0","null","null","arrowup","[0.675,0.325,0.15,0.85]","","",""
"sailing-trial","127","762890","0.0-11.0-82.0","","","","false","","","","","","","","","","655.1000001430511","","42.299999952316284","","0","1","arrowleft","0","arrowleft","[0.675,0.325,0.15,0.85]","","",""
"sailing-trial","128","765681","0.0-11.0-83.0","","","","false","","","","","","","","","","null","","1613.5999999046326","","1","0","null","null","arrowup","[0.675,0.325,0.15,0.85]","","",""
"sailing-trial","129","769474","0.0-11.0-84.0","","","","false","","","","","","","","","","722.7999999523163","","48.700000047683716","","0","1","arrowleft","0","arrowleft","[0.675,0.325,0.15,0.85]","","",""
"sailing-trial","130","772090","0.0-11.0-85.0","","","","false","","","","","","","","","","null","","675.3000001907349","","3","1","null","null","arrowup","[0.675,0.325,0.15,0.85]","","",""
"sailing-trial","131","775305","0.0-11.0-86.0","","","","false","","","","","","","","","","503.5","","220.20000004768372","","0","0","arrowleft","0","arrowleft","[0.675,0.325,0.15,0.85]","","",""
"sailing-trial","132","779039","0.0-11.0-87.0","","","","false","","","","","","","","","","null","","1548.8000001907349","","3","1","null","null","arrowup","[0.675,0.325,0.15,0.85]","","",""
"sailing-trial","133","782466","0.0-11.0-88.0","","","","false","","","","","","","","","","427.10000014305115","","164.79999995231628","","3","0","arrowright","1","arrowright","[0.675,0.325,0.15,0.85]","","",""
"sailing-trial","134","785839","0.0-11.0-89.0","","","","false","","","","","","","","","","null","","1374.6999998092651","","3","1","null","null","arrowup","[0.675,0.325,0.15,0.85]","","",""
"sailing-trial","135","789923","0.0-11.0-90.0","","","","false","","","","","","","","","","753.5999999046326","","298.2999999523163","","0","1","arrowleft","0","arrowleft","[0.675,0.325,0.15,0.85]","","",""
"sailing-trial","136","792855","0.0-11.0-91.0","","","","false","","","","","","","","","","null","","1101","","2","1","null","null","arrowup","[0.675,0.325,0.15,0.85]","","",""
"sailing-trial","137","797256","0.0-11.0-92.0","","","","false","","","","","","","","","","820.5","","239.5","","0","1","arrowleft","0","arrowleft","[0.675,0.325,0.15,0.85]","","",""
"sailing-trial","138","799342","0.0-11.0-93.0","","","","false","","","","","","","","","","null","","796.7000000476837","","1","0","null","null","arrowup","[0.675,0.325,0.15,0.85]","","",""
"sailing-trial","139","802788","0.0-11.0-94.0","","","","false","","","","","","","","","","1013.6999998092651","","16.5","","0","0","arrowleft","0","arrowleft","[0.675,0.325,0.15,0.85]","","",""
"sailing-trial","140","805362","0.0-11.0-95.0","","","","false","","","","","","","","","","null","","1236.9000000953674","","1","0","null","null","arrowup","[0.675,0.325,0.15,0.85]","","",""
"sailing-trial","141","809171","0.0-11.0-96.0","","","","false","","","","","","","","","","735","","307.5","","3","0","arrowright","1","arrowright","[0.325,0.675,0.85,0.15]","","",""
"sailing-trial","142","811440","0.0-11.0-97.0","","","","false","","","","","","","","","","null","","1010.9000000953674","","3","0","null","null","arrowup","[0.325,0.675,0.85,0.15]","","",""
"sailing-trial","143","815175","0.0-11.0-98.0","","","","false","","","","","","","","","","759.7000000476837","","265.39999985694885","","2","0","arrowright","1","arrowleft","[0.325,0.675,0.85,0.15]","","",""
"sailing-trial","144","817990","0.0-11.0-99.0","","","","false","","","","","","","","","","null","","1010.2999999523163","","2","1","null","null","arrowup","[0.325,0.675,0.85,0.15]","","",""
"sailing-trial","145","821243","0.0-11.0-100.0","","","","false","","","","","","","","","","543.2000000476837","","223.70000004768372","","0","0","arrowleft","0","arrowleft","[0.325,0.675,0.85,0.15]","","",""
"sailing-trial","146","823874","0.0-11.0-101.0","","","","false","","","","","","","","","","null","","869.8999998569489","","0","1","null","null","arrowup","[0.325,0.675,0.85,0.15]","","",""
"sailing-trial","147","829050","0.0-11.0-102.0","","","","false","","","","","","","","","","951","","1418.6000001430511","","2","0","arrowright","1","arrowleft","[0.325,0.675,0.85,0.15]","","",""
"sailing-trial","148","831980","0.0-11.0-103.0","","","","false","","","","","","","","","","null","","1395.2000000476837","","3","0","null","null","arrowup","[0.325,0.675,0.85,0.15]","","",""
"sailing-trial","149","836023","0.0-11.0-104.0","","","","false","","","","","","","","","","735.5999999046326","","229.09999990463257","","0","1","arrowleft","0","arrowleft","[0.325,0.675,0.85,0.15]","","",""
"sailing-trial","150","838519","0.0-11.0-105.0","","","","false","","","","","","","","","","null","","877.7000000476837","","0","0","null","null","arrowup","[0.325,0.675,0.85,0.15]","","",""
"sailing-trial","151","843024","0.0-11.0-106.0","","","","false","","","","","","","","","","1347.7999999523163","","155.5","","1","1","arrowleft","0","arrowright","[0.325,0.675,0.85,0.15]","","",""
"sailing-trial","152","845473","0.0-11.0-107.0","","","","false","","","","","","","","","","null","","643.2999999523163","","1","1","null","null","arrowup","[0.325,0.675,0.85,0.15]","","",""
"sailing-trial","153","848800","0.0-11.0-108.0","","","","false","","","","","","","","","","638.7999999523163","","154.59999990463257","","1","0","arrowleft","0","arrowright","[0.325,0.675,0.85,0.15]","","",""
"sailing-trial","154","850653","0.0-11.0-109.0","","","","false","","","","","","","","","","null","","516.5","","0","0","null","null","arrowup","[0.325,0.675,0.85,0.15]","","",""
"sailing-trial","155","853977","0.0-11.0-110.0","","","","false","","","","","","","","","","667.6999998092651","","165.40000009536743","","2","0","arrowright","1","arrowleft","[0.325,0.675,0.85,0.15]","","",""
"sailing-trial","156","856406","0.0-11.0-111.0","","","","false","","","","","","","","","","null","","672.1999998092651","","0","1","null","null","arrowup","[0.325,0.675,0.85,0.15]","","",""
"sailing-trial","157","860306","0.0-11.0-112.0","","","","false","","","","","","","","","","648.7000000476837","","240.09999990463257","","1","1","arrowleft","0","arrowright","[0.325,0.675,0.85,0.15]","","",""
"sailing-trial","158","862108","0.0-11.0-113.0","","","","false","","","","","","","","","","null","","514.8000001907349","","3","0","null","null","arrowup","[0.325,0.675,0.85,0.15]","","",""
"sailing-trial","159","865959","0.0-11.0-114.0","","","","false","","","","","","","","","","729.2999999523163","","316.19999980926514","","1","0","arrowleft","0","arrowright","[0.675,0.325,0.15,0.85]","","",""
"sailing-trial","160","868094","0.0-11.0-115.0","","","","false","","","","","","","","","","null","","805.7999999523163","","0","0","null","null","arrowup","[0.675,0.325,0.15,0.85]","","",""
"sailing-trial","161","872097","0.0-11.0-116.0","","","","false","","","","","","","","","","1436.7999999523163","","173.29999995231628","","1","0","arrowleft","0","arrowright","[0.675,0.325,0.15,0.85]","","",""
"sailing-trial","162","874052","0.0-11.0-117.0","","","","false","","","","","","","","","","null","","596.6000001430511","","2","0","null","null","arrowup","[0.675,0.325,0.15,0.85]","","",""
"sailing-trial","163","877871","0.0-11.0-118.0","","","","false","","","","","","","","","","702.6999998092651","","234.20000004768372","","3","1","arrowright","1","arrowright","[0.675,0.325,0.15,0.85]","","",""
"sailing-trial","164","880356","0.0-11.0-119.0","","","","false","","","","","","","","","","null","","684.9000000953674","","3","1","null","null","arrowup","[0.675,0.325,0.15,0.85]","","",""
"sailing-trial","165","884206","0.0-11.0-120.0","","","","false","","","","","","","","","","496.7999999523163","","189.60000014305115","","3","1","arrowright","1","arrowright","[0.675,0.325,0.15,0.85]","","",""
"sailing-trial","166","886070","0.0-11.0-121.0","","","","false","","","","","","","","","","null","","682.2999999523163","","1","0","null","null","arrowup","[0.675,0.325,0.15,0.85]","","",""
"sailing-trial","167","890705","0.0-11.0-122.0","","","","false","","","","","","","","","","1441.2000000476837","","380.10000014305115","","3","1","arrowright","1","arrowright","[0.675,0.325,0.15,0.85]","","",""
"sailing-trial","168","892334","0.0-11.0-123.0","","","","false","","","","","","","","","","null","","530.1999998092651","","2","0","null","null","arrowup","[0.675,0.325,0.15,0.85]","","",""
"sailing-trial","169","896274","0.0-11.0-124.0","","","","false","","","","","","","","","","726","","276.5","","3","1","arrowright","1","arrowright","[0.675,0.325,0.15,0.85]","","",""
"sailing-trial","170","898640","0.0-11.0-125.0","","","","false","","","","","","","","","","null","","632.4000000953674","","0","1","null","null","arrowup","[0.675,0.325,0.15,0.85]","","",""
"sailing-trial","171","902022","0.0-11.0-126.0","","","","false","","","","","","","","","","432.69999980926514","","256","","3","1","arrowright","1","arrowright","[0.675,0.325,0.15,0.85]","","",""
"sailing-trial","172","904655","0.0-11.0-127.0","","","","false","","","","","","","","","","null","","612.8999998569489","","1","0","null","null","arrowup","[0.675,0.325,0.15,0.85]","","",""
"sailing-trial","173","908706","0.0-11.0-128.0","","","","false","","","","","","","","","","612.7999999523163","","234.40000009536743","","3","1","arrowright","1","arrowright","[0.675,0.325,0.15,0.85]","","",""
"sailing-trial","174","911103","0.0-11.0-129.0","","","","false","","","","","","","","","","null","","1091.7000000476837","","1","0","null","null","arrowup","[0.675,0.325,0.15,0.85]","","",""
"sailing-trial","175","914938","0.0-11.0-130.0","","","","false","","","","","","","","","","703.2999999523163","","307.7000000476837","","3","1","arrowright","1","arrowright","[0.85,0.15,0.325,0.675]","","",""
"sailing-trial","176","917238","0.0-11.0-131.0","","","","false","","","","","","","","","","null","","678.2999999523163","","3","1","null","null","arrowup","[0.85,0.15,0.325,0.675]","","",""
"sailing-trial","177","920922","0.0-11.0-132.0","","","","false","","","","","","","","","","602.5","","135.59999990463257","","3","1","arrowright","1","arrowright","[0.85,0.15,0.325,0.675]","","",""
"sailing-trial","178","922742","0.0-11.0-133.0","","","","false","","","","","","","","","","null","","773.6999998092651","","3","0","null","null","arrowup","[0.85,0.15,0.325,0.675]","","",""
"sailing-trial","179","926239","0.0-11.0-134.0","","","","false","","","","","","","","","","430.2999999523163","","180.19999980926514","","0","1","arrowleft","0","arrowleft","[0.85,0.15,0.325,0.675]","","",""
"sailing-trial","180","928871","0.0-11.0-135.0","","","","false","","","","","","","","","","null","","778.0999999046326","","3","1","null","null","arrowup","[0.85,0.15,0.325,0.675]","","",""
"sailing-trial","181","932605","0.0-11.0-136.0","","","","false","","","","","","","","","","745.5","","59.700000047683716","","3","1","arrowright","1","arrowright","[0.85,0.15,0.325,0.675]","","",""
"sailing-trial","182","935232","0.0-11.0-137.0","","","","false","","","","","","","","","","null","","496.2999999523163","","2","0","null","null","arrowup","[0.85,0.15,0.325,0.675]","","",""
"sailing-trial","183","938806","0.0-11.0-138.0","","","","false","","","","","","","","","","636.4000000953674","","177.70000004768372","","3","1","arrowright","1","arrowright","[0.85,0.15,0.325,0.675]","","",""
"sailing-trial","184","940687","0.0-11.0-139.0","","","","false","","","","","","","","","","null","","709.7999999523163","","1","0","null","null","arrowup","[0.85,0.15,0.325,0.675]","","",""
"sailing-trial","185","944871","0.0-11.0-140.0","","","","false","","","","","","","","","","853.2000000476837","","139.39999985694885","","3","1","arrowright","1","arrowright","[0.85,0.15,0.325,0.675]","","",""
"sailing-trial","186","947190","0.0-11.0-141.0","","","","false","","","","","","","","","","null","","1105.5999999046326","","3","0","null","null","arrowup","[0.85,0.15,0.325,0.675]","","",""
"sailing-trial","187","950821","0.0-11.0-142.0","","","","false","","","","","","","","","","614.8999998569489","","61.09999990463257","","3","1","arrowright","1","arrowright","[0.85,0.15,0.325,0.675]","","",""
"sailing-trial","188","952948","0.0-11.0-143.0","","","","false","","","","","","","","","","null","","673.5","","1","0","null","null","arrowup","[0.85,0.15,0.325,0.675]","","",""
"sailing-trial","189","956035","0.0-11.0-144.0","","","","false","","","","","","","","","","488.2000000476837","","169.5","","0","0","arrowleft","0","arrowleft","[0.85,0.15,0.325,0.675]","","",""
"sailing-trial","190","958521","0.0-11.0-145.0","","","","false","","","","","","","","","","null","","817.2999999523163","","3","1","null","null","arrowup","[0.85,0.15,0.325,0.675]","","",""
"sailing-trial","191","961405","0.0-11.0-146.0","","","","false","","","","","","","","","","72","","179.20000004768372","","3","1","arrowright","1","arrowright","[0.85,0.15,0.325,0.675]","","",""
"sailing-trial","192","962573","0.0-11.0-147.0","","","","false","","","","","","","","","","null","","23.899999856948853","","3","0","null","null","arrowup","[0.85,0.15,0.325,0.675]","","",""
"sailing-trial","193","967062","0.0-11.0-148.0","","","","false","","","","","","","","","","2113","","65.40000009536743","","1","0","arrowleft","0","arrowright","[0.85,0.15,0.325,0.675]","","",""
"sailing-trial","194","969038","0.0-11.0-149.0","","","","false","","","","","","","","","","null","","367.5","","0","1","null","null","arrowup","[0.85,0.15,0.325,0.675]","","",""
"sailing-trial","195","971928","0.0-11.0-150.0","","","","false","","","","","","","","","","112","","56.799999952316284","","0","0","arrowleft","0","arrowleft","[0.675,0.325,0.15,0.85]","","",""
"sailing-trial","196","973417","0.0-11.0-151.0","","","","false","","","","","","","","","","null","","182.60000014305115","","1","0","null","null","arrowup","[0.675,0.325,0.15,0.85]","","",""
"sailing-trial","197","976505","0.0-11.0-152.0","","","","false","","","","","","","","","","147.59999990463257","","151.29999995231628","","3","1","arrowright","1","arrowright","[0.675,0.325,0.15,0.85]","","",""
"sailing-trial","198","979021","0.0-11.0-153.0","","","","false","","","","","","","","","","null","","774.5","","2","1","null","null","arrowup","[0.675,0.325,0.15,0.85]","","",""
"sailing-trial","199","982554","0.0-11.0-154.0","","","","false","","","","","","","","","","176","","181.09999990463257","","3","1","arrowright","1","arrowright","[0.675,0.325,0.15,0.85]","","",""
"sailing-trial","200","984380","0.0-11.0-155.0","","","","false","","","","","","","","","","null","","756.6000001430511","","2","0","null","null","arrowup","[0.675,0.325,0.15,0.85]","","",""
"sailing-trial","201","988038","0.0-11.0-156.0","","","","false","","","","","","","","","","530.9000000953674","","72","","3","1","arrowright","1","arrowright","[0.675,0.325,0.15,0.85]","","",""
"sailing-trial","202","990420","0.0-11.0-157.0","","","","false","","","","","","","","","","null","","757.9000000953674","","3","1","null","null","arrowup","[0.675,0.325,0.15,0.85]","","",""
"sailing-trial","203","994355","0.0-11.0-158.0","","","","false","","","","","","","","","","535.4000000953674","","327.7999999523163","","3","1","arrowright","1","arrowright","[0.675,0.325,0.15,0.85]","","",""
"sailing-trial","204","995922","0.0-11.0-159.0","","","","false","","","","","","","","","","null","","398.7000000476837","","2","0","null","null","arrowup","[0.675,0.325,0.15,0.85]","","",""
"sailing-trial","205","1000155","0.0-11.0-160.0","","","","false","","","","","","","","","","897.9000000953674","","476.39999985694885","","3","1","arrowright","1","arrowright","[0.675,0.325,0.15,0.85]","","",""
"sailing-trial","206","1002354","0.0-11.0-161.0","","","","false","","","","","","","","","","null","","545.5","","0","1","null","null","arrowup","[0.675,0.325,0.15,0.85]","","",""
"sailing-trial","207","1005572","0.0-11.0-162.0","","","","false","","","","","","","","","","455.2999999523163","","62.90000009536743","","3","1","arrowright","1","arrowright","[0.675,0.325,0.15,0.85]","","",""
"sailing-trial","208","1007561","0.0-11.0-163.0","","","","false","","","","","","","","","","null","","623","","0","0","null","null","arrowup","[0.675,0.325,0.15,0.85]","","",""
"sailing-trial","209","1010628","0.0-11.0-164.0","","","","false","","","","","","","","","","531.2999999523163","","340","","3","0","arrowright","1","arrowright","[0.675,0.325,0.15,0.85]","","",""
"sailing-trial","210","1013405","0.0-11.0-165.0","","","","false","","","","","","","","","","null","","500","","3","1","null","null","arrowup","[0.675,0.325,0.15,0.85]","","",""
"sailing-trial","211","1017293","0.0-11.0-166.0","","","","false","","","","","","","","","","729.4000000953674","","912.1999998092651","","3","0","arrowright","1","arrowright","[0.15,0.85,0.675,0.325]","","",""
"sailing-trial","212","1019770","0.0-11.0-167.0","","","","false","","","","","","","","","","null","","812.0999999046326","","1","1","null","null","arrowup","[0.15,0.85,0.675,0.325]","","",""
"sailing-trial","213","1023289","0.0-11.0-168.0","","","","false","","","","","","","","","","464.7999999523163","","164.40000009536743","","1","1","arrowleft","0","arrowright","[0.15,0.85,0.675,0.325]","","",""
"sailing-trial","214","1024984","0.0-11.0-169.0","","","","false","","","","","","","","","","null","","63.09999990463257","","2","0","null","null","arrowup","[0.15,0.85,0.675,0.325]","","",""
"sailing-trial","215","1028520","0.0-11.0-170.0","","","","false","","","","","","","","","","428.7999999523163","","167.79999995231628","","1","1","arrowleft","0","arrowright","[0.15,0.85,0.675,0.325]","","",""
"sailing-trial","216","1030704","0.0-11.0-171.0","","","","false","","","","","","","","","","null","","467.80000019073486","","2","1","null","null","arrowup","[0.15,0.85,0.675,0.325]","","",""
"sailing-trial","217","1034288","0.0-11.0-172.0","","","","false","","","","","","","","","","385.09999990463257","","332.5","","1","1","arrowleft","0","arrowright","[0.15,0.85,0.675,0.325]","","",""
"sailing-trial","218","1036134","0.0-11.0-173.0","","","","false","","","","","","","","","","null","","233.5","","0","0","null","null","arrowup","[0.15,0.85,0.675,0.325]","","",""
"sailing-trial","219","1040054","0.0-11.0-174.0","","","","false","","","","","","","","","","461.59999990463257","","180.20000004768372","","1","1","arrowleft","0","arrowright","[0.15,0.85,0.675,0.325]","","",""
"sailing-trial","220","1042355","0.0-11.0-175.0","","","","false","","","","","","","","","","null","","714.7999999523163","","1","1","null","null","arrowup","[0.15,0.85,0.675,0.325]","","",""
"sailing-trial","221","1045920","0.0-11.0-176.0","","","","false","","","","","","","","","","789.2000000476837","","120.70000004768372","","1","1","arrowleft","0","arrowright","[0.15,0.85,0.675,0.325]","","",""
"sailing-trial","222","1047837","0.0-11.0-177.0","","","","false","","","","","","","","","","null","","671.7999999523163","","0","0","null","null","arrowup","[0.15,0.85,0.675,0.325]","","",""
"sailing-trial","223","1051388","0.0-11.0-178.0","","","","false","","","","","","","","","","564.1999998092651","","15.799999952316284","","1","1","arrowleft","0","arrowright","[0.15,0.85,0.675,0.325]","","",""
"sailing-trial","224","1053371","0.0-11.0-179.0","","","","false","","","","","","","","","","null","","146.5","","1","1","null","null","arrowup","[0.15,0.85,0.675,0.325]","","",""
"sailing-trial","225","1056549","0.0-11.0-180.0","","","","false","","","","","","","","","","240.5","","197.09999990463257","","1","0","arrowleft","0","arrowright","[0.15,0.85,0.675,0.325]","","",""
"sailing-trial","226","1059054","0.0-11.0-181.0","","","","false","","","","","","","","","","null","","837.4000000953674","","2","1","null","null","arrowup","[0.15,0.85,0.675,0.325]","","",""
"sailing-trial","227","1061971","0.0-11.0-182.0","","","","false","","","","","","","","","","610.5999999046326","","27.299999952316284","","1","0","arrowleft","0","arrowright","[0.675,0.325,0.15,0.85]","","",""
"sailing-trial","228","1065120","0.0-11.0-183.0","","","","false","","","","","","","","","","null","","1457","","0","1","null","null","arrowup","[0.675,0.325,0.15,0.85]","","",""
"sailing-trial","229","1068638","0.0-11.0-184.0","","","","false","","","","","","","","","","625.2000000476837","","81.29999995231628","","3","1","arrowright","1","arrowright","[0.675,0.325,0.15,0.85]","","",""
"sailing-trial","230","1070754","0.0-11.0-185.0","","","","false","","","","","","","","","","null","","548.2000000476837","","2","1","null","null","arrowup","[0.675,0.325,0.15,0.85]","","",""
"sailing-trial","231","1074503","0.0-11.0-186.0","","","","false","","","","","","","","","","634.5","","461.5","","3","1","arrowright","1","arrowright","[0.675,0.325,0.15,0.85]","","",""
"sailing-trial","232","1076381","0.0-11.0-187.0","","","","false","","","","","","","","","","null","","738.5","","3","0","null","null","arrowup","[0.675,0.325,0.15,0.85]","","",""
"sailing-trial","233","1079870","0.0-11.0-188.0","","","","false","","","","","","","","","","445.7999999523163","","608.5","","2","0","arrowright","1","arrowleft","[0.675,0.325,0.15,0.85]","","",""
"sailing-trial","234","1081662","0.0-11.0-189.0","","","","false","","","","","","","","","","null","","659.5","","1","0","null","null","arrowup","[0.675,0.325,0.15,0.85]","","",""
"sailing-trial","235","1085371","0.0-11.0-190.0","","","","false","","","","","","","","","","287.69999980926514","","576.5999999046326","","0","1","arrowleft","0","arrowleft","[0.675,0.325,0.15,0.85]","","",""
"sailing-trial","236","1087587","0.0-11.0-191.0","","","","false","","","","","","","","","","null","","490.7000000476837","","3","1","null","null","arrowup","[0.675,0.325,0.15,0.85]","","",""
"sailing-trial","237","1091721","0.0-11.0-192.0","","","","false","","","","","","","","","","925.2999999523163","","5.3999998569488525","","0","1","arrowleft","0","arrowleft","[0.675,0.325,0.15,0.85]","","",""
"sailing-trial","238","1093937","0.0-11.0-193.0","","","","false","","","","","","","","","","null","","614.5999999046326","","3","1","null","null","arrowup","[0.675,0.325,0.15,0.85]","","",""
"sailing-trial","239","1098020","0.0-11.0-194.0","","","","false","","","","","","","","","","721.6000001430511","","27.5","","0","1","arrowleft","0","arrowleft","[0.675,0.325,0.15,0.85]","","",""
"sailing-trial","240","1100008","0.0-11.0-195.0","","","","false","","","","","","","","","","null","","869.7000000476837","","2","0","null","null","arrowup","[0.675,0.325,0.15,0.85]","","",""
"sailing-trial","241","1103336","0.0-11.0-196.0","","","","false","","","","","","","","","","593.3000001907349","","137.60000014305115","","0","1","arrowleft","0","arrowleft","[0.675,0.325,0.15,0.85]","","",""
"sailing-trial","242","1106154","0.0-11.0-197.0","","","","false","","","","","","","","","","null","","687.2000000476837","","0","1","null","null","arrowup","[0.675,0.325,0.15,0.85]","","",""
"sailing-trial","243","1109396","0.0-11.0-198.0","","","","false","","","","","","","","","","433","","1.5","","0","0","arrowleft","0","arrowleft","[0.675,0.325,0.15,0.85]","","",""
"sailing-trial","244","1111887","0.0-11.0-199.0","","","","false","","","","","","","","","","null","","801.3999998569489","","3","1","null","null","arrowup","[0.675,0.325,0.15,0.85]","","",""
"sailing-trial","245","1114686","0.0-11.0-200.0","","","","false","","","","","","","","","","59","","131.40000009536743","","3","1","arrowright","1","arrowright","[0.675,0.325,0.15,0.85]","","",""
"sailing-trial","246","1116768","0.0-11.0-201.0","","","","false","","","","","","","","","","null","","17.799999952316284","","2","0","null","null","arrowup","[0.675,0.325,0.15,0.85]","","",""
"sailing-trial","247","1119548","0.0-11.0-202.0","","","","false","","","","","","","","","","493.2999999523163","","126.60000014305115","","3","0","arrowright","1","arrowright","[0.85,0.15,0.325,0.675]","","",""
"sailing-trial","248","1122152","0.0-11.0-203.0","","","","false","","","","","","","","","","null","","458","","0","1","null","null","arrowup","[0.85,0.15,0.325,0.675]","","",""
"sailing-trial","249","1126537","0.0-11.0-204.0","","","","false","","","","","","","","","","957.7000000476837","","221.39999985694885","","3","1","arrowright","1","arrowright","[0.85,0.15,0.325,0.675]","","",""
"sailing-trial","250","1129367","0.0-11.0-205.0","","","","false","","","","","","","","","","null","","1137.7000000476837","","2","0","null","null","arrowup","[0.85,0.15,0.325,0.675]","","",""
"sailing-trial","251","1135188","0.0-11.0-206.0","","","","false","","","","","","","","","","1796.7000000476837","","333.5","","3","1","arrowright","1","arrowright","[0.85,0.15,0.325,0.675]","","",""
"sailing-trial","252","1139969","0.0-11.0-207.0","","","","false","","","","","","","","","","null","","3243","","1","0","null","null","arrowup","[0.85,0.15,0.325,0.675]","","",""
"sailing-trial","253","1143988","0.0-11.0-208.0","","","","false","","","","","","","","","","662.0999999046326","","590.4000000953674","","3","0","arrowright","1","arrowright","[0.85,0.15,0.325,0.675]","","",""
"sailing-trial","254","1146804","0.0-11.0-209.0","","","","false","","","","","","","","","","null","","898.7000000476837","","3","1","null","null","arrowup","[0.85,0.15,0.325,0.675]","","",""
"sailing-trial","255","1149766","0.0-11.0-210.0","","","","false","","","","","","","","","","222.30000019073486","","26.09999990463257","","1","0","arrowleft","0","arrowright","[0.85,0.15,0.325,0.675]","","",""
"sailing-trial","256","1151648","0.0-11.0-211.0","","","","false","","","","","","","","","","null","","650.5","","0","0","null","null","arrowup","[0.85,0.15,0.325,0.675]","","",""
"sailing-trial","257","1155019","0.0-11.0-212.0","","","","false","","","","","","","","","","500.7999999523163","","26.899999856948853","","3","1","arrowright","1","arrowright","[0.85,0.15,0.325,0.675]","","",""
"sailing-trial","258","1157186","0.0-11.0-213.0","","","","false","","","","","","","","","","null","","313.5","","0","1","null","null","arrowup","[0.85,0.15,0.325,0.675]","","",""
"sailing-trial","259","1161019","0.0-11.0-214.0","","","","false","","","","","","","","","","14.799999952316284","","490.5","","3","1","arrowright","1","arrowright","[0.85,0.15,0.325,0.675]","","",""
"sailing-trial","260","1163075","0.0-11.0-215.0","","","","false","","","","","","","","","","null","","866.0999999046326","","2","0","null","null","arrowup","[0.85,0.15,0.325,0.675]","","",""
"sailing-trial","261","1166570","0.0-11.0-216.0","","","","false","","","","","","","","","","418.7999999523163","","143.40000009536743","","3","1","arrowright","1","arrowright","[0.85,0.15,0.325,0.675]","","",""
"sailing-trial","262","1168886","0.0-11.0-217.0","","","","false","","","","","","","","","","null","","702.9000000953674","","0","1","null","null","arrowup","[0.85,0.15,0.325,0.675]","","",""
"sailing-trial","263","1172120","0.0-11.0-218.0","","","","false","","","","","","","","","","370.30000019073486","","23.09999990463257","","3","1","arrowright","1","arrowright","[0.675,0.325,0.15,0.85]","","",""
"sailing-trial","264","1173990","0.0-11.0-219.0","","","","false","","","","","","","","","","null","","791.5","","1","0","null","null","arrowup","[0.675,0.325,0.15,0.85]","","",""
"sailing-trial","265","1177704","0.0-11.0-220.0","","","","false","","","","","","","","","","613.5","","324.2000000476837","","3","1","arrowright","1","arrowright","[0.675,0.325,0.15,0.85]","","",""
"sailing-trial","266","1179337","0.0-11.0-221.0","","","","false","","","","","","","","","","null","","16.40000009536743","","0","1","null","null","arrowup","[0.675,0.325,0.15,0.85]","","",""
"sailing-trial","267","1182203","0.0-11.0-222.0","","","","false","","","","","","","","","","25.200000047683716","","143.59999990463257","","3","1","arrowright","1","arrowright","[0.675,0.325,0.15,0.85]","","",""
"sailing-trial","268","1183678","0.0-11.0-223.0","","","","false","","","","","","","","","","null","","12.299999952316284","","0","0","null","null","arrowup","[0.675,0.325,0.15,0.85]","","",""
"sailing-trial","269","1186870","0.0-11.0-224.0","","","","false","","","","","","","","","","364.7999999523163","","146.69999980926514","","3","1","arrowright","1","arrowright","[0.675,0.325,0.15,0.85]","","",""
"sailing-trial","270","1190656","0.0-11.0-225.0","","","","false","","","","","","","","","","null","","748.8999998569489","","2","0","null","null","arrowup","[0.675,0.325,0.15,0.85]","","",""
"sailing-trial","271","1195071","0.0-11.0-226.0","","","","false","","","","","","","","","","334.90000009536743","","833.3999998569489","","3","1","arrowright","1","arrowright","[0.675,0.325,0.15,0.85]","","",""
"sailing-trial","272","1197686","0.0-11.0-227.0","","","","false","","","","","","","","","","null","","44.89999985694885","","0","1","null","null","arrowup","[0.675,0.325,0.15,0.85]","","",""
"sailing-trial","273","1201686","0.0-11.0-228.0","","","","false","","","","","","","","","","660.6000001430511","","58.200000047683716","","3","1","arrowright","1","arrowright","[0.675,0.325,0.15,0.85]","","",""
"sailing-trial","274","1204082","0.0-11.0-229.0","","","","false","","","","","","","","","","null","","745.6000001430511","","1","0","null","null","arrowup","[0.675,0.325,0.15,0.85]","","",""
"sailing-trial","275","1207820","0.0-11.0-230.0","","","","false","","","","","","","","","","473.2000000476837","","139.5","","3","1","arrowright","1","arrowright","[0.675,0.325,0.15,0.85]","","",""
"sailing-trial","276","1210769","0.0-11.0-231.0","","","","false","","","","","","","","","","null","","1364.3999998569489","","0","1","null","null","arrowup","[0.675,0.325,0.15,0.85]","","",""
"sailing-trial","277","1214169","0.0-11.0-232.0","","","","false","","","","","","","","","","154.5","","389.69999980926514","","3","1","arrowright","1","arrowright","[0.675,0.325,0.15,0.85]","","",""
"sailing-trial","278","1216197","0.0-11.0-233.0","","","","false","","","","","","","","","","null","","757.7999999523163","","1","0","null","null","arrowup","[0.675,0.325,0.15,0.85]","","",""
"sailing-trial","279","1220119","0.0-11.0-234.0","","","","false","","","","","","","","","","752.7000000476837","","318.90000009536743","","3","1","arrowright","1","arrowright","[0.85,0.15,0.325,0.675]","","",""
"sailing-trial","280","1222319","0.0-11.0-235.0","","","","false","","","","","","","","","","null","","408.2999999523163","","3","1","null","null","arrowup","[0.85,0.15,0.325,0.675]","","",""
"sailing-trial","281","1225535","0.0-11.0-236.0","","","","false","","","","","","","","","","374.2000000476837","","21.700000047683716","","3","1","arrowright","1","arrowright","[0.85,0.15,0.325,0.675]","","",""
"sailing-trial","282","1227612","0.0-11.0-237.0","","","","false","","","","","","","","","","null","","639.2999999523163","","2","0","null","null","arrowup","[0.85,0.15,0.325,0.675]","","",""
"sailing-trial","283","1231235","0.0-11.0-238.0","","","","false","","","","","","","","","","591.6000001430511","","221.39999985694885","","3","1","arrowright","1","arrowright","[0.85,0.15,0.325,0.675]","","",""
"sailing-trial","284","1233452","0.0-11.0-239.0","","","","false","","","","","","","","","","null","","419","","3","1","null","null","arrowup","[0.85,0.15,0.325,0.675]","","",""
"sailing-trial","285","1237988","0.0-11.0-240.0","","","","false","","","","","","","","","","463","","39.5","","3","0","arrowright","1","arrowright","[0.85,0.15,0.325,0.675]","","",""
"sailing-trial","286","1240929","0.0-11.0-241.0","","","","false","","","","","","","","","","null","","1641.7000000476837","","2","0","null","null","arrowup","[0.85,0.15,0.325,0.675]","","",""
"sailing-trial","287","1244851","0.0-11.0-242.0","","","","false","","","","","","","","","","1082.4000000953674","","152.29999995231628","","0","1","arrowleft","0","arrowleft","[0.85,0.15,0.325,0.675]","","",""
"sailing-trial","288","1246477","0.0-11.0-243.0","","","","false","","","","","","","","","","null","","322","","1","0","null","null","arrowup","[0.85,0.15,0.325,0.675]","","",""
"sailing-trial","289","1250036","0.0-11.0-244.0","","","","false","","","","","","","","","","697.2000000476837","","225.90000009536743","","0","1","arrowleft","0","arrowleft","[0.85,0.15,0.325,0.675]","","",""
"sailing-trial","290","1252302","0.0-11.0-245.0","","","","false","","","","","","","","","","null","","770.4000000953674","","1","1","null","null","arrowup","[0.85,0.15,0.325,0.675]","","",""
"sailing-trial","291","1256303","0.0-11.0-246.0","","","","false","","","","","","","","","","520","","673.5","","0","1","arrowleft","0","arrowleft","[0.85,0.15,0.325,0.675]","","",""
"sailing-trial","292","1258552","0.0-11.0-247.0","","","","false","","","","","","","","","","null","","408.2999999523163","","0","1","null","null","arrowup","[0.85,0.15,0.325,0.675]","","",""
"sailing-trial","293","1262401","0.0-11.0-248.0","","","","false","","","","","","","","","","563.5","","3.1999998092651367","","0","1","arrowleft","0","arrowleft","[0.85,0.15,0.325,0.675]","","",""
"sailing-trial","294","1263979","0.0-11.0-249.0","","","","false","","","","","","","","","","null","","456.2999999523163","","2","0","null","null","arrowup","[0.85,0.15,0.325,0.675]","","",""
"sailing-trial","295","1267702","0.0-11.0-250.0","","","","false","","","","","","","","","","476","","162.40000009536743","","0","1","arrowleft","0","arrowleft","[0.85,0.15,0.325,0.675]","","",""
"sailing-trial","296","1269240","0.0-11.0-251.0","","","","false","","","","","","","","","","null","","383.5","","1","0","null","null","arrowup","[0.85,0.15,0.325,0.675]","","",""
"sailing-trial","297","1272985","0.0-11.0-252.0","","","","false","","","","","","","","","","713.1999998092651","","307.60000014305115","","0","1","arrowleft","0","arrowleft","[0.85,0.15,0.325,0.675]","","",""
"sailing-trial","298","1274763","0.0-11.0-253.0","","","","false","","","","","","","","","","null","","507.7000000476837","","2","0","null","null","arrowup","[0.85,0.15,0.325,0.675]","","",""
"sailing-trial","299","1277660","0.0-11.0-254.0","","","","false","","","","","","","","","","669.2000000476837","","214.60000014305115","","0","0","arrowleft","0","arrowleft","[0.15,0.85,0.675,0.325]","","",""
"sailing-trial","300","1280185","0.0-11.0-255.0","","","","false","","","","","","","","","","null","","696.2999999523163","","1","1","null","null","arrowup","[0.15,0.85,0.675,0.325]","","",""
"sailing-trial","301","1283217","0.0-11.0-256.0","","","","false","","","","","","","","","","478.7000000476837","","313.10000014305115","","3","0","arrowright","1","arrowright","[0.15,0.85,0.675,0.325]","","",""
"sailing-trial","302","1285366","0.0-11.0-257.0","","","","false","","","","","","","","","","null","","569.3000001907349","","0","0","null","null","arrowup","[0.15,0.85,0.675,0.325]","","",""
"sailing-trial","303","1288736","0.0-11.0-258.0","","","","false","","","","","","","","","","537.2000000476837","","116.20000004768372","","1","1","arrowleft","0","arrowright","[0.15,0.85,0.675,0.325]","","",""
"sailing-trial","304","1290321","0.0-11.0-259.0","","","","false","","","","","","","","","","null","","449.60000014305115","","0","0","null","null","arrowup","[0.15,0.85,0.675,0.325]","","",""
"sailing-trial","305","1293669","0.0-11.0-260.0","","","","false","","","","","","","","","","565.5","","167","","1","1","arrowleft","0","arrowright","[0.15,0.85,0.675,0.325]","","",""
"sailing-trial","306","1295656","0.0-11.0-261.0","","","","false","","","","","","","","","","null","","656.0999999046326","","2","0","null","null","arrowup","[0.15,0.85,0.675,0.325]","","",""
"sailing-trial","307","1300586","0.0-11.0-262.0","","","","false","","","","","","","","","","379","","1087.5","","1","1","arrowleft","0","arrowright","[0.15,0.85,0.675,0.325]","","",""
"sailing-trial","308","1303158","0.0-11.0-263.0","","","","false","","","","","","","","","","null","","1452.5","","3","0","null","null","arrowup","[0.15,0.85,0.675,0.325]","","",""
"sailing-trial","309","1306434","0.0-11.0-264.0","","","","false","","","","","","","","","","507.2999999523163","","44.59999990463257","","1","1","arrowleft","0","arrowright","[0.15,0.85,0.675,0.325]","","",""
"sailing-trial","310","1309577","0.0-11.0-265.0","","","","false","","","","","","","","","","null","","1882.3999998569489","","0","0","null","null","arrowup","[0.15,0.85,0.675,0.325]","","",""
"sailing-trial","311","1313069","0.0-11.0-266.0","","","","false","","","","","","","","","","741.4000000953674","","30.5","","1","1","arrowleft","0","arrowright","[0.15,0.85,0.675,0.325]","","",""
"sailing-trial","312","1314623","0.0-11.0-267.0","","","","false","","","","","","","","","","null","","217.20000004768372","","2","0","null","null","arrowup","[0.15,0.85,0.675,0.325]","","",""
"sailing-trial","313","1318684","0.0-11.0-268.0","","","","false","","","","","","","","","","1038.7000000476837","","84.89999985694885","","1","1","arrowleft","0","arrowright","[0.15,0.85,0.675,0.325]","","",""
"sailing-trial","314","1321585","0.0-11.0-269.0","","","","false","","","","","","","","","","null","","419.40000009536743","","2","1","null","null","arrowup","[0.15,0.85,0.675,0.325]","","",""
"sailing-trial","315","1323991","0.0-11.0-270.0","","","","false","","","","","","","","","","148.09999990463257","","135.5","","1","0","arrowleft","0","arrowright","[0.325,0.675,0.85,0.15]","","",""
"sailing-trial","316","1326019","0.0-11.0-271.0","","","","false","","","","","","","","","","null","","254.70000004768372","","1","1","null","null","arrowup","[0.325,0.675,0.85,0.15]","","",""
"sailing-trial","317","1328416","0.0-11.0-272.0","","","","false","","","","","","","","","","217.59999990463257","","11.799999952316284","","1","0","arrowleft","0","arrowright","[0.325,0.675,0.85,0.15]","","",""
"sailing-trial","318","1330751","0.0-11.0-273.0","","","","false","","","","","","","","","","null","","631.1000001430511","","3","1","null","null","arrowup","[0.325,0.675,0.85,0.15]","","",""
"sailing-trial","319","1333776","0.0-11.0-274.0","","","","false","","","","","","","","","","518.5999999046326","","282.7999999523163","","0","0","arrowleft","0","arrowleft","[0.325,0.675,0.85,0.15]","","",""
"sailing-trial","320","1336017","0.0-11.0-275.0","","","","false","","","","","","","","","","null","","355.60000014305115","","2","1","null","null","arrowup","[0.325,0.675,0.85,0.15]","","",""
"sailing-trial","321","1339869","0.0-11.0-276.0","","","","false","","","","","","","","","","260.09999990463257","","646.9000000953674","","2","1","arrowright","1","arrowleft","[0.325,0.675,0.85,0.15]","","",""
"sailing-trial","322","1341602","0.0-11.0-277.0","","","","false","","","","","","","","","","null","","153.90000009536743","","0","1","null","null","arrowup","[0.325,0.675,0.85,0.15]","","",""
"sailing-trial","323","1344835","0.0-11.0-278.0","","","","false","","","","","","","","","","581.7999999523163","","62.700000047683716","","2","1","arrowright","1","arrowleft","[0.325,0.675,0.85,0.15]","","",""
"sailing-trial","324","1346684","0.0-11.0-279.0","","","","false","","","","","","","","","","null","","98.90000009536743","","1","1","null","null","arrowup","[0.325,0.675,0.85,0.15]","","",""
"sailing-trial","325","1349869","0.0-11.0-280.0","","","","false","","","","","","","","","","571.2000000476837","","21.299999952316284","","2","1","arrowright","1","arrowleft","[0.325,0.675,0.85,0.15]","","",""
"sailing-trial","326","1351617","0.0-11.0-281.0","","","","false","","","","","","","","","","null","","48","","1","1","null","null","arrowup","[0.325,0.675,0.85,0.15]","","",""
"sailing-trial","327","1355652","0.0-11.0-282.0","","","","false","","","","","","","","","","502.2000000476837","","190.79999995231628","","2","1","arrowright","1","arrowleft","[0.325,0.675,0.85,0.15]","","",""
"sailing-trial","328","1361319","0.0-11.0-283.0","","","","false","","","","","","","","","","null","","3701.2999999523163","","3","1","null","null","arrowup","[0.325,0.675,0.85,0.15]","","",""
"sailing-trial","329","1365834","0.0-11.0-284.0","","","","false","","","","","","","","","","1084.7000000476837","","546.7999999523163","","2","1","arrowright","1","arrowleft","[0.325,0.675,0.85,0.15]","","",""
"sailing-trial","330","1366999","0.0-11.0-285.0","","","","false","","","","","","","","","","null","","82.59999990463257","","3","0","null","null","arrowup","[0.325,0.675,0.85,0.15]","","",""
"sailing-trial","331","1370535","0.0-11.0-286.0","","","","false","","","","","","","","","","439.59999990463257","","471.40000009536743","","2","1","arrowright","1","arrowleft","[0.325,0.675,0.85,0.15]","","",""
"sailing-trial","332","1371919","0.0-11.0-287.0","","","","false","","","","","","","","","","null","","147.59999990463257","","3","0","null","null","arrowup","[0.325,0.675,0.85,0.15]","","",""
"sailing-trial","333","1375084","0.0-11.0-288.0","","","","false","","","","","","","","","","436.7000000476837","","13","","2","1","arrowright","1","arrowleft","[0.325,0.675,0.85,0.15]","","",""
"sailing-trial","334","1377085","0.0-11.0-289.0","","","","false","","","","","","","","","","null","","141.29999995231628","","1","1","null","null","arrowup","[0.325,0.675,0.85,0.15]","","",""
"sailing-trial","335","1380301","0.0-11.0-290.0","","","","false","","","","","","","","","","92.70000004768372","","303.7000000476837","","2","1","arrowright","1","arrowleft","[0.325,0.675,0.85,0.15]","","",""
"sailing-trial","336","1381853","0.0-11.0-291.0","","","","false","","","","","","","","","","null","","160","","3","0","null","null","arrowup","[0.325,0.675,0.85,0.15]","","",""
"sailing-trial","337","1385251","0.0-11.0-292.0","","","","false","","","","","","","","","","630.7000000476837","","146.79999995231628","","2","1","arrowright","1","arrowleft","[0.15,0.85,0.675,0.325]","","",""
"sailing-trial","338","1387301","0.0-11.0-293.0","","","","false","","","","","","","","","","null","","157.79999995231628","","1","1","null","null","arrowup","[0.15,0.85,0.675,0.325]","","",""
"sailing-trial","339","1392750","0.0-11.0-294.0","","","","false","","","","","","","","","","2623.5","","176.80000019073486","","2","1","arrowright","1","arrowleft","[0.15,0.85,0.675,0.325]","","",""
"sailing-trial","340","1394668","0.0-11.0-295.0","","","","false","","","","","","","","","","null","","148.79999995231628","","2","1","null","null","arrowup","[0.15,0.85,0.675,0.325]","","",""
"sailing-trial","341","1398033","0.0-11.0-296.0","","","","false","","","","","","","","","","497.90000009536743","","322.09999990463257","","2","1","arrowright","1","arrowleft","[0.15,0.85,0.675,0.325]","","",""
"sailing-trial","342","1400352","0.0-11.0-297.0","","","","false","","","","","","","","","","null","","1130.2000000476837","","2","0","null","null","arrowup","[0.15,0.85,0.675,0.325]","","",""
"sailing-trial","343","1403950","0.0-11.0-298.0","","","","false","","","","","","","","","","571.1999998092651","","69.29999995231628","","2","1","arrowright","1","arrowleft","[0.15,0.85,0.675,0.325]","","",""
"sailing-trial","344","1405967","0.0-11.0-299.0","","","","false","","","","","","","","","","null","","71.20000004768372","","1","1","null","null","arrowup","[0.15,0.85,0.675,0.325]","","",""
"sailing-trial","345","1408313","0.0-11.0-300.0","","","","false","","","","","","","","","","184.90000009536743","","98.90000009536743","","2","0","arrowright","1","arrowleft","[0.15,0.85,0.675,0.325]","","",""
"sailing-trial","346","1410834","0.0-11.0-301.0","","","","false","","","","","","","","","","null","","979.5","","2","1","null","null","arrowup","[0.15,0.85,0.675,0.325]","","",""
"sailing-trial","347","1413934","0.0-11.0-302.0","","","","false","","","","","","","","","","362.89999985694885","","87.40000009536743","","1","1","arrowleft","0","arrowright","[0.15,0.85,0.675,0.325]","","",""
"sailing-trial","348","1415701","0.0-11.0-303.0","","","","false","","","","","","","","","","null","","85.40000009536743","","1","1","null","null","arrowup","[0.15,0.85,0.675,0.325]","","",""
"sailing-trial","349","1418634","0.0-11.0-304.0","","","","false","","","","","","","","","","41.700000047683716","","104.40000009536743","","1","1","arrowleft","0","arrowright","[0.15,0.85,0.675,0.325]","","",""
"sailing-trial","350","1420525","0.0-11.0-305.0","","","","false","","","","","","","","","","null","","832.2999999523163","","0","0","null","null","arrowup","[0.15,0.85,0.675,0.325]","","",""
"sailing-trial","351","1424034","0.0-11.0-306.0","","","","false","","","","","","","","","","370.69999980926514","","487.5","","1","1","arrowleft","0","arrowright","[0.15,0.85,0.675,0.325]","","",""
"sailing-trial","352","1425197","0.0-11.0-307.0","","","","false","","","","","","","","","","null","","62.90000009536743","","0","0","null","null","arrowup","[0.15,0.85,0.675,0.325]","","",""
"sailing-trial","353","1429400","0.0-11.0-308.0","","","","false","","","","","","","","","","1485.2000000476837","","159.59999990463257","","1","1","arrowleft","0","arrowright","[0.15,0.85,0.675,0.325]","","",""
"sailing-trial","354","1431383","0.0-11.0-309.0","","","","false","","","","","","","","","","null","","254.79999995231628","","0","1","null","null","arrowup","[0.15,0.85,0.675,0.325]","","",""
"sailing-trial","355","1435634","0.0-11.0-310.0","","","","false","","","","","","","","","","566.8999998569489","","1118.6999998092651","","2","1","arrowright","1","arrowleft","[0.325,0.675,0.85,0.15]","","",""
"sailing-trial","356","1437091","0.0-11.0-311.0","","","","false","","","","","","","","","","null","","198.60000014305115","","0","0","null","null","arrowup","[0.325,0.675,0.85,0.15]","","",""
"sailing-trial","357","1439780","0.0-11.0-312.0","","","","false","","","","","","","","","","485.09999990463257","","174.10000014305115","","1","0","arrowleft","0","arrowright","[0.325,0.675,0.85,0.15]","","",""
"sailing-trial","358","1441123","0.0-11.0-313.0","","","","false","","","","","","","","","","null","","163","","0","0","null","null","arrowup","[0.325,0.675,0.85,0.15]","","",""
"sailing-trial","359","1444267","0.0-11.0-314.0","","","","false","","","","","","","","","","285.2000000476837","","83.60000014305115","","2","1","arrowright","1","arrowleft","[0.325,0.675,0.85,0.15]","","",""
"sailing-trial","360","1445531","0.0-11.0-315.0","","","","false","","","","","","","","","","null","","190.40000009536743","","0","0","null","null","arrowup","[0.325,0.675,0.85,0.15]","","",""
"sailing-trial","361","1448078","0.0-11.0-316.0","","","","false","","","","","","","","","","392.40000009536743","","63.200000047683716","","2","0","arrowright","1","arrowleft","[0.325,0.675,0.85,0.15]","","",""
"sailing-trial","362","1449734","0.0-11.0-317.0","","","","false","","","","","","","","","","null","","110.70000004768372","","0","1","null","null","arrowup","[0.325,0.675,0.85,0.15]","","",""
"sailing-trial","363","1452545","0.0-11.0-318.0","","","","false","","","","","","","","","","464.09999990463257","","172.69999980926514","","3","0","arrowright","1","arrowright","[0.325,0.675,0.85,0.15]","","",""
"sailing-trial","364","1455582","0.0-11.0-319.0","","","","false","","","","","","","","","","null","","1501.7999999523163","","2","1","null","null","arrowup","[0.325,0.675,0.85,0.15]","","",""
"sailing-trial","365","1458349","0.0-11.0-320.0","","","","false","","","","","","","","","","221.19999980926514","","12","","2","1","arrowright","1","arrowleft","[0.325,0.675,0.85,0.15]","","",""
"sailing-trial","366","1459768","0.0-11.0-321.0","","","","false","","","","","","","","","","null","","213.69999980926514","","3","0","null","null","arrowup","[0.325,0.675,0.85,0.15]","","",""
"sailing-trial","367","1462716","0.0-11.0-322.0","","","","false","","","","","","","","","","263.7000000476837","","116.89999985694885","","2","1","arrowright","1","arrowleft","[0.325,0.675,0.85,0.15]","","",""
"sailing-trial","368","1464850","0.0-11.0-323.0","","","","false","","","","","","","","","","null","","198.89999985694885","","1","1","null","null","arrowup","[0.325,0.675,0.85,0.15]","","",""
"sailing-trial","369","1467484","0.0-11.0-324.0","","","","false","","","","","","","","","","353.7999999523163","","130.40000009536743","","2","0","arrowright","1","arrowleft","[0.325,0.675,0.85,0.15]","","",""
"sailing-trial","370","1469817","0.0-11.0-325.0","","","","false","","","","","","","","","","null","","414.2999999523163","","2","1","null","null","arrowup","[0.325,0.675,0.85,0.15]","","",""
"sailing-trial","371","1472850","0.0-11.0-326.0","","","","false","","","","","","","","","","84.5","","12.5","","2","1","arrowright","1","arrowleft","[0.325,0.675,0.85,0.15]","","",""
"sailing-trial","372","1474867","0.0-11.0-327.0","","","","false","","","","","","","","","","null","","46.799999952316284","","1","1","null","null","arrowup","[0.325,0.675,0.85,0.15]","","",""
"sailing-trial","373","1477817","0.0-11.0-328.0","","","","false","","","","","","","","","","174.30000019073486","","182.29999995231628","","1","1","arrowleft","0","arrowright","[0.325,0.675,0.85,0.15]","","",""
"sailing-trial","374","1479186","0.0-11.0-329.0","","","","false","","","","","","","","","","null","","69.69999980926514","","0","0","null","null","arrowup","[0.325,0.675,0.85,0.15]","","",""
"sailing-trial","375","1482233","0.0-11.0-330.0","","","","false","","","","","","","","","","201.5","","67.60000014305115","","1","1","arrowleft","0","arrowright","[0.325,0.675,0.85,0.15]","","",""
"sailing-trial","376","1483933","0.0-11.0-331.0","","","","false","","","","","","","","","","null","","8.200000047683716","","2","1","null","null","arrowup","[0.325,0.675,0.85,0.15]","","",""
"sailing-trial","377","1487099","0.0-11.0-332.0","","","","false","","","","","","","","","","301.2999999523163","","44.09999990463257","","1","1","arrowleft","0","arrowright","[0.15,0.85,0.675,0.325]","","",""
"sailing-trial","378","1488782","0.0-11.0-333.0","","","","false","","","","","","","","","","null","","78.59999990463257","","2","1","null","null","arrowup","[0.15,0.85,0.675,0.325]","","",""
"sailing-trial","379","1491733","0.0-11.0-334.0","","","","false","","","","","","","","","","91.5","","225.90000009536743","","1","1","arrowleft","0","arrowright","[0.15,0.85,0.675,0.325]","","",""
"sailing-trial","380","1493111","0.0-11.0-335.0","","","","false","","","","","","","","","","null","","203.10000014305115","","2","0","null","null","arrowup","[0.15,0.85,0.675,0.325]","","",""
"sailing-trial","381","1496462","0.0-11.0-336.0","","","","false","","","","","","","","","","594","","54.200000047683716","","1","1","arrowleft","0","arrowright","[0.15,0.85,0.675,0.325]","","",""
"sailing-trial","382","1497713","0.0-11.0-337.0","","","","false","","","","","","","","","","null","","73.40000009536743","","0","0","null","null","arrowup","[0.15,0.85,0.675,0.325]","","",""
"sailing-trial","383","1501161","0.0-11.0-338.0","","","","false","","","","","","","","","","395.69999980926514","","333.2000000476837","","1","1","arrowleft","0","arrowright","[0.15,0.85,0.675,0.325]","","",""
"sailing-trial","384","1503396","0.0-11.0-339.0","","","","false","","","","","","","","","","null","","357.10000014305115","","1","1","null","null","arrowup","[0.15,0.85,0.675,0.325]","","",""
"sailing-trial","385","1506729","0.0-11.0-340.0","","","","false","","","","","","","","","","331.7000000476837","","271.7999999523163","","1","1","arrowleft","0","arrowright","[0.15,0.85,0.675,0.325]","","",""
"sailing-trial","386","1507920","0.0-11.0-341.0","","","","false","","","","","","","","","","null","","174.60000014305115","","3","0","null","null","arrowup","[0.15,0.85,0.675,0.325]","","",""
"sailing-trial","387","1511645","0.0-11.0-342.0","","","","false","","","","","","","","","","503.39999985694885","","557.1000001430511","","1","1","arrowleft","0","arrowright","[0.15,0.85,0.675,0.325]","","",""
"sailing-trial","388","1513491","0.0-11.0-343.0","","","","false","","","","","","","","","","null","","467.59999990463257","","2","0","null","null","arrowup","[0.15,0.85,0.675,0.325]","","",""
"sailing-trial","389","1517528","0.0-11.0-344.0","","","","false","","","","","","","","","","936.7000000476837","","104.40000009536743","","1","1","arrowleft","0","arrowright","[0.15,0.85,0.675,0.325]","","",""
"sailing-trial","390","1519262","0.0-11.0-345.0","","","","false","","","","","","","","","","null","","241.5","","3","0","null","null","arrowup","[0.15,0.85,0.675,0.325]","","",""
"sailing-trial","391","1522478","0.0-11.0-346.0","","","","false","","","","","","","","","","489.5","","144.59999990463257","","1","1","arrowleft","0","arrowright","[0.15,0.85,0.675,0.325]","","",""
"sailing-trial","392","1523726","0.0-11.0-347.0","","","","false","","","","","","","","","","null","","91.09999990463257","","3","0","null","null","arrowup","[0.15,0.85,0.675,0.325]","","",""
"sailing-trial","393","1527145","0.0-11.0-348.0","","","","false","","","","","","","","","","499.2999999523163","","253.39999985694885","","1","1","arrowleft","0","arrowright","[0.15,0.85,0.675,0.325]","","",""
"sailing-trial","394","1528961","0.0-11.0-349.0","","","","false","","","","","","","","","","null","","147.90000009536743","","2","1","null","null","arrowup","[0.15,0.85,0.675,0.325]","","",""
"sailing-trial","395","1531778","0.0-11.0-350.0","","","","false","","","","","","","","","","87.19999980926514","","18.799999952316284","","1","1","arrowleft","0","arrowright","[0.15,0.85,0.675,0.325]","","",""
"sailing-trial","396","1532928","0.0-11.0-351.0","","","","false","","","","","","","","","","null","","49.10000014305115","","3","0","null","null","arrowup","[0.15,0.85,0.675,0.325]","","",""
"sailing-trial","397","1536295","0.0-11.0-352.0","","","","false","","","","","","","","","","285.2999999523163","","301","","1","1","arrowleft","0","arrowright","[0.325,0.675,0.85,0.15]","","",""
"sailing-trial","398","1538362","0.0-11.0-353.0","","","","false","","","","","","","","","","null","","82.20000004768372","","2","1","null","null","arrowup","[0.325,0.675,0.85,0.15]","","",""
"sailing-trial","399","1540782","0.0-11.0-354.0","","","","false","","","","","","","","","","104.5","","74.5","","1","0","arrowleft","0","arrowright","[0.325,0.675,0.85,0.15]","","",""
"sailing-trial","400","1542073","0.0-11.0-355.0","","","","false","","","","","","","","","","null","","154.79999995231628","","0","0","null","null","arrowup","[0.325,0.675,0.85,0.15]","","",""
"sailing-trial","401","1545229","0.0-11.0-356.0","","","","false","","","","","","","","","","939.4000000953674","","22.799999952316284","","2","0","arrowright","1","arrowleft","[0.325,0.675,0.85,0.15]","","",""
"sailing-trial","402","1546433","0.0-11.0-357.0","","","","false","","","","","","","","","","null","","140.39999985694885","","0","0","null","null","arrowup","[0.325,0.675,0.85,0.15]","","",""
"sailing-trial","403","1550401","0.0-11.0-358.0","","","","false","","","","","","","","","","1753.0999999046326","","125.79999995231628","","3","0","arrowright","1","arrowright","[0.325,0.675,0.85,0.15]","","",""
"sailing-trial","404","1551731","0.0-11.0-359.0","","","","false","","","","","","","","","","null","","274.7999999523163","","1","0","null","null","arrowup","[0.325,0.675,0.85,0.15]","","",""
"sailing-trial","405","1554528","0.0-11.0-360.0","","","","false","","","","","","","","","","199.20000004768372","","15","","1","1","arrowleft","0","arrowright","[0.325,0.675,0.85,0.15]","","",""
"sailing-trial","406","1556180","0.0-11.0-361.0","","","","false","","","","","","","","","","null","","68.79999995231628","","1","1","null","null","arrowup","[0.325,0.675,0.85,0.15]","","",""
"sailing-trial","407","1559463","0.0-11.0-362.0","","","","false","","","","","","","","","","531.1000001430511","","110.40000009536743","","1","1","arrowleft","0","arrowright","[0.325,0.675,0.85,0.15]","","",""
"sailing-trial","408","1561912","0.0-11.0-363.0","","","","false","","","","","","","","","","null","","802.4000000953674","","2","1","null","null","arrowup","[0.325,0.675,0.85,0.15]","","",""
"sailing-trial","409","1565261","0.0-11.0-364.0","","","","false","","","","","","","","","","428.7000000476837","","99.5","","1","1","arrowleft","0","arrowright","[0.325,0.675,0.85,0.15]","","",""
"sailing-trial","410","1567028","0.0-11.0-365.0","","","","false","","","","","","","","","","null","","76.30000019073486","","1","0","null","null","arrowup","[0.325,0.675,0.85,0.15]","","",""
"sailing-trial","411","1570044","0.0-11.0-366.0","","","","false","","","","","","","","","","383.2999999523163","","115.09999990463257","","2","1","arrowright","1","arrowleft","[0.325,0.675,0.85,0.15]","","",""
"sailing-trial","412","1572061","0.0-11.0-367.0","","","","false","","","","","","","","","","null","","175.59999990463257","","2","1","null","null","arrowup","[0.325,0.675,0.85,0.15]","","",""
"sailing-trial","413","1575280","0.0-11.0-368.0","","","","false","","","","","","","","","","413.60000014305115","","95.09999990463257","","2","1","arrowright","1","arrowleft","[0.85,0.15,0.325,0.675]","","",""
"sailing-trial","414","1577029","0.0-11.0-369.0","","","","false","","","","","","","","","","null","","57.5","","3","1","null","null","arrowup","[0.85,0.15,0.325,0.675]","","",""
"sailing-trial","415","1579785","0.0-11.0-370.0","","","","false","","","","","","","","","","331.09999990463257","","103.29999995231628","","2","0","arrowright","1","arrowleft","[0.85,0.15,0.325,0.675]","","",""
"sailing-trial","416","1581112","0.0-11.0-371.0","","","","false","","","","","","","","","","null","","18.40000009536743","","2","0","null","null","arrowup","[0.85,0.15,0.325,0.675]","","",""
"sailing-trial","417","1584130","0.0-11.0-372.0","","","","false","","","","","","","","","","390.59999990463257","","48.799999952316284","","3","1","arrowright","1","arrowright","[0.85,0.15,0.325,0.675]","","",""
"sailing-trial","418","1586301","0.0-11.0-373.0","","","","false","","","","","","","","","","null","","158.79999995231628","","1","0","null","null","arrowup","[0.85,0.15,0.325,0.675]","","",""
"sailing-trial","419","1589694","0.0-11.0-374.0","","","","false","","","","","","","","","","69.79999995231628","","269.2000000476837","","3","0","arrowright","1","arrowright","[0.85,0.15,0.325,0.675]","","",""
"sailing-trial","420","1592029","0.0-11.0-375.0","","","","false","","","","","","","","","","null","","786.4000000953674","","1","1","null","null","arrowup","[0.85,0.15,0.325,0.675]","","",""
"sailing-trial","421","1595830","0.0-11.0-376.0","","","","false","","","","","","","","","","581.5999999046326","","257","","0","1","arrowleft","0","arrowleft","[0.85,0.15,0.325,0.675]","","",""
"sailing-trial","422","1597746","0.0-11.0-377.0","","","","false","","","","","","","","","","null","","65.5","","0","1","null","null","arrowup","[0.85,0.15,0.325,0.675]","","",""
"sailing-trial","423","1600946","0.0-11.0-378.0","","","","false","","","","","","","","","","466.10000014305115","","83.80000019073486","","0","1","arrowleft","0","arrowleft","[0.85,0.15,0.325,0.675]","","",""
"sailing-trial","424","1602896","0.0-11.0-379.0","","","","false","","","","","","","","","","null","","143.70000004768372","","0","1","null","null","arrowup","[0.85,0.15,0.325,0.675]","","",""
"sailing-trial","425","1605746","0.0-11.0-380.0","","","","false","","","","","","","","","","128.20000004768372","","196","","0","1","arrowleft","0","arrowleft","[0.85,0.15,0.325,0.675]","","",""
"sailing-trial","426","1607512","0.0-11.0-381.0","","","","false","","","","","","","","","","null","","110.10000014305115","","2","1","null","null","arrowup","[0.85,0.15,0.325,0.675]","","",""
"sailing-trial","427","1610863","0.0-11.0-382.0","","","","false","","","","","","","","","","55.5","","596","","0","1","arrowleft","0","arrowleft","[0.85,0.15,0.325,0.675]","","",""
"sailing-trial","428","1612528","0.0-11.0-383.0","","","","false","","","","","","","","","","null","","58","","0","1","null","null","arrowup","[0.85,0.15,0.325,0.675]","","",""
"sailing-trial","429","1616996","0.0-11.0-384.0","","","","false","","","","","","","","","","627.7000000476837","","1262.4000000953674","","0","1","arrowleft","0","arrowleft","[0.675,0.325,0.15,0.85]","","",""
"sailing-trial","430","1618913","0.0-11.0-385.0","","","","false","","","","","","","","","","null","","120.90000009536743","","3","1","null","null","arrowup","[0.675,0.325,0.15,0.85]","","",""
"sailing-trial","431","1622147","0.0-11.0-386.0","","","","false","","","","","","","","","","394.7000000476837","","160.89999985694885","","0","1","arrowleft","0","arrowleft","[0.675,0.325,0.15,0.85]","","",""
"sailing-trial","432","1624029","0.0-11.0-387.0","","","","false","","","","","","","","","","null","","181.19999980926514","","3","1","null","null","arrowup","[0.675,0.325,0.15,0.85]","","",""
"sailing-trial","433","1626511","0.0-11.0-388.0","","","","false","","","","","","","","","","187.10000014305115","","81.40000009536743","","0","0","arrowleft","0","arrowleft","[0.675,0.325,0.15,0.85]","","",""
"sailing-trial","434","1628429","0.0-11.0-389.0","","","","false","","","","","","","","","","null","","131.29999995231628","","3","1","null","null","arrowup","[0.675,0.325,0.15,0.85]","","",""
"sailing-trial","435","1631179","0.0-11.0-390.0","","","","false","","","","","","","","","","70","","25.799999952316284","","3","1","arrowright","1","arrowright","[0.675,0.325,0.15,0.85]","","",""
"sailing-trial","436","1632812","0.0-11.0-391.0","","","","false","","","","","","","","","","null","","75.60000014305115","","0","1","null","null","arrowup","[0.675,0.325,0.15,0.85]","","",""
"sailing-trial","437","1635612","0.0-11.0-392.0","","","","false","","","","","","","","","","40.799999952316284","","131.10000014305115","","3","1","arrowright","1","arrowright","[0.675,0.325,0.15,0.85]","","",""
"sailing-trial","438","1637496","0.0-11.0-393.0","","","","false","","","","","","","","","","null","","11","","3","1","null","null","arrowup","[0.675,0.325,0.15,0.85]","","",""
"sailing-trial","439","1640279","0.0-11.0-394.0","","","","false","","","","","","","","","","94.09999990463257","","136.90000009536743","","3","1","arrowright","1","arrowright","[0.675,0.325,0.15,0.85]","","",""
"sailing-trial","440","1642096","0.0-11.0-395.0","","","","false","","","","","","","","","","null","","8.900000095367432","","0","1","null","null","arrowup","[0.675,0.325,0.15,0.85]","","",""
"sailing-trial","441","1645146","0.0-11.0-396.0","","","","false","","","","","","","","","","33.5","","327","","3","1","arrowright","1","arrowright","[0.675,0.325,0.15,0.85]","","",""
"sailing-trial","442","1646980","0.0-11.0-397.0","","","","false","","","","","","","","","","null","","188","","0","1","null","null","arrowup","[0.675,0.325,0.15,0.85]","","",""
"sailing-trial","443","1649996","0.0-11.0-398.0","","","","false","","","","","","","","","","208.90000009536743","","75.29999995231628","","3","1","arrowright","1","arrowright","[0.675,0.325,0.15,0.85]","","",""
"sailing-trial","444","1651431","0.0-11.0-399.0","","","","false","","","","","","","","","","null","","171.29999995231628","","3","0","null","null","arrowup","[0.675,0.325,0.15,0.85]","","",""
"instructions","445","1655458","0.0-12.0","","","","","","","","","","4026.9000000953674","","","","","","","","","","","","","","","","[{""page_index"":0,""viewing_time"":4026.0999999046326}]"
"survey-debrief","446","1689209","0.0-13.0","","","","","","","","","","33748.299999952316","","","","","","","","","","","","","","{""difficulty"":""4"",""fun"":""2"",""clarity"":""4"",""strategy"":""No."",""feedback"":""No.""}","",""
