"trial_type","trial_index","time_elapsed","internal_node_id","value","metadata","success","timeout","failed_images","failed_audio","failed_video","browser_interaction","low_quality","rt","stimulus","response","button_pressed","island_rt","island_response","boat_rt","boat_response","boat","reward","island_key","island","boat_key","reward_probabilities","responses","num_errors","view_history"
"pavlovia","0","2","0.0-0.0","","","","","","","","","","","","","","","","","","","","","","","","","",""
"call-function","1","3","0.0-1.0","","{""task_version"":""sailing_part1_v1"",""task_condition"":""good"",""boats"":[""D"",""C"",""A"",""B""],""boats_demo"":[""E"",""F"",""G"",""H""],""islands"":[""B"",""A""],""subject_id"":""13877"",""age"":""13"",""gender"":""Female""}","","","","","","","","","","","","","","","","","","","","","","","",""
"preload","2","2823","0.0-2.0","","","true","false","[]","[]","[]","[{""event"":""fullscreenenter"",""trial"":3,""time"":5201}]","false","","","","","","","","","","","","","","","","",""
"fullscreen","3","6186","0.0-3.0","","","true","","","","","","","","","","","","","","","","","","","","","","",""
"audio-keyboard-response","4","9313","0.0-4.0-0.0","","","","","","","","","","3076.643990929705","audio/beep_loop.wav"," ","","","","","","","","","","","","","",""
"audio-test","5","11107","0.0-4.0-1.0","","","","","","","","","","null","audio/turtle.mp3","","3","","","","","","","","","","","","",""
"audio-test","6","12987","0.0-4.0-2.0","","","","","","","","","","null","audio/shark.mp3","","2","","","","","","","","","","","","",""
"sailing-instructions","7","47336","0.0-5.0-0.0-0.0","","","","","","","","","","","","","","null","null","null","null","null","null","","","","","","",""
"sailing-trial","8","52082","0.0-5.0-0.0-1.0-0.0","","","","false","","","","","","","","","","3613.1000000089407","","null","","null","null","arrowleft","0","null","null","","",""
"sailing-trial","9","54201","0.0-5.0-0.0-1.0-1.0","","","","false","","","","","","","","","","993.8000000119209","","null","","null","null","arrowright","1","null","null","","",""
"sailing-trial","10","60048","0.0-5.0-0.0-1.0-2.0","","","","false","","","","","","","","","","4720.100000008941","","null","","null","null","arrowright","1","null","null","","",""
"sailing-instructions","11","101620","0.0-5.0-0.0-2.0","","","","","","","","","","","","","","null","null","null","null","0","null","","","","","","",""
"sailing-trial","12","107732","0.0-5.0-0.0-3.0-0.0","","","","false","","","","","","","","","","null","","2951.5999999940395","","2","1","null","null","arrowleft","[1,1,1,1]","","",""
"sailing-trial","13","111015","0.0-5.0-0.0-3.0-1.0","","","","false","","","","","","","","","","null","","611","","3","1","null","null","arrowright","[1,1,1,1]","","",""
"sailing-trial","14","116582","0.0-5.0-0.0-3.0-2.0","","","","false","","","","","","","","","","null","","2865.1000000089407","","2","0","null","null","arrowleft","[0,0,0,0]","","",""
"sailing-instructions","15","123969","0.0-5.0-0.0-4.0","","","","","","","","","","","","","","null","null","null","null","null","null","","","","","","",""
"sailing-comprehension","16","146568","0.0-5.0-0.0-5.0","","","","","","","","","","12531.70000000298","","","","","","","","","","","","","","[""true"",""false"",""true"",""true""]","2",""
"sailing-instructions","17","179272","0.0-5.0-0.1-0.1","","","","","","","","","","","","","","null","null","null","null","null","null","","","","","","",""
"sailing-trial","18","183592","0.0-5.0-0.1-1.1-0.1","","","","false","","","","","","","","","","3212.2000000029802","","null","","null","null","arrowleft","0","null","null","","",""
"sailing-trial","19","185426","0.0-5.0-0.1-1.1-1.1","","","","false","","","","","","","","","","712.3999999910593","","null","","null","null","arrowright","1","null","null","","",""
"sailing-trial","20","189323","0.0-5.0-0.1-1.1-2.1","","","","false","","","","","","","","","","2773.2999999970198","","null","","null","null","arrowright","1","null","null","","",""
"sailing-instructions","21","232993","0.0-5.0-0.1-2.1","","","","","","","","","","","","","","null","null","null","null","0","null","","","","","","",""
"sailing-trial","22","237984","0.0-5.0-0.1-3.1-0.1","","","","false","","","","","","","","","","null","","2086.300000011921","","2","1","null","null","arrowleft","[1,1,1,1]","","",""
"sailing-trial","23","241117","0.0-5.0-0.1-3.1-1.1","","","","false","","","","","","","","","","null","","586.1999999880791","","3","1","null","null","arrowright","[1,1,1,1]","","",""
"sailing-trial","24","245154","0.0-5.0-0.1-3.1-2.1","","","","false","","","","","","","","","","null","","490.29999999701977","","3","0","null","null","arrowright","[0,0,0,0]","","",""
"sailing-instructions","25","252810","0.0-5.0-0.1-4.1","","","","","","","","","","","","","","null","null","null","null","null","null","","","","","","",""
"sailing-comprehension","26","270584","0.0-5.0-0.1-5.1","","","","","","","","","","16032.29999999702","","","","","","","","","","","","","","[""true"",""true"",""false"",""true""]","0",""
"sailing-instructions","27","346416","0.0-6.0-0.0-0.0","","","","","","","","","","","","","","null","null","null","null","null","null","","","","","","",""
"sailing-comprehension","28","364607","0.0-6.0-0.0-1.0","","","","","","","","","","12404.89999999106","","","","","","","","","","","","","","[""true"",""false"",""true""]","0",""
"sailing-instructions","29","379536","0.0-7.0-0.0-0.0","","","","","","","","","","","","","","null","null","null","null","null","null","","","","","","",""
"sailing-trial","30","384629","0.0-7.0-0.0-1.0-0.0","","","","false","","","","","","","","","","null","","2579.5","","0","0","null","null","arrowup","[0.2,0.8,0.2,0.8]","","",""
"sailing-trial","31","388665","0.0-7.0-0.0-1.0-1.0","","","","false","","","","","","","","","","null","","1431.0999999940395","","1","1","null","null","arrowup","[0.2,0.8,0.2,0.8]","","",""
"sailing-trial","32","391526","0.0-7.0-0.0-1.0-2.0","","","","false","","","","","","","","","","null","","1220","","2","0","null","null","arrowup","[0.2,0.8,0.2,0.8]","","",""
"sailing-trial","33","394014","0.0-7.0-0.0-1.0-3.0","","","","false","","","","","","","","","","null","","404.6000000089407","","3","1","null","null","arrowup","[0.2,0.8,0.2,0.8]","","",""
"sailing-comprehension","34","402406","0.0-7.0-0.0-2.0","","","","","","","","","","6789","","","","","","","","","","","","","","[""false""]","0",""
"sailing-instructions","35","414424","0.0-8.0-0.0-0.0","","","","","","","","","","","","","","null","null","null","null","null","null","","","","","","",""
"sailing-comprehension","36","425213","0.0-8.0-0.0-1.0","","","","","","","","","","4427.9000000059605","","","","","","","","","","","","","","[""false""]","1",""
"sailing-instructions","37","438808","0.0-8.0-0.1-0.1","","","","","","","","","","","","","","null","null","null","null","null","null","","","","","","",""
"sailing-comprehension","38","453329","0.0-8.0-0.1-1.1","","","","","","","","","","11700","","","","","","","","","","","","","","[""true""]","0",""
"sailing-instructions","39","479845","0.0-9.0-0.0-0.0","","","","","","","","","","","","","","null","null","null","null","null","null","","","","","","",""
"sailing-trial","40","485760","0.0-9.0-0.0-1.0-0.0","","","","false","","","","","","","","","","1458.4000000059605","","1240.2000000029802","","2","1","arrowright","1","arrowleft","[0.2,0.8,0.2,0.8]","","",""
"sailing-trial","41","490877","0.0-9.0-0.0-1.0-1.0","","","","false","","","","","","","","","","757.6000000089407","","177.29999999701977","","1","1","arrowleft","0","arrowright","[0.2,0.8,0.2,0.8]","","",""
"sailing-trial","42","493744","0.0-9.0-0.0-1.0-2.0","","","","false","","","","","","","","","","null","","1092.2000000029802","","0","1","null","null","arrowup","[0.2,0.8,0.2,0.8]","","",""
"sailing-trial","43","498097","0.0-9.0-0.0-1.0-3.0","","","","false","","","","","","","","","","1101.2000000029802","","296.3999999910593","","3","1","arrowright","1","arrowright","[0.2,0.8,0.2,0.8]","","",""
"sailing-trial","44","501498","0.0-9.0-0.0-1.0-4.0","","","","false","","","","","","","","","","null","","1113.800000011921","","3","1","null","null","arrowup","[0.2,0.8,0.2,0.8]","","",""
"sailing-trial","45","505396","0.0-9.0-0.0-1.0-5.0","","","","false","","","","","","","","","","596.9000000059605","","466.70000000298023","","0","0","arrowleft","0","arrowleft","[0.2,0.8,0.2,0.8]","","",""
"sailing-instructions","46","536771","0.0-10.0","","","","","","","","","","","","","","null","null","null","null","null","null","","","","","","",""
"sailing-trial","47","542139","0.0-11.0-0.0","","","","false","","","","","","","","","","1895.9000000059605","","465.09999999403954","","3","0","arrowright","1","arrowright","[0.325,0.675,0.85,0.15]","","",""
"sailing-trial","48","544976","0.0-11.0-1.0","","","","false","","","","","","","","","","null","","1039.2000000029802","","1","0","null","null","arrowup","[0.325,0.675,0.85,0.15]","","",""
"sailing-trial","49","549577","0.0-11.0-2.0","","","","false","","","","","","","","","","1010.2000000029802","","286.80000001192093","","1","0","arrowleft","0","arrowright","[0.325,0.675,0.85,0.15]","","",""
"sailing-trial","50","553044","0.0-11.0-3.0","","","","false","","","","","","","","","","null","","1582.7000000029802","","2","1","null","null","arrowup","[0.325,0.675,0.85,0.15]","","",""
"sailing-trial","51","557657","0.0-11.0-4.0","","","","false","","","","","","","","","","1649.1000000089407","","305.79999999701977","","0","0","arrowleft","0","arrowleft","[0.325,0.675,0.85,0.15]","","",""
"sailing-trial","52","560490","0.0-11.0-5.0","","","","false","","","","","","","","","","null","","1228.7000000029802","","1","0","null","null","arrowup","[0.325,0.675,0.85,0.15]","","",""
"sailing-trial","53","564468","0.0-11.0-6.0","","","","false","","","","","","","","","","743.0999999940395","","364.6000000089407","","3","0","arrowright","1","arrowright","[0.325,0.675,0.85,0.15]","","",""
"sailing-trial","54","567374","0.0-11.0-7.0","","","","false","","","","","","","","","","null","","1220.4000000059605","","0","0","null","null","arrowup","[0.325,0.675,0.85,0.15]","","",""
"sailing-trial","55","572342","0.0-11.0-8.0","","","","false","","","","","","","","","","1236","","683","","2","1","arrowright","1","arrowleft","[0.325,0.675,0.85,0.15]","","",""
"sailing-trial","56","575545","0.0-11.0-9.0","","","","false","","","","","","","","","","null","","918.9000000059605","","3","0","null","null","arrowup","[0.325,0.675,0.85,0.15]","","",""
"sailing-trial","57","581237","0.0-11.0-10.0","","","","false","","","","","","","","","","1040.2999999970198","","1505.3999999910593","","1","1","arrowleft","0","arrowright","[0.325,0.675,0.85,0.15]","","",""
"sailing-trial","58","584271","0.0-11.0-11.0","","","","false","","","","","","","","","","null","","991.8999999910593","","2","1","null","null","arrowup","[0.325,0.675,0.85,0.15]","","",""
"sailing-trial","59","588520","0.0-11.0-12.0","","","","false","","","","","","","","","","792.2000000029802","","400.5","","2","1","arrowright","1","arrowleft","[0.325,0.675,0.85,0.15]","","",""
"sailing-trial","60","590861","0.0-11.0-13.0","","","","false","","","","","","","","","","null","","797","","1","0","null","null","arrowup","[0.325,0.675,0.85,0.15]","","",""
"sailing-trial","61","594536","0.0-11.0-14.0","","","","false","","","","","","","","","","1015.8999999910593","","68.29999999701977","","1","0","arrowleft","0","arrowright","[0.325,0.675,0.85,0.15]","","",""
"sailing-trial","62","597520","0.0-11.0-15.0","","","","false","","","","","","","","","","null","","942.5999999940395","","0","1","null","null","arrowup","[0.325,0.675,0.85,0.15]","","",""
"sailing-trial","63","601084","0.0-11.0-16.0","","","","false","","","","","","","","","","569.6000000089407","","270.29999999701977","","0","0","arrowleft","0","arrowleft","[0.325,0.675,0.85,0.15]","","",""
"sailing-trial","64","604003","0.0-11.0-17.0","","","","false","","","","","","","","","","null","","866.9000000059605","","2","1","null","null","arrowup","[0.325,0.675,0.85,0.15]","","",""
"sailing-trial","65","608110","0.0-11.0-18.0","","","","false","","","","","","","","","","781.7000000029802","","383.5","","2","1","arrowright","1","arrowleft","[0.15,0.85,0.675,0.325]","","",""
"sailing-trial","66","610910","0.0-11.0-19.0","","","","false","","","","","","","","","","null","","933.2999999970198","","2","1","null","null","arrowup","[0.15,0.85,0.675,0.325]","","",""
"sailing-trial","67","614960","0.0-11.0-20.0","","","","false","","","","","","","","","","861.7999999970198","","163.79999999701977","","2","1","arrowright","1","arrowleft","[0.15,0.85,0.675,0.325]","","",""
"sailing-trial","68","617787","0.0-11.0-21.0","","","","false","","","","","","","","","","null","","997.6000000089407","","0","0","null","null","arrowup","[0.15,0.85,0.675,0.325]","","",""
"sailing-trial","69","621377","0.0-11.0-22.0","","","","false","","","","","","","","","","512.5","","46.79999999701977","","1","1","arrowleft","0","arrowright","[0.15,0.85,0.675,0.325]","","",""
"sailing-trial","70","624343","0.0-11.0-23.0","","","","false","","","","","","","","","","null","","822","","3","1","null","null","arrowup","[0.15,0.85,0.675,0.325]","","",""
"sailing-trial","71","629043","0.0-11.0-24.0","","","","false","","","","","","","","","","1455.2000000029802","","245.8999999910593","","1","1","arrowleft","0","arrowright","[0.15,0.85,0.675,0.325]","","",""
"sailing-trial","72","631842","0.0-11.0-25.0","","","","false","","","","","","","","","","null","","1214.699999988079","","1","0","null","null","arrowup","[0.15,0.85,0.675,0.325]","","",""
"sailing-trial","73","635493","0.0-11.0-26.0","","","","false","","","","","","","","","","567.2999999970198","","203.40000000596046","","2","1","arrowright","1","arrowleft","[0.15,0.85,0.675,0.325]","","",""
"sailing-trial","74","638193","0.0-11.0-27.0","","","","false","","","","","","","","","","null","","776.7999999970198","","2","1","null","null","arrowup","[0.15,0.85,0.675,0.325]","","",""
"sailing-trial","75","642700","0.0-11.0-28.0","","","","false","","","","","","","","","","1569.5","","174.5","","3","0","arrowright","1","arrowright","[0.15,0.85,0.675,0.325]","","",""
"sailing-trial","76","645342","0.0-11.0-29.0","","","","false","","","","","","","","","","null","","737.2000000029802","","1","1","null","null","arrowup","[0.15,0.85,0.675,0.325]","","",""
"sailing-trial","77","649037","0.0-11.0-30.0","","","","false","","","","","","","","","","636","","140.6000000089407","","0","0","arrowleft","0","arrowleft","[0.15,0.85,0.675,0.325]","","",""
"sailing-trial","78","651874","0.0-11.0-31.0","","","","false","","","","","","","","","","null","","925","","2","1","null","null","arrowup","[0.15,0.85,0.675,0.325]","","",""
"sailing-trial","79","655869","0.0-11.0-32.0","","","","false","","","","","","","","","","632.1000000089407","","247","","2","0","arrowright","1","arrowleft","[0.15,0.85,0.675,0.325]","","",""
"sailing-trial","80","658376","0.0-11.0-33.0","","","","false","","","","","","","","","","null","","906","","3","0","null","null","arrowup","[0.15,0.85,0.675,0.325]","","",""
"sailing-trial","81","662506","0.0-11.0-34.0","","","","false","","","","","","","","","","740.9000000059605","","122.1000000089407","","1","1","arrowleft","0","arrowright","[0.15,0.85,0.675,0.325]","","",""
"sailing-trial","82","665756","0.0-11.0-35.0","","","","false","","","","","","","","","","null","","858.7999999970198","","2","1","null","null","arrowup","[0.15,0.85,0.675,0.325]","","",""
"sailing-trial","83","669162","0.0-11.0-36.0","","","","false","","","","","","","","","","678.2000000029802","","16.80000001192093","","2","0","arrowright","1","arrowleft","[0.15,0.85,0.675,0.325]","","",""
"sailing-trial","84","671536","0.0-11.0-37.0","","","","false","","","","","","","","","","null","","694.9000000059605","","3","0","null","null","arrowup","[0.15,0.85,0.675,0.325]","","",""
"sailing-trial","85","675732","0.0-11.0-38.0","","","","false","","","","","","","","","","534.6000000089407","","461.29999999701977","","1","1","arrowleft","0","arrowright","[0.15,0.85,0.675,0.325]","","",""
"sailing-trial","86","678302","0.0-11.0-39.0","","","","false","","","","","","","","","","null","","1004.0999999940395","","3","0","null","null","arrowup","[0.15,0.85,0.675,0.325]","","",""
"sailing-trial","87","682066","0.0-11.0-40.0","","","","false","","","","","","","","","","592.4000000059605","","3.0999999940395355","","3","1","arrowright","1","arrowright","[0.15,0.85,0.675,0.325]","","",""
"sailing-trial","88","684376","0.0-11.0-41.0","","","","false","","","","","","","","","","null","","846.5999999940395","","1","0","null","null","arrowup","[0.15,0.85,0.675,0.325]","","",""
"sailing-trial","89","687665","0.0-11.0-42.0","","","","false","","","","","","","","","","601.4000000059605","","150.3999999910593","","0","0","arrowleft","0","arrowleft","[0.325,0.675,0.85,0.15]","","",""
"sailing-trial","90","690062","0.0-11.0-43.0","","","","false","","","","","","","","","","null","","896.2000000029802","","3","0","null","null","arrowup","[0.325,0.675,0.85,0.15]","","",""
"sailing-trial","91","694082","0.0-11.0-44.0","","","","false","","","","","","","","","","815","","262.6000000089407","","2","1","arrowright","1","arrowleft","[0.325,0.675,0.85,0.15]","","",""
"sailing-trial","92","697366","0.0-11.0-45.0","","","","false","","","","","","","","","","null","","1023.7000000029802","","3","1","null","null","arrowup","[0.325,0.675,0.85,0.15]","","",""
"sailing-trial","93","700588","0.0-11.0-46.0","","","","false","","","","","","","","","","496.20000000298023","","130.70000000298023","","2","0","arrowright","1","arrowleft","[0.325,0.675,0.85,0.15]","","",""
"sailing-trial","94","705730","0.0-11.0-47.0","","","","false","","","","","","","","","","null","","1137","","2","1","null","null","arrowup","[0.325,0.675,0.85,0.15]","","",""
"sailing-trial","95","714002","0.0-11.0-48.0","","","","false","","","","","","","","","","1040.3999999910593","","1563.5","","1","1","arrowleft","0","arrowright","[0.325,0.675,0.85,0.15]","","",""
"sailing-trial","96","717069","0.0-11.0-49.0","","","","false","","","","","","","","","","null","","926.1999999880791","","2","0","null","null","arrowup","[0.325,0.675,0.85,0.15]","","",""
"sailing-trial","97","720933","0.0-11.0-50.0","","","","false","","","","","","","","","","664.2000000029802","","204.5","","2","1","arrowright","1","arrowleft","[0.325,0.675,0.85,0.15]","","",""
"sailing-trial","98","724199","0.0-11.0-51.0","","","","false","","","","","","","","","","null","","912.1000000089407","","0","1","null","null","arrowup","[0.325,0.675,0.85,0.15]","","",""
"sailing-trial","99","729287","0.0-11.0-52.0","","","","false","","","","","","","","","","885.9000000059605","","498.6000000089407","","3","0","arrowright","1","arrowright","[0.325,0.675,0.85,0.15]","","",""
"sailing-trial","100","732989","0.0-11.0-53.0","","","","false","","","","","","","","","","null","","1522.7000000029802","","2","1","null","null","arrowup","[0.325,0.675,0.85,0.15]","","",""
"sailing-trial","101","737489","0.0-11.0-54.0","","","","false","","","","","","","","","","1075.7000000029802","","290.79999999701977","","1","1","arrowleft","0","arrowright","[0.325,0.675,0.85,0.15]","","",""
"sailing-trial","102","740313","0.0-11.0-55.0","","","","false","","","","","","","","","","null","","925.4000000059605","","1","0","null","null","arrowup","[0.325,0.675,0.85,0.15]","","",""
"sailing-trial","103","744187","0.0-11.0-56.0","","","","false","","","","","","","","","","777.0999999940395","","209.90000000596046","","2","1","arrowright","1","arrowleft","[0.325,0.675,0.85,0.15]","","",""
"sailing-trial","104","747637","0.0-11.0-57.0","","","","false","","","","","","","","","","null","","1405.5","","1","1","null","null","arrowup","[0.325,0.675,0.85,0.15]","","",""
"sailing-trial","105","750807","0.0-11.0-58.0","","","","false","","","","","","","","","","683","","85.90000000596046","","1","0","arrowleft","0","arrowright","[0.675,0.325,0.15,0.85]","","",""
"sailing-trial","106","753743","0.0-11.0-59.0","","","","false","","","","","","","","","","null","","961.5999999940395","","3","1","null","null","arrowup","[0.675,0.325,0.15,0.85]","","",""
"sailing-trial","107","757542","0.0-11.0-60.0","","","","false","","","","","","","","","","597.5","","311.59999999403954","","3","0","arrowright","1","arrowright","[0.675,0.325,0.15,0.85]","","",""
"sailing-trial","108","760236","0.0-11.0-61.0","","","","false","","","","","","","","","","null","","990.9000000059605","","2","0","null","null","arrowup","[0.675,0.325,0.15,0.85]","","",""
"sailing-trial","109","763788","0.0-11.0-62.0","","","","false","","","","","","","","","","614.1999999880791","","245.79999999701977","","2","0","arrowright","1","arrowleft","[0.675,0.325,0.15,0.85]","","",""
"sailing-trial","110","766418","0.0-11.0-63.0","","","","false","","","","","","","","","","null","","999.5","","0","0","null","null","arrowup","[0.675,0.325,0.15,0.85]","","",""
"sailing-trial","111","770729","0.0-11.0-64.0","","","","false","","","","","","","","","","783.7000000029802","","387.09999999403954","","3","1","arrowright","1","arrowright","[0.675,0.325,0.15,0.85]","","",""
"sailing-trial","112","773326","0.0-11.0-65.0","","","","false","","","","","","","","","","null","","990.3000000119209","","2","0","null","null","arrowup","[0.675,0.325,0.15,0.85]","","",""
"sailing-trial","113","776737","0.0-11.0-66.0","","","","false","","","","","","","","","","607.7999999970198","","268.29999999701977","","3","0","arrowright","1","arrowright","[0.675,0.325,0.15,0.85]","","",""
"sailing-trial","114","779861","0.0-11.0-67.0","","","","false","","","","","","","","","","null","","994","","3","1","null","null","arrowup","[0.675,0.325,0.15,0.85]","","",""
"sailing-trial","115","783423","0.0-11.0-68.0","","","","false","","","","","","","","","","698.6000000089407","","285.8999999910593","","1","0","arrowleft","0","arrowright","[0.675,0.325,0.15,0.85]","","",""
"sailing-trial","116","786367","0.0-11.0-69.0","","","","false","","","","","","","","","","null","","1187.4000000059605","","2","0","null","null","arrowup","[0.675,0.325,0.15,0.85]","","",""
"sailing-trial","117","789862","0.0-11.0-70.0","","","","false","","","","","","","","","","517.9000000059605","","355","","1","0","arrowleft","0","arrowright","[0.675,0.325,0.15,0.85]","","",""
"sailing-trial","118","792751","0.0-11.0-71.0","","","","false","","","","","","","","","","null","","1333.1000000089407","","3","0","null","null","arrowup","[0.675,0.325,0.15,0.85]","","",""
"sailing-trial","119","796563","0.0-11.0-72.0","","","","false","","","","","","","","","","572.8999999910593","","25.599999994039536","","2","1","arrowright","1","arrowleft","[0.675,0.325,0.15,0.85]","","",""
"sailing-trial","120","798975","0.0-11.0-73.0","","","","false","","","","","","","","","","null","","962.5","","2","0","null","null","arrowup","[0.675,0.325,0.15,0.85]","","",""
"sailing-trial","121","803280","0.0-11.0-74.0","","","","false","","","","","","","","","","952.7000000029802","","305.5","","2","1","arrowright","1","arrowleft","[0.85,0.15,0.325,0.675]","","",""
"sailing-trial","122","806043","0.0-11.0-75.0","","","","false","","","","","","","","","","null","","1069","","1","0","null","null","arrowup","[0.85,0.15,0.325,0.675]","","",""
"sailing-trial","123","810128","0.0-11.0-76.0","","","","false","","","","","","","","","","654.2000000029802","","287.59999999403954","","3","1","arrowright","1","arrowright","[0.85,0.15,0.325,0.675]","","",""
"sailing-trial","124","813809","0.0-11.0-77.0","","","","false","","","","","","","","","","null","","1631.8999999910593","","2","1","null","null","arrowup","[0.85,0.15,0.325,0.675]","","",""
"sailing-trial","125","817692","0.0-11.0-78.0","","","","false","","","","","","","","","","784.2000000029802","","202.29999999701977","","3","1","arrowright","1","arrowright","[0.85,0.15,0.325,0.675]","","",""
"sailing-trial","126","822366","0.0-11.0-79.0","","","","false","","","","","","","","","","null","","2778.2000000029802","","3","1","null","null","arrowup","[0.85,0.15,0.325,0.675]","","",""
"sailing-trial","127","826134","0.0-11.0-80.0","","","","false","","","","","","","","","","538.9000000059605","","164.5","","3","1","arrowright","1","arrowright","[0.85,0.15,0.325,0.675]","","",""
"sailing-trial","128","828728","0.0-11.0-81.0","","","","false","","","","","","","","","","null","","970.4000000059605","","1","0","null","null","arrowup","[0.85,0.15,0.325,0.675]","","",""
"sailing-trial","129","832200","0.0-11.0-82.0","","","","false","","","","","","","","","","716.4000000059605","","243.20000000298023","","3","0","arrowright","1","arrowright","[0.85,0.15,0.325,0.675]","","",""
"sailing-trial","130","835294","0.0-11.0-83.0","","","","false","","","","","","","","","","null","","1584.699999988079","","1","0","null","null","arrowup","[0.85,0.15,0.325,0.675]","","",""
"sailing-trial","131","839399","0.0-11.0-84.0","","","","false","","","","","","","","","","532.5","","602.4000000059605","","3","1","arrowright","1","arrowright","[0.85,0.15,0.325,0.675]","","",""
"sailing-trial","132","842498","0.0-11.0-85.0","","","","false","","","","","","","","","","null","","1013.0999999940395","","2","1","null","null","arrowup","[0.85,0.15,0.325,0.675]","","",""
"sailing-trial","133","846364","0.0-11.0-86.0","","","","false","","","","","","","","","","615.9000000059605","","190.79999999701977","","3","1","arrowright","1","arrowright","[0.85,0.15,0.325,0.675]","","",""
"sailing-trial","134","849532","0.0-11.0-87.0","","","","false","","","","","","","","","","null","","1030.4000000059605","","3","1","null","null","arrowup","[0.85,0.15,0.325,0.675]","","",""
"sailing-trial","135","854092","0.0-11.0-88.0","","","","false","","","","","","","","","","629.2000000029802","","463.29999999701977","","3","0","arrowright","1","arrowright","[0.85,0.15,0.325,0.675]","","",""
"sailing-trial","136","857548","0.0-11.0-89.0","","","","false","","","","","","","","","","null","","1022.7000000029802","","0","1","null","null","arrowup","[0.85,0.15,0.325,0.675]","","",""
"sailing-trial","137","861446","0.0-11.0-90.0","","","","false","","","","","","","","","","627.5","","356.3999999910593","","2","0","arrowright","1","arrowleft","[0.85,0.15,0.325,0.675]","","",""
"sailing-trial","138","866664","0.0-11.0-91.0","","","","false","","","","","","","","","","null","","3452.7999999970198","","1","0","null","null","arrowup","[0.85,0.15,0.325,0.675]","","",""
"sailing-trial","139","870809","0.0-11.0-92.0","","","","false","","","","","","","","","","494","","754.9000000059605","","2","0","arrowright","1","arrowleft","[0.325,0.675,0.85,0.15]","","",""
"sailing-trial","140","872960","0.0-11.0-93.0","","","","false","","","","","","","","","","null","","891.1000000089407","","3","0","null","null","arrowup","[0.325,0.675,0.85,0.15]","","",""
"sailing-trial","141","876524","0.0-11.0-94.0","","","","false","","","","","","","","","","681.9000000059605","","331.29999999701977","","3","0","arrowright","1","arrowright","[0.325,0.675,0.85,0.15]","","",""
"sailing-trial","142","878979","0.0-11.0-95.0","","","","false","","","","","","","","","","null","","966.6000000089407","","2","0","null","null","arrowup","[0.325,0.675,0.85,0.15]","","",""
"sailing-trial","143","882827","0.0-11.0-96.0","","","","false","","","","","","","","","","552.6000000089407","","349.5","","1","1","arrowleft","0","arrowright","[0.325,0.675,0.85,0.15]","","",""
"sailing-trial","144","885682","0.0-11.0-97.0","","","","false","","","","","","","","","","null","","941.4000000059605","","3","0","null","null","arrowup","[0.325,0.675,0.85,0.15]","","",""
"sailing-trial","145","889344","0.0-11.0-98.0","","","","false","","","","","","","","","","565.5","","143.79999999701977","","1","1","arrowleft","0","arrowright","[0.325,0.675,0.85,0.15]","","",""
"sailing-trial","146","892285","0.0-11.0-99.0","","","","false","","","","","","","","","","null","","835","","3","1","null","null","arrowup","[0.325,0.675,0.85,0.15]","","",""
"sailing-trial","147","896017","0.0-11.0-100.0","","","","false","","","","","","","","","","515.4000000059605","","290.79999999701977","","1","1","arrowleft","0","arrowright","[0.325,0.675,0.85,0.15]","","",""
"sailing-trial","148","898617","0.0-11.0-101.0","","","","false","","","","","","","","","","null","","701.7000000029802","","1","1","null","null","arrowup","[0.325,0.675,0.85,0.15]","","",""
"sailing-trial","149","902768","0.0-11.0-102.0","","","","false","","","","","","","","","","1059.3999999910593","","350.40000000596046","","1","1","arrowleft","0","arrowright","[0.325,0.675,0.85,0.15]","","",""
"sailing-trial","150","905533","0.0-11.0-103.0","","","","false","","","","","","","","","","null","","838.6000000089407","","1","1","null","null","arrowup","[0.325,0.675,0.85,0.15]","","",""
"sailing-trial","151","909734","0.0-11.0-104.0","","","","false","","","","","","","","","","686.9000000059605","","591.1000000089407","","1","1","arrowleft","0","arrowright","[0.325,0.675,0.85,0.15]","","",""
"sailing-trial","152","912375","0.0-11.0-105.0","","","","false","","","","","","","","","","null","","1174.2000000029802","","0","0","null","null","arrowup","[0.325,0.675,0.85,0.15]","","",""
"sailing-trial","153","918155","0.0-11.0-106.0","","","","false","","","","","","","","","","2516.9000000059605","","253.6000000089407","","1","0","arrowleft","0","arrowright","[0.325,0.675,0.85,0.15]","","",""
"sailing-trial","154","920624","0.0-11.0-107.0","","","","false","","","","","","","","","","null","","934.8000000119209","","0","0","null","null","arrowup","[0.325,0.675,0.85,0.15]","","",""
"sailing-trial","155","924048","0.0-11.0-108.0","","","","false","","","","","","","","","","549.0999999940395","","373.5","","3","0","arrowright","1","arrowright","[0.85,0.15,0.325,0.675]","","",""
"sailing-trial","156","926458","0.0-11.0-109.0","","","","false","","","","","","","","","","null","","910.0999999940395","","1","0","null","null","arrowup","[0.85,0.15,0.325,0.675]","","",""
"sailing-trial","157","929758","0.0-11.0-110.0","","","","false","","","","","","","","","","535.5","","161.29999999701977","","2","0","arrowright","1","arrowleft","[0.85,0.15,0.325,0.675]","","",""
"sailing-trial","158","932333","0.0-11.0-111.0","","","","false","","","","","","","","","","null","","1082.2000000029802","","0","0","null","null","arrowup","[0.85,0.15,0.325,0.675]","","",""
"sailing-trial","159","936837","0.0-11.0-112.0","","","","false","","","","","","","","","","1113","","375.8999999910593","","1","1","arrowleft","0","arrowright","[0.85,0.15,0.325,0.675]","","",""
"sailing-trial","160","939286","0.0-11.0-113.0","","","","false","","","","","","","","","","null","","951.5","","3","0","null","null","arrowup","[0.85,0.15,0.325,0.675]","","",""
"sailing-trial","161","942797","0.0-11.0-114.0","","","","false","","","","","","","","","","625.8999999910593","","370.6000000089407","","1","0","arrowleft","0","arrowright","[0.85,0.15,0.325,0.675]","","",""
"sailing-trial","162","945484","0.0-11.0-115.0","","","","false","","","","","","","","","","null","","998.0999999940395","","0","0","null","null","arrowup","[0.85,0.15,0.325,0.675]","","",""
"sailing-trial","163","949019","0.0-11.0-116.0","","","","false","","","","","","","","","","927.8999999910593","","32.70000000298023","","1","0","arrowleft","0","arrowright","[0.85,0.15,0.325,0.675]","","",""
"sailing-trial","164","952054","0.0-11.0-117.0","","","","false","","","","","","","","","","null","","1113.2999999970198","","0","1","null","null","arrowup","[0.85,0.15,0.325,0.675]","","",""
"sailing-trial","165","957127","0.0-11.0-118.0","","","","false","","","","","","","","","","1201.8999999910593","","371.29999999701977","","1","1","arrowleft","0","arrowright","[0.85,0.15,0.325,0.675]","","",""
"sailing-trial","166","960290","0.0-11.0-119.0","","","","false","","","","","","","","","","null","","1737.699999988079","","1","0","null","null","arrowup","[0.85,0.15,0.325,0.675]","","",""
"sailing-trial","167","963744","0.0-11.0-120.0","","","","false","","","","","","","","","","558.1000000089407","","436.69999998807907","","3","0","arrowright","1","arrowright","[0.85,0.15,0.325,0.675]","","",""
"sailing-trial","168","966578","0.0-11.0-121.0","","","","false","","","","","","","","","","null","","1083.199999988079","","1","0","null","null","arrowup","[0.85,0.15,0.325,0.675]","","",""
"sailing-trial","169","969870","0.0-11.0-122.0","","","","false","","","","","","","","","","516.2999999970198","","160.29999999701977","","2","0","arrowright","1","arrowleft","[0.85,0.15,0.325,0.675]","","",""
"sailing-trial","170","973201","0.0-11.0-123.0","","","","false","","","","","","","","","","null","","1766.7000000029802","","3","0","null","null","arrowup","[0.85,0.15,0.325,0.675]","","",""
"sailing-trial","171","976831","0.0-11.0-124.0","","","","false","","","","","","","","","","859.0999999940395","","41.5","","1","0","arrowleft","0","arrowright","[0.85,0.15,0.325,0.675]","","",""
"sailing-trial","172","979966","0.0-11.0-125.0","","","","false","","","","","","","","","","null","","1075.5999999940395","","2","1","null","null","arrowup","[0.85,0.15,0.325,0.675]","","",""
"sailing-trial","173","983716","0.0-11.0-126.0","","","","false","","","","","","","","","","595.8000000119209","","229.5","","2","0","arrowright","1","arrowleft","[0.675,0.325,0.15,0.85]","","",""
"sailing-trial","174","987291","0.0-11.0-127.0","","","","false","","","","","","","","","","null","","1460.4000000059605","","3","1","null","null","arrowup","[0.675,0.325,0.15,0.85]","","",""
"sailing-trial","175","990858","0.0-11.0-128.0","","","","false","","","","","","","","","","614.0999999940395","","34.29999999701977","","3","1","arrowright","1","arrowright","[0.675,0.325,0.15,0.85]","","",""
"sailing-trial","176","993876","0.0-11.0-129.0","","","","false","","","","","","","","","","null","","1057","","2","1","null","null","arrowup","[0.675,0.325,0.15,0.85]","","",""
"sailing-trial","177","997460","0.0-11.0-130.0","","","","false","","","","","","","","","","698.9000000059605","","297.8999999910593","","3","1","arrowright","1","arrowright","[0.675,0.325,0.15,0.85]","","",""
"sailing-trial","178","1000692","0.0-11.0-131.0","","","","false","","","","","","","","","","null","","1463","","0","1","null","null","arrowup","[0.675,0.325,0.15,0.85]","","",""
"sailing-trial","179","1005059","0.0-11.0-132.0","","","","false","","","","","","","","","","609.3999999910593","","259.79999999701977","","3","1","arrowright","1","arrowright","[0.675,0.325,0.15,0.85]","","",""
"sailing-trial","180","1008175","0.0-11.0-133.0","","","","false","","","","","","","","","","null","","1176.2000000029802","","1","1","null","null","arrowup","[0.675,0.325,0.15,0.85]","","",""
"sailing-trial","181","1012325","0.0-11.0-134.0","","","","false","","","","","","","","","","595.5999999940395","","455.8999999910593","","3","1","arrowright","1","arrowright","[0.675,0.325,0.15,0.85]","","",""
"sailing-trial","182","1015606","0.0-11.0-135.0","","","","false","","","","","","","","","","null","","1124.2999999970198","","0","1","null","null","arrowup","[0.675,0.325,0.15,0.85]","","",""
"sailing-trial","183","1020289","0.0-11.0-136.0","","","","false","","","","","","","","","","512.1999999880791","","251","","3","1","arrowright","1","arrowright","[0.675,0.325,0.15,0.85]","","",""
"sailing-trial","184","1023272","0.0-11.0-137.0","","","","false","","","","","","","","","","null","","1345.2999999970198","","3","1","null","null","arrowup","[0.675,0.325,0.15,0.85]","","",""
"sailing-trial","185","1026663","0.0-11.0-138.0","","","","false","","","","","","","","","","634.2999999970198","","6.799999997019768","","3","0","arrowright","1","arrowright","[0.675,0.325,0.15,0.85]","","",""
"sailing-trial","186","1029152","0.0-11.0-139.0","","","","false","","","","","","","","","","null","","834.5999999940395","","1","0","null","null","arrowup","[0.675,0.325,0.15,0.85]","","",""
"sailing-trial","187","1032855","0.0-11.0-140.0","","","","false","","","","","","","","","","625","","147","","0","1","arrowleft","0","arrowleft","[0.675,0.325,0.15,0.85]","","",""
"sailing-trial","188","1035688","0.0-11.0-141.0","","","","false","","","","","","","","","","null","","944.1000000089407","","0","1","null","null","arrowup","[0.675,0.325,0.15,0.85]","","",""
"sailing-trial","189","1040420","0.0-11.0-142.0","","","","false","","","","","","","","","","986.0999999940395","","706.7000000029802","","0","1","arrowleft","0","arrowleft","[0.675,0.325,0.15,0.85]","","",""
"sailing-trial","190","1045059","0.0-11.0-143.0","","","","false","","","","","","","","","","null","","3021.0999999940395","","3","0","null","null","arrowup","[0.675,0.325,0.15,0.85]","","",""
"sailing-trial","191","1048893","0.0-11.0-144.0","","","","false","","","","","","","","","","781.5999999940395","","394.79999999701977","","0","0","arrowleft","0","arrowleft","[0.675,0.325,0.15,0.85]","","",""
"sailing-trial","192","1054261","0.0-11.0-145.0","","","","false","","","","","","","","","","null","","2633.7000000029802","","0","1","null","null","arrowup","[0.675,0.325,0.15,0.85]","","",""
"sailing-trial","193","1057821","0.0-11.0-146.0","","","","false","","","","","","","","","","527.7000000029802","","388.5","","2","0","arrowright","1","arrowleft","[0.85,0.15,0.325,0.675]","","",""
"sailing-trial","194","1062686","0.0-11.0-147.0","","","","false","","","","","","","","","","null","","3475.3999999910593","","2","0","null","null","arrowup","[0.85,0.15,0.325,0.675]","","",""
"sailing-trial","195","1066593","0.0-11.0-148.0","","","","false","","","","","","","","","","673.3000000119209","","243.59999999403954","","3","1","arrowright","1","arrowright","[0.85,0.15,0.325,0.675]","","",""
"sailing-trial","196","1069507","0.0-11.0-149.0","","","","false","","","","","","","","","","null","","1464.1000000089407","","1","0","null","null","arrowup","[0.85,0.15,0.325,0.675]","","",""
"sailing-trial","197","1073777","0.0-11.0-150.0","","","","false","","","","","","","","","","624.9000000059605","","1229.2999999970198","","3","0","arrowright","1","arrowright","[0.85,0.15,0.325,0.675]","","",""
"sailing-trial","198","1076866","0.0-11.0-151.0","","","","false","","","","","","","","","","null","","1139.3999999910593","","0","1","null","null","arrowup","[0.85,0.15,0.325,0.675]","","",""
"sailing-trial","199","1080483","0.0-11.0-152.0","","","","false","","","","","","","","","","560.9000000059605","","33.29999999701977","","0","1","arrowleft","0","arrowleft","[0.85,0.15,0.325,0.675]","","",""
"sailing-trial","200","1083766","0.0-11.0-153.0","","","","false","","","","","","","","","","null","","1137.199999988079","","0","1","null","null","arrowup","[0.85,0.15,0.325,0.675]","","",""
"sailing-trial","201","1088633","0.0-11.0-154.0","","","","false","","","","","","","","","","512.6999999880791","","1738.8999999910593","","0","1","arrowleft","0","arrowleft","[0.85,0.15,0.325,0.675]","","",""
"sailing-trial","202","1091015","0.0-11.0-155.0","","","","false","","","","","","","","","","null","","1041.2000000029802","","3","0","null","null","arrowup","[0.85,0.15,0.325,0.675]","","",""
"sailing-trial","203","1094750","0.0-11.0-156.0","","","","false","","","","","","","","","","586.8999999910593","","227.79999999701977","","0","1","arrowleft","0","arrowleft","[0.85,0.15,0.325,0.675]","","",""
"sailing-trial","204","1097182","0.0-11.0-157.0","","","","false","","","","","","","","","","null","","920","","2","0","null","null","arrowup","[0.85,0.15,0.325,0.675]","","",""
"sailing-trial","205","1101132","0.0-11.0-158.0","","","","false","","","","","","","","","","513.7999999970198","","171.09999999403954","","0","1","arrowleft","0","arrowleft","[0.85,0.15,0.325,0.675]","","",""
"sailing-trial","206","1104412","0.0-11.0-159.0","","","","false","","","","","","","","","","null","","688.7000000029802","","3","1","null","null","arrowup","[0.85,0.15,0.325,0.675]","","",""
"sailing-trial","207","1111564","0.0-11.0-160.0","","","","false","","","","","","","","","","695.5","","2404.5999999940395","","1","0","arrowleft","0","arrowright","[0.85,0.15,0.325,0.675]","","",""
"sailing-trial","208","1117481","0.0-11.0-161.0","","","","false","","","","","","","","","","null","","3648","","3","1","null","null","arrowup","[0.85,0.15,0.325,0.675]","","",""
"sailing-trial","209","1127217","0.0-11.0-162.0","","","","false","","","","","","","","","","817.2999999970198","","5959.29999999702","","0","1","arrowleft","0","arrowleft","[0.675,0.325,0.15,0.85]","","",""
"sailing-trial","210","1142226","0.0-11.0-163.0","","","","true","","","","","","","","","","null","","null","","null","null","null","null","null","[0.675,0.325,0.15,0.85]","","",""
"sailing-trial","211","1147484","0.0-11.0-164.0","","","","false","","","","","","","","","","1138.7000000029802","","281.90000000596046","","1","1","arrowleft","0","arrowright","[0.675,0.325,0.15,0.85]","","",""
"sailing-trial","212","1151748","0.0-11.0-165.0","","","","false","","","","","","","","","","null","","1892.9000000059605","","1","0","null","null","arrowup","[0.675,0.325,0.15,0.85]","","",""
"sailing-trial","213","1155582","0.0-11.0-166.0","","","","false","","","","","","","","","","584.4000000059605","","176.59999999403954","","0","1","arrowleft","0","arrowleft","[0.675,0.325,0.15,0.85]","","",""
"sailing-trial","214","1157848","0.0-11.0-167.0","","","","false","","","","","","","","","","null","","471.6000000089407","","0","1","null","null","arrowup","[0.675,0.325,0.15,0.85]","","",""
"sailing-trial","215","1161548","0.0-11.0-168.0","","","","false","","","","","","","","","","520.6000000089407","","135.30000001192093","","3","1","arrowright","1","arrowright","[0.675,0.325,0.15,0.85]","","",""
"sailing-trial","216","1164464","0.0-11.0-169.0","","","","false","","","","","","","","","","null","","849.6000000089407","","3","1","null","null","arrowup","[0.675,0.325,0.15,0.85]","","",""
"sailing-trial","217","1167971","0.0-11.0-170.0","","","","false","","","","","","","","","","891.7000000029802","","167.3999999910593","","2","0","arrowright","1","arrowleft","[0.675,0.325,0.15,0.85]","","",""
"sailing-trial","218","1170470","0.0-11.0-171.0","","","","false","","","","","","","","","","null","","935.7999999970198","","0","0","null","null","arrowup","[0.675,0.325,0.15,0.85]","","",""
"sailing-trial","219","1175028","0.0-11.0-172.0","","","","false","","","","","","","","","","641.5999999940395","","864.5","","3","1","arrowright","1","arrowright","[0.675,0.325,0.15,0.85]","","",""
"sailing-trial","220","1178210","0.0-11.0-173.0","","","","false","","","","","","","","","","null","","1696.2999999970198","","2","0","null","null","arrowup","[0.675,0.325,0.15,0.85]","","",""
"sailing-trial","221","1181661","0.0-11.0-174.0","","","","false","","","","","","","","","","662.9000000059605","","168.59999999403954","","3","1","arrowright","1","arrowright","[0.675,0.325,0.15,0.85]","","",""
"sailing-trial","222","1184578","0.0-11.0-175.0","","","","false","","","","","","","","","","null","","949.2000000029802","","3","1","null","null","arrowup","[0.675,0.325,0.15,0.85]","","",""
"sailing-trial","223","1187461","0.0-11.0-176.0","","","","false","","","","","","","","","","512.9000000059605","","147.6000000089407","","3","0","arrowright","1","arrowright","[0.675,0.325,0.15,0.85]","","",""
"sailing-trial","224","1189624","0.0-11.0-177.0","","","","false","","","","","","","","","","null","","984.8999999910593","","1","0","null","null","arrowup","[0.675,0.325,0.15,0.85]","","",""
"sailing-trial","225","1193063","0.0-11.0-178.0","","","","false","","","","","","","","","","542.8999999910593","","372.19999998807907","","0","0","arrowleft","0","arrowleft","[0.675,0.325,0.15,0.85]","","",""
"sailing-trial","226","1195452","0.0-11.0-179.0","","","","false","","","","","","","","","","null","","914.2999999970198","","2","0","null","null","arrowup","[0.675,0.325,0.15,0.85]","","",""
"sailing-trial","227","1199910","0.0-11.0-180.0","","","","false","","","","","","","","","","655.2000000029802","","615.2999999970198","","2","1","arrowright","1","arrowleft","[0.675,0.325,0.15,0.85]","","",""
"sailing-trial","228","1203410","0.0-11.0-181.0","","","","false","","","","","","","","","","null","","1879.5","","3","1","null","null","arrowup","[0.675,0.325,0.15,0.85]","","",""
"sailing-trial","229","1207092","0.0-11.0-182.0","","","","false","","","","","","","","","","433.59999999403954","","279.5","","3","1","arrowright","1","arrowright","[0.675,0.325,0.15,0.85]","","",""
"sailing-trial","230","1209803","0.0-11.0-183.0","","","","false","","","","","","","","","","null","","951.5999999940395","","0","1","null","null","arrowup","[0.675,0.325,0.15,0.85]","","",""
"sailing-trial","231","1213803","0.0-11.0-184.0","","","","false","","","","","","","","","","698.6999999880791","","371","","3","1","arrowright","1","arrowright","[0.85,0.15,0.325,0.675]","","",""
"sailing-trial","232","1216843","0.0-11.0-185.0","","","","false","","","","","","","","","","null","","1597","","1","0","null","null","arrowup","[0.85,0.15,0.325,0.675]","","",""
"sailing-trial","233","1220887","0.0-11.0-186.0","","","","false","","","","","","","","","","667.0999999940395","","439","","3","1","arrowright","1","arrowright","[0.85,0.15,0.325,0.675]","","",""
"sailing-trial","234","1224137","0.0-11.0-187.0","","","","false","","","","","","","","","","null","","1349.5","","2","1","null","null","arrowup","[0.85,0.15,0.325,0.675]","","",""
"sailing-trial","235","1227986","0.0-11.0-188.0","","","","false","","","","","","","","","","643.3000000119209","","39.599999994039536","","3","1","arrowright","1","arrowright","[0.85,0.15,0.325,0.675]","","",""
"sailing-trial","236","1231032","0.0-11.0-189.0","","","","false","","","","","","","","","","null","","1332","","3","1","null","null","arrowup","[0.85,0.15,0.325,0.675]","","",""
"sailing-trial","237","1235398","0.0-11.0-190.0","","","","false","","","","","","","","","","610","","847.9000000059605","","3","1","arrowright","1","arrowright","[0.85,0.15,0.325,0.675]","","",""
"sailing-trial","238","1238280","0.0-11.0-191.0","","","","false","","","","","","","","","","null","","932.7000000029802","","0","1","null","null","arrowup","[0.85,0.15,0.325,0.675]","","",""
"sailing-trial","239","1241346","0.0-11.0-192.0","","","","false","","","","","","","","","","625.1999999880791","","66.5","","3","0","arrowright","1","arrowright","[0.85,0.15,0.325,0.675]","","",""
"sailing-trial","240","1243954","0.0-11.0-193.0","","","","false","","","","","","","","","","null","","1134.9000000059605","","1","0","null","null","arrowup","[0.85,0.15,0.325,0.675]","","",""
"sailing-trial","241","1247813","0.0-11.0-194.0","","","","false","","","","","","","","","","818.9000000059605","","340.90000000596046","","2","1","arrowright","1","arrowleft","[0.85,0.15,0.325,0.675]","","",""
"sailing-trial","242","1250537","0.0-11.0-195.0","","","","false","","","","","","","","","","null","","1467.5999999940395","","1","0","null","null","arrowup","[0.85,0.15,0.325,0.675]","","",""
"sailing-trial","243","1253954","0.0-11.0-196.0","","","","false","","","","","","","","","","629.5","","381.80000001192093","","2","0","arrowright","1","arrowleft","[0.85,0.15,0.325,0.675]","","",""
"sailing-trial","244","1256804","0.0-11.0-197.0","","","","false","","","","","","","","","","null","","1004.9000000059605","","0","1","null","null","arrowup","[0.85,0.15,0.325,0.675]","","",""
"sailing-trial","245","1260012","0.0-11.0-198.0","","","","false","","","","","","","","","","478.79999999701977","","190.30000001192093","","0","0","arrowleft","0","arrowleft","[0.85,0.15,0.325,0.675]","","",""
"sailing-trial","246","1262788","0.0-11.0-199.0","","","","false","","","","","","","","","","null","","931","","0","1","null","null","arrowup","[0.85,0.15,0.325,0.675]","","",""
"sailing-trial","247","1267817","0.0-11.0-200.0","","","","false","","","","","","","","","","607.4000000059605","","2079.2000000029802","","0","0","arrowleft","0","arrowleft","[0.675,0.325,0.15,0.85]","","",""
"sailing-trial","248","1271100","0.0-11.0-201.0","","","","false","","","","","","","","","","null","","1415.3999999910593","","1","1","null","null","arrowup","[0.675,0.325,0.15,0.85]","","",""
"sailing-trial","249","1274831","0.0-11.0-202.0","","","","false","","","","","","","","","","566.3000000119209","","231.8999999910593","","1","0","arrowleft","0","arrowright","[0.675,0.325,0.15,0.85]","","",""
"sailing-trial","250","1277799","0.0-11.0-203.0","","","","false","","","","","","","","","","null","","1037.7999999970198","","1","1","null","null","arrowup","[0.675,0.325,0.15,0.85]","","",""
"sailing-trial","251","1281831","0.0-11.0-204.0","","","","false","","","","","","","","","","652.5999999940395","","443.20000000298023","","3","1","arrowright","1","arrowright","[0.675,0.325,0.15,0.85]","","",""
"sailing-trial","252","1285049","0.0-11.0-205.0","","","","false","","","","","","","","","","null","","1294.5","","2","1","null","null","arrowup","[0.675,0.325,0.15,0.85]","","",""
"sailing-trial","253","1288571","0.0-11.0-206.0","","","","false","","","","","","","","","","624.7999999970198","","413.70000000298023","","2","0","arrowright","1","arrowleft","[0.675,0.325,0.15,0.85]","","",""
"sailing-trial","254","1291469","0.0-11.0-207.0","","","","false","","","","","","","","","","null","","1063.8999999910593","","1","1","null","null","arrowup","[0.675,0.325,0.15,0.85]","","",""
"sailing-trial","255","1295986","0.0-11.0-208.0","","","","false","","","","","","","","","","556.4000000059605","","1308.7000000029802","","3","1","arrowright","1","arrowright","[0.675,0.325,0.15,0.85]","","",""
"sailing-trial","256","1298975","0.0-11.0-209.0","","","","false","","","","","","","","","","null","","1446.7999999970198","","0","0","null","null","arrowup","[0.675,0.325,0.15,0.85]","","",""
"sailing-trial","257","1303260","0.0-11.0-210.0","","","","false","","","","","","","","","","762.5999999940395","","488.5","","0","1","arrowleft","0","arrowleft","[0.675,0.325,0.15,0.85]","","",""
"sailing-trial","258","1306233","0.0-11.0-211.0","","","","false","","","","","","","","","","null","","1653.7999999970198","","0","0","null","null","arrowup","[0.675,0.325,0.15,0.85]","","",""
"sailing-trial","259","1310198","0.0-11.0-212.0","","","","false","","","","","","","","","","638.0999999940395","","222.90000000596046","","2","1","arrowright","1","arrowleft","[0.675,0.325,0.15,0.85]","","",""
"sailing-trial","260","1313177","0.0-11.0-213.0","","","","false","","","","","","","","","","null","","1528.2999999970198","","2","0","null","null","arrowup","[0.675,0.325,0.15,0.85]","","",""
"sailing-trial","261","1316833","0.0-11.0-214.0","","","","false","","","","","","","","","","576.7999999970198","","92.09999999403954","","3","1","arrowright","1","arrowright","[0.675,0.325,0.15,0.85]","","",""
"sailing-trial","262","1319414","0.0-11.0-215.0","","","","false","","","","","","","","","","null","","1340.5","","2","0","null","null","arrowup","[0.675,0.325,0.15,0.85]","","",""
"sailing-trial","263","1323173","0.0-11.0-216.0","","","","false","","","","","","","","","","781","","50.599999994039536","","1","0","arrowleft","0","arrowright","[0.85,0.15,0.325,0.675]","","",""
"sailing-trial","264","1325861","0.0-11.0-217.0","","","","false","","","","","","","","","","null","","1300.300000011921","","1","0","null","null","arrowup","[0.85,0.15,0.325,0.675]","","",""
"sailing-trial","265","1329776","0.0-11.0-218.0","","","","false","","","","","","","","","","738","","172.40000000596046","","0","1","arrowleft","0","arrowleft","[0.85,0.15,0.325,0.675]","","",""
"sailing-trial","266","1333783","0.0-11.0-219.0","","","","false","","","","","","","","","","null","","1677","","1","0","null","null","arrowup","[0.85,0.15,0.325,0.675]","","",""
"sailing-trial","267","1337520","0.0-11.0-220.0","","","","false","","","","","","","","","","646.3999999910593","","188.79999999701977","","2","0","arrowright","1","arrowleft","[0.85,0.15,0.325,0.675]","","",""
"sailing-trial","268","1340876","0.0-11.0-221.0","","","","false","","","","","","","","","","null","","1179.2999999970198","","1","1","null","null","arrowup","[0.85,0.15,0.325,0.675]","","",""
"sailing-trial","269","1345472","0.0-11.0-222.0","","","","false","","","","","","","","","","682.4000000059605","","362.3999999910593","","1","0","arrowleft","0","arrowright","[0.85,0.15,0.325,0.675]","","",""
"sailing-trial","270","1348525","0.0-11.0-223.0","","","","false","","","","","","","","","","null","","1106.6000000089407","","0","1","null","null","arrowup","[0.85,0.15,0.325,0.675]","","",""
"sailing-trial","271","1352287","0.0-11.0-224.0","","","","false","","","","","","","","","","537.1999999880791","","391.70000000298023","","2","1","arrowright","1","arrowleft","[0.85,0.15,0.325,0.675]","","",""
"sailing-trial","272","1355021","0.0-11.0-225.0","","","","false","","","","","","","","","","null","","1616.5999999940395","","2","0","null","null","arrowup","[0.85,0.15,0.325,0.675]","","",""
"sailing-trial","273","1359536","0.0-11.0-226.0","","","","false","","","","","","","","","","828.3000000119209","","464.5","","3","1","arrowright","1","arrowright","[0.85,0.15,0.325,0.675]","","",""
"sailing-trial","274","1362442","0.0-11.0-227.0","","","","false","","","","","","","","","","null","","1249.800000011921","","1","0","null","null","arrowup","[0.85,0.15,0.325,0.675]","","",""
"sailing-trial","275","1366136","0.0-11.0-228.0","","","","false","","","","","","","","","","752.3999999910593","","296.90000000596046","","0","1","arrowleft","0","arrowleft","[0.85,0.15,0.325,0.675]","","",""
"sailing-trial","276","1369086","0.0-11.0-229.0","","","","false","","","","","","","","","","null","","896.2999999970198","","0","1","null","null","arrowup","[0.85,0.15,0.325,0.675]","","",""
"sailing-trial","277","1374460","0.0-11.0-230.0","","","","false","","","","","","","","","","2777.7000000029802","","20","","1","0","arrowleft","0","arrowright","[0.85,0.15,0.325,0.675]","","",""
"sailing-trial","278","1377640","0.0-11.0-231.0","","","","false","","","","","","","","","","null","","901.2999999970198","","0","1","null","null","arrowup","[0.85,0.15,0.325,0.675]","","",""
"sailing-trial","279","1381940","0.0-11.0-232.0","","","","false","","","","","","","","","","1135","","109.5","","2","1","arrowright","1","arrowleft","[0.15,0.85,0.675,0.325]","","",""
"sailing-trial","280","1387429","0.0-11.0-233.0","","","","false","","","","","","","","","","null","","3321.5","","3","0","null","null","arrowup","[0.15,0.85,0.675,0.325]","","",""
"sailing-trial","281","1391592","0.0-11.0-234.0","","","","false","","","","","","","","","","862.8999999910593","","751.2999999970198","","3","0","arrowright","1","arrowright","[0.15,0.85,0.675,0.325]","","",""
"sailing-trial","282","1394388","0.0-11.0-235.0","","","","false","","","","","","","","","","null","","1108.2999999970198","","0","0","null","null","arrowup","[0.15,0.85,0.675,0.325]","","",""
"sailing-trial","283","1398811","0.0-11.0-236.0","","","","false","","","","","","","","","","958.0999999940395","","108.40000000596046","","2","1","arrowright","1","arrowleft","[0.15,0.85,0.675,0.325]","","",""
"sailing-trial","284","1401236","0.0-11.0-237.0","","","","false","","","","","","","","","","null","","958.8000000119209","","0","0","null","null","arrowup","[0.15,0.85,0.675,0.325]","","",""
"sailing-trial","285","1405743","0.0-11.0-238.0","","","","false","","","","","","","","","","731.7000000029802","","392.6000000089407","","1","1","arrowleft","0","arrowright","[0.15,0.85,0.675,0.325]","","",""
"sailing-trial","286","1410215","0.0-11.0-239.0","","","","false","","","","","","","","","","null","","2772.2000000029802","","3","0","null","null","arrowup","[0.15,0.85,0.675,0.325]","","",""
"sailing-trial","287","1413514","0.0-11.0-240.0","","","","false","","","","","","","","","","694.8999999910593","","50.79999999701977","","0","0","arrowleft","0","arrowleft","[0.15,0.85,0.675,0.325]","","",""
"sailing-trial","288","1416349","0.0-11.0-241.0","","","","false","","","","","","","","","","null","","966.3999999910593","","2","1","null","null","arrowup","[0.15,0.85,0.675,0.325]","","",""
"sailing-trial","289","1422620","0.0-11.0-242.0","","","","false","","","","","","","","","","538.7000000029802","","3198.8999999910593","","3","0","arrowright","1","arrowright","[0.15,0.85,0.675,0.325]","","",""
"sailing-trial","290","1426487","0.0-11.0-243.0","","","","false","","","","","","","","","","null","","1548.0999999940395","","2","1","null","null","arrowup","[0.15,0.85,0.675,0.325]","","",""
"sailing-trial","291","1431126","0.0-11.0-244.0","","","","false","","","","","","","","","","2090.1000000089407","","127.1000000089407","","3","0","arrowright","1","arrowright","[0.15,0.85,0.675,0.325]","","",""
"sailing-trial","292","1433754","0.0-11.0-245.0","","","","false","","","","","","","","","","null","","844.1999999880791","","2","1","null","null","arrowup","[0.15,0.85,0.675,0.325]","","",""
"sailing-trial","293","1437216","0.0-11.0-246.0","","","","false","","","","","","","","","","492.20000000298023","","421","","0","0","arrowleft","0","arrowleft","[0.15,0.85,0.675,0.325]","","",""
"sailing-trial","294","1439573","0.0-11.0-247.0","","","","false","","","","","","","","","","null","","1256.699999988079","","3","0","null","null","arrowup","[0.15,0.85,0.675,0.325]","","",""
"sailing-trial","295","1442510","0.0-11.0-248.0","","","","false","","","","","","","","","","593.2999999970198","","24.600000008940697","","3","0","arrowright","1","arrowright","[0.15,0.85,0.675,0.325]","","",""
"sailing-trial","296","1445394","0.0-11.0-249.0","","","","false","","","","","","","","","","null","","920.8999999910593","","1","1","null","null","arrowup","[0.15,0.85,0.675,0.325]","","",""
"sailing-trial","297","1449276","0.0-11.0-250.0","","","","false","","","","","","","","","","566.5","","410.79999999701977","","1","1","arrowleft","0","arrowright","[0.15,0.85,0.675,0.325]","","",""
"sailing-trial","298","1452046","0.0-11.0-251.0","","","","false","","","","","","","","","","null","","1322.7000000029802","","3","0","null","null","arrowup","[0.15,0.85,0.675,0.325]","","",""
"sailing-trial","299","1456004","0.0-11.0-252.0","","","","false","","","","","","","","","","684.0999999940395","","253.5","","0","0","arrowleft","0","arrowleft","[0.325,0.675,0.85,0.15]","","",""
"sailing-trial","300","1460356","0.0-11.0-253.0","","","","false","","","","","","","","","","null","","2014.2000000029802","","1","1","null","null","arrowup","[0.325,0.675,0.85,0.15]","","",""
"sailing-trial","301","1464257","0.0-11.0-254.0","","","","false","","","","","","","","","","716.8000000119209","","260.5","","2","1","arrowright","1","arrowleft","[0.325,0.675,0.85,0.15]","","",""
"sailing-trial","302","1466956","0.0-11.0-255.0","","","","false","","","","","","","","","","null","","1041.9000000059605","","1","1","null","null","arrowup","[0.325,0.675,0.85,0.15]","","",""
"sailing-trial","303","1470924","0.0-11.0-256.0","","","","false","","","","","","","","","","675.1000000089407","","410.29999999701977","","2","1","arrowright","1","arrowleft","[0.325,0.675,0.85,0.15]","","",""
"sailing-trial","304","1473797","0.0-11.0-257.0","","","","false","","","","","","","","","","null","","1330.6000000089407","","3","0","null","null","arrowup","[0.325,0.675,0.85,0.15]","","",""
"sailing-trial","305","1477839","0.0-11.0-258.0","","","","false","","","","","","","","","","574.7000000029802","","282.30000001192093","","2","1","arrowright","1","arrowleft","[0.325,0.675,0.85,0.15]","","",""
"sailing-trial","306","1481289","0.0-11.0-259.0","","","","false","","","","","","","","","","null","","1498.7999999970198","","2","1","null","null","arrowup","[0.325,0.675,0.85,0.15]","","",""
"sailing-trial","307","1485705","0.0-11.0-260.0","","","","false","","","","","","","","","","873","","385","","2","1","arrowright","1","arrowleft","[0.325,0.675,0.85,0.15]","","",""
"sailing-trial","308","1488074","0.0-11.0-261.0","","","","false","","","","","","","","","","null","","1020","","0","0","null","null","arrowup","[0.325,0.675,0.85,0.15]","","",""
"sailing-trial","309","1492095","0.0-11.0-262.0","","","","false","","","","","","","","","","796.7000000029802","","237.79999999701977","","2","1","arrowright","1","arrowleft","[0.325,0.675,0.85,0.15]","","",""
"sailing-trial","310","1495210","0.0-11.0-263.0","","","","false","","","","","","","","","","null","","1241","","3","1","null","null","arrowup","[0.325,0.675,0.85,0.15]","","",""
"sailing-trial","311","1499094","0.0-11.0-264.0","","","","false","","","","","","","","","","676.1999999880791","","216.29999999701977","","2","1","arrowright","1","arrowleft","[0.325,0.675,0.85,0.15]","","",""
"sailing-trial","312","1502110","0.0-11.0-265.0","","","","false","","","","","","","","","","null","","912.2000000029802","","2","1","null","null","arrowup","[0.325,0.675,0.85,0.15]","","",""
"sailing-trial","313","1506393","0.0-11.0-266.0","","","","false","","","","","","","","","","644","","297","","3","1","arrowright","1","arrowright","[0.325,0.675,0.85,0.15]","","",""
"sailing-trial","314","1508525","0.0-11.0-267.0","","","","false","","","","","","","","","","null","","794.4000000059605","","0","0","null","null","arrowup","[0.325,0.675,0.85,0.15]","","",""
"sailing-trial","315","1512312","0.0-11.0-268.0","","","","false","","","","","","","","","","520.5","","434.09999999403954","","2","1","arrowright","1","arrowleft","[0.15,0.85,0.675,0.325]","","",""
"sailing-trial","316","1515243","0.0-11.0-269.0","","","","false","","","","","","","","","","null","","803.1999999880791","","0","0","null","null","arrowup","[0.15,0.85,0.675,0.325]","","",""
"sailing-trial","317","1519828","0.0-11.0-270.0","","","","false","","","","","","","","","","921.0999999940395","","1267.800000011921","","3","0","arrowright","1","arrowright","[0.15,0.85,0.675,0.325]","","",""
"sailing-trial","318","1522265","0.0-11.0-271.0","","","","false","","","","","","","","","","null","","936.5","","3","0","null","null","arrowup","[0.15,0.85,0.675,0.325]","","",""
"sailing-trial","319","1526127","0.0-11.0-272.0","","","","false","","","","","","","","","","931.9000000059605","","132.70000000298023","","2","1","arrowright","1","arrowleft","[0.15,0.85,0.675,0.325]","","",""
"sailing-trial","320","1529411","0.0-11.0-273.0","","","","false","","","","","","","","","","null","","1568.5999999940395","","3","0","null","null","arrowup","[0.15,0.85,0.675,0.325]","","",""
"sailing-trial","321","1533398","0.0-11.0-274.0","","","","false","","","","","","","","","","621.5999999940395","","248.70000000298023","","1","1","arrowleft","0","arrowright","[0.15,0.85,0.675,0.325]","","",""
"sailing-trial","322","1536581","0.0-11.0-275.0","","","","false","","","","","","","","","","null","","1124.1000000089407","","2","1","null","null","arrowup","[0.15,0.85,0.675,0.325]","","",""
"sailing-trial","323","1540481","0.0-11.0-276.0","","","","false","","","","","","","","","","1096.300000011921","","239.20000000298023","","0","0","arrowleft","0","arrowleft","[0.15,0.85,0.675,0.325]","","",""
"sailing-trial","324","1543865","0.0-11.0-277.0","","","","false","","","","","","","","","","null","","1393.9000000059605","","1","1","null","null","arrowup","[0.15,0.85,0.675,0.325]","","",""
"sailing-trial","325","1547414","0.0-11.0-278.0","","","","false","","","","","","","","","","639.9000000059605","","62.29999999701977","","1","1","arrowleft","0","arrowright","[0.15,0.85,0.675,0.325]","","",""
"sailing-trial","326","1549855","0.0-11.0-279.0","","","","false","","","","","","","","","","null","","1205.5","","2","0","null","null","arrowup","[0.15,0.85,0.675,0.325]","","",""
"sailing-trial","327","1553725","0.0-11.0-280.0","","","","false","","","","","","","","","","608.2000000029802","","423.6000000089407","","1","1","arrowleft","0","arrowright","[0.15,0.85,0.675,0.325]","","",""
"sailing-trial","328","1556192","0.0-11.0-281.0","","","","false","","","","","","","","","","null","","805.5","","2","1","null","null","arrowup","[0.15,0.85,0.675,0.325]","","",""
"sailing-trial","329","1559992","0.0-11.0-282.0","","","","false","","","","","","","","","","541.6000000089407","","160.69999998807907","","1","1","arrowleft","0","arrowright","[0.15,0.85,0.675,0.325]","","",""
"sailing-trial","330","1562458","0.0-11.0-283.0","","","","false","","","","","","","","","","null","","721.1000000089407","","1","1","null","null","arrowup","[0.15,0.85,0.675,0.325]","","",""
"sailing-trial","331","1565841","0.0-11.0-284.0","","","","false","","","","","","","","","","551.2999999970198","","212.29999999701977","","1","1","arrowleft","0","arrowright","[0.15,0.85,0.675,0.325]","","",""
"sailing-trial","332","1568274","0.0-11.0-285.0","","","","false","","","","","","","","","","null","","576.2000000029802","","1","1","null","null","arrowup","[0.15,0.85,0.675,0.325]","","",""
"sailing-trial","333","1571690","0.0-11.0-286.0","","","","false","","","","","","","","","","386.5","","149.90000000596046","","1","1","arrowleft","0","arrowright","[0.15,0.85,0.675,0.325]","","",""
"sailing-trial","334","1574604","0.0-11.0-287.0","","","","false","","","","","","","","","","null","","975.1000000089407","","3","0","null","null","arrowup","[0.15,0.85,0.675,0.325]","","",""
"sailing-trial","335","1578278","0.0-11.0-288.0","","","","false","","","","","","","","","","856.5999999940395","","1.199999988079071","","1","1","arrowleft","0","arrowright","[0.325,0.675,0.85,0.15]","","",""
"sailing-trial","336","1581194","0.0-11.0-289.0","","","","false","","","","","","","","","","null","","1202.7000000029802","","1","1","null","null","arrowup","[0.325,0.675,0.85,0.15]","","",""
"sailing-trial","337","1584976","0.0-11.0-290.0","","","","false","","","","","","","","","","408.20000000298023","","287.19999998807907","","1","1","arrowleft","0","arrowright","[0.325,0.675,0.85,0.15]","","",""
"sailing-trial","338","1587400","0.0-11.0-291.0","","","","false","","","","","","","","","","null","","130.5","","0","0","null","null","arrowup","[0.325,0.675,0.85,0.15]","","",""
"sailing-trial","339","1591961","0.0-11.0-292.0","","","","false","","","","","","","","","","929.9000000059605","","455.19999998807907","","1","1","arrowleft","0","arrowright","[0.325,0.675,0.85,0.15]","","",""
"sailing-trial","340","1593921","0.0-11.0-293.0","","","","false","","","","","","","","","","null","","347.20000000298023","","1","0","null","null","arrowup","[0.325,0.675,0.85,0.15]","","",""
"sailing-trial","341","1597963","0.0-11.0-294.0","","","","false","","","","","","","","","","718.3999999910593","","502.1000000089407","","3","0","arrowright","1","arrowright","[0.325,0.675,0.85,0.15]","","",""
"sailing-trial","342","1600831","0.0-11.0-295.0","","","","false","","","","","","","","","","null","","1056.1000000089407","","2","1","null","null","arrowup","[0.325,0.675,0.85,0.15]","","",""
"sailing-trial","343","1604683","0.0-11.0-296.0","","","","false","","","","","","","","","","547.2999999970198","","362.59999999403954","","2","1","arrowright","1","arrowleft","[0.325,0.675,0.85,0.15]","","",""
"sailing-trial","344","1607148","0.0-11.0-297.0","","","","false","","","","","","","","","","null","","708.9000000059605","","2","1","null","null","arrowup","[0.325,0.675,0.85,0.15]","","",""
"sailing-trial","345","1610742","0.0-11.0-298.0","","","","false","","","","","","","","","","835.7999999970198","","430.79999999701977","","2","0","arrowright","1","arrowleft","[0.325,0.675,0.85,0.15]","","",""
"sailing-trial","346","1613601","0.0-11.0-299.0","","","","false","","","","","","","","","","null","","900.8999999910593","","2","1","null","null","arrowup","[0.325,0.675,0.85,0.15]","","",""
"sailing-trial","347","1617667","0.0-11.0-300.0","","","","false","","","","","","","","","","595.2000000029802","","530.2000000029802","","2","1","arrowright","1","arrowleft","[0.325,0.675,0.85,0.15]","","",""
"sailing-trial","348","1619989","0.0-11.0-301.0","","","","false","","","","","","","","","","null","","1014.1000000089407","","3","0","null","null","arrowup","[0.325,0.675,0.85,0.15]","","",""
"sailing-trial","349","1624695","0.0-11.0-302.0","","","","false","","","","","","","","","","1084.4000000059605","","217.5","","2","1","arrowright","1","arrowleft","[0.325,0.675,0.85,0.15]","","",""
"sailing-trial","350","1626979","0.0-11.0-303.0","","","","false","","","","","","","","","","null","","405.29999999701977","","0","1","null","null","arrowup","[0.325,0.675,0.85,0.15]","","",""
"sailing-trial","351","1630728","0.0-11.0-304.0","","","","false","","","","","","","","","","735.7999999970198","","22.200000002980232","","2","0","arrowright","1","arrowleft","[0.325,0.675,0.85,0.15]","","",""
"sailing-trial","352","1633379","0.0-11.0-305.0","","","","false","","","","","","","","","","null","","1014.5","","1","0","null","null","arrowup","[0.325,0.675,0.85,0.15]","","",""
"sailing-trial","353","1637048","0.0-11.0-306.0","","","","false","","","","","","","","","","805.8999999910593","","123.29999999701977","","0","1","arrowleft","0","arrowleft","[0.325,0.675,0.85,0.15]","","",""
"sailing-trial","354","1639264","0.0-11.0-307.0","","","","false","","","","","","","","","","null","","2.9000000059604645","","2","1","null","null","arrowup","[0.325,0.675,0.85,0.15]","","",""
"sailing-trial","355","1643192","0.0-11.0-308.0","","","","false","","","","","","","","","","640.4000000059605","","506.90000000596046","","0","0","arrowleft","0","arrowleft","[0.15,0.85,0.675,0.325]","","",""
"sailing-trial","356","1646279","0.0-11.0-309.0","","","","false","","","","","","","","","","null","","1098.5999999940395","","1","1","null","null","arrowup","[0.15,0.85,0.675,0.325]","","",""
"sailing-trial","357","1650328","0.0-11.0-310.0","","","","false","","","","","","","","","","586.0999999940395","","434.70000000298023","","1","1","arrowleft","0","arrowright","[0.15,0.85,0.675,0.325]","","",""
"sailing-trial","358","1653000","0.0-11.0-311.0","","","","false","","","","","","","","","","null","","1642.5999999940395","","0","0","null","null","arrowup","[0.15,0.85,0.675,0.325]","","",""
"sailing-trial","359","1656960","0.0-11.0-312.0","","","","false","","","","","","","","","","579.2000000029802","","380.29999999701977","","1","1","arrowleft","0","arrowright","[0.15,0.85,0.675,0.325]","","",""
"sailing-trial","360","1659811","0.0-11.0-313.0","","","","false","","","","","","","","","","null","","1084.3999999910593","","1","1","null","null","arrowup","[0.15,0.85,0.675,0.325]","","",""
"sailing-trial","361","1663491","0.0-11.0-314.0","","","","false","","","","","","","","","","773","","133.6000000089407","","1","1","arrowleft","0","arrowright","[0.15,0.85,0.675,0.325]","","",""
"sailing-trial","362","1666405","0.0-11.0-315.0","","","","false","","","","","","","","","","null","","553.4000000059605","","1","1","null","null","arrowup","[0.15,0.85,0.675,0.325]","","",""
"sailing-trial","363","1670106","0.0-11.0-316.0","","","","false","","","","","","","","","","497.20000000298023","","353.79999999701977","","1","1","arrowleft","0","arrowright","[0.15,0.85,0.675,0.325]","","",""
"sailing-trial","364","1672294","0.0-11.0-317.0","","","","false","","","","","","","","","","null","","1134.0999999940395","","0","0","null","null","arrowup","[0.15,0.85,0.675,0.325]","","",""
"sailing-trial","365","1675956","0.0-11.0-318.0","","","","false","","","","","","","","","","688.9000000059605","","109.5","","1","1","arrowleft","0","arrowright","[0.15,0.85,0.675,0.325]","","",""
"sailing-trial","366","1678385","0.0-11.0-319.0","","","","false","","","","","","","","","","null","","853.5","","1","0","null","null","arrowup","[0.15,0.85,0.675,0.325]","","",""
"sailing-trial","367","1682388","0.0-11.0-320.0","","","","false","","","","","","","","","","649.5","","438.40000000596046","","3","1","arrowright","1","arrowright","[0.15,0.85,0.675,0.325]","","",""
"sailing-trial","368","1685234","0.0-11.0-321.0","","","","false","","","","","","","","","","null","","937.7999999970198","","2","1","null","null","arrowup","[0.15,0.85,0.675,0.325]","","",""
"sailing-trial","369","1688632","0.0-11.0-322.0","","","","false","","","","","","","","","","569.0999999940395","","634","","3","0","arrowright","1","arrowright","[0.15,0.85,0.675,0.325]","","",""
"sailing-trial","370","1691179","0.0-11.0-323.0","","","","false","","","","","","","","","","null","","1205.0999999940395","","2","0","null","null","arrowup","[0.15,0.85,0.675,0.325]","","",""
"sailing-trial","371","1694389","0.0-11.0-324.0","","","","false","","","","","","","","","","625.6999999880791","","278","","0","0","arrowleft","0","arrowleft","[0.325,0.675,0.85,0.15]","","",""
"sailing-trial","372","1697115","0.0-11.0-325.0","","","","false","","","","","","","","","","null","","814","","2","1","null","null","arrowup","[0.325,0.675,0.85,0.15]","","",""
"sailing-trial","373","1700357","0.0-11.0-326.0","","","","false","","","","","","","","","","630.2000000029802","","217","","3","0","arrowright","1","arrowright","[0.325,0.675,0.85,0.15]","","",""
"sailing-trial","374","1702288","0.0-11.0-327.0","","","","false","","","","","","","","","","null","","807.7999999970198","","3","0","null","null","arrowup","[0.325,0.675,0.85,0.15]","","",""
"sailing-trial","375","1705758","0.0-11.0-328.0","","","","false","","","","","","","","","","610.7000000029802","","195","","2","1","arrowright","1","arrowleft","[0.325,0.675,0.85,0.15]","","",""
"sailing-trial","376","1707896","0.0-11.0-329.0","","","","false","","","","","","","","","","null","","884.7999999970198","","0","0","null","null","arrowup","[0.325,0.675,0.85,0.15]","","",""
"sailing-trial","377","1711357","0.0-11.0-330.0","","","","false","","","","","","","","","","519.2999999970198","","43.3999999910593","","2","1","arrowright","1","arrowleft","[0.325,0.675,0.85,0.15]","","",""
"sailing-trial","378","1713674","0.0-11.0-331.0","","","","false","","","","","","","","","","null","","1166.4000000059605","","1","0","null","null","arrowup","[0.325,0.675,0.85,0.15]","","",""
"sailing-trial","379","1717546","0.0-11.0-332.0","","","","false","","","","","","","","","","440.79999999701977","","190","","2","1","arrowright","1","arrowleft","[0.325,0.675,0.85,0.15]","","",""
"sailing-trial","380","1719965","0.0-11.0-333.0","","","","false","","","","","","","","","","null","","1022.0999999940395","","3","0","null","null","arrowup","[0.325,0.675,0.85,0.15]","","",""
"sailing-trial","381","1723429","0.0-11.0-334.0","","","","false","","","","","","","","","","618","","63.29999999701977","","2","1","arrowright","1","arrowleft","[0.325,0.675,0.85,0.15]","","",""
"sailing-trial","382","1728462","0.0-11.0-335.0","","","","false","","","","","","","","","","null","","1379.5999999940395","","0","1","null","null","arrowup","[0.325,0.675,0.85,0.15]","","",""
"sailing-trial","383","1732295","0.0-11.0-336.0","","","","false","","","","","","","","","","686.6000000089407","","437","","2","1","arrowright","1","arrowleft","[0.325,0.675,0.85,0.15]","","",""
"sailing-trial","384","1734683","0.0-11.0-337.0","","","","false","","","","","","","","","","null","","839.7000000029802","","0","0","null","null","arrowup","[0.325,0.675,0.85,0.15]","","",""
"sailing-trial","385","1739966","0.0-11.0-338.0","","","","false","","","","","","","","","","577.1000000089407","","1341.7999999970198","","2","1","arrowright","1","arrowleft","[0.325,0.675,0.85,0.15]","","",""
"sailing-trial","386","1742498","0.0-11.0-339.0","","","","false","","","","","","","","","","null","","728.0999999940395","","2","1","null","null","arrowup","[0.325,0.675,0.85,0.15]","","",""
"sailing-trial","387","1746331","0.0-11.0-340.0","","","","false","","","","","","","","","","785.2000000029802","","147.79999999701977","","2","1","arrowright","1","arrowleft","[0.325,0.675,0.85,0.15]","","",""
"sailing-trial","388","1749782","0.0-11.0-341.0","","","","false","","","","","","","","","","null","","878.5999999940395","","3","1","null","null","arrowup","[0.325,0.675,0.85,0.15]","","",""
"sailing-trial","389","1753286","0.0-11.0-342.0","","","","false","","","","","","","","","","1095.5999999940395","","292.59999999403954","","2","0","arrowright","1","arrowleft","[0.675,0.325,0.15,0.85]","","",""
"sailing-trial","390","1756366","0.0-11.0-343.0","","","","false","","","","","","","","","","null","","1070.3999999910593","","3","1","null","null","arrowup","[0.675,0.325,0.15,0.85]","","",""
"sailing-trial","391","1759498","0.0-11.0-344.0","","","","false","","","","","","","","","","674.3999999910593","","47.900000005960464","","2","0","arrowright","1","arrowleft","[0.675,0.325,0.15,0.85]","","",""
"sailing-trial","392","1762399","0.0-11.0-345.0","","","","false","","","","","","","","","","null","","860","","0","1","null","null","arrowup","[0.675,0.325,0.15,0.85]","","",""
"sailing-trial","393","1766299","0.0-11.0-346.0","","","","false","","","","","","","","","","605.5","","69.5","","0","1","arrowleft","0","arrowleft","[0.675,0.325,0.15,0.85]","","",""
"sailing-trial","394","1769279","0.0-11.0-347.0","","","","false","","","","","","","","","","null","","1262.5999999940395","","0","0","null","null","arrowup","[0.675,0.325,0.15,0.85]","","",""
"sailing-trial","395","1773682","0.0-11.0-348.0","","","","false","","","","","","","","","","1019.6999999880791","","199.09999999403954","","2","1","arrowright","1","arrowleft","[0.675,0.325,0.15,0.85]","","",""
"sailing-trial","396","1777226","0.0-11.0-349.0","","","","false","","","","","","","","","","null","","1201.0999999940395","","0","1","null","null","arrowup","[0.675,0.325,0.15,0.85]","","",""
"sailing-trial","397","1780502","0.0-11.0-350.0","","","","false","","","","","","","","","","579.7999999970198","","387.79999999701977","","2","0","arrowright","1","arrowleft","[0.675,0.325,0.15,0.85]","","",""
"sailing-trial","398","1783442","0.0-11.0-351.0","","","","false","","","","","","","","","","null","","800.5999999940395","","3","1","null","null","arrowup","[0.675,0.325,0.15,0.85]","","",""
"sailing-trial","399","1787093","0.0-11.0-352.0","","","","false","","","","","","","","","","650.5","","164.5","","0","1","arrowleft","0","arrowleft","[0.675,0.325,0.15,0.85]","","",""
"sailing-trial","400","1789925","0.0-11.0-353.0","","","","false","","","","","","","","","","null","","1107.2999999970198","","2","1","null","null","arrowup","[0.675,0.325,0.15,0.85]","","",""
"sailing-trial","401","1793091","0.0-11.0-354.0","","","","false","","","","","","","","","","697.4000000059605","","56.20000000298023","","2","0","arrowright","1","arrowleft","[0.675,0.325,0.15,0.85]","","",""
"sailing-trial","402","1795379","0.0-11.0-355.0","","","","false","","","","","","","","","","null","","918.5999999940395","","3","0","null","null","arrowup","[0.675,0.325,0.15,0.85]","","",""
"sailing-trial","403","1799018","0.0-11.0-356.0","","","","false","","","","","","","","","","493.1000000089407","","295.1000000089407","","0","1","arrowleft","0","arrowleft","[0.675,0.325,0.15,0.85]","","",""
"sailing-trial","404","1801901","0.0-11.0-357.0","","","","false","","","","","","","","","","null","","1007.4000000059605","","3","1","null","null","arrowup","[0.675,0.325,0.15,0.85]","","",""
"sailing-trial","405","1804905","0.0-11.0-358.0","","","","false","","","","","","","","","","500","","205.5","","0","0","arrowleft","0","arrowleft","[0.675,0.325,0.15,0.85]","","",""
"sailing-trial","406","1808238","0.0-11.0-359.0","","","","false","","","","","","","","","","null","","1570.2999999970198","","3","1","null","null","arrowup","[0.675,0.325,0.15,0.85]","","",""
"sailing-trial","407","1811673","0.0-11.0-360.0","","","","false","","","","","","","","","","935.1999999880791","","188.79999999701977","","1","0","arrowleft","0","arrowright","[0.675,0.325,0.15,0.85]","","",""
"sailing-trial","408","1813791","0.0-11.0-361.0","","","","false","","","","","","","","","","null","","796","","0","0","null","null","arrowup","[0.675,0.325,0.15,0.85]","","",""
"sailing-trial","409","1816838","0.0-11.0-362.0","","","","false","","","","","","","","","","455.70000000298023","","518.9000000059605","","2","0","arrowright","1","arrowleft","[0.675,0.325,0.15,0.85]","","",""
"sailing-trial","410","1818903","0.0-11.0-363.0","","","","false","","","","","","","","","","null","","908.6999999880791","","0","0","null","null","arrowup","[0.675,0.325,0.15,0.85]","","",""
"sailing-trial","411","1822754","0.0-11.0-364.0","","","","false","","","","","","","","","","548.1999999880791","","282.70000000298023","","3","1","arrowright","1","arrowright","[0.85,0.15,0.325,0.675]","","",""
"sailing-trial","412","1825399","0.0-11.0-365.0","","","","false","","","","","","","","","","null","","977","","0","1","null","null","arrowup","[0.85,0.15,0.325,0.675]","","",""
"sailing-trial","413","1828540","0.0-11.0-366.0","","","","false","","","","","","","","","","467.80000001192093","","427.90000000596046","","3","0","arrowright","1","arrowright","[0.85,0.15,0.325,0.675]","","",""
"sailing-trial","414","1830999","0.0-11.0-367.0","","","","false","","","","","","","","","","null","","750.7000000029802","","0","1","null","null","arrowup","[0.85,0.15,0.325,0.675]","","",""
"sailing-trial","415","1836148","0.0-11.0-368.0","","","","false","","","","","","","","","","2286","","223.90000000596046","","0","1","arrowleft","0","arrowleft","[0.85,0.15,0.325,0.675]","","",""
"sailing-trial","416","1838222","0.0-11.0-369.0","","","","false","","","","","","","","","","null","","952.0999999940395","","1","0","null","null","arrowup","[0.85,0.15,0.325,0.675]","","",""
"sailing-trial","417","1841480","0.0-11.0-370.0","","","","false","","","","","","","","","","487.59999999403954","","63.29999999701977","","0","1","arrowleft","0","arrowleft","[0.85,0.15,0.325,0.675]","","",""
"sailing-trial","418","1843664","0.0-11.0-371.0","","","","false","","","","","","","","","","null","","791","","2","0","null","null","arrowup","[0.85,0.15,0.325,0.675]","","",""
"sailing-trial","419","1847106","0.0-11.0-372.0","","","","false","","","","","","","","","","469.09999999403954","","230.59999999403954","","0","1","arrowleft","0","arrowleft","[0.85,0.15,0.325,0.675]","","",""
"sailing-trial","420","1849922","0.0-11.0-373.0","","","","false","","","","","","","","","","null","","969.0999999940395","","3","1","null","null","arrowup","[0.85,0.15,0.325,0.675]","","",""
"sailing-trial","421","1852685","0.0-11.0-374.0","","","","false","","","","","","","","","","444.09999999403954","","189.5","","0","0","arrowleft","0","arrowleft","[0.85,0.15,0.325,0.675]","","",""
"sailing-trial","422","1855113","0.0-11.0-375.0","","","","false","","","","","","","","","","null","","1236.7000000029802","","1","0","null","null","arrowup","[0.85,0.15,0.325,0.675]","","",""
"sailing-trial","423","1859196","0.0-11.0-376.0","","","","false","","","","","","","","","","905.4000000059605","","595.3999999910593","","0","1","arrowleft","0","arrowleft","[0.85,0.15,0.325,0.675]","","",""
"sailing-trial","424","1861479","0.0-11.0-377.0","","","","false","","","","","","","","","","null","","851.8000000119209","","3","0","null","null","arrowup","[0.85,0.15,0.325,0.675]","","",""
"sailing-trial","425","1865142","0.0-11.0-378.0","","","","false","","","","","","","","","","590","","201.29999999701977","","0","1","arrowleft","0","arrowleft","[0.85,0.15,0.325,0.675]","","",""
"sailing-trial","426","1868442","0.0-11.0-379.0","","","","false","","","","","","","","","","null","","1205.0999999940395","","2","1","null","null","arrowup","[0.85,0.15,0.325,0.675]","","",""
"sailing-trial","427","1873159","0.0-11.0-380.0","","","","false","","","","","","","","","","766","","481.59999999403954","","0","1","arrowleft","0","arrowleft","[0.85,0.15,0.325,0.675]","","",""
"sailing-trial","428","1876414","0.0-11.0-381.0","","","","false","","","","","","","","","","null","","1036.5999999940395","","3","1","null","null","arrowup","[0.85,0.15,0.325,0.675]","","",""
"sailing-trial","429","1880629","0.0-11.0-382.0","","","","false","","","","","","","","","","877.5999999940395","","208","","0","1","arrowleft","0","arrowleft","[0.325,0.675,0.85,0.15]","","",""
"sailing-trial","430","1883637","0.0-11.0-383.0","","","","false","","","","","","","","","","null","","1148.9000000059605","","3","0","null","null","arrowup","[0.325,0.675,0.85,0.15]","","",""
"sailing-trial","431","1887525","0.0-11.0-384.0","","","","false","","","","","","","","","","879.5","","329.09999999403954","","0","1","arrowleft","0","arrowleft","[0.325,0.675,0.85,0.15]","","",""
"sailing-trial","432","1890723","0.0-11.0-385.0","","","","false","","","","","","","","","","null","","1532.7000000029802","","2","1","null","null","arrowup","[0.325,0.675,0.85,0.15]","","",""
"sailing-trial","433","1894156","0.0-11.0-386.0","","","","false","","","","","","","","","","1008.4000000059605","","229.30000001192093","","0","0","arrowleft","0","arrowleft","[0.325,0.675,0.85,0.15]","","",""
"sailing-trial","434","1896608","0.0-11.0-387.0","","","","false","","","","","","","","","","null","","1010.2999999970198","","0","0","null","null","arrowup","[0.325,0.675,0.85,0.15]","","",""
"sailing-trial","435","1904106","0.0-11.0-388.0","","","","false","","","","","","","","","","535","","382","","2","1","arrowright","1","arrowleft","[0.325,0.675,0.85,0.15]","","",""
"sailing-trial","436","1906370","0.0-11.0-389.0","","","","false","","","","","","","","","","null","","928.9000000059605","","3","0","null","null","arrowup","[0.325,0.675,0.85,0.15]","","",""
"sailing-trial","437","1910031","0.0-11.0-390.0","","","","false","","","","","","","","","","516.0999999940395","","220.5","","2","1","arrowright","1","arrowleft","[0.325,0.675,0.85,0.15]","","",""
"sailing-trial","438","1913264","0.0-11.0-391.0","","","","false","","","","","","","","","","null","","870.5999999940395","","2","1","null","null","arrowup","[0.325,0.675,0.85,0.15]","","",""
"sailing-trial","439","1917130","0.0-11.0-392.0","","","","false","","","","","","","","","","564.5999999940395","","1.2999999970197678","","3","0","arrowright","1","arrowright","[0.325,0.675,0.85,0.15]","","",""
"sailing-trial","440","1920601","0.0-11.0-393.0","","","","false","","","","","","","","","","null","","962.2999999970198","","0","0","null","null","arrowup","[0.325,0.675,0.85,0.15]","","",""
"sailing-trial","441","1924614","0.0-11.0-394.0","","","","false","","","","","","","","","","976.3999999910593","","34","","2","1","arrowright","1","arrowleft","[0.325,0.675,0.85,0.15]","","",""
"sailing-trial","442","1927212","0.0-11.0-395.0","","","","false","","","","","","","","","","null","","824.0999999940395","","2","1","null","null","arrowup","[0.325,0.675,0.85,0.15]","","",""
"sailing-trial","443","1930779","0.0-11.0-396.0","","","","false","","","","","","","","","","471.5","","42.19999998807907","","2","1","arrowright","1","arrowleft","[0.325,0.675,0.85,0.15]","","",""
"sailing-trial","444","1934112","0.0-11.0-397.0","","","","false","","","","","","","","","","null","","1462.699999988079","","1","1","null","null","arrowup","[0.325,0.675,0.85,0.15]","","",""
"sailing-trial","445","1938088","0.0-11.0-398.0","","","","false","","","","","","","","","","588.0999999940395","","74.29999999701977","","2","1","arrowright","1","arrowleft","[0.325,0.675,0.85,0.15]","","",""
"sailing-trial","446","1940370","0.0-11.0-399.0","","","","false","","","","","","","","","","null","","969.7000000029802","","0","0","null","null","arrowup","[0.325,0.675,0.85,0.15]","","",""
"instructions","447","1945723","0.0-12.0","","","","","","","","","","5351.79999999702","","","","","","","","","","","","","","","","[{""page_index"":0,""viewing_time"":5350.4000000059605}]"
"survey-debrief","448","2137299","0.0-13.0","","","","","","","","","","191524.39999999106","","","","","","","","","","","","","","{""difficulty"":""2"",""fun"":""1"",""clarity"":""2"",""strategy"":""I saw a pattern in the stores whom would sell gold more frequently than others. I would also keep the store that had given me gold a few times in the back of my mind whenever my main income of gold stopped being reliable. Nothing was worth writing down though"",""feedback"":""This game looks very tacky and is based mostly off of luck. Also it's too long, super boring.""}","",""
