"trial_type","trial_index","time_elapsed","internal_node_id","value","metadata","success","timeout","failed_images","failed_audio","failed_video","browser_interaction","low_quality","rt","stimulus","response","button_pressed","island_rt","island_response","boat_rt","boat_response","boat","reward","island_key","island","boat_key","reward_probabilities","responses","num_errors","view_history"
"pavlovia","0","2","0.0-0.0","","","","","","","","","","","","","","","","","","","","","","","","","",""
"call-function","1","2","0.0-1.0","","{""task_version"":""sailing_part1_v1"",""task_condition"":""good"",""boats"":[""D"",""B"",""C"",""A""],""boats_demo"":[""F"",""G"",""E"",""H""],""islands"":[""A"",""B""],""subject_id"":""13954"",""age"":""18"",""gender"":""Male""}","","","","","","","","","","","","","","","","","","","","","","","",""
"preload","2","2853","0.0-2.0","","","true","false","[]","[]","[]","[{""event"":""fullscreenenter"",""trial"":3,""time"":5476}]","false","","","","","","","","","","","","","","","","",""
"fullscreen","3","6474","0.0-3.0","","","true","","","","","","","","","","","","","","","","","","","","","","",""
"audio-keyboard-response","4","8906","0.0-4.0-0.0","","","","","","","","","","2381.3333333333335","audio/beep_loop.wav"," ","","","","","","","","","","","","","",""
"audio-test","5","10171","0.0-4.0-1.0","","","","","","","","","","null","audio/turtle.mp3","","3","","","","","","","","","","","","",""
"audio-test","6","11936","0.0-4.0-2.0","","","","","","","","","","null","audio/shark.mp3","","2","","","","","","","","","","","","",""
"sailing-instructions","7","41188","0.0-5.0-0.0-0.0","","","","","","","","","","","","","","null","null","null","null","null","null","","","","","","",""
"sailing-trial","8","45498","0.0-5.0-0.0-1.0-0.0","","","","false","","","","","","","","","","3198.199999988079","","null","","null","null","arrowleft","0","null","null","","",""
"sailing-trial","9","47700","0.0-5.0-0.0-1.0-1.0","","","","false","","","","","","","","","","1083.5","","null","","null","null","arrowright","1","null","null","","",""
"sailing-trial","10","51914","0.0-5.0-0.0-1.0-2.0","","","","false","","","","","","","","","","3091.100000023842","","null","","null","null","arrowright","1","null","null","","",""
"sailing-instructions","11","90864","0.0-5.0-0.0-2.0","","","","","","","","","","","","","","null","null","null","null","0","null","","","","","","",""
"sailing-trial","12","95491","0.0-5.0-0.0-3.0-0.0","","","","false","","","","","","","","","","null","","1618.5","","2","1","null","null","arrowleft","[1,1,1,1]","","",""
"sailing-trial","13","98303","0.0-5.0-0.0-3.0-1.0","","","","false","","","","","","","","","","null","","456.30000001192093","","3","1","null","null","arrowright","[1,1,1,1]","","",""
"sailing-trial","14","100684","0.0-5.0-0.0-3.0-2.0","","","","false","","","","","","","","","","null","","76.5","","2","0","null","null","arrowleft","[0,0,0,0]","","",""
"sailing-instructions","15","108026","0.0-5.0-0.0-4.0","","","","","","","","","","","","","","null","null","null","null","null","null","","","","","","",""
"sailing-comprehension","16","121937","0.0-5.0-0.0-5.0","","","","","","","","","","10991.5","","","","","","","","","","","","","","[""true"",""true"",""false"",""true""]","0",""
"sailing-instructions","17","180962","0.0-6.0-0.0-0.0","","","","","","","","","","","","","","null","null","null","null","null","null","","","","","","",""
"sailing-comprehension","18","196335","0.0-6.0-0.0-1.0","","","","","","","","","","13689.299999952316","","","","","","","","","","","","","","[""true"",""false"",""true""]","0",""
"sailing-instructions","19","209225","0.0-7.0-0.0-0.0","","","","","","","","","","","","","","null","null","null","null","null","null","","","","","","",""
"sailing-trial","20","213243","0.0-7.0-0.0-1.0-0.0","","","","false","","","","","","","","","","null","","2158.2000000476837","","0","0","null","null","arrowup","[0.2,0.8,0.2,0.8]","","",""
"sailing-trial","21","217770","0.0-7.0-0.0-1.0-1.0","","","","false","","","","","","","","","","null","","2652.599999964237","","1","1","null","null","arrowup","[0.2,0.8,0.2,0.8]","","",""
"sailing-trial","22","219687","0.0-7.0-0.0-1.0-2.0","","","","false","","","","","","","","","","null","","571.8000000119209","","2","0","null","null","arrowup","[0.2,0.8,0.2,0.8]","","",""
"sailing-trial","23","221957","0.0-7.0-0.0-1.0-3.0","","","","false","","","","","","","","","","null","","510.60000002384186","","3","1","null","null","arrowup","[0.2,0.8,0.2,0.8]","","",""
"sailing-comprehension","24","234963","0.0-7.0-0.0-2.0","","","","","","","","","","9521.200000047684","","","","","","","","","","","","","","[""true""]","1",""
"sailing-instructions","25","249207","0.0-7.0-0.1-0.1","","","","","","","","","","","","","","null","null","null","null","null","null","","","","","","",""
"sailing-trial","26","251328","0.0-7.0-0.1-1.1-0.1","","","","false","","","","","","","","","","null","","996.1999999880791","","0","0","null","null","arrowup","[0.2,0.8,0.2,0.8]","","",""
"sailing-trial","27","253293","0.0-7.0-0.1-1.1-1.1","","","","false","","","","","","","","","","null","","315.0999999642372","","1","1","null","null","arrowup","[0.2,0.8,0.2,0.8]","","",""
"sailing-trial","28","254536","0.0-7.0-0.1-1.1-2.1","","","","false","","","","","","","","","","null","","94.10000002384186","","2","0","null","null","arrowup","[0.2,0.8,0.2,0.8]","","",""
"sailing-trial","29","256425","0.0-7.0-0.1-1.1-3.1","","","","false","","","","","","","","","","null","","184.39999997615814","","3","1","null","null","arrowup","[0.2,0.8,0.2,0.8]","","",""
"sailing-comprehension","30","259470","0.0-7.0-0.1-2.1","","","","","","","","","","1932","","","","","","","","","","","","","","[""false""]","0",""
"sailing-instructions","31","269265","0.0-8.0-0.0-0.0","","","","","","","","","","","","","","null","null","null","null","null","null","","","","","","",""
"sailing-comprehension","32","273637","0.0-8.0-0.0-1.0","","","","","","","","","","2409.199999988079","","","","","","","","","","","","","","[""true""]","0",""
"sailing-instructions","33","294241","0.0-9.0-0.0-0.0","","","","","","","","","","","","","","null","null","null","null","null","null","","","","","","",""
"sailing-trial","34","298545","0.0-9.0-0.0-1.0-0.0","","","","false","","","","","","","","","","1281.8999999761581","","70.09999996423721","","1","1","arrowleft","0","arrowright","[0.2,0.8,0.2,0.8]","","",""
"sailing-trial","35","301681","0.0-9.0-0.0-1.0-1.0","","","","false","","","","","","","","","","210","","119","","1","1","arrowleft","0","arrowright","[0.2,0.8,0.2,0.8]","","",""
"sailing-trial","36","304118","0.0-9.0-0.0-1.0-2.0","","","","false","","","","","","","","","","null","","1178.5","","0","0","null","null","arrowup","[0.2,0.8,0.2,0.8]","","",""
"sailing-trial","37","307405","0.0-9.0-0.0-1.0-3.0","","","","false","","","","","","","","","","375.7999999523163","","144.19999998807907","","1","1","arrowleft","0","arrowright","[0.2,0.8,0.2,0.8]","","",""
"sailing-trial","38","310359","0.0-9.0-0.0-1.0-4.0","","","","false","","","","","","","","","","null","","1099.8999999761581","","3","1","null","null","arrowup","[0.2,0.8,0.2,0.8]","","",""
"sailing-trial","39","312770","0.0-9.0-0.0-1.0-5.0","","","","false","","","","","","","","","","116.90000003576279","","118.80000001192093","","1","0","arrowleft","0","arrowright","[0.2,0.8,0.2,0.8]","","",""
"sailing-instructions","40","337304","0.0-10.0","","","","","","","","","","","","","","null","null","null","null","null","null","","","","","","",""
"sailing-trial","41","340880","0.0-11.0-0.0","","","","false","","","","","","","","","","931.1000000238419","","167.39999997615814","","0","0","arrowleft","0","arrowleft","[0.675,0.325,0.15,0.85]","","",""
"sailing-trial","42","343355","0.0-11.0-1.0","","","","false","","","","","","","","","","null","","1244.800000011921","","2","0","null","null","arrowup","[0.675,0.325,0.15,0.85]","","",""
"sailing-trial","43","346154","0.0-11.0-2.0","","","","false","","","","","","","","","","391.5","","23.399999976158142","","1","0","arrowleft","0","arrowright","[0.675,0.325,0.15,0.85]","","",""
"sailing-trial","44","348848","0.0-11.0-3.0","","","","false","","","","","","","","","","null","","908.3999999761581","","3","1","null","null","arrowup","[0.675,0.325,0.15,0.85]","","",""
"sailing-trial","45","351750","0.0-11.0-4.0","","","","false","","","","","","","","","","97.19999998807907","","70","","3","1","arrowright","1","arrowright","[0.675,0.325,0.15,0.85]","","",""
"sailing-trial","46","354673","0.0-11.0-5.0","","","","false","","","","","","","","","","null","","1071.6000000238419","","0","1","null","null","arrowup","[0.675,0.325,0.15,0.85]","","",""
"sailing-trial","47","357606","0.0-11.0-6.0","","","","false","","","","","","","","","","69.09999996423721","","91.09999996423721","","3","1","arrowright","1","arrowright","[0.675,0.325,0.15,0.85]","","",""
"sailing-trial","48","359985","0.0-11.0-7.0","","","","false","","","","","","","","","","null","","754.6000000238419","","0","1","null","null","arrowup","[0.675,0.325,0.15,0.85]","","",""
"sailing-trial","49","362991","0.0-11.0-8.0","","","","false","","","","","","","","","","143","","121","","3","1","arrowright","1","arrowright","[0.675,0.325,0.15,0.85]","","",""
"sailing-trial","50","364803","0.0-11.0-9.0","","","","false","","","","","","","","","","null","","519.7999999523163","","1","0","null","null","arrowup","[0.675,0.325,0.15,0.85]","","",""
"sailing-trial","51","368175","0.0-11.0-10.0","","","","false","","","","","","","","","","222.10000002384186","","36.10000002384186","","3","1","arrowright","1","arrowright","[0.675,0.325,0.15,0.85]","","",""
"sailing-trial","52","370730","0.0-11.0-11.0","","","","false","","","","","","","","","","null","","546.6000000238419","","3","1","null","null","arrowup","[0.675,0.325,0.15,0.85]","","",""
"sailing-trial","53","374257","0.0-11.0-12.0","","","","false","","","","","","","","","","628.3999999761581","","49.10000002384186","","3","1","arrowright","1","arrowright","[0.675,0.325,0.15,0.85]","","",""
"sailing-trial","54","376119","0.0-11.0-13.0","","","","false","","","","","","","","","","null","","781.6999999880791","","2","0","null","null","arrowup","[0.675,0.325,0.15,0.85]","","",""
"sailing-trial","55","379256","0.0-11.0-14.0","","","","false","","","","","","","","","","359","","125.80000001192093","","3","1","arrowright","1","arrowright","[0.675,0.325,0.15,0.85]","","",""
"sailing-trial","56","381527","0.0-11.0-15.0","","","","false","","","","","","","","","","null","","467.39999997615814","","1","1","null","null","arrowup","[0.675,0.325,0.15,0.85]","","",""
"sailing-trial","57","384366","0.0-11.0-16.0","","","","false","","","","","","","","","","44.80000001192093","","16","","3","1","arrowright","1","arrowright","[0.675,0.325,0.15,0.85]","","",""
"sailing-trial","58","386174","0.0-11.0-17.0","","","","false","","","","","","","","","","null","","676","","2","0","null","null","arrowup","[0.675,0.325,0.15,0.85]","","",""
"sailing-trial","59","389207","0.0-11.0-18.0","","","","false","","","","","","","","","","206.69999998807907","","101.10000002384186","","3","1","arrowright","1","arrowright","[0.85,0.15,0.325,0.675]","","",""
"sailing-trial","60","391030","0.0-11.0-19.0","","","","false","","","","","","","","","","null","","634","","0","0","null","null","arrowup","[0.85,0.15,0.325,0.675]","","",""
"sailing-trial","61","394046","0.0-11.0-20.0","","","","false","","","","","","","","","","55.39999997615814","","140.5999999642372","","3","1","arrowright","1","arrowright","[0.85,0.15,0.325,0.675]","","",""
"sailing-trial","62","395696","0.0-11.0-21.0","","","","false","","","","","","","","","","null","","360.10000002384186","","0","0","null","null","arrowup","[0.85,0.15,0.325,0.675]","","",""
"sailing-trial","63","398754","0.0-11.0-22.0","","","","false","","","","","","","","","","267","","23.69999998807907","","3","1","arrowright","1","arrowright","[0.85,0.15,0.325,0.675]","","",""
"sailing-trial","64","401169","0.0-11.0-23.0","","","","false","","","","","","","","","","null","","677.6000000238419","","0","1","null","null","arrowup","[0.85,0.15,0.325,0.675]","","",""
"sailing-trial","65","404162","0.0-11.0-24.0","","","","false","","","","","","","","","","127.69999998807907","","10.600000023841858","","3","1","arrowright","1","arrowright","[0.85,0.15,0.325,0.675]","","",""
"sailing-trial","66","406101","0.0-11.0-25.0","","","","false","","","","","","","","","","null","","659.3000000119209","","1","0","null","null","arrowup","[0.85,0.15,0.325,0.675]","","",""
"sailing-trial","67","409168","0.0-11.0-26.0","","","","false","","","","","","","","","","170.69999998807907","","150.19999998807907","","3","1","arrowright","1","arrowright","[0.85,0.15,0.325,0.675]","","",""
"sailing-trial","68","410936","0.0-11.0-27.0","","","","false","","","","","","","","","","null","","552.5","","2","0","null","null","arrowup","[0.85,0.15,0.325,0.675]","","",""
"sailing-trial","69","413883","0.0-11.0-28.0","","","","false","","","","","","","","","","77.5","","5.599999964237213","","3","1","arrowright","1","arrowright","[0.85,0.15,0.325,0.675]","","",""
"sailing-trial","70","416542","0.0-11.0-29.0","","","","false","","","","","","","","","","null","","938.6999999880791","","3","1","null","null","arrowup","[0.85,0.15,0.325,0.675]","","",""
"sailing-trial","71","419620","0.0-11.0-30.0","","","","false","","","","","","","","","","144.19999998807907","","131.80000001192093","","3","0","arrowright","1","arrowright","[0.85,0.15,0.325,0.675]","","",""
"sailing-trial","72","422271","0.0-11.0-31.0","","","","false","","","","","","","","","","null","","859.8000000119209","","0","1","null","null","arrowup","[0.85,0.15,0.325,0.675]","","",""
"sailing-trial","73","425548","0.0-11.0-32.0","","","","false","","","","","","","","","","424","","25.399999976158142","","0","1","arrowleft","0","arrowleft","[0.85,0.15,0.325,0.675]","","",""
"sailing-trial","74","427895","0.0-11.0-33.0","","","","false","","","","","","","","","","null","","785.8999999761581","","0","1","null","null","arrowup","[0.85,0.15,0.325,0.675]","","",""
"sailing-trial","75","430749","0.0-11.0-34.0","","","","false","","","","","","","","","","28.600000023841858","","135.89999997615814","","0","1","arrowleft","0","arrowleft","[0.85,0.15,0.325,0.675]","","",""
"sailing-trial","76","432443","0.0-11.0-35.0","","","","false","","","","","","","","","","null","","550.1999999880791","","1","0","null","null","arrowup","[0.85,0.15,0.325,0.675]","","",""
"sailing-trial","77","434625","0.0-11.0-36.0","","","","false","","","","","","","","","","46.80000001192093","","0.8999999761581421","","0","0","arrowleft","0","arrowleft","[0.325,0.675,0.85,0.15]","","",""
"sailing-trial","78","436962","0.0-11.0-37.0","","","","false","","","","","","","","","","null","","650.5","","0","1","null","null","arrowup","[0.325,0.675,0.85,0.15]","","",""
"sailing-trial","79","439397","0.0-11.0-38.0","","","","false","","","","","","","","","","129.20000004768372","","160.4000000357628","","0","0","arrowleft","0","arrowleft","[0.325,0.675,0.85,0.15]","","",""
"sailing-trial","80","441061","0.0-11.0-39.0","","","","false","","","","","","","","","","null","","434.5999999642372","","0","0","null","null","arrowup","[0.325,0.675,0.85,0.15]","","",""
"sailing-trial","81","444343","0.0-11.0-40.0","","","","false","","","","","","","","","","432.10000002384186","","88.29999995231628","","2","1","arrowright","1","arrowleft","[0.325,0.675,0.85,0.15]","","",""
"sailing-trial","82","446571","0.0-11.0-41.0","","","","false","","","","","","","","","","null","","565.7999999523163","","1","1","null","null","arrowup","[0.325,0.675,0.85,0.15]","","",""
"sailing-trial","83","449529","0.0-11.0-42.0","","","","false","","","","","","","","","","73.90000003576279","","65.69999998807907","","2","1","arrowright","1","arrowleft","[0.325,0.675,0.85,0.15]","","",""
"sailing-trial","84","450937","0.0-11.0-43.0","","","","false","","","","","","","","","","null","","181.5","","3","0","null","null","arrowup","[0.325,0.675,0.85,0.15]","","",""
"sailing-trial","85","453717","0.0-11.0-44.0","","","","false","","","","","","","","","","118.19999998807907","","32.39999997615814","","2","1","arrowright","1","arrowleft","[0.325,0.675,0.85,0.15]","","",""
"sailing-trial","86","455799","0.0-11.0-45.0","","","","false","","","","","","","","","","null","","562.1999999880791","","2","1","null","null","arrowup","[0.325,0.675,0.85,0.15]","","",""
"sailing-trial","87","458557","0.0-11.0-46.0","","","","false","","","","","","","","","","101.79999995231628","","120.89999997615814","","2","1","arrowright","1","arrowleft","[0.325,0.675,0.85,0.15]","","",""
"sailing-trial","88","460273","0.0-11.0-47.0","","","","false","","","","","","","","","","null","","605.7000000476837","","1","0","null","null","arrowup","[0.325,0.675,0.85,0.15]","","",""
"sailing-trial","89","463139","0.0-11.0-48.0","","","","false","","","","","","","","","","166","","144.29999995231628","","2","1","arrowright","1","arrowleft","[0.325,0.675,0.85,0.15]","","",""
"sailing-trial","90","465756","0.0-11.0-49.0","","","","false","","","","","","","","","","null","","854.3999999761581","","1","1","null","null","arrowup","[0.325,0.675,0.85,0.15]","","",""
"sailing-trial","91","468486","0.0-11.0-50.0","","","","false","","","","","","","","","","74.60000002384186","","34","","2","1","arrowright","1","arrowleft","[0.325,0.675,0.85,0.15]","","",""
"sailing-trial","92","469921","0.0-11.0-51.0","","","","false","","","","","","","","","","null","","247.89999997615814","","3","0","null","null","arrowup","[0.325,0.675,0.85,0.15]","","",""
"sailing-trial","93","472874","0.0-11.0-52.0","","","","false","","","","","","","","","","130.60000002384186","","149","","2","1","arrowright","1","arrowleft","[0.325,0.675,0.85,0.15]","","",""
"sailing-trial","94","474287","0.0-11.0-53.0","","","","false","","","","","","","","","","null","","314.39999997615814","","0","0","null","null","arrowup","[0.325,0.675,0.85,0.15]","","",""
"sailing-trial","95","477136","0.0-11.0-54.0","","","","false","","","","","","","","","","62.60000002384186","","101.59999996423721","","2","1","arrowright","1","arrowleft","[0.15,0.85,0.675,0.325]","","",""
"sailing-trial","96","479449","0.0-11.0-55.0","","","","false","","","","","","","","","","null","","619.6000000238419","","1","1","null","null","arrowup","[0.15,0.85,0.675,0.325]","","",""
"sailing-trial","97","482192","0.0-11.0-56.0","","","","false","","","","","","","","","","86.19999998807907","","14.099999964237213","","2","1","arrowright","1","arrowleft","[0.15,0.85,0.675,0.325]","","",""
"sailing-trial","98","483356","0.0-11.0-57.0","","","","false","","","","","","","","","","null","","48.5","","0","0","null","null","arrowup","[0.15,0.85,0.675,0.325]","","",""
"sailing-trial","99","485524","0.0-11.0-58.0","","","","false","","","","","","","","","","67","","15.800000011920929","","2","0","arrowright","1","arrowleft","[0.15,0.85,0.675,0.325]","","",""
"sailing-trial","100","487990","0.0-11.0-59.0","","","","false","","","","","","","","","","null","","740.3999999761581","","2","1","null","null","arrowup","[0.15,0.85,0.675,0.325]","","",""
"sailing-trial","101","490431","0.0-11.0-60.0","","","","false","","","","","","","","","","146.69999998807907","","111.09999996423721","","2","0","arrowright","1","arrowleft","[0.15,0.85,0.675,0.325]","","",""
"sailing-trial","102","492153","0.0-11.0-61.0","","","","false","","","","","","","","","","null","","481.30000001192093","","2","0","null","null","arrowup","[0.15,0.85,0.675,0.325]","","",""
"sailing-trial","103","495267","0.0-11.0-62.0","","","","false","","","","","","","","","","321.30000001192093","","30.700000047683716","","1","1","arrowleft","0","arrowright","[0.15,0.85,0.675,0.325]","","",""
"sailing-trial","104","497634","0.0-11.0-63.0","","","","false","","","","","","","","","","null","","633.1000000238419","","2","1","null","null","arrowup","[0.15,0.85,0.675,0.325]","","",""
"sailing-trial","105","500419","0.0-11.0-64.0","","","","false","","","","","","","","","","69.5","","63.19999998807907","","1","1","arrowleft","0","arrowright","[0.15,0.85,0.675,0.325]","","",""
"sailing-trial","106","502467","0.0-11.0-65.0","","","","false","","","","","","","","","","null","","296.69999998807907","","2","1","null","null","arrowup","[0.15,0.85,0.675,0.325]","","",""
"sailing-trial","107","505320","0.0-11.0-66.0","","","","false","","","","","","","","","","6.900000035762787","","140.80000001192093","","1","1","arrowleft","0","arrowright","[0.15,0.85,0.675,0.325]","","",""
"sailing-trial","108","506945","0.0-11.0-67.0","","","","false","","","","","","","","","","null","","27.30000001192093","","2","1","null","null","arrowup","[0.15,0.85,0.675,0.325]","","",""
"sailing-trial","109","509848","0.0-11.0-68.0","","","","false","","","","","","","","","","24.700000047683716","","185.5","","1","1","arrowleft","0","arrowright","[0.15,0.85,0.675,0.325]","","",""
"sailing-trial","110","511362","0.0-11.0-69.0","","","","false","","","","","","","","","","null","","387.9000000357628","","3","0","null","null","arrowup","[0.15,0.85,0.675,0.325]","","",""
"sailing-trial","111","514091","0.0-11.0-70.0","","","","false","","","","","","","","","","33.60000002384186","","63.700000047683716","","1","1","arrowleft","0","arrowright","[0.15,0.85,0.675,0.325]","","",""
"sailing-trial","112","516048","0.0-11.0-71.0","","","","false","","","","","","","","","","null","","334.69999998807907","","1","1","null","null","arrowup","[0.15,0.85,0.675,0.325]","","",""
"sailing-trial","113","518888","0.0-11.0-72.0","","","","false","","","","","","","","","","6.100000023841858","","112.69999998807907","","1","1","arrowleft","0","arrowright","[0.85,0.15,0.325,0.675]","","",""
"sailing-trial","114","520915","0.0-11.0-73.0","","","","false","","","","","","","","","","null","","388.5","","3","1","null","null","arrowup","[0.85,0.15,0.325,0.675]","","",""
"sailing-trial","115","523245","0.0-11.0-74.0","","","","false","","","","","","","","","","101.69999998807907","","28.5","","1","0","arrowleft","0","arrowright","[0.85,0.15,0.325,0.675]","","",""
"sailing-trial","116","525004","0.0-11.0-75.0","","","","false","","","","","","","","","","null","","504.5","","1","0","null","null","arrowup","[0.85,0.15,0.325,0.675]","","",""
"sailing-trial","117","527592","0.0-11.0-76.0","","","","false","","","","","","","","","","370.39999997615814","","46.80000001192093","","3","0","arrowright","1","arrowright","[0.85,0.15,0.325,0.675]","","",""
"sailing-trial","118","529242","0.0-11.0-77.0","","","","false","","","","","","","","","","null","","542.3000000119209","","1","0","null","null","arrowup","[0.85,0.15,0.325,0.675]","","",""
"sailing-trial","119","532073","0.0-11.0-78.0","","","","false","","","","","","","","","","95.20000004768372","","91.19999998807907","","2","1","arrowright","1","arrowleft","[0.85,0.15,0.325,0.675]","","",""
"sailing-trial","120","533990","0.0-11.0-79.0","","","","false","","","","","","","","","","null","","144.20000004768372","","0","1","null","null","arrowup","[0.85,0.15,0.325,0.675]","","",""
"sailing-trial","121","536265","0.0-11.0-80.0","","","","false","","","","","","","","","","135.10000002384186","","44.5","","2","0","arrowright","1","arrowleft","[0.85,0.15,0.325,0.675]","","",""
"sailing-trial","122","538427","0.0-11.0-81.0","","","","false","","","","","","","","","","null","","633.3999999761581","","3","1","null","null","arrowup","[0.85,0.15,0.325,0.675]","","",""
"sailing-trial","123","541377","0.0-11.0-82.0","","","","false","","","","","","","","","","128.30000001192093","","98.40000003576279","","0","1","arrowleft","0","arrowleft","[0.85,0.15,0.325,0.675]","","",""
"sailing-trial","124","542782","0.0-11.0-83.0","","","","false","","","","","","","","","","null","","346.19999998807907","","2","0","null","null","arrowup","[0.85,0.15,0.325,0.675]","","",""
"sailing-trial","125","545613","0.0-11.0-84.0","","","","false","","","","","","","","","","120.5","","81.5","","0","1","arrowleft","0","arrowleft","[0.85,0.15,0.325,0.675]","","",""
"sailing-trial","126","547383","0.0-11.0-85.0","","","","false","","","","","","","","","","null","","131.5999999642372","","0","1","null","null","arrowup","[0.85,0.15,0.325,0.675]","","",""
"sailing-trial","127","550264","0.0-11.0-86.0","","","","false","","","","","","","","","","165.39999997615814","","109.10000002384186","","0","1","arrowleft","0","arrowleft","[0.85,0.15,0.325,0.675]","","",""
"sailing-trial","128","551413","0.0-11.0-87.0","","","","false","","","","","","","","","","null","","39","","2","0","null","null","arrowup","[0.85,0.15,0.325,0.675]","","",""
"sailing-trial","129","554146","0.0-11.0-88.0","","","","false","","","","","","","","","","146.10000002384186","","31.400000035762787","","0","1","arrowleft","0","arrowleft","[0.85,0.15,0.325,0.675]","","",""
"sailing-trial","130","555978","0.0-11.0-89.0","","","","false","","","","","","","","","","null","","142.30000001192093","","3","1","null","null","arrowup","[0.85,0.15,0.325,0.675]","","",""
"sailing-trial","131","558839","0.0-11.0-90.0","","","","false","","","","","","","","","","68.70000004768372","","159.9000000357628","","0","1","arrowleft","0","arrowleft","[0.85,0.15,0.325,0.675]","","",""
"sailing-trial","132","560118","0.0-11.0-91.0","","","","false","","","","","","","","","","null","","99.39999997615814","","2","0","null","null","arrowup","[0.85,0.15,0.325,0.675]","","",""
"sailing-trial","133","562902","0.0-11.0-92.0","","","","false","","","","","","","","","","37.80000001192093","","6.899999976158142","","0","1","arrowleft","0","arrowleft","[0.85,0.15,0.325,0.675]","","",""
"sailing-trial","134","564505","0.0-11.0-93.0","","","","false","","","","","","","","","","null","","43.30000001192093","","3","1","null","null","arrowup","[0.85,0.15,0.325,0.675]","","",""
"sailing-trial","135","566678","0.0-11.0-94.0","","","","false","","","","","","","","","","29.80000001192093","","77.09999996423721","","0","0","arrowleft","0","arrowleft","[0.675,0.325,0.15,0.85]","","",""
"sailing-trial","136","568608","0.0-11.0-95.0","","","","false","","","","","","","","","","null","","853.1000000238419","","1","0","null","null","arrowup","[0.675,0.325,0.15,0.85]","","",""
"sailing-trial","137","571642","0.0-11.0-96.0","","","","false","","","","","","","","","","244.60000002384186","","188.10000002384186","","0","1","arrowleft","0","arrowleft","[0.675,0.325,0.15,0.85]","","",""
"sailing-trial","138","573796","0.0-11.0-97.0","","","","false","","","","","","","","","","null","","410.30000001192093","","0","1","null","null","arrowup","[0.675,0.325,0.15,0.85]","","",""
"sailing-trial","139","577199","0.0-11.0-98.0","","","","false","","","","","","","","","","75.79999995231628","","158.79999995231628","","0","1","arrowleft","0","arrowleft","[0.675,0.325,0.15,0.85]","","",""
"sailing-trial","140","578913","0.0-11.0-99.0","","","","false","","","","","","","","","","null","","46","","3","1","null","null","arrowup","[0.675,0.325,0.15,0.85]","","",""
"sailing-trial","141","581690","0.0-11.0-100.0","","","","false","","","","","","","","","","30.200000047683716","","144.79999995231628","","0","1","arrowleft","0","arrowleft","[0.675,0.325,0.15,0.85]","","",""
"sailing-trial","142","582854","0.0-11.0-101.0","","","","false","","","","","","","","","","null","","136.89999997615814","","1","0","null","null","arrowup","[0.675,0.325,0.15,0.85]","","",""
"sailing-trial","143","585424","0.0-11.0-102.0","","","","false","","","","","","","","","","70.20000004768372","","4.100000023841858","","0","0","arrowleft","0","arrowleft","[0.675,0.325,0.15,0.85]","","",""
"sailing-trial","144","586895","0.0-11.0-103.0","","","","false","","","","","","","","","","null","","383.39999997615814","","2","0","null","null","arrowup","[0.675,0.325,0.15,0.85]","","",""
"sailing-trial","145","590084","0.0-11.0-104.0","","","","false","","","","","","","","","","418","","92.20000004768372","","3","1","arrowright","1","arrowright","[0.675,0.325,0.15,0.85]","","",""
"sailing-trial","146","591561","0.0-11.0-105.0","","","","false","","","","","","","","","","null","","359.19999998807907","","2","0","null","null","arrowup","[0.675,0.325,0.15,0.85]","","",""
"sailing-trial","147","594334","0.0-11.0-106.0","","","","false","","","","","","","","","","115","","1.5","","3","1","arrowright","1","arrowright","[0.675,0.325,0.15,0.85]","","",""
"sailing-trial","148","595479","0.0-11.0-107.0","","","","false","","","","","","","","","","null","","117.89999997615814","","1","0","null","null","arrowup","[0.675,0.325,0.15,0.85]","","",""
"sailing-trial","149","598271","0.0-11.0-108.0","","","","false","","","","","","","","","","65.5","","135.10000002384186","","3","1","arrowright","1","arrowright","[0.675,0.325,0.15,0.85]","","",""
"sailing-trial","150","600014","0.0-11.0-109.0","","","","false","","","","","","","","","","null","","48.80000001192093","","0","1","null","null","arrowup","[0.675,0.325,0.15,0.85]","","",""
"sailing-trial","151","602770","0.0-11.0-110.0","","","","false","","","","","","","","","","41.30000001192093","","77.89999997615814","","3","1","arrowright","1","arrowright","[0.85,0.15,0.325,0.675]","","",""
"sailing-trial","152","603997","0.0-11.0-111.0","","","","false","","","","","","","","","","null","","191.19999998807907","","2","0","null","null","arrowup","[0.85,0.15,0.325,0.675]","","",""
"sailing-trial","153","607034","0.0-11.0-112.0","","","","false","","","","","","","","","","40.80000001192093","","100.69999998807907","","3","1","arrowright","1","arrowright","[0.85,0.15,0.325,0.675]","","",""
"sailing-trial","154","608177","0.0-11.0-113.0","","","","false","","","","","","","","","","null","","56.60000002384186","","2","0","null","null","arrowup","[0.85,0.15,0.325,0.675]","","",""
"sailing-trial","155","610563","0.0-11.0-114.0","","","","false","","","","","","","","","","61","","153.60000002384186","","3","0","arrowright","1","arrowright","[0.85,0.15,0.325,0.675]","","",""
"sailing-trial","156","612734","0.0-11.0-115.0","","","","false","","","","","","","","","","null","","596.8999999761581","","0","1","null","null","arrowup","[0.85,0.15,0.325,0.675]","","",""
"sailing-trial","157","615526","0.0-11.0-116.0","","","","false","","","","","","","","","","10","","125.80000001192093","","0","1","arrowleft","0","arrowleft","[0.85,0.15,0.325,0.675]","","",""
"sailing-trial","158","617143","0.0-11.0-117.0","","","","false","","","","","","","","","","null","","66.59999996423721","","0","1","null","null","arrowup","[0.85,0.15,0.325,0.675]","","",""
"sailing-trial","159","620254","0.0-11.0-118.0","","","","false","","","","","","","","","","13.400000035762787","","130.5999999642372","","0","1","arrowleft","0","arrowleft","[0.85,0.15,0.325,0.675]","","",""
"sailing-trial","160","621511","0.0-11.0-119.0","","","","false","","","","","","","","","","null","","164.19999998807907","","1","0","null","null","arrowup","[0.85,0.15,0.325,0.675]","","",""
"sailing-trial","161","624163","0.0-11.0-120.0","","","","false","","","","","","","","","","86.39999997615814","","4.600000023841858","","0","1","arrowleft","0","arrowleft","[0.85,0.15,0.325,0.675]","","",""
"sailing-trial","162","625537","0.0-11.0-121.0","","","","false","","","","","","","","","","null","","131.39999997615814","","2","0","null","null","arrowup","[0.85,0.15,0.325,0.675]","","",""
"sailing-trial","163","628288","0.0-11.0-122.0","","","","false","","","","","","","","","","56.69999998807907","","163","","0","1","arrowleft","0","arrowleft","[0.85,0.15,0.325,0.675]","","",""
"sailing-trial","164","630010","0.0-11.0-123.0","","","","false","","","","","","","","","","null","","13.099999964237213","","1","1","null","null","arrowup","[0.85,0.15,0.325,0.675]","","",""
"sailing-trial","165","632877","0.0-11.0-124.0","","","","false","","","","","","","","","","150.69999998807907","","167","","0","1","arrowleft","0","arrowleft","[0.85,0.15,0.325,0.675]","","",""
"sailing-trial","166","634710","0.0-11.0-125.0","","","","false","","","","","","","","","","null","","122.69999998807907","","3","1","null","null","arrowup","[0.85,0.15,0.325,0.675]","","",""
"sailing-trial","167","637787","0.0-11.0-126.0","","","","false","","","","","","","","","","231.0999999642372","","124.19999998807907","","0","1","arrowleft","0","arrowleft","[0.85,0.15,0.325,0.675]","","",""
"sailing-trial","168","638978","0.0-11.0-127.0","","","","false","","","","","","","","","","null","","31.19999998807907","","2","0","null","null","arrowup","[0.85,0.15,0.325,0.675]","","",""
"sailing-trial","169","641641","0.0-11.0-128.0","","","","false","","","","","","","","","","96.5","","10.300000011920929","","0","1","arrowleft","0","arrowleft","[0.85,0.15,0.325,0.675]","","",""
"sailing-trial","170","643674","0.0-11.0-129.0","","","","false","","","","","","","","","","null","","53.80000001192093","","1","1","null","null","arrowup","[0.85,0.15,0.325,0.675]","","",""
"sailing-trial","171","646466","0.0-11.0-130.0","","","","false","","","","","","","","","","36.80000001192093","","123.19999998807907","","0","1","arrowleft","0","arrowleft","[0.675,0.325,0.15,0.85]","","",""
"sailing-trial","172","648131","0.0-11.0-131.0","","","","false","","","","","","","","","","null","","1.899999976158142","","0","1","null","null","arrowup","[0.675,0.325,0.15,0.85]","","",""
"sailing-trial","173","650867","0.0-11.0-132.0","","","","false","","","","","","","","","","15.099999964237213","","129.60000002384186","","0","1","arrowleft","0","arrowleft","[0.675,0.325,0.15,0.85]","","",""
"sailing-trial","174","652534","0.0-11.0-133.0","","","","false","","","","","","","","","","null","","48.59999996423721","","1","1","null","null","arrowup","[0.675,0.325,0.15,0.85]","","",""
"sailing-trial","175","655471","0.0-11.0-134.0","","","","false","","","","","","","","","","151.20000004768372","","144.5","","0","1","arrowleft","0","arrowleft","[0.675,0.325,0.15,0.85]","","",""
"sailing-trial","176","657089","0.0-11.0-135.0","","","","false","","","","","","","","","","null","","73.60000002384186","","2","1","null","null","arrowup","[0.675,0.325,0.15,0.85]","","",""
"sailing-trial","177","659295","0.0-11.0-136.0","","","","false","","","","","","","","","","48.89999997615814","","11.099999964237213","","0","0","arrowleft","0","arrowleft","[0.675,0.325,0.15,0.85]","","",""
"sailing-trial","178","660700","0.0-11.0-137.0","","","","false","","","","","","","","","","null","","136.5","","3","0","null","null","arrowup","[0.675,0.325,0.15,0.85]","","",""
"sailing-trial","179","663092","0.0-11.0-138.0","","","","false","","","","","","","","","","178.69999998807907","","54.30000001192093","","2","0","arrowright","1","arrowleft","[0.675,0.325,0.15,0.85]","","",""
"sailing-trial","180","665553","0.0-11.0-139.0","","","","false","","","","","","","","","","null","","863","","3","1","null","null","arrowup","[0.675,0.325,0.15,0.85]","","",""
"sailing-trial","181","668378","0.0-11.0-140.0","","","","false","","","","","","","","","","88.80000001192093","","0.699999988079071","","3","1","arrowright","1","arrowright","[0.675,0.325,0.15,0.85]","","",""
"sailing-trial","182","670261","0.0-11.0-141.0","","","","false","","","","","","","","","","null","","787.7000000476837","","2","0","null","null","arrowup","[0.675,0.325,0.15,0.85]","","",""
"sailing-trial","183","672401","0.0-11.0-142.0","","","","false","","","","","","","","","","26.600000023841858","","77.40000003576279","","3","0","arrowright","1","arrowright","[0.675,0.325,0.15,0.85]","","",""
"sailing-trial","184","674780","0.0-11.0-143.0","","","","false","","","","","","","","","","null","","867.8999999761581","","3","1","null","null","arrowup","[0.675,0.325,0.15,0.85]","","",""
"sailing-trial","185","677355","0.0-11.0-144.0","","","","false","","","","","","","","","","11.800000011920929","","10.099999964237213","","3","1","arrowright","1","arrowright","[0.675,0.325,0.15,0.85]","","",""
"sailing-trial","186","679172","0.0-11.0-145.0","","","","false","","","","","","","","","","null","","760.5","","0","0","null","null","arrowup","[0.675,0.325,0.15,0.85]","","",""
"sailing-trial","187","681449","0.0-11.0-146.0","","","","false","","","","","","","","","","53.69999998807907","","119.5","","3","0","arrowright","1","arrowright","[0.85,0.15,0.325,0.675]","","",""
"sailing-trial","188","683667","0.0-11.0-147.0","","","","false","","","","","","","","","","null","","689.1999999880791","","3","1","null","null","arrowup","[0.85,0.15,0.325,0.675]","","",""
"sailing-trial","189","686519","0.0-11.0-148.0","","","","false","","","","","","","","","","548.8000000119209","","79.89999997615814","","1","0","arrowleft","0","arrowright","[0.85,0.15,0.325,0.675]","","",""
"sailing-trial","190","688063","0.0-11.0-149.0","","","","false","","","","","","","","","","null","","519.8000000119209","","2","0","null","null","arrowup","[0.85,0.15,0.325,0.675]","","",""
"sailing-trial","191","690750","0.0-11.0-150.0","","","","false","","","","","","","","","","34.19999998807907","","25","","3","1","arrowright","1","arrowright","[0.85,0.15,0.325,0.675]","","",""
"sailing-trial","192","692368","0.0-11.0-151.0","","","","false","","","","","","","","","","null","","52.69999998807907","","3","1","null","null","arrowup","[0.85,0.15,0.325,0.675]","","",""
"sailing-trial","193","695278","0.0-11.0-152.0","","","","false","","","","","","","","","","123.69999998807907","","89.19999998807907","","3","1","arrowright","1","arrowright","[0.85,0.15,0.325,0.675]","","",""
"sailing-trial","194","696434","0.0-11.0-153.0","","","","false","","","","","","","","","","null","","73.10000002384186","","1","0","null","null","arrowup","[0.85,0.15,0.325,0.675]","","",""
"sailing-trial","195","699297","0.0-11.0-154.0","","","","false","","","","","","","","","","78.89999997615814","","130.69999998807907","","3","1","arrowright","1","arrowright","[0.85,0.15,0.325,0.675]","","",""
"sailing-trial","196","701013","0.0-11.0-155.0","","","","false","","","","","","","","","","null","","153.10000002384186","","3","1","null","null","arrowup","[0.85,0.15,0.325,0.675]","","",""
"sailing-trial","197","703625","0.0-11.0-156.0","","","","false","","","","","","","","","","302.5","","132.80000001192093","","3","0","arrowright","1","arrowright","[0.85,0.15,0.325,0.675]","","",""
"sailing-trial","198","705546","0.0-11.0-157.0","","","","false","","","","","","","","","","null","","306.30000001192093","","3","1","null","null","arrowup","[0.85,0.15,0.325,0.675]","","",""
"sailing-trial","199","708073","0.0-11.0-158.0","","","","false","","","","","","","","","","92.10000002384186","","244.5999999642372","","3","0","arrowright","1","arrowright","[0.85,0.15,0.325,0.675]","","",""
"sailing-trial","200","709699","0.0-11.0-159.0","","","","false","","","","","","","","","","null","","47.09999996423721","","3","1","null","null","arrowup","[0.85,0.15,0.325,0.675]","","",""
"sailing-trial","201","712872","0.0-11.0-160.0","","","","false","","","","","","","","","","372.5","","174","","3","1","arrowright","1","arrowright","[0.85,0.15,0.325,0.675]","","",""
"sailing-trial","202","714648","0.0-11.0-161.0","","","","false","","","","","","","","","","null","","138","","1","1","null","null","arrowup","[0.85,0.15,0.325,0.675]","","",""
"sailing-trial","203","717573","0.0-11.0-162.0","","","","false","","","","","","","","","","89.60000002384186","","17.19999998807907","","3","1","arrowright","1","arrowright","[0.675,0.325,0.15,0.85]","","",""
"sailing-trial","204","719197","0.0-11.0-163.0","","","","false","","","","","","","","","","null","","59.200000047683716","","3","1","null","null","arrowup","[0.675,0.325,0.15,0.85]","","",""
"sailing-trial","205","721953","0.0-11.0-164.0","","","","false","","","","","","","","","","195.60000002384186","","7","","3","1","arrowright","1","arrowright","[0.675,0.325,0.15,0.85]","","",""
"sailing-trial","206","723578","0.0-11.0-165.0","","","","false","","","","","","","","","","null","","56.80000001192093","","0","1","null","null","arrowup","[0.675,0.325,0.15,0.85]","","",""
"sailing-trial","207","726300","0.0-11.0-166.0","","","","false","","","","","","","","","","53.69999998807907","","107.59999996423721","","3","1","arrowright","1","arrowright","[0.675,0.325,0.15,0.85]","","",""
"sailing-trial","208","728016","0.0-11.0-167.0","","","","false","","","","","","","","","","null","","112.80000001192093","","3","1","null","null","arrowup","[0.675,0.325,0.15,0.85]","","",""
"sailing-trial","209","730744","0.0-11.0-168.0","","","","false","","","","","","","","","","171","","17","","3","1","arrowright","1","arrowright","[0.675,0.325,0.15,0.85]","","",""
"sailing-trial","210","731932","0.0-11.0-169.0","","","","false","","","","","","","","","","null","","90","","2","0","null","null","arrowup","[0.675,0.325,0.15,0.85]","","",""
"sailing-trial","211","734932","0.0-11.0-170.0","","","","false","","","","","","","","","","87.40000003576279","","132.9000000357628","","3","1","arrowright","1","arrowright","[0.675,0.325,0.15,0.85]","","",""
"sailing-trial","212","736807","0.0-11.0-171.0","","","","false","","","","","","","","","","null","","323.39999997615814","","0","1","null","null","arrowup","[0.675,0.325,0.15,0.85]","","",""
"sailing-trial","213","739647","0.0-11.0-172.0","","","","false","","","","","","","","","","94.5","","77.19999998807907","","3","1","arrowright","1","arrowright","[0.675,0.325,0.15,0.85]","","",""
"sailing-trial","214","740762","0.0-11.0-173.0","","","","false","","","","","","","","","","null","","63.80000001192093","","2","0","null","null","arrowup","[0.675,0.325,0.15,0.85]","","",""
"sailing-trial","215","743402","0.0-11.0-174.0","","","","false","","","","","","","","","","16.899999976158142","","35","","3","1","arrowright","1","arrowright","[0.675,0.325,0.15,0.85]","","",""
"sailing-trial","216","745112","0.0-11.0-175.0","","","","false","","","","","","","","","","null","","75","","0","1","null","null","arrowup","[0.675,0.325,0.15,0.85]","","",""
"sailing-trial","217","747902","0.0-11.0-176.0","","","","false","","","","","","","","","","167","","49.09999996423721","","3","1","arrowright","1","arrowright","[0.675,0.325,0.15,0.85]","","",""
"sailing-trial","218","749596","0.0-11.0-177.0","","","","false","","","","","","","","","","null","","111.80000001192093","","0","1","null","null","arrowup","[0.675,0.325,0.15,0.85]","","",""
"sailing-trial","219","752366","0.0-11.0-178.0","","","","false","","","","","","","","","","127.59999996423721","","91.59999996423721","","3","1","arrowright","1","arrowright","[0.675,0.325,0.15,0.85]","","",""
"sailing-trial","220","754054","0.0-11.0-179.0","","","","false","","","","","","","","","","null","","7.100000023841858","","3","1","null","null","arrowup","[0.675,0.325,0.15,0.85]","","",""
"sailing-trial","221","756326","0.0-11.0-180.0","","","","false","","","","","","","","","","105.39999997615814","","51","","3","0","arrowright","1","arrowright","[0.675,0.325,0.15,0.85]","","",""
"sailing-trial","222","757887","0.0-11.0-181.0","","","","false","","","","","","","","","","null","","418","","2","0","null","null","arrowup","[0.675,0.325,0.15,0.85]","","",""
"sailing-trial","223","760796","0.0-11.0-182.0","","","","false","","","","","","","","","","176.69999998807907","","78.79999995231628","","0","1","arrowleft","0","arrowleft","[0.85,0.15,0.325,0.675]","","",""
"sailing-trial","224","762093","0.0-11.0-183.0","","","","false","","","","","","","","","","null","","152.4000000357628","","1","0","null","null","arrowup","[0.85,0.15,0.325,0.675]","","",""
"sailing-trial","225","765010","0.0-11.0-184.0","","","","false","","","","","","","","","","123.80000001192093","","123.10000002384186","","0","1","arrowleft","0","arrowleft","[0.85,0.15,0.325,0.675]","","",""
"sailing-trial","226","766069","0.0-11.0-185.0","","","","false","","","","","","","","","","null","","9.5","","2","0","null","null","arrowup","[0.85,0.15,0.325,0.675]","","",""
"sailing-trial","227","769045","0.0-11.0-186.0","","","","false","","","","","","","","","","164","","115.80000001192093","","0","1","arrowleft","0","arrowleft","[0.85,0.15,0.325,0.675]","","",""
"sailing-trial","228","770659","0.0-11.0-187.0","","","","false","","","","","","","","","","null","","63.59999996423721","","1","0","null","null","arrowup","[0.85,0.15,0.325,0.675]","","",""
"sailing-trial","229","773385","0.0-11.0-188.0","","","","false","","","","","","","","","","90.59999996423721","","85.69999998807907","","0","1","arrowleft","0","arrowleft","[0.85,0.15,0.325,0.675]","","",""
"sailing-trial","230","774514","0.0-11.0-189.0","","","","false","","","","","","","","","","null","","71.29999995231628","","1","0","null","null","arrowup","[0.85,0.15,0.325,0.675]","","",""
"sailing-trial","231","777266","0.0-11.0-190.0","","","","false","","","","","","","","","","71.69999998807907","","119.09999996423721","","0","1","arrowleft","0","arrowleft","[0.85,0.15,0.325,0.675]","","",""
"sailing-trial","232","778539","0.0-11.0-191.0","","","","false","","","","","","","","","","null","","118","","2","0","null","null","arrowup","[0.85,0.15,0.325,0.675]","","",""
"sailing-trial","233","781382","0.0-11.0-192.0","","","","false","","","","","","","","","","141.80000001192093","","152.60000002384186","","0","1","arrowleft","0","arrowleft","[0.85,0.15,0.325,0.675]","","",""
"sailing-trial","234","783126","0.0-11.0-193.0","","","","false","","","","","","","","","","null","","128.5","","3","1","null","null","arrowup","[0.85,0.15,0.325,0.675]","","",""
"sailing-trial","235","785502","0.0-11.0-194.0","","","","false","","","","","","","","","","163.0999999642372","","35.30000001192093","","0","0","arrowleft","0","arrowleft","[0.85,0.15,0.325,0.675]","","",""
"sailing-trial","236","787221","0.0-11.0-195.0","","","","false","","","","","","","","","","null","","81.5","","0","1","null","null","arrowup","[0.85,0.15,0.325,0.675]","","",""
"sailing-trial","237","789433","0.0-11.0-196.0","","","","false","","","","","","","","","","162.69999998807907","","32.700000047683716","","0","0","arrowleft","0","arrowleft","[0.85,0.15,0.325,0.675]","","",""
"sailing-trial","238","791312","0.0-11.0-197.0","","","","false","","","","","","","","","","null","","274.4000000357628","","3","1","null","null","arrowup","[0.85,0.15,0.325,0.675]","","",""
"sailing-trial","239","794137","0.0-11.0-198.0","","","","false","","","","","","","","","","100.89999997615814","","38.30000001192093","","3","1","arrowright","1","arrowright","[0.85,0.15,0.325,0.675]","","",""
"sailing-trial","240","795824","0.0-11.0-199.0","","","","false","","","","","","","","","","null","","138.5","","2","1","null","null","arrowup","[0.85,0.15,0.325,0.675]","","",""
"sailing-trial","241","798492","0.0-11.0-200.0","","","","false","","","","","","","","","","60.5","","55.80000001192093","","3","1","arrowright","1","arrowright","[0.85,0.15,0.325,0.675]","","",""
"sailing-trial","242","800268","0.0-11.0-201.0","","","","false","","","","","","","","","","null","","179","","3","1","null","null","arrowup","[0.85,0.15,0.325,0.675]","","",""
"sailing-trial","243","803170","0.0-11.0-202.0","","","","false","","","","","","","","","","145.80000001192093","","104.60000002384186","","3","1","arrowright","1","arrowright","[0.675,0.325,0.15,0.85]","","",""
"sailing-trial","244","804810","0.0-11.0-203.0","","","","false","","","","","","","","","","null","","75.20000004768372","","1","1","null","null","arrowup","[0.675,0.325,0.15,0.85]","","",""
"sailing-trial","245","807614","0.0-11.0-204.0","","","","false","","","","","","","","","","117.39999997615814","","155.19999998807907","","3","1","arrowright","1","arrowright","[0.675,0.325,0.15,0.85]","","",""
"sailing-trial","246","808663","0.0-11.0-205.0","","","","false","","","","","","","","","","null","","9.199999988079071","","1","0","null","null","arrowup","[0.675,0.325,0.15,0.85]","","",""
"sailing-trial","247","811239","0.0-11.0-206.0","","","","false","","","","","","","","","","24.700000047683716","","13.400000035762787","","3","1","arrowright","1","arrowright","[0.675,0.325,0.15,0.85]","","",""
"sailing-trial","248","812399","0.0-11.0-207.0","","","","false","","","","","","","","","","null","","60.60000002384186","","1","0","null","null","arrowup","[0.675,0.325,0.15,0.85]","","",""
"sailing-trial","249","815509","0.0-11.0-208.0","","","","false","","","","","","","","","","435.19999998807907","","96.09999996423721","","3","1","arrowright","1","arrowright","[0.675,0.325,0.15,0.85]","","",""
"sailing-trial","250","817155","0.0-11.0-209.0","","","","false","","","","","","","","","","null","","116","","3","1","null","null","arrowup","[0.675,0.325,0.15,0.85]","","",""
"sailing-trial","251","820022","0.0-11.0-210.0","","","","false","","","","","","","","","","116.40000003576279","","87.60000002384186","","3","1","arrowright","1","arrowright","[0.675,0.325,0.15,0.85]","","",""
"sailing-trial","252","821654","0.0-11.0-211.0","","","","false","","","","","","","","","","null","","58.30000001192093","","1","1","null","null","arrowup","[0.675,0.325,0.15,0.85]","","",""
"sailing-trial","253","824639","0.0-11.0-212.0","","","","false","","","","","","","","","","143.39999997615814","","170.10000002384186","","3","1","arrowright","1","arrowright","[0.675,0.325,0.15,0.85]","","",""
"sailing-trial","254","826501","0.0-11.0-213.0","","","","false","","","","","","","","","","null","","324.4000000357628","","3","1","null","null","arrowup","[0.675,0.325,0.15,0.85]","","",""
"sailing-trial","255","829417","0.0-11.0-214.0","","","","false","","","","","","","","","","151","","73","","3","1","arrowright","1","arrowright","[0.675,0.325,0.15,0.85]","","",""
"sailing-trial","256","830719","0.0-11.0-215.0","","","","false","","","","","","","","","","null","","167.60000002384186","","1","0","null","null","arrowup","[0.675,0.325,0.15,0.85]","","",""
"sailing-trial","257","834063","0.0-11.0-216.0","","","","false","","","","","","","","","","123.69999998807907","","616.5999999642372","","3","1","arrowright","1","arrowright","[0.675,0.325,0.15,0.85]","","",""
"sailing-trial","258","835219","0.0-11.0-217.0","","","","false","","","","","","","","","","null","","31.30000001192093","","1","0","null","null","arrowup","[0.675,0.325,0.15,0.85]","","",""
"sailing-trial","259","838423","0.0-11.0-218.0","","","","false","","","","","","","","","","161.5","","118.70000004768372","","3","1","arrowright","1","arrowright","[0.675,0.325,0.15,0.85]","","",""
"sailing-trial","260","840207","0.0-11.0-219.0","","","","false","","","","","","","","","","null","","91.59999996423721","","1","1","null","null","arrowup","[0.675,0.325,0.15,0.85]","","",""
"sailing-trial","261","842963","0.0-11.0-220.0","","","","false","","","","","","","","","","64.5","","7.399999976158142","","3","1","arrowright","1","arrowright","[0.675,0.325,0.15,0.85]","","",""
"sailing-trial","262","844678","0.0-11.0-221.0","","","","false","","","","","","","","","","null","","74.30000001192093","","3","1","null","null","arrowup","[0.675,0.325,0.15,0.85]","","",""
"sailing-trial","263","848992","0.0-11.0-222.0","","","","false","","","","","","","","","","157.20000004768372","","1508","","3","1","arrowright","1","arrowright","[0.85,0.15,0.325,0.675]","","",""
"sailing-trial","264","850664","0.0-11.0-223.0","","","","false","","","","","","","","","","null","","125.80000001192093","","0","1","null","null","arrowup","[0.85,0.15,0.325,0.675]","","",""
"sailing-trial","265","853511","0.0-11.0-224.0","","","","false","","","","","","","","","","73.69999998807907","","93.5","","3","1","arrowright","1","arrowright","[0.85,0.15,0.325,0.675]","","",""
"sailing-trial","266","855205","0.0-11.0-225.0","","","","false","","","","","","","","","","null","","40","","0","1","null","null","arrowup","[0.85,0.15,0.325,0.675]","","",""
"sailing-trial","267","858378","0.0-11.0-226.0","","","","false","","","","","","","","","","5.899999976158142","","158.79999995231628","","3","1","arrowright","1","arrowright","[0.85,0.15,0.325,0.675]","","",""
"sailing-trial","268","859723","0.0-11.0-227.0","","","","false","","","","","","","","","","null","","249.80000001192093","","0","0","null","null","arrowup","[0.85,0.15,0.325,0.675]","","",""
"sailing-trial","269","862322","0.0-11.0-228.0","","","","false","","","","","","","","","","21.700000047683716","","11.800000011920929","","3","1","arrowright","1","arrowright","[0.85,0.15,0.325,0.675]","","",""
"sailing-trial","270","863997","0.0-11.0-229.0","","","","false","","","","","","","","","","null","","143.30000001192093","","2","1","null","null","arrowup","[0.85,0.15,0.325,0.675]","","",""
"sailing-trial","271","866592","0.0-11.0-230.0","","","","false","","","","","","","","","","54.80000001192093","","364.69999998807907","","3","0","arrowright","1","arrowright","[0.85,0.15,0.325,0.675]","","",""
"sailing-trial","272","868794","0.0-11.0-231.0","","","","false","","","","","","","","","","null","","879.6999999880791","","2","0","null","null","arrowup","[0.85,0.15,0.325,0.675]","","",""
"sailing-trial","273","871442","0.0-11.0-232.0","","","","false","","","","","","","","","","450.7999999523163","","24.600000023841858","","1","0","arrowleft","0","arrowright","[0.85,0.15,0.325,0.675]","","",""
"sailing-trial","274","873267","0.0-11.0-233.0","","","","false","","","","","","","","","","null","","711.4000000357628","","2","0","null","null","arrowup","[0.85,0.15,0.325,0.675]","","",""
"sailing-trial","275","876057","0.0-11.0-234.0","","","","false","","","","","","","","","","25.899999976158142","","74.10000002384186","","3","1","arrowright","1","arrowright","[0.85,0.15,0.325,0.675]","","",""
"sailing-trial","276","877511","0.0-11.0-235.0","","","","false","","","","","","","","","","null","","307.39999997615814","","3","0","null","null","arrowup","[0.85,0.15,0.325,0.675]","","",""
"sailing-trial","277","880563","0.0-11.0-236.0","","","","false","","","","","","","","","","221.0999999642372","","168.0999999642372","","0","1","arrowleft","0","arrowleft","[0.85,0.15,0.325,0.675]","","",""
"sailing-trial","278","881959","0.0-11.0-237.0","","","","false","","","","","","","","","","null","","194.30000001192093","","2","0","null","null","arrowup","[0.85,0.15,0.325,0.675]","","",""
"sailing-trial","279","885117","0.0-11.0-238.0","","","","false","","","","","","","","","","325.39999997615814","","164.39999997615814","","0","1","arrowleft","0","arrowleft","[0.85,0.15,0.325,0.675]","","",""
"sailing-trial","280","886237","0.0-11.0-239.0","","","","false","","","","","","","","","","null","","61","","2","0","null","null","arrowup","[0.85,0.15,0.325,0.675]","","",""
"sailing-trial","281","888951","0.0-11.0-240.0","","","","false","","","","","","","","","","158.5999999642372","","21.900000035762787","","0","1","arrowleft","0","arrowleft","[0.85,0.15,0.325,0.675]","","",""
"sailing-trial","282","890055","0.0-11.0-241.0","","","","false","","","","","","","","","","null","","57.30000001192093","","1","0","null","null","arrowup","[0.85,0.15,0.325,0.675]","","",""
"sailing-trial","283","893353","0.0-11.0-242.0","","","","false","","","","","","","","","","398.19999998807907","","52.30000001192093","","0","1","arrowleft","0","arrowleft","[0.85,0.15,0.325,0.675]","","",""
"sailing-trial","284","894455","0.0-11.0-243.0","","","","false","","","","","","","","","","null","","12","","2","0","null","null","arrowup","[0.85,0.15,0.325,0.675]","","",""
"sailing-trial","285","897311","0.0-11.0-244.0","","","","false","","","","","","","","","","131.69999998807907","","135.30000001192093","","0","1","arrowleft","0","arrowleft","[0.85,0.15,0.325,0.675]","","",""
"sailing-trial","286","898942","0.0-11.0-245.0","","","","false","","","","","","","","","","null","","77.29999995231628","","0","1","null","null","arrowup","[0.85,0.15,0.325,0.675]","","",""
"sailing-trial","287","901254","0.0-11.0-246.0","","","","false","","","","","","","","","","150.10000002384186","","98.30000001192093","","0","0","arrowleft","0","arrowleft","[0.675,0.325,0.15,0.85]","","",""
"sailing-trial","288","903151","0.0-11.0-247.0","","","","false","","","","","","","","","","null","","215.19999998807907","","0","1","null","null","arrowup","[0.675,0.325,0.15,0.85]","","",""
"sailing-trial","289","905780","0.0-11.0-248.0","","","","false","","","","","","","","","","41.60000002384186","","50.80000001192093","","0","1","arrowleft","0","arrowleft","[0.675,0.325,0.15,0.85]","","",""
"sailing-trial","290","907496","0.0-11.0-249.0","","","","false","","","","","","","","","","null","","179.70000004768372","","3","1","null","null","arrowup","[0.675,0.325,0.15,0.85]","","",""
"sailing-trial","291","910267","0.0-11.0-250.0","","","","false","","","","","","","","","","23.100000023841858","","156.19999998807907","","0","1","arrowleft","0","arrowleft","[0.675,0.325,0.15,0.85]","","",""
"sailing-trial","292","911531","0.0-11.0-251.0","","","","false","","","","","","","","","","null","","125.30000001192093","","3","0","null","null","arrowup","[0.675,0.325,0.15,0.85]","","",""
"sailing-trial","293","914426","0.0-11.0-252.0","","","","false","","","","","","","","","","114.80000001192093","","93.10000002384186","","0","1","arrowleft","0","arrowleft","[0.675,0.325,0.15,0.85]","","",""
"sailing-trial","294","915944","0.0-11.0-253.0","","","","false","","","","","","","","","","null","","448.19999998807907","","1","0","null","null","arrowup","[0.675,0.325,0.15,0.85]","","",""
"sailing-trial","295","918987","0.0-11.0-254.0","","","","false","","","","","","","","","","296.60000002384186","","200","","0","1","arrowleft","0","arrowleft","[0.675,0.325,0.15,0.85]","","",""
"sailing-trial","296","920771","0.0-11.0-255.0","","","","false","","","","","","","","","","null","","126.30000001192093","","3","1","null","null","arrowup","[0.675,0.325,0.15,0.85]","","",""
"sailing-trial","297","923163","0.0-11.0-256.0","","","","false","","","","","","","","","","24.900000035762787","","154.39999997615814","","0","0","arrowleft","0","arrowleft","[0.675,0.325,0.15,0.85]","","",""
"sailing-trial","298","924764","0.0-11.0-257.0","","","","false","","","","","","","","","","null","","39.30000001192093","","3","1","null","null","arrowup","[0.675,0.325,0.15,0.85]","","",""
"sailing-trial","299","927133","0.0-11.0-258.0","","","","false","","","","","","","","","","109.90000003576279","","125.10000002384186","","3","0","arrowright","1","arrowright","[0.675,0.325,0.15,0.85]","","",""
"sailing-trial","300","928355","0.0-11.0-259.0","","","","false","","","","","","","","","","null","","176.29999995231628","","0","0","null","null","arrowup","[0.675,0.325,0.15,0.85]","","",""
"sailing-trial","301","931140","0.0-11.0-260.0","","","","false","","","","","","","","","","666.8999999761581","","54.40000003576279","","1","0","arrowleft","0","arrowright","[0.675,0.325,0.15,0.85]","","",""
"sailing-trial","302","932813","0.0-11.0-261.0","","","","false","","","","","","","","","","null","","544.9000000357628","","1","0","null","null","arrowup","[0.675,0.325,0.15,0.85]","","",""
"sailing-trial","303","935929","0.0-11.0-262.0","","","","false","","","","","","","","","","572.1999999880791","","10.799999952316284","","2","1","arrowright","1","arrowleft","[0.325,0.675,0.85,0.15]","","",""
"sailing-trial","304","937804","0.0-11.0-263.0","","","","false","","","","","","","","","","null","","275.30000001192093","","1","1","null","null","arrowup","[0.325,0.675,0.85,0.15]","","",""
"sailing-trial","305","940622","0.0-11.0-264.0","","","","false","","","","","","","","","","96","","80.90000003576279","","2","1","arrowright","1","arrowleft","[0.325,0.675,0.85,0.15]","","",""
"sailing-trial","306","941919","0.0-11.0-265.0","","","","false","","","","","","","","","","null","","148.10000002384186","","3","0","null","null","arrowup","[0.325,0.675,0.85,0.15]","","",""
"sailing-trial","307","944900","0.0-11.0-266.0","","","","false","","","","","","","","","","266.80000001192093","","135","","2","1","arrowright","1","arrowleft","[0.325,0.675,0.85,0.15]","","",""
"sailing-trial","308","946532","0.0-11.0-267.0","","","","false","","","","","","","","","","null","","96.60000002384186","","1","1","null","null","arrowup","[0.325,0.675,0.85,0.15]","","",""
"sailing-trial","309","949253","0.0-11.0-268.0","","","","false","","","","","","","","","","80.10000002384186","","36.5","","2","1","arrowright","1","arrowleft","[0.325,0.675,0.85,0.15]","","",""
"sailing-trial","310","950961","0.0-11.0-269.0","","","","false","","","","","","","","","","null","","147.5","","1","1","null","null","arrowup","[0.325,0.675,0.85,0.15]","","",""
"sailing-trial","311","953843","0.0-11.0-270.0","","","","false","","","","","","","","","","162.5","","118.89999997615814","","2","1","arrowright","1","arrowleft","[0.325,0.675,0.85,0.15]","","",""
"sailing-trial","312","956434","0.0-11.0-271.0","","","","false","","","","","","","","","","null","","1515.2000000476837","","3","0","null","null","arrowup","[0.325,0.675,0.85,0.15]","","",""
"sailing-trial","313","958816","0.0-11.0-272.0","","","","false","","","","","","","","","","105","","125.70000004768372","","2","0","arrowright","1","arrowleft","[0.325,0.675,0.85,0.15]","","",""
"sailing-trial","314","960166","0.0-11.0-273.0","","","","false","","","","","","","","","","null","","205","","1","0","null","null","arrowup","[0.325,0.675,0.85,0.15]","","",""
"sailing-trial","315","962863","0.0-11.0-274.0","","","","false","","","","","","","","","","29.5","","147.19999998807907","","2","0","arrowright","1","arrowleft","[0.325,0.675,0.85,0.15]","","",""
"sailing-trial","316","964272","0.0-11.0-275.0","","","","false","","","","","","","","","","null","","293.30000001192093","","0","0","null","null","arrowup","[0.325,0.675,0.85,0.15]","","",""
"sailing-trial","317","967625","0.0-11.0-276.0","","","","false","","","","","","","","","","515.6999999880791","","161","","2","1","arrowright","1","arrowleft","[0.325,0.675,0.85,0.15]","","",""
"sailing-trial","318","969264","0.0-11.0-277.0","","","","false","","","","","","","","","","null","","64.59999996423721","","1","1","null","null","arrowup","[0.325,0.675,0.85,0.15]","","",""
"sailing-trial","319","971584","0.0-11.0-278.0","","","","false","","","","","","","","","","64","","67.10000002384186","","2","0","arrowright","1","arrowleft","[0.325,0.675,0.85,0.15]","","",""
"sailing-trial","320","973214","0.0-11.0-279.0","","","","false","","","","","","","","","","null","","93.69999998807907","","1","1","null","null","arrowup","[0.325,0.675,0.85,0.15]","","",""
"sailing-trial","321","976027","0.0-11.0-280.0","","","","false","","","","","","","","","","64.09999996423721","","68.60000002384186","","1","1","arrowleft","0","arrowright","[0.15,0.85,0.675,0.325]","","",""
"sailing-trial","322","977396","0.0-11.0-281.0","","","","false","","","","","","","","","","null","","148.10000002384186","","3","0","null","null","arrowup","[0.15,0.85,0.675,0.325]","","",""
"sailing-trial","323","980142","0.0-11.0-282.0","","","","false","","","","","","","","","","85.69999998807907","","126.5","","1","0","arrowleft","0","arrowright","[0.15,0.85,0.675,0.325]","","",""
"sailing-trial","324","981747","0.0-11.0-283.0","","","","false","","","","","","","","","","null","","39.10000002384186","","2","1","null","null","arrowup","[0.15,0.85,0.675,0.325]","","",""
"sailing-trial","325","984096","0.0-11.0-284.0","","","","false","","","","","","","","","","81","","56.10000002384186","","2","0","arrowright","1","arrowleft","[0.15,0.85,0.675,0.325]","","",""
"sailing-trial","326","985816","0.0-11.0-285.0","","","","false","","","","","","","","","","null","","183.89999997615814","","3","1","null","null","arrowup","[0.15,0.85,0.675,0.325]","","",""
"sailing-trial","327","988677","0.0-11.0-286.0","","","","false","","","","","","","","","","119.80000001192093","","174.69999998807907","","3","1","arrowright","1","arrowright","[0.15,0.85,0.675,0.325]","","",""
"sailing-trial","328","992830","0.0-11.0-287.0","","","","false","","","","","","","","","","null","","2467.7000000476837","","1","1","null","null","arrowup","[0.15,0.85,0.675,0.325]","","",""
"sailing-trial","329","995705","0.0-11.0-288.0","","","","false","","","","","","","","","","39","","20.80000001192093","","3","1","arrowright","1","arrowright","[0.15,0.85,0.675,0.325]","","",""
"sailing-trial","330","998398","0.0-11.0-289.0","","","","false","","","","","","","","","","null","","151.60000002384186","","0","1","null","null","arrowup","[0.15,0.85,0.675,0.325]","","",""
"sailing-trial","331","1000721","0.0-11.0-290.0","","","","false","","","","","","","","","","64.90000003576279","","115.40000003576279","","3","0","arrowright","1","arrowright","[0.15,0.85,0.675,0.325]","","",""
"sailing-trial","332","1002467","0.0-11.0-291.0","","","","false","","","","","","","","","","null","","110.29999995231628","","1","1","null","null","arrowup","[0.15,0.85,0.675,0.325]","","",""
"sailing-trial","333","1005258","0.0-11.0-292.0","","","","false","","","","","","","","","","103.90000003576279","","97.69999998807907","","3","1","arrowright","1","arrowright","[0.15,0.85,0.675,0.325]","","",""
"sailing-trial","334","1006481","0.0-11.0-293.0","","","","false","","","","","","","","","","null","","166.29999995231628","","0","0","null","null","arrowup","[0.15,0.85,0.675,0.325]","","",""
"sailing-trial","335","1008710","0.0-11.0-294.0","","","","false","","","","","","","","","","43.10000002384186","","147","","3","0","arrowright","1","arrowright","[0.15,0.85,0.675,0.325]","","",""
"sailing-trial","336","1010403","0.0-11.0-295.0","","","","false","","","","","","","","","","null","","141.80000001192093","","1","1","null","null","arrowup","[0.15,0.85,0.675,0.325]","","",""
"sailing-trial","337","1012653","0.0-11.0-296.0","","","","false","","","","","","","","","","111","","20.5","","1","0","arrowleft","0","arrowright","[0.675,0.325,0.15,0.85]","","",""
"sailing-trial","338","1014326","0.0-11.0-297.0","","","","false","","","","","","","","","","null","","115.89999997615814","","0","1","null","null","arrowup","[0.675,0.325,0.15,0.85]","","",""
"sailing-trial","339","1017159","0.0-11.0-298.0","","","","false","","","","","","","","","","197.80000001192093","","109.39999997615814","","0","1","arrowleft","0","arrowleft","[0.675,0.325,0.15,0.85]","","",""
"sailing-trial","340","1020235","0.0-11.0-299.0","","","","false","","","","","","","","","","null","","1547.5","","0","1","null","null","arrowup","[0.675,0.325,0.15,0.85]","","",""
"sailing-trial","341","1023144","0.0-11.0-300.0","","","","false","","","","","","","","","","79.19999998807907","","239.0999999642372","","0","1","arrowleft","0","arrowleft","[0.675,0.325,0.15,0.85]","","",""
"sailing-trial","342","1024582","0.0-11.0-301.0","","","","false","","","","","","","","","","null","","349.60000002384186","","2","0","null","null","arrowup","[0.675,0.325,0.15,0.85]","","",""
"sailing-trial","343","1027199","0.0-11.0-302.0","","","","false","","","","","","","","","","358.30000001192093","","53.60000002384186","","0","0","arrowleft","0","arrowleft","[0.675,0.325,0.15,0.85]","","",""
"sailing-trial","344","1028678","0.0-11.0-303.0","","","","false","","","","","","","","","","null","","302.19999998807907","","2","0","null","null","arrowup","[0.675,0.325,0.15,0.85]","","",""
"sailing-trial","345","1031846","0.0-11.0-304.0","","","","false","","","","","","","","","","489.5999999642372","","107.39999997615814","","0","1","arrowleft","0","arrowleft","[0.675,0.325,0.15,0.85]","","",""
"sailing-trial","346","1033574","0.0-11.0-305.0","","","","false","","","","","","","","","","null","","48","","3","1","null","null","arrowup","[0.675,0.325,0.15,0.85]","","",""
"sailing-trial","347","1036351","0.0-11.0-306.0","","","","false","","","","","","","","","","4.300000011920929","","50.69999998807907","","0","1","arrowleft","0","arrowleft","[0.675,0.325,0.15,0.85]","","",""
"sailing-trial","348","1039004","0.0-11.0-307.0","","","","false","","","","","","","","","","null","","973.0999999642372","","0","1","null","null","arrowup","[0.675,0.325,0.15,0.85]","","",""
"sailing-trial","349","1041306","0.0-11.0-308.0","","","","false","","","","","","","","","","73","","80.19999998807907","","0","0","arrowleft","0","arrowleft","[0.675,0.325,0.15,0.85]","","",""
"sailing-trial","350","1043169","0.0-11.0-309.0","","","","false","","","","","","","","","","null","","167.4000000357628","","3","1","null","null","arrowup","[0.675,0.325,0.15,0.85]","","",""
"sailing-trial","351","1046454","0.0-11.0-310.0","","","","false","","","","","","","","","","93.10000002384186","","654.1999999880791","","0","1","arrowleft","0","arrowleft","[0.675,0.325,0.15,0.85]","","",""
"sailing-trial","352","1048280","0.0-11.0-311.0","","","","false","","","","","","","","","","null","","124.90000003576279","","0","1","null","null","arrowup","[0.675,0.325,0.15,0.85]","","",""
"sailing-trial","353","1051063","0.0-11.0-312.0","","","","false","","","","","","","","","","142.69999998807907","","38.89999997615814","","0","1","arrowleft","0","arrowleft","[0.85,0.15,0.325,0.675]","","",""
"sailing-trial","354","1052311","0.0-11.0-313.0","","","","false","","","","","","","","","","null","","183","","2","0","null","null","arrowup","[0.85,0.15,0.325,0.675]","","",""
"sailing-trial","355","1055452","0.0-11.0-314.0","","","","false","","","","","","","","","","161.5","","137.10000002384186","","0","1","arrowleft","0","arrowleft","[0.85,0.15,0.325,0.675]","","",""
"sailing-trial","356","1057313","0.0-11.0-315.0","","","","false","","","","","","","","","","null","","77.80000001192093","","3","1","null","null","arrowup","[0.85,0.15,0.325,0.675]","","",""
"sailing-trial","357","1060298","0.0-11.0-316.0","","","","false","","","","","","","","","","108.90000003576279","","142.89999997615814","","0","1","arrowleft","0","arrowleft","[0.85,0.15,0.325,0.675]","","",""
"sailing-trial","358","1061484","0.0-11.0-317.0","","","","false","","","","","","","","","","null","","119.19999998807907","","2","0","null","null","arrowup","[0.85,0.15,0.325,0.675]","","",""
"sailing-trial","359","1063909","0.0-11.0-318.0","","","","false","","","","","","","","","","138.69999998807907","","126.80000001192093","","0","0","arrowleft","0","arrowleft","[0.85,0.15,0.325,0.675]","","",""
"sailing-trial","360","1065362","0.0-11.0-319.0","","","","false","","","","","","","","","","null","","147.30000001192093","","0","0","null","null","arrowup","[0.85,0.15,0.325,0.675]","","",""
"sailing-trial","361","1068527","0.0-11.0-320.0","","","","false","","","","","","","","","","315.19999998807907","","338.10000002384186","","1","1","arrowleft","0","arrowright","[0.85,0.15,0.325,0.675]","","",""
"sailing-trial","362","1070728","0.0-11.0-321.0","","","","false","","","","","","","","","","null","","671.6999999880791","","2","1","null","null","arrowup","[0.85,0.15,0.325,0.675]","","",""
"sailing-trial","363","1073050","0.0-11.0-322.0","","","","false","","","","","","","","","","67.79999995231628","","119.59999996423721","","1","0","arrowleft","0","arrowright","[0.85,0.15,0.325,0.675]","","",""
"sailing-trial","364","1075234","0.0-11.0-323.0","","","","false","","","","","","","","","","null","","556.8000000119209","","0","1","null","null","arrowup","[0.85,0.15,0.325,0.675]","","",""
"sailing-trial","365","1077541","0.0-11.0-324.0","","","","false","","","","","","","","","","187.5999999642372","","57.19999998807907","","2","0","arrowright","1","arrowleft","[0.85,0.15,0.325,0.675]","","",""
"sailing-trial","366","1079291","0.0-11.0-325.0","","","","false","","","","","","","","","","null","","591.1999999880791","","1","0","null","null","arrowup","[0.85,0.15,0.325,0.675]","","",""
"sailing-trial","367","1082219","0.0-11.0-326.0","","","","false","","","","","","","","","","99.79999995231628","","146.5","","0","1","arrowleft","0","arrowleft","[0.85,0.15,0.325,0.675]","","",""
"sailing-trial","368","1084671","0.0-11.0-327.0","","","","false","","","","","","","","","","null","","781.3000000119209","","2","1","null","null","arrowup","[0.85,0.15,0.325,0.675]","","",""
"sailing-trial","369","1087476","0.0-11.0-328.0","","","","false","","","","","","","","","","0","","147.0999999642372","","0","1","arrowleft","0","arrowleft","[0.675,0.325,0.15,0.85]","","",""
"sailing-trial","370","1089079","0.0-11.0-329.0","","","","false","","","","","","","","","","null","","3.699999988079071","","1","1","null","null","arrowup","[0.675,0.325,0.15,0.85]","","",""
"sailing-trial","371","1091926","0.0-11.0-330.0","","","","false","","","","","","","","","","53.09999996423721","","47.10000002384186","","0","1","arrowleft","0","arrowleft","[0.675,0.325,0.15,0.85]","","",""
"sailing-trial","372","1093704","0.0-11.0-331.0","","","","false","","","","","","","","","","null","","65.19999998807907","","0","1","null","null","arrowup","[0.675,0.325,0.15,0.85]","","",""
"sailing-trial","373","1096027","0.0-11.0-332.0","","","","false","","","","","","","","","","97.39999997615814","","10.199999988079071","","0","0","arrowleft","0","arrowleft","[0.675,0.325,0.15,0.85]","","",""
"sailing-trial","374","1097145","0.0-11.0-333.0","","","","false","","","","","","","","","","null","","10.300000011920929","","2","0","null","null","arrowup","[0.675,0.325,0.15,0.85]","","",""
"sailing-trial","375","1100612","0.0-11.0-334.0","","","","false","","","","","","","","","","880.6000000238419","","16","","3","1","arrowright","1","arrowright","[0.675,0.325,0.15,0.85]","","",""
"sailing-trial","376","1102326","0.0-11.0-335.0","","","","false","","","","","","","","","","null","","76.69999998807907","","0","1","null","null","arrowup","[0.675,0.325,0.15,0.85]","","",""
"sailing-trial","377","1104972","0.0-11.0-336.0","","","","false","","","","","","","","","","34.10000002384186","","72.30000001192093","","3","1","arrowright","1","arrowright","[0.675,0.325,0.15,0.85]","","",""
"sailing-trial","378","1106240","0.0-11.0-337.0","","","","false","","","","","","","","","","null","","211.60000002384186","","2","0","null","null","arrowup","[0.675,0.325,0.15,0.85]","","",""
"sailing-trial","379","1109298","0.0-11.0-338.0","","","","false","","","","","","","","","","221.19999998807907","","154.80000001192093","","3","1","arrowright","1","arrowright","[0.675,0.325,0.15,0.85]","","",""
"sailing-trial","380","1111027","0.0-11.0-339.0","","","","false","","","","","","","","","","null","","56.5","","0","1","null","null","arrowup","[0.675,0.325,0.15,0.85]","","",""
"sailing-trial","381","1113365","0.0-11.0-340.0","","","","false","","","","","","","","","","31","","128.60000002384186","","3","0","arrowright","1","arrowright","[0.675,0.325,0.15,0.85]","","",""
"sailing-trial","382","1115118","0.0-11.0-341.0","","","","false","","","","","","","","","","null","","55.10000002384186","","3","1","null","null","arrowup","[0.675,0.325,0.15,0.85]","","",""
"sailing-trial","383","1118117","0.0-11.0-342.0","","","","false","","","","","","","","","","148.20000004768372","","176.69999998807907","","3","1","arrowright","1","arrowright","[0.675,0.325,0.15,0.85]","","",""
"sailing-trial","384","1119512","0.0-11.0-343.0","","","","false","","","","","","","","","","null","","237.19999998807907","","0","0","null","null","arrowup","[0.675,0.325,0.15,0.85]","","",""
"sailing-trial","385","1122216","0.0-11.0-344.0","","","","false","","","","","","","","","","294.69999998807907","","252.20000004768372","","3","0","arrowright","1","arrowright","[0.325,0.675,0.85,0.15]","","",""
"sailing-trial","386","1123468","0.0-11.0-345.0","","","","false","","","","","","","","","","null","","46.5","","3","0","null","null","arrowup","[0.325,0.675,0.85,0.15]","","",""
"sailing-trial","387","1126352","0.0-11.0-346.0","","","","false","","","","","","","","","","165.60000002384186","","3.899999976158142","","0","1","arrowleft","0","arrowleft","[0.325,0.675,0.85,0.15]","","",""
"sailing-trial","388","1128045","0.0-11.0-347.0","","","","false","","","","","","","","","","null","","40.80000001192093","","2","1","null","null","arrowup","[0.325,0.675,0.85,0.15]","","",""
"sailing-trial","389","1130252","0.0-11.0-348.0","","","","false","","","","","","","","","","57.89999997615814","","5.199999988079071","","0","0","arrowleft","0","arrowleft","[0.325,0.675,0.85,0.15]","","",""
"sailing-trial","390","1131528","0.0-11.0-349.0","","","","false","","","","","","","","","","null","","91.30000001192093","","2","0","null","null","arrowup","[0.325,0.675,0.85,0.15]","","",""
"sailing-trial","391","1134705","0.0-11.0-350.0","","","","false","","","","","","","","","","447.30000001192093","","25","","1","1","arrowleft","0","arrowright","[0.325,0.675,0.85,0.15]","","",""
"sailing-trial","392","1136554","0.0-11.0-351.0","","","","false","","","","","","","","","","null","","654.5","","3","0","null","null","arrowup","[0.325,0.675,0.85,0.15]","","",""
"sailing-trial","393","1139342","0.0-11.0-352.0","","","","false","","","","","","","","","","48.5","","5","","1","1","arrowleft","0","arrowright","[0.325,0.675,0.85,0.15]","","",""
"sailing-trial","394","1140672","0.0-11.0-353.0","","","","false","","","","","","","","","","null","","119.30000001192093","","0","0","null","null","arrowup","[0.325,0.675,0.85,0.15]","","",""
"sailing-trial","395","1143711","0.0-11.0-354.0","","","","false","","","","","","","","","","306.30000001192093","","36.09999996423721","","1","1","arrowleft","0","arrowright","[0.325,0.675,0.85,0.15]","","",""
"sailing-trial","396","1145571","0.0-11.0-355.0","","","","false","","","","","","","","","","null","","118.60000002384186","","1","1","null","null","arrowup","[0.325,0.675,0.85,0.15]","","",""
"sailing-trial","397","1148646","0.0-11.0-356.0","","","","false","","","","","","","","","","108.19999998807907","","339.60000002384186","","1","1","arrowleft","0","arrowright","[0.325,0.675,0.85,0.15]","","",""
"sailing-trial","398","1150389","0.0-11.0-357.0","","","","false","","","","","","","","","","null","","16","","1","1","null","null","arrowup","[0.325,0.675,0.85,0.15]","","",""
"sailing-trial","399","1153146","0.0-11.0-358.0","","","","false","","","","","","","","","","509.5","","68.39999997615814","","1","0","arrowleft","0","arrowright","[0.325,0.675,0.85,0.15]","","",""
"sailing-trial","400","1154410","0.0-11.0-359.0","","","","false","","","","","","","","","","null","","50.19999998807907","","3","0","null","null","arrowup","[0.325,0.675,0.85,0.15]","","",""
"sailing-trial","401","1157887","0.0-11.0-360.0","","","","false","","","","","","","","","","706.1000000238419","","74.90000003576279","","1","1","arrowleft","0","arrowright","[0.325,0.675,0.85,0.15]","","",""
"sailing-trial","402","1159694","0.0-11.0-361.0","","","","false","","","","","","","","","","null","","98.10000002384186","","2","1","null","null","arrowup","[0.325,0.675,0.85,0.15]","","",""
"sailing-trial","403","1162970","0.0-11.0-362.0","","","","false","","","","","","","","","","359.5999999642372","","170.19999998807907","","1","1","arrowleft","0","arrowright","[0.325,0.675,0.85,0.15]","","",""
"sailing-trial","404","1164307","0.0-11.0-363.0","","","","false","","","","","","","","","","null","","164.70000004768372","","0","0","null","null","arrowup","[0.325,0.675,0.85,0.15]","","",""
"sailing-trial","405","1167324","0.0-11.0-364.0","","","","false","","","","","","","","","","374.60000002384186","","18.80000001192093","","1","1","arrowleft","0","arrowright","[0.325,0.675,0.85,0.15]","","",""
"sailing-trial","406","1168630","0.0-11.0-365.0","","","","false","","","","","","","","","","null","","174.5","","0","0","null","null","arrowup","[0.325,0.675,0.85,0.15]","","",""
"sailing-trial","407","1171456","0.0-11.0-366.0","","","","false","","","","","","","","","","619.7000000476837","","62.5","","1","0","arrowleft","0","arrowright","[0.85,0.15,0.325,0.675]","","",""
"sailing-trial","408","1172685","0.0-11.0-367.0","","","","false","","","","","","","","","","null","","36.60000002384186","","3","0","null","null","arrowup","[0.85,0.15,0.325,0.675]","","",""
"sailing-trial","409","1175843","0.0-11.0-368.0","","","","false","","","","","","","","","","421.30000001192093","","107.5","","0","1","arrowleft","0","arrowleft","[0.85,0.15,0.325,0.675]","","",""
"sailing-trial","410","1178302","0.0-11.0-369.0","","","","false","","","","","","","","","","null","","821.3999999761581","","0","1","null","null","arrowup","[0.85,0.15,0.325,0.675]","","",""
"sailing-trial","411","1180802","0.0-11.0-370.0","","","","false","","","","","","","","","","113.29999995231628","","15","","0","0","arrowleft","0","arrowleft","[0.85,0.15,0.325,0.675]","","",""
"sailing-trial","412","1182069","0.0-11.0-371.0","","","","false","","","","","","","","","","null","","132.19999998807907","","1","0","null","null","arrowup","[0.85,0.15,0.325,0.675]","","",""
"sailing-trial","413","1185002","0.0-11.0-372.0","","","","false","","","","","","","","","","146.69999998807907","","139.4000000357628","","3","1","arrowright","1","arrowright","[0.85,0.15,0.325,0.675]","","",""
"sailing-trial","414","1186898","0.0-11.0-373.0","","","","false","","","","","","","","","","null","","730","","1","0","null","null","arrowup","[0.85,0.15,0.325,0.675]","","",""
"sailing-trial","415","1189696","0.0-11.0-374.0","","","","false","","","","","","","","","","180.39999997615814","","65.59999996423721","","3","1","arrowright","1","arrowright","[0.85,0.15,0.325,0.675]","","",""
"sailing-trial","416","1191404","0.0-11.0-375.0","","","","false","","","","","","","","","","null","","77.19999998807907","","3","1","null","null","arrowup","[0.85,0.15,0.325,0.675]","","",""
"sailing-trial","417","1194258","0.0-11.0-376.0","","","","false","","","","","","","","","","163.29999995231628","","72.30000001192093","","3","1","arrowright","1","arrowright","[0.85,0.15,0.325,0.675]","","",""
"sailing-trial","418","1196070","0.0-11.0-377.0","","","","false","","","","","","","","","","null","","172.5","","3","1","null","null","arrowup","[0.85,0.15,0.325,0.675]","","",""
"sailing-trial","419","1198993","0.0-11.0-378.0","","","","false","","","","","","","","","","163.30000001192093","","90.80000001192093","","3","1","arrowright","1","arrowright","[0.85,0.15,0.325,0.675]","","",""
"sailing-trial","420","1200742","0.0-11.0-379.0","","","","false","","","","","","","","","","null","","8.699999988079071","","0","1","null","null","arrowup","[0.85,0.15,0.325,0.675]","","",""
"sailing-trial","421","1203727","0.0-11.0-380.0","","","","false","","","","","","","","","","271.7999999523163","","10.5","","3","1","arrowright","1","arrowright","[0.85,0.15,0.325,0.675]","","",""
"sailing-trial","422","1205367","0.0-11.0-381.0","","","","false","","","","","","","","","","null","","6.5","","0","1","null","null","arrowup","[0.85,0.15,0.325,0.675]","","",""
"sailing-trial","423","1208804","0.0-11.0-382.0","","","","false","","","","","","","","","","543.3999999761581","","209.69999998807907","","3","1","arrowright","1","arrowright","[0.675,0.325,0.15,0.85]","","",""
"sailing-trial","424","1210734","0.0-11.0-383.0","","","","false","","","","","","","","","","null","","792.8000000119209","","2","0","null","null","arrowup","[0.675,0.325,0.15,0.85]","","",""
"sailing-trial","425","1213602","0.0-11.0-384.0","","","","false","","","","","","","","","","89.40000003576279","","30.400000035762787","","3","1","arrowright","1","arrowright","[0.675,0.325,0.15,0.85]","","",""
"sailing-trial","426","1214818","0.0-11.0-385.0","","","","false","","","","","","","","","","null","","50.30000001192093","","1","0","null","null","arrowup","[0.675,0.325,0.15,0.85]","","",""
"sailing-trial","427","1217851","0.0-11.0-386.0","","","","false","","","","","","","","","","309.89999997615814","","9","","3","1","arrowright","1","arrowright","[0.675,0.325,0.15,0.85]","","",""
"sailing-trial","428","1219657","0.0-11.0-387.0","","","","false","","","","","","","","","","null","","90.39999997615814","","3","1","null","null","arrowup","[0.675,0.325,0.15,0.85]","","",""
"sailing-trial","429","1222490","0.0-11.0-388.0","","","","false","","","","","","","","","","59","","17","","3","1","arrowright","1","arrowright","[0.675,0.325,0.15,0.85]","","",""
"sailing-trial","430","1224183","0.0-11.0-389.0","","","","false","","","","","","","","","","null","","42.89999997615814","","0","1","null","null","arrowup","[0.675,0.325,0.15,0.85]","","",""
"sailing-trial","431","1226668","0.0-11.0-390.0","","","","false","","","","","","","","","","34.299999952316284","","220.80000001192093","","3","0","arrowright","1","arrowright","[0.675,0.325,0.15,0.85]","","",""
"sailing-trial","432","1228003","0.0-11.0-391.0","","","","false","","","","","","","","","","null","","81.69999998807907","","2","0","null","null","arrowup","[0.675,0.325,0.15,0.85]","","",""
"sailing-trial","433","1230897","0.0-11.0-392.0","","","","false","","","","","","","","","","123.30000001192093","","155.80000001192093","","0","1","arrowleft","0","arrowleft","[0.675,0.325,0.15,0.85]","","",""
"sailing-trial","434","1232897","0.0-11.0-393.0","","","","false","","","","","","","","","","null","","388.39999997615814","","3","1","null","null","arrowup","[0.675,0.325,0.15,0.85]","","",""
"sailing-trial","435","1235751","0.0-11.0-394.0","","","","false","","","","","","","","","","57.299999952316284","","147.5","","0","1","arrowleft","0","arrowleft","[0.675,0.325,0.15,0.85]","","",""
"sailing-trial","436","1236853","0.0-11.0-395.0","","","","false","","","","","","","","","","null","","21.599999964237213","","2","0","null","null","arrowup","[0.675,0.325,0.15,0.85]","","",""
"sailing-trial","437","1240126","0.0-11.0-396.0","","","","false","","","","","","","","","","371.4000000357628","","148.19999998807907","","0","1","arrowleft","0","arrowleft","[0.675,0.325,0.15,0.85]","","",""
"sailing-trial","438","1241319","0.0-11.0-397.0","","","","false","","","","","","","","","","null","","113.10000002384186","","2","0","null","null","arrowup","[0.675,0.325,0.15,0.85]","","",""
"sailing-trial","439","1244838","0.0-11.0-398.0","","","","false","","","","","","","","","","455.7000000476837","","852.0999999642372","","0","0","arrowleft","0","arrowleft","[0.675,0.325,0.15,0.85]","","",""
"sailing-trial","440","1246500","0.0-11.0-399.0","","","","false","","","","","","","","","","null","","7","","1","1","null","null","arrowup","[0.675,0.325,0.15,0.85]","","",""
"instructions","441","1252592","0.0-12.0","","","","","","","","","","6092.400000035763","","","","","","","","","","","","","","","","[{""page_index"":0,""viewing_time"":6092.200000047684}]"
"survey-debrief","442","1296190","0.0-13.0","","","","","","","","","","43596.80000001192","","","","","","","","","","","","","","{""difficulty"":""5"",""fun"":""2"",""clarity"":""5"",""strategy"":""I checked 1 or 2 more times before I decide to chose a different house"",""feedback"":""""}","",""
