"trial_type","trial_index","time_elapsed","internal_node_id","value","metadata","success","timeout","failed_images","failed_audio","failed_video","browser_interaction","low_quality","rt","stimulus","response","button_pressed","island_rt","island_response","boat_rt","boat_response","boat","reward","island_key","island","boat_key","reward_probabilities","responses","num_errors","view_history"
"pavlovia","0","3","0.0-0.0","","","","","","","","","","","","","","","","","","","","","","","","","",""
"call-function","1","3","0.0-1.0","","{""task_version"":""sailing_part1_v1"",""task_condition"":""good"",""boats"":[""C"",""B"",""D"",""A""],""boats_demo"":[""E"",""H"",""F"",""G""],""islands"":[""A"",""B""],""subject_id"":""14551"",""age"":""17"",""gender"":""Male""}","","","","","","","","","","","","","","","","","","","","","","","",""
"preload","2","1405","0.0-2.0","","","true","false","[]","[]","[]","[{""event"":""fullscreenenter"",""trial"":3,""time"":3386}]","false","","","","","","","","","","","","","","","","",""
"fullscreen","3","4332","0.0-3.0","","","true","","","","","","","","","","","","","","","","","","","","","","",""
"audio-keyboard-response","4","7654","0.0-4.0-0.0","","","","","","","","","","3181.3333333333335","audio/beep_loop.wav"," ","","","","","","","","","","","","","",""
"audio-test","5","9281","0.0-4.0-1.0","","","","","","","","[{""event"":""fullscreenenter"",""trial"":3,""time"":3386},{""event"":""blur"",""trial"":6,""time"":18834},{""event"":""focus"",""trial"":6,""time"":23465}]","false","null","audio/turtle.mp3","","3","","","","","","","","","","","","",""
"audio-test","6","25948","0.0-4.0-2.0","","","","","","","","","","null","audio/shark.mp3","","2","","","","","","","","","","","","",""
"sailing-instructions","7","56744","0.0-5.0-0.0-0.0","","","","","","","","","","","","","","null","null","null","null","null","null","","","","","","",""
"sailing-trial","8","60924","0.0-5.0-0.0-1.0-0.0","","","","false","","","","","","","","","","3060.3000000000466","","null","","null","null","arrowleft","0","null","null","","",""
"sailing-trial","9","63049","0.0-5.0-0.0-1.0-1.0","","","","false","","","","","","","","","","1006.6000000000931","","null","","null","null","arrowright","1","null","null","","",""
"sailing-trial","10","66525","0.0-5.0-0.0-1.0-2.0","","","","false","","","","","","","","","","2354.5","","null","","null","null","arrowright","1","null","null","","",""
"sailing-instructions","11","109825","0.0-5.0-0.0-2.0","","","","","","","","","","","","","","null","null","null","null","0","null","","","","","","",""
"sailing-trial","12","115133","0.0-5.0-0.0-3.0-0.0","","","","false","","","","","","","","","","null","","1778.8000000000466","","2","1","null","null","arrowleft","[1,1,1,1]","","",""
"sailing-trial","13","118460","0.0-5.0-0.0-3.0-1.0","","","","false","","","","","","","","","","null","","598.1000000000931","","3","1","null","null","arrowright","[1,1,1,1]","","",""
"sailing-trial","14","121693","0.0-5.0-0.0-3.0-2.0","","","","false","","","","","","","","","","null","","415.69999999995343","","3","0","null","null","arrowright","[0,0,0,0]","","",""
"sailing-instructions","15","129468","0.0-5.0-0.0-4.0","","","","","","","","","","","","","","null","null","null","null","null","null","","","","","","",""
"sailing-comprehension","16","155414","0.0-5.0-0.0-5.0","","","","","","","","","","18068.199999999953","","","","","","","","","","","","","","[""true"",""true"",""false"",""true""]","0",""
"sailing-instructions","17","228400","0.0-6.0-0.0-0.0","","","","","","","","","","","","","","null","null","null","null","null","null","","","","","","",""
"sailing-comprehension","18","239406","0.0-6.0-0.0-1.0","","","","","","","","","","9915","","","","","","","","","","","","","","[""true"",""false"",""true""]","0",""
"sailing-instructions","19","253682","0.0-7.0-0.0-0.0","","","","","","","","","","","","","","null","null","null","null","null","null","","","","","","",""
"sailing-trial","20","258647","0.0-7.0-0.0-1.0-0.0","","","","false","","","","","","","","","","null","","2955.600000000093","","0","0","null","null","arrowup","[0.2,0.8,0.2,0.8]","","",""
"sailing-trial","21","263156","0.0-7.0-0.0-1.0-1.0","","","","false","","","","","","","","","","null","","2146","","1","1","null","null","arrowup","[0.2,0.8,0.2,0.8]","","",""
"sailing-trial","22","265968","0.0-7.0-0.0-1.0-2.0","","","","false","","","","","","","","","","null","","1087.0999999998603","","2","0","null","null","arrowup","[0.2,0.8,0.2,0.8]","","",""
"sailing-trial","23","268868","0.0-7.0-0.0-1.0-3.0","","","","false","","","","","","","","","","null","","1044.3999999999069","","3","1","null","null","arrowup","[0.2,0.8,0.2,0.8]","","",""
"sailing-comprehension","24","275526","0.0-7.0-0.0-2.0","","","","","","","","","","5605.800000000047","","","","","","","","","","","","","","[""false""]","0",""
"sailing-instructions","25","286973","0.0-8.0-0.0-0.0","","","","","","","","","","","","","","null","null","null","null","null","null","","","","","","",""
"sailing-comprehension","26","291003","0.0-8.0-0.0-1.0","","","","","","","","","","3391.1999999999534","","","","","","","","","","","","","","[""true""]","0",""
"sailing-instructions","27","313787","0.0-9.0-0.0-0.0","","","","","","","","","","","","","","null","null","null","null","null","null","","","","","","",""
"sailing-trial","28","318017","0.0-9.0-0.0-1.0-0.0","","","","false","","","","","","","","","","777","","529.6999999999534","","3","0","arrowright","1","arrowright","[0.2,0.8,0.2,0.8]","","",""
"sailing-trial","29","321550","0.0-9.0-0.0-1.0-1.0","","","","false","","","","","","","","","","590.5999999998603","","20.100000000093132","","2","1","arrowright","1","arrowleft","[0.2,0.8,0.2,0.8]","","",""
"sailing-trial","30","324494","0.0-9.0-0.0-1.0-2.0","","","","false","","","","","","","","","","null","","1168.1000000000931","","0","1","null","null","arrowup","[0.2,0.8,0.2,0.8]","","",""
"sailing-trial","31","327926","0.0-9.0-0.0-1.0-3.0","","","","false","","","","","","","","","","554.8999999999069","","441.69999999995343","","2","0","arrowright","1","arrowleft","[0.2,0.8,0.2,0.8]","","",""
"sailing-trial","32","330716","0.0-9.0-0.0-1.0-4.0","","","","false","","","","","","","","","","null","","1053.6000000000931","","3","1","null","null","arrowup","[0.2,0.8,0.2,0.8]","","",""
"sailing-trial","33","333873","0.0-9.0-0.0-1.0-5.0","","","","false","","","","","","","","","","396.5","","283.9000000001397","","1","0","arrowleft","0","arrowright","[0.2,0.8,0.2,0.8]","","",""
"sailing-instructions","34","362156","0.0-10.0","","","","","","","","","","","","","","null","null","null","null","null","null","","","","","","",""
"sailing-trial","35","366327","0.0-11.0-0.0","","","","false","","","","","","","","","","1611.8999999999069","","64.70000000018626","","0","0","arrowleft","0","arrowleft","[0.15,0.85,0.325,0.675]","","",""
"sailing-trial","36","368335","0.0-11.0-1.0","","","","false","","","","","","","","","","null","","850.4000000001397","","3","0","null","null","arrowup","[0.15,0.85,0.325,0.675]","","",""
"sailing-trial","37","371878","0.0-11.0-2.0","","","","false","","","","","","","","","","433.19999999995343","","331.30000000004657","","1","1","arrowleft","0","arrowright","[0.15,0.85,0.325,0.675]","","",""
"sailing-trial","38","374821","0.0-11.0-3.0","","","","false","","","","","","","","","","null","","1135.5","","2","1","null","null","arrowup","[0.15,0.85,0.325,0.675]","","",""
"sailing-trial","39","378079","0.0-11.0-4.0","","","","false","","","","","","","","","","424.80000000004657","","2.1000000000931323","","1","1","arrowleft","0","arrowright","[0.15,0.85,0.325,0.675]","","",""
"sailing-trial","40","380311","0.0-11.0-5.0","","","","false","","","","","","","","","","null","","559.6999999999534","","3","1","null","null","arrowup","[0.15,0.85,0.325,0.675]","","",""
"sailing-trial","41","383810","0.0-11.0-6.0","","","","false","","","","","","","","","","443.5999999998603","","190.30000000004657","","1","1","arrowleft","0","arrowright","[0.15,0.85,0.325,0.675]","","",""
"sailing-trial","42","385953","0.0-11.0-7.0","","","","false","","","","","","","","","","null","","570.1999999999534","","3","1","null","null","arrowup","[0.15,0.85,0.325,0.675]","","",""
"sailing-trial","43","389502","0.0-11.0-8.0","","","","false","","","","","","","","","","455.10000000009313","","234.20000000018626","","1","1","arrowleft","0","arrowright","[0.15,0.85,0.325,0.675]","","",""
"sailing-trial","44","391336","0.0-11.0-9.0","","","","false","","","","","","","","","","null","","745.5","","0","0","null","null","arrowup","[0.15,0.85,0.325,0.675]","","",""
"sailing-trial","45","394778","0.0-11.0-10.0","","","","false","","","","","","","","","","438.0999999998603","","142.89999999990687","","1","1","arrowleft","0","arrowright","[0.15,0.85,0.325,0.675]","","",""
"sailing-trial","46","396758","0.0-11.0-11.0","","","","false","","","","","","","","","","null","","931.1999999999534","","2","0","null","null","arrowup","[0.15,0.85,0.325,0.675]","","",""
"sailing-trial","47","399979","0.0-11.0-12.0","","","","false","","","","","","","","","","427.10000000009313","","217.30000000004657","","1","1","arrowleft","0","arrowright","[0.15,0.85,0.325,0.675]","","",""
"sailing-trial","48","401811","0.0-11.0-13.0","","","","false","","","","","","","","","","null","","643.9000000001397","","1","0","null","null","arrowup","[0.15,0.85,0.325,0.675]","","",""
"sailing-trial","49","405145","0.0-11.0-14.0","","","","false","","","","","","","","","","396","","207.69999999995343","","1","1","arrowleft","0","arrowright","[0.15,0.85,0.325,0.675]","","",""
"sailing-trial","50","407046","0.0-11.0-15.0","","","","false","","","","","","","","","","null","","560.3999999999069","","2","0","null","null","arrowup","[0.15,0.85,0.325,0.675]","","",""
"sailing-trial","51","410129","0.0-11.0-16.0","","","","false","","","","","","","","","","375.89999999990687","","109.0999999998603","","1","1","arrowleft","0","arrowright","[0.325,0.675,0.15,0.85]","","",""
"sailing-trial","52","412329","0.0-11.0-17.0","","","","false","","","","","","","","","","null","","470.30000000004657","","0","1","null","null","arrowup","[0.325,0.675,0.15,0.85]","","",""
"sailing-trial","53","415453","0.0-11.0-18.0","","","","false","","","","","","","","","","239.80000000004657","","164.69999999995343","","1","1","arrowleft","0","arrowright","[0.325,0.675,0.15,0.85]","","",""
"sailing-trial","54","417421","0.0-11.0-19.0","","","","false","","","","","","","","","","null","","794.8000000000466","","2","0","null","null","arrowup","[0.325,0.675,0.15,0.85]","","",""
"sailing-trial","55","420471","0.0-11.0-20.0","","","","false","","","","","","","","","","319","","14.899999999906868","","1","1","arrowleft","0","arrowright","[0.325,0.675,0.15,0.85]","","",""
"sailing-trial","56","422312","0.0-11.0-21.0","","","","false","","","","","","","","","","null","","769.7000000001863","","3","0","null","null","arrowup","[0.325,0.675,0.15,0.85]","","",""
"sailing-trial","57","425364","0.0-11.0-22.0","","","","false","","","","","","","","","","325.39999999990687","","68.30000000004657","","1","1","arrowleft","0","arrowright","[0.325,0.675,0.15,0.85]","","",""
"sailing-trial","58","427647","0.0-11.0-23.0","","","","false","","","","","","","","","","null","","669","","3","1","null","null","arrowup","[0.325,0.675,0.15,0.85]","","",""
"sailing-trial","59","430814","0.0-11.0-24.0","","","","false","","","","","","","","","","323.39999999990687","","198","","1","1","arrowleft","0","arrowright","[0.325,0.675,0.15,0.85]","","",""
"sailing-trial","60","432399","0.0-11.0-25.0","","","","false","","","","","","","","","","null","","507.10000000009313","","3","0","null","null","arrowup","[0.325,0.675,0.15,0.85]","","",""
"sailing-trial","61","435062","0.0-11.0-26.0","","","","false","","","","","","","","","","230.30000000004657","","198.39999999990687","","1","0","arrowleft","0","arrowright","[0.325,0.675,0.15,0.85]","","",""
"sailing-trial","62","436821","0.0-11.0-27.0","","","","false","","","","","","","","","","null","","708.3000000000466","","2","0","null","null","arrowup","[0.325,0.675,0.15,0.85]","","",""
"sailing-trial","63","440080","0.0-11.0-28.0","","","","false","","","","","","","","","","344","","170.30000000004657","","1","1","arrowleft","0","arrowright","[0.325,0.675,0.15,0.85]","","",""
"sailing-trial","64","441625","0.0-11.0-29.0","","","","false","","","","","","","","","","null","","534.6000000000931","","0","0","null","null","arrowup","[0.325,0.675,0.15,0.85]","","",""
"sailing-trial","65","444697","0.0-11.0-30.0","","","","false","","","","","","","","","","311","","3.4000000001396984","","1","1","arrowleft","0","arrowright","[0.325,0.675,0.15,0.85]","","",""
"sailing-trial","66","446938","0.0-11.0-31.0","","","","false","","","","","","","","","","null","","557.8000000000466","","1","1","null","null","arrowup","[0.325,0.675,0.15,0.85]","","",""
"sailing-trial","67","450163","0.0-11.0-32.0","","","","false","","","","","","","","","","262.5","","269.30000000004657","","1","1","arrowleft","0","arrowright","[0.325,0.675,0.15,0.85]","","",""
"sailing-trial","68","451920","0.0-11.0-33.0","","","","false","","","","","","","","","","null","","646.0999999998603","","2","0","null","null","arrowup","[0.325,0.675,0.15,0.85]","","",""
"sailing-trial","69","454467","0.0-11.0-34.0","","","","false","","","","","","","","","","307.10000000009313","","194","","1","0","arrowleft","0","arrowright","[0.325,0.675,0.15,0.85]","","",""
"sailing-trial","70","456771","0.0-11.0-35.0","","","","false","","","","","","","","","","null","","662.5999999998603","","1","1","null","null","arrowup","[0.325,0.675,0.15,0.85]","","",""
"sailing-trial","71","459880","0.0-11.0-36.0","","","","false","","","","","","","","","","323.10000000009313","","144.69999999995343","","1","1","arrowleft","0","arrowright","[0.325,0.675,0.15,0.85]","","",""
"sailing-trial","72","461938","0.0-11.0-37.0","","","","false","","","","","","","","","","null","","390.60000000009313","","3","1","null","null","arrowup","[0.325,0.675,0.15,0.85]","","",""
"sailing-trial","73","464930","0.0-11.0-38.0","","","","false","","","","","","","","","","189","","148.80000000004657","","1","1","arrowleft","0","arrowright","[0.325,0.675,0.15,0.85]","","",""
"sailing-trial","74","466855","0.0-11.0-39.0","","","","false","","","","","","","","","","null","","325.89999999990687","","0","1","null","null","arrowup","[0.325,0.675,0.15,0.85]","","",""
"sailing-trial","75","469831","0.0-11.0-40.0","","","","false","","","","","","","","","","286.69999999995343","","79.5","","1","1","arrowleft","0","arrowright","[0.15,0.85,0.325,0.675]","","",""
"sailing-trial","76","471297","0.0-11.0-41.0","","","","false","","","","","","","","","","null","","342.5","","3","0","null","null","arrowup","[0.15,0.85,0.325,0.675]","","",""
"sailing-trial","77","474397","0.0-11.0-42.0","","","","false","","","","","","","","","","224","","184.5999999998603","","1","1","arrowleft","0","arrowright","[0.15,0.85,0.325,0.675]","","",""
"sailing-trial","78","476102","0.0-11.0-43.0","","","","false","","","","","","","","","","null","","608.9000000001397","","0","0","null","null","arrowup","[0.15,0.85,0.325,0.675]","","",""
"sailing-trial","79","479056","0.0-11.0-44.0","","","","false","","","","","","","","","","170.30000000004657","","122.69999999995343","","1","1","arrowleft","0","arrowright","[0.15,0.85,0.325,0.675]","","",""
"sailing-trial","80","481123","0.0-11.0-45.0","","","","false","","","","","","","","","","null","","476.60000000009313","","1","1","null","null","arrowup","[0.15,0.85,0.325,0.675]","","",""
"sailing-trial","81","484064","0.0-11.0-46.0","","","","false","","","","","","","","","","220.89999999990687","","121.4000000001397","","1","1","arrowleft","0","arrowright","[0.15,0.85,0.325,0.675]","","",""
"sailing-trial","82","485678","0.0-11.0-47.0","","","","false","","","","","","","","","","null","","560.1999999999534","","0","0","null","null","arrowup","[0.15,0.85,0.325,0.675]","","",""
"sailing-trial","83","488489","0.0-11.0-48.0","","","","false","","","","","","","","","","122.39999999990687","","110.5","","1","1","arrowleft","0","arrowright","[0.15,0.85,0.325,0.675]","","",""
"sailing-trial","84","490665","0.0-11.0-49.0","","","","false","","","","","","","","","","null","","507.60000000009313","","1","1","null","null","arrowup","[0.15,0.85,0.325,0.675]","","",""
"sailing-trial","85","493923","0.0-11.0-50.0","","","","false","","","","","","","","","","238.5","","385","","1","1","arrowleft","0","arrowright","[0.15,0.85,0.325,0.675]","","",""
"sailing-trial","86","495554","0.0-11.0-51.0","","","","false","","","","","","","","","","null","","466.4000000001397","","2","0","null","null","arrowup","[0.15,0.85,0.325,0.675]","","",""
"sailing-trial","87","498565","0.0-11.0-52.0","","","","false","","","","","","","","","","244.4000000001397","","110.30000000004657","","1","1","arrowleft","0","arrowright","[0.15,0.85,0.325,0.675]","","",""
"sailing-trial","88","500781","0.0-11.0-53.0","","","","false","","","","","","","","","","null","","574.8000000000466","","3","1","null","null","arrowup","[0.15,0.85,0.325,0.675]","","",""
"sailing-trial","89","503857","0.0-11.0-54.0","","","","false","","","","","","","","","","314.10000000009313","","189.69999999995343","","1","1","arrowleft","0","arrowright","[0.15,0.85,0.325,0.675]","","",""
"sailing-trial","90","505238","0.0-11.0-55.0","","","","false","","","","","","","","","","null","","270.80000000004657","","2","0","null","null","arrowup","[0.15,0.85,0.325,0.675]","","",""
"sailing-trial","91","508239","0.0-11.0-56.0","","","","false","","","","","","","","","","261.4000000001397","","134.10000000009313","","1","1","arrowleft","0","arrowright","[0.325,0.675,0.15,0.85]","","",""
"sailing-trial","92","510407","0.0-11.0-57.0","","","","false","","","","","","","","","","null","","581.2999999998137","","3","1","null","null","arrowup","[0.325,0.675,0.15,0.85]","","",""
"sailing-trial","93","513048","0.0-11.0-58.0","","","","false","","","","","","","","","","292.80000000004657","","272.29999999981374","","1","0","arrowleft","0","arrowright","[0.325,0.675,0.15,0.85]","","",""
"sailing-trial","94","515074","0.0-11.0-59.0","","","","false","","","","","","","","","","null","","476.30000000004657","","3","1","null","null","arrowup","[0.325,0.675,0.15,0.85]","","",""
"sailing-trial","95","518032","0.0-11.0-60.0","","","","false","","","","","","","","","","308.5","","112.39999999990687","","1","1","arrowleft","0","arrowright","[0.325,0.675,0.15,0.85]","","",""
"sailing-trial","96","520090","0.0-11.0-61.0","","","","false","","","","","","","","","","null","","416.9000000001397","","1","1","null","null","arrowup","[0.325,0.675,0.15,0.85]","","",""
"sailing-trial","97","522999","0.0-11.0-62.0","","","","false","","","","","","","","","","325.4000000001397","","33.700000000186265","","1","1","arrowleft","0","arrowright","[0.325,0.675,0.15,0.85]","","",""
"sailing-trial","98","525316","0.0-11.0-63.0","","","","false","","","","","","","","","","null","","536.6000000000931","","3","1","null","null","arrowup","[0.325,0.675,0.15,0.85]","","",""
"sailing-trial","99","528308","0.0-11.0-64.0","","","","false","","","","","","","","","","383.30000000004657","","12.100000000093132","","1","1","arrowleft","0","arrowright","[0.325,0.675,0.15,0.85]","","",""
"sailing-trial","100","530407","0.0-11.0-65.0","","","","false","","","","","","","","","","null","","501.5999999998603","","1","1","null","null","arrowup","[0.325,0.675,0.15,0.85]","","",""
"sailing-trial","101","533366","0.0-11.0-66.0","","","","false","","","","","","","","","","295.10000000009313","","16.5","","1","1","arrowleft","0","arrowright","[0.325,0.675,0.15,0.85]","","",""
"sailing-trial","102","535383","0.0-11.0-67.0","","","","false","","","","","","","","","","null","","488.69999999995343","","1","1","null","null","arrowup","[0.325,0.675,0.15,0.85]","","",""
"sailing-trial","103","538416","0.0-11.0-68.0","","","","false","","","","","","","","","","276.70000000018626","","69.70000000018626","","1","1","arrowleft","0","arrowright","[0.325,0.675,0.15,0.85]","","",""
"sailing-trial","104","540282","0.0-11.0-69.0","","","","false","","","","","","","","","","null","","676.9000000001397","","0","0","null","null","arrowup","[0.325,0.675,0.15,0.85]","","",""
"sailing-trial","105","543459","0.0-11.0-70.0","","","","false","","","","","","","","","","260.69999999995343","","312.10000000009313","","1","1","arrowleft","0","arrowright","[0.325,0.675,0.15,0.85]","","",""
"sailing-trial","106","544832","0.0-11.0-71.0","","","","false","","","","","","","","","","null","","323.5","","0","0","null","null","arrowup","[0.325,0.675,0.15,0.85]","","",""
"sailing-trial","107","547867","0.0-11.0-72.0","","","","false","","","","","","","","","","225","","233.10000000009313","","1","1","arrowleft","0","arrowright","[0.325,0.675,0.15,0.85]","","",""
"sailing-trial","108","549421","0.0-11.0-73.0","","","","false","","","","","","","","","","null","","407.79999999981374","","2","0","null","null","arrowup","[0.325,0.675,0.15,0.85]","","",""
"sailing-trial","109","552391","0.0-11.0-74.0","","","","false","","","","","","","","","","314.80000000004657","","18.4000000001397","","1","1","arrowleft","0","arrowright","[0.15,0.85,0.325,0.675]","","",""
"sailing-trial","110","554408","0.0-11.0-75.0","","","","false","","","","","","","","","","null","","359.4000000001397","","3","1","null","null","arrowup","[0.15,0.85,0.325,0.675]","","",""
"sailing-trial","111","557044","0.0-11.0-76.0","","","","false","","","","","","","","","","284.19999999995343","","224.5","","1","0","arrowleft","0","arrowright","[0.15,0.85,0.325,0.675]","","",""
"sailing-trial","112","559074","0.0-11.0-77.0","","","","false","","","","","","","","","","null","","517.9000000001397","","1","1","null","null","arrowup","[0.15,0.85,0.325,0.675]","","",""
"sailing-trial","113","562083","0.0-11.0-78.0","","","","false","","","","","","","","","","293.19999999995343","","142.30000000004657","","1","1","arrowleft","0","arrowright","[0.15,0.85,0.325,0.675]","","",""
"sailing-trial","114","563621","0.0-11.0-79.0","","","","false","","","","","","","","","","null","","462.30000000004657","","2","0","null","null","arrowup","[0.15,0.85,0.325,0.675]","","",""
"sailing-trial","115","566040","0.0-11.0-80.0","","","","false","","","","","","","","","","189.70000000018626","","101","","1","0","arrowleft","0","arrowright","[0.15,0.85,0.325,0.675]","","",""
"sailing-trial","116","568241","0.0-11.0-81.0","","","","false","","","","","","","","","","null","","507.4000000001397","","1","1","null","null","arrowup","[0.15,0.85,0.325,0.675]","","",""
"sailing-trial","117","571392","0.0-11.0-82.0","","","","false","","","","","","","","","","246.80000000004657","","235.4000000001397","","1","1","arrowleft","0","arrowright","[0.15,0.85,0.325,0.675]","","",""
"sailing-trial","118","573500","0.0-11.0-83.0","","","","false","","","","","","","","","","null","","507.0999999998603","","3","1","null","null","arrowup","[0.15,0.85,0.325,0.675]","","",""
"sailing-trial","119","576709","0.0-11.0-84.0","","","","false","","","","","","","","","","292.9000000001397","","186.10000000009313","","1","1","arrowleft","0","arrowright","[0.15,0.85,0.325,0.675]","","",""
"sailing-trial","120","578851","0.0-11.0-85.0","","","","false","","","","","","","","","","null","","542.5","","1","1","null","null","arrowup","[0.15,0.85,0.325,0.675]","","",""
"sailing-trial","121","581318","0.0-11.0-86.0","","","","false","","","","","","","","","","287.4000000001397","","30.699999999953434","","1","0","arrowleft","0","arrowright","[0.15,0.85,0.325,0.675]","","",""
"sailing-trial","122","582898","0.0-11.0-87.0","","","","false","","","","","","","","","","null","","514.5","","1","0","null","null","arrowup","[0.15,0.85,0.325,0.675]","","",""
"sailing-trial","123","586292","0.0-11.0-88.0","","","","false","","","","","","","","","","784.5999999998603","","35","","1","1","arrowleft","0","arrowright","[0.15,0.85,0.325,0.675]","","",""
"sailing-trial","124","588509","0.0-11.0-89.0","","","","false","","","","","","","","","","null","","630.0999999998603","","2","1","null","null","arrowup","[0.15,0.85,0.325,0.675]","","",""
"sailing-trial","125","591525","0.0-11.0-90.0","","","","false","","","","","","","","","","190.20000000018626","","128.30000000004657","","1","1","arrowleft","0","arrowright","[0.15,0.85,0.325,0.675]","","",""
"sailing-trial","126","593283","0.0-11.0-91.0","","","","false","","","","","","","","","","null","","564.1000000000931","","3","0","null","null","arrowup","[0.15,0.85,0.325,0.675]","","",""
"sailing-trial","127","595741","0.0-11.0-92.0","","","","false","","","","","","","","","","273.5999999998603","","24.899999999906868","","1","0","arrowleft","0","arrowright","[0.85,0.15,0.675,0.325]","","",""
"sailing-trial","128","597869","0.0-11.0-93.0","","","","false","","","","","","","","","","null","","484.19999999995343","","0","1","null","null","arrowup","[0.85,0.15,0.675,0.325]","","",""
"sailing-trial","129","600625","0.0-11.0-94.0","","","","false","","","","","","","","","","339.89999999990687","","251.5","","1","0","arrowleft","0","arrowright","[0.85,0.15,0.675,0.325]","","",""
"sailing-trial","130","602818","0.0-11.0-95.0","","","","false","","","","","","","","","","null","","523.4000000001397","","3","1","null","null","arrowup","[0.85,0.15,0.675,0.325]","","",""
"sailing-trial","131","606452","0.0-11.0-96.0","","","","false","","","","","","","","","","791.3999999999069","","113.9000000001397","","0","1","arrowleft","0","arrowleft","[0.85,0.15,0.675,0.325]","","",""
"sailing-trial","132","608819","0.0-11.0-97.0","","","","false","","","","","","","","","","null","","707.4000000001397","","0","1","null","null","arrowup","[0.85,0.15,0.675,0.325]","","",""
"sailing-trial","133","611994","0.0-11.0-98.0","","","","false","","","","","","","","","","331.5999999998603","","184.30000000004657","","0","1","arrowleft","0","arrowleft","[0.85,0.15,0.675,0.325]","","",""
"sailing-trial","134","614343","0.0-11.0-99.0","","","","false","","","","","","","","","","null","","727.1999999999534","","2","1","null","null","arrowup","[0.85,0.15,0.675,0.325]","","",""
"sailing-trial","135","617444","0.0-11.0-100.0","","","","false","","","","","","","","","","307.19999999995343","","150.30000000004657","","0","1","arrowleft","0","arrowleft","[0.85,0.15,0.675,0.325]","","",""
"sailing-trial","136","619619","0.0-11.0-101.0","","","","false","","","","","","","","","","null","","519.1999999999534","","3","1","null","null","arrowup","[0.85,0.15,0.675,0.325]","","",""
"sailing-trial","137","622727","0.0-11.0-102.0","","","","false","","","","","","","","","","280","","124.4000000001397","","0","1","arrowleft","0","arrowleft","[0.85,0.15,0.675,0.325]","","",""
"sailing-trial","138","625186","0.0-11.0-103.0","","","","false","","","","","","","","","","null","","841.5","","0","1","null","null","arrowup","[0.85,0.15,0.675,0.325]","","",""
"sailing-trial","139","628078","0.0-11.0-104.0","","","","false","","","","","","","","","","76.60000000009313","","176.30000000004657","","0","1","arrowleft","0","arrowleft","[0.85,0.15,0.675,0.325]","","",""
"sailing-trial","140","629702","0.0-11.0-105.0","","","","false","","","","","","","","","","null","","423.80000000004657","","1","0","null","null","arrowup","[0.85,0.15,0.675,0.325]","","",""
"sailing-trial","141","632677","0.0-11.0-106.0","","","","false","","","","","","","","","","258.5","","164.70000000018626","","0","1","arrowleft","0","arrowleft","[0.85,0.15,0.675,0.325]","","",""
"sailing-trial","142","634686","0.0-11.0-107.0","","","","false","","","","","","","","","","null","","367.19999999995343","","0","1","null","null","arrowup","[0.85,0.15,0.675,0.325]","","",""
"sailing-trial","143","637586","0.0-11.0-108.0","","","","false","","","","","","","","","","195","","95","","0","1","arrowleft","0","arrowleft","[0.675,0.325,0.85,0.15]","","",""
"sailing-trial","144","639194","0.0-11.0-109.0","","","","false","","","","","","","","","","null","","492.69999999995343","","3","0","null","null","arrowup","[0.675,0.325,0.85,0.15]","","",""
"sailing-trial","145","642303","0.0-11.0-110.0","","","","false","","","","","","","","","","232.80000000004657","","187.70000000018626","","0","1","arrowleft","0","arrowleft","[0.675,0.325,0.85,0.15]","","",""
"sailing-trial","146","644471","0.0-11.0-111.0","","","","false","","","","","","","","","","null","","515.5","","2","1","null","null","arrowup","[0.675,0.325,0.85,0.15]","","",""
"sailing-trial","147","646869","0.0-11.0-112.0","","","","false","","","","","","","","","","120.30000000004657","","113.5999999998603","","0","0","arrowleft","0","arrowleft","[0.675,0.325,0.85,0.15]","","",""
"sailing-trial","148","649146","0.0-11.0-113.0","","","","false","","","","","","","","","","null","","609.5999999998603","","0","1","null","null","arrowup","[0.675,0.325,0.85,0.15]","","",""
"sailing-trial","149","652053","0.0-11.0-114.0","","","","false","","","","","","","","","","104.60000000009313","","185.0999999998603","","0","1","arrowleft","0","arrowleft","[0.675,0.325,0.85,0.15]","","",""
"sailing-trial","150","653581","0.0-11.0-115.0","","","","false","","","","","","","","","","null","","500.5","","1","0","null","null","arrowup","[0.675,0.325,0.85,0.15]","","",""
"sailing-trial","151","656504","0.0-11.0-116.0","","","","false","","","","","","","","","","268.10000000009313","","46.200000000186265","","0","1","arrowleft","0","arrowleft","[0.675,0.325,0.85,0.15]","","",""
"sailing-trial","152","658553","0.0-11.0-117.0","","","","false","","","","","","","","","","null","","475.5","","1","1","null","null","arrowup","[0.675,0.325,0.85,0.15]","","",""
"sailing-trial","153","661579","0.0-11.0-118.0","","","","false","","","","","","","","","","181.69999999995343","","106.19999999995343","","0","1","arrowleft","0","arrowleft","[0.675,0.325,0.85,0.15]","","",""
"sailing-trial","154","663829","0.0-11.0-119.0","","","","false","","","","","","","","","","null","","539.2000000001863","","0","1","null","null","arrowup","[0.675,0.325,0.85,0.15]","","",""
"sailing-trial","155","666688","0.0-11.0-120.0","","","","false","","","","","","","","","","272.30000000004657","","15.800000000046566","","0","1","arrowleft","0","arrowleft","[0.675,0.325,0.85,0.15]","","",""
"sailing-trial","156","668820","0.0-11.0-121.0","","","","false","","","","","","","","","","null","","459.10000000009313","","0","1","null","null","arrowup","[0.675,0.325,0.85,0.15]","","",""
"sailing-trial","157","671611","0.0-11.0-122.0","","","","false","","","","","","","","","","148.5","","73.19999999995343","","0","1","arrowleft","0","arrowleft","[0.675,0.325,0.85,0.15]","","",""
"sailing-trial","158","673518","0.0-11.0-123.0","","","","false","","","","","","","","","","null","","724.6999999999534","","3","0","null","null","arrowup","[0.675,0.325,0.85,0.15]","","",""
"sailing-trial","159","675951","0.0-11.0-124.0","","","","false","","","","","","","","","","308.0999999998603","","47.5999999998603","","0","0","arrowleft","0","arrowleft","[0.675,0.325,0.85,0.15]","","",""
"sailing-trial","160","677808","0.0-11.0-125.0","","","","false","","","","","","","","","","null","","688.3999999999069","","2","0","null","null","arrowup","[0.675,0.325,0.85,0.15]","","",""
"sailing-trial","161","680896","0.0-11.0-126.0","","","","false","","","","","","","","","","288.39999999990687","","216.20000000018626","","0","1","arrowleft","0","arrowleft","[0.675,0.325,0.85,0.15]","","",""
"sailing-trial","162","683054","0.0-11.0-127.0","","","","false","","","","","","","","","","null","","256.5","","2","1","null","null","arrowup","[0.675,0.325,0.85,0.15]","","",""
"sailing-trial","163","686612","0.0-11.0-128.0","","","","false","","","","","","","","","","36.199999999953434","","924.8999999999069","","0","1","arrowleft","0","arrowleft","[0.85,0.15,0.675,0.325]","","",""
"sailing-trial","164","688856","0.0-11.0-129.0","","","","false","","","","","","","","","","null","","524.5999999998603","","3","1","null","null","arrowup","[0.85,0.15,0.675,0.325]","","",""
"sailing-trial","165","692056","0.0-11.0-130.0","","","","false","","","","","","","","","","465.39999999990687","","176.89999999990687","","0","1","arrowleft","0","arrowleft","[0.85,0.15,0.675,0.325]","","",""
"sailing-trial","166","693841","0.0-11.0-131.0","","","","false","","","","","","","","","","null","","614.5","","3","0","null","null","arrowup","[0.85,0.15,0.675,0.325]","","",""
"sailing-trial","167","696930","0.0-11.0-132.0","","","","false","","","","","","","","","","270.80000000004657","","196.10000000009313","","0","1","arrowleft","0","arrowleft","[0.85,0.15,0.675,0.325]","","",""
"sailing-trial","168","699163","0.0-11.0-133.0","","","","false","","","","","","","","","","null","","545","","3","1","null","null","arrowup","[0.85,0.15,0.675,0.325]","","",""
"sailing-trial","169","702380","0.0-11.0-134.0","","","","false","","","","","","","","","","361.20000000018626","","148.9000000001397","","0","1","arrowleft","0","arrowleft","[0.85,0.15,0.675,0.325]","","",""
"sailing-trial","170","704587","0.0-11.0-135.0","","","","false","","","","","","","","","","null","","501.5","","3","1","null","null","arrowup","[0.85,0.15,0.675,0.325]","","",""
"sailing-trial","171","707755","0.0-11.0-136.0","","","","false","","","","","","","","","","319.5","","226.10000000009313","","0","1","arrowleft","0","arrowleft","[0.85,0.15,0.675,0.325]","","",""
"sailing-trial","172","709508","0.0-11.0-137.0","","","","false","","","","","","","","","","null","","644.7999999998137","","2","0","null","null","arrowup","[0.85,0.15,0.675,0.325]","","",""
"sailing-trial","173","712522","0.0-11.0-138.0","","","","false","","","","","","","","","","219","","106.19999999995343","","0","1","arrowleft","0","arrowleft","[0.85,0.15,0.675,0.325]","","",""
"sailing-trial","174","714756","0.0-11.0-139.0","","","","false","","","","","","","","","","null","","692.3999999999069","","2","1","null","null","arrowup","[0.85,0.15,0.675,0.325]","","",""
"sailing-trial","175","717554","0.0-11.0-140.0","","","","false","","","","","","","","","","72.69999999995343","","73.5999999998603","","0","1","arrowleft","0","arrowleft","[0.85,0.15,0.675,0.325]","","",""
"sailing-trial","176","719201","0.0-11.0-141.0","","","","false","","","","","","","","","","null","","555.6000000000931","","1","0","null","null","arrowup","[0.85,0.15,0.675,0.325]","","",""
"sailing-trial","177","722087","0.0-11.0-142.0","","","","false","","","","","","","","","","254.30000000004657","","40.299999999813735","","0","1","arrowleft","0","arrowleft","[0.85,0.15,0.675,0.325]","","",""
"sailing-trial","178","724213","0.0-11.0-143.0","","","","false","","","","","","","","","","null","","557.8999999999069","","1","1","null","null","arrowup","[0.85,0.15,0.675,0.325]","","",""
"sailing-trial","179","726692","0.0-11.0-144.0","","","","false","","","","","","","","","","53.5999999998603","","297.9000000001397","","0","0","arrowleft","0","arrowleft","[0.675,0.325,0.85,0.15]","","",""
"sailing-trial","180","728773","0.0-11.0-145.0","","","","false","","","","","","","","","","null","","459.60000000009313","","2","1","null","null","arrowup","[0.675,0.325,0.85,0.15]","","",""
"sailing-trial","181","731161","0.0-11.0-146.0","","","","false","","","","","","","","","","80.70000000018626","","132.5","","0","0","arrowleft","0","arrowleft","[0.675,0.325,0.85,0.15]","","",""
"sailing-trial","182","733530","0.0-11.0-147.0","","","","false","","","","","","","","","","null","","661","","2","1","null","null","arrowup","[0.675,0.325,0.85,0.15]","","",""
"sailing-trial","183","736301","0.0-11.0-148.0","","","","false","","","","","","","","","","525","","140.80000000004657","","3","0","arrowright","1","arrowright","[0.675,0.325,0.85,0.15]","","",""
"sailing-trial","184","738647","0.0-11.0-149.0","","","","false","","","","","","","","","","null","","640.3000000000466","","3","1","null","null","arrowup","[0.675,0.325,0.85,0.15]","","",""
"sailing-trial","185","741321","0.0-11.0-150.0","","","","false","","","","","","","","","","339.19999999995343","","140.30000000004657","","3","0","arrowright","1","arrowright","[0.675,0.325,0.85,0.15]","","",""
"sailing-trial","186","743639","0.0-11.0-151.0","","","","false","","","","","","","","","","null","","622.3000000000466","","0","1","null","null","arrowup","[0.675,0.325,0.85,0.15]","","",""
"sailing-trial","187","746972","0.0-11.0-152.0","","","","false","","","","","","","","","","739.1000000000931","","25.199999999953434","","1","1","arrowleft","0","arrowright","[0.675,0.325,0.85,0.15]","","",""
"sailing-trial","188","748606","0.0-11.0-153.0","","","","false","","","","","","","","","","null","","559.3000000000466","","1","0","null","null","arrowup","[0.675,0.325,0.85,0.15]","","",""
"sailing-trial","189","751582","0.0-11.0-154.0","","","","false","","","","","","","","","","355.69999999995343","","28.699999999953434","","1","1","arrowleft","0","arrowright","[0.675,0.325,0.85,0.15]","","",""
"sailing-trial","190","753061","0.0-11.0-155.0","","","","false","","","","","","","","","","null","","437.10000000009313","","1","0","null","null","arrowup","[0.675,0.325,0.85,0.15]","","",""
"sailing-trial","191","756104","0.0-11.0-156.0","","","","false","","","","","","","","","","385.80000000004657","","47.800000000046566","","1","1","arrowleft","0","arrowright","[0.675,0.325,0.85,0.15]","","",""
"sailing-trial","192","757783","0.0-11.0-157.0","","","","false","","","","","","","","","","null","","546.3000000000466","","2","0","null","null","arrowup","[0.675,0.325,0.85,0.15]","","",""
"sailing-trial","193","760823","0.0-11.0-158.0","","","","false","","","","","","","","","","301.80000000004657","","90.80000000004657","","1","1","arrowleft","0","arrowright","[0.675,0.325,0.85,0.15]","","",""
"sailing-trial","194","763182","0.0-11.0-159.0","","","","false","","","","","","","","","","null","","658.1999999999534","","2","1","null","null","arrowup","[0.675,0.325,0.85,0.15]","","",""
"sailing-trial","195","766190","0.0-11.0-160.0","","","","false","","","","","","","","","","275.19999999995343","","25.5","","1","1","arrowleft","0","arrowright","[0.675,0.325,0.85,0.15]","","",""
"sailing-trial","196","767781","0.0-11.0-161.0","","","","false","","","","","","","","","","null","","406.69999999995343","","0","0","null","null","arrowup","[0.675,0.325,0.85,0.15]","","",""
"sailing-trial","197","770252","0.0-11.0-162.0","","","","false","","","","","","","","","","259.30000000004657","","26.300000000046566","","1","0","arrowleft","0","arrowright","[0.675,0.325,0.85,0.15]","","",""
"sailing-trial","198","772324","0.0-11.0-163.0","","","","false","","","","","","","","","","null","","430.60000000009313","","2","1","null","null","arrowup","[0.675,0.325,0.85,0.15]","","",""
"sailing-trial","199","774856","0.0-11.0-164.0","","","","false","","","","","","","","","","168.30000000004657","","190.19999999995343","","1","0","arrowleft","0","arrowright","[0.325,0.675,0.15,0.85]","","",""
"sailing-trial","200","776949","0.0-11.0-165.0","","","","false","","","","","","","","","","null","","403.39999999990687","","1","1","null","null","arrowup","[0.325,0.675,0.15,0.85]","","",""
"sailing-trial","201","780041","0.0-11.0-166.0","","","","false","","","","","","","","","","250","","166.39999999990687","","1","1","arrowleft","0","arrowright","[0.325,0.675,0.15,0.85]","","",""
"sailing-trial","202","781562","0.0-11.0-167.0","","","","false","","","","","","","","","","null","","426.69999999995343","","1","0","null","null","arrowup","[0.325,0.675,0.15,0.85]","","",""
"sailing-trial","203","784547","0.0-11.0-168.0","","","","false","","","","","","","","","","620","","276.20000000018626","","2","0","arrowright","1","arrowleft","[0.325,0.675,0.15,0.85]","","",""
"sailing-trial","204","786239","0.0-11.0-169.0","","","","false","","","","","","","","","","null","","563","","2","0","null","null","arrowup","[0.325,0.675,0.15,0.85]","","",""
"sailing-trial","205","789182","0.0-11.0-170.0","","","","false","","","","","","","","","","193.19999999995343","","170.10000000009313","","1","1","arrowleft","0","arrowright","[0.325,0.675,0.15,0.85]","","",""
"sailing-trial","206","791400","0.0-11.0-171.0","","","","false","","","","","","","","","","null","","528.5","","3","1","null","null","arrowup","[0.325,0.675,0.15,0.85]","","",""
"sailing-trial","207","794616","0.0-11.0-172.0","","","","false","","","","","","","","","","371","","139.80000000004657","","1","1","arrowleft","0","arrowright","[0.325,0.675,0.15,0.85]","","",""
"sailing-trial","208","796412","0.0-11.0-173.0","","","","false","","","","","","","","","","null","","592.7000000001863","","2","0","null","null","arrowup","[0.325,0.675,0.15,0.85]","","",""
"sailing-trial","209","799366","0.0-11.0-174.0","","","","false","","","","","","","","","","190.10000000009313","","70.69999999995343","","1","1","arrowleft","0","arrowright","[0.325,0.675,0.15,0.85]","","",""
"sailing-trial","210","801130","0.0-11.0-175.0","","","","false","","","","","","","","","","null","","593.5999999998603","","0","0","null","null","arrowup","[0.325,0.675,0.15,0.85]","","",""
"sailing-trial","211","803382","0.0-11.0-176.0","","","","false","","","","","","","","","","191.0999999998603","","30.600000000093132","","1","0","arrowleft","0","arrowright","[0.325,0.675,0.15,0.85]","","",""
"sailing-trial","212","805533","0.0-11.0-177.0","","","","false","","","","","","","","","","null","","445.89999999990687","","0","1","null","null","arrowup","[0.325,0.675,0.15,0.85]","","",""
"sailing-trial","213","808557","0.0-11.0-178.0","","","","false","","","","","","","","","","243.89999999990687","","167.5","","1","1","arrowleft","0","arrowright","[0.325,0.675,0.15,0.85]","","",""
"sailing-trial","214","810226","0.0-11.0-179.0","","","","false","","","","","","","","","","null","","463.69999999995343","","1","0","null","null","arrowup","[0.325,0.675,0.15,0.85]","","",""
"sailing-trial","215","813133","0.0-11.0-180.0","","","","false","","","","","","","","","","253.89999999990687","","39.199999999953434","","1","1","arrowleft","0","arrowright","[0.325,0.675,0.15,0.85]","","",""
"sailing-trial","216","815316","0.0-11.0-181.0","","","","false","","","","","","","","","","null","","503.79999999981374","","3","1","null","null","arrowup","[0.325,0.675,0.15,0.85]","","",""
"sailing-trial","217","818093","0.0-11.0-182.0","","","","false","","","","","","","","","","167.19999999995343","","15.5","","1","1","arrowleft","0","arrowright","[0.325,0.675,0.15,0.85]","","",""
"sailing-trial","218","819829","0.0-11.0-183.0","","","","false","","","","","","","","","","null","","535.7000000001863","","0","0","null","null","arrowup","[0.325,0.675,0.15,0.85]","","",""
"sailing-trial","219","822966","0.0-11.0-184.0","","","","false","","","","","","","","","","237.29999999981374","","204.4000000001397","","1","1","arrowleft","0","arrowright","[0.15,0.85,0.325,0.675]","","",""
"sailing-trial","220","824772","0.0-11.0-185.0","","","","false","","","","","","","","","","null","","648.3000000000466","","0","0","null","null","arrowup","[0.15,0.85,0.325,0.675]","","",""
"sailing-trial","221","827627","0.0-11.0-186.0","","","","false","","","","","","","","","","134.80000000004657","","169.30000000004657","","1","1","arrowleft","0","arrowright","[0.15,0.85,0.325,0.675]","","",""
"sailing-trial","222","829274","0.0-11.0-187.0","","","","false","","","","","","","","","","null","","513.6999999999534","","0","0","null","null","arrowup","[0.15,0.85,0.325,0.675]","","",""
"sailing-trial","223","832249","0.0-11.0-188.0","","","","false","","","","","","","","","","165.30000000004657","","181.30000000004657","","1","1","arrowleft","0","arrowright","[0.15,0.85,0.325,0.675]","","",""
"sailing-trial","224","834334","0.0-11.0-189.0","","","","false","","","","","","","","","","null","","551.7000000001863","","3","1","null","null","arrowup","[0.15,0.85,0.325,0.675]","","",""
"sailing-trial","225","837284","0.0-11.0-190.0","","","","false","","","","","","","","","","193.5","","84.60000000009313","","1","1","arrowleft","0","arrowright","[0.15,0.85,0.325,0.675]","","",""
"sailing-trial","226","839499","0.0-11.0-191.0","","","","false","","","","","","","","","","null","","587.4000000001397","","1","1","null","null","arrowup","[0.15,0.85,0.325,0.675]","","",""
"sailing-trial","227","842517","0.0-11.0-192.0","","","","false","","","","","","","","","","345.30000000004657","","111.69999999995343","","1","1","arrowleft","0","arrowright","[0.15,0.85,0.325,0.675]","","",""
"sailing-trial","228","844014","0.0-11.0-193.0","","","","false","","","","","","","","","","null","","365.10000000009313","","0","0","null","null","arrowup","[0.15,0.85,0.325,0.675]","","",""
"sailing-trial","229","846942","0.0-11.0-194.0","","","","false","","","","","","","","","","111.5999999998603","","180.9000000001397","","1","1","arrowleft","0","arrowright","[0.15,0.85,0.325,0.675]","","",""
"sailing-trial","230","849034","0.0-11.0-195.0","","","","false","","","","","","","","","","null","","266.69999999995343","","3","1","null","null","arrowup","[0.15,0.85,0.325,0.675]","","",""
"sailing-trial","231","852018","0.0-11.0-196.0","","","","false","","","","","","","","","","247.20000000018626","","82.69999999995343","","1","1","arrowleft","0","arrowright","[0.15,0.85,0.325,0.675]","","",""
"sailing-trial","232","854044","0.0-11.0-197.0","","","","false","","","","","","","","","","null","","442.19999999995343","","1","1","null","null","arrowup","[0.15,0.85,0.325,0.675]","","",""
"sailing-trial","233","857026","0.0-11.0-198.0","","","","false","","","","","","","","","","326.79999999981374","","110.69999999995343","","1","1","arrowleft","0","arrowright","[0.15,0.85,0.325,0.675]","","",""
"sailing-trial","234","858959","0.0-11.0-199.0","","","","false","","","","","","","","","","null","","247.5","","2","1","null","null","arrowup","[0.15,0.85,0.325,0.675]","","",""
"sailing-trial","235","861477","0.0-11.0-200.0","","","","false","","","","","","","","","","205.30000000004657","","149.9000000001397","","1","0","arrowleft","0","arrowright","[0.15,0.85,0.325,0.675]","","",""
"sailing-trial","236","863177","0.0-11.0-201.0","","","","false","","","","","","","","","","null","","136.19999999995343","","1","1","null","null","arrowup","[0.15,0.85,0.325,0.675]","","",""
"sailing-trial","237","866051","0.0-11.0-202.0","","","","false","","","","","","","","","","205.30000000004657","","562","","1","0","arrowleft","0","arrowright","[0.325,0.675,0.15,0.85]","","",""
"sailing-trial","238","867218","0.0-11.0-203.0","","","","false","","","","","","","","","","null","","86","","0","0","null","null","arrowup","[0.325,0.675,0.15,0.85]","","",""
"sailing-trial","239","869943","0.0-11.0-204.0","","","","false","","","","","","","","","","83.9000000001397","","18.5999999998603","","1","1","arrowleft","0","arrowright","[0.325,0.675,0.15,0.85]","","",""
"sailing-trial","240","871885","0.0-11.0-205.0","","","","false","","","","","","","","","","null","","28.399999999906868","","0","0","null","null","arrowup","[0.325,0.675,0.15,0.85]","","",""
"sailing-trial","241","874594","0.0-11.0-206.0","","","","false","","","","","","","","","","144.89999999990687","","22.699999999953434","","1","1","arrowleft","0","arrowright","[0.325,0.675,0.15,0.85]","","",""
"sailing-trial","242","876285","0.0-11.0-207.0","","","","false","","","","","","","","","","null","","143.5","","1","1","null","null","arrowup","[0.325,0.675,0.15,0.85]","","",""
"sailing-trial","243","878615","0.0-11.0-208.0","","","","false","","","","","","","","","","53.5999999998603","","143.19999999995343","","1","0","arrowleft","0","arrowright","[0.325,0.675,0.15,0.85]","","",""
"sailing-trial","244","880535","0.0-11.0-209.0","","","","false","","","","","","","","","","null","","62.5","","3","1","null","null","arrowup","[0.325,0.675,0.15,0.85]","","",""
"sailing-trial","245","883843","0.0-11.0-210.0","","","","false","","","","","","","","","","247.0999999998603","","90.80000000004657","","1","0","arrowleft","0","arrowright","[0.325,0.675,0.15,0.85]","","",""
"sailing-trial","246","885694","0.0-11.0-211.0","","","","false","","","","","","","","","","null","","159.19999999995343","","3","1","null","null","arrowup","[0.325,0.675,0.15,0.85]","","",""
"sailing-trial","247","888696","0.0-11.0-212.0","","","","false","","","","","","","","","","167","","168.5","","3","1","arrowright","1","arrowright","[0.325,0.675,0.15,0.85]","","",""
"sailing-trial","248","889760","0.0-11.0-213.0","","","","false","","","","","","","","","","null","","0.19999999995343387","","2","0","null","null","arrowup","[0.325,0.675,0.15,0.85]","","",""
"sailing-trial","249","892703","0.0-11.0-214.0","","","","false","","","","","","","","","","131.80000000004657","","202.20000000018626","","3","1","arrowright","1","arrowright","[0.325,0.675,0.15,0.85]","","",""
"sailing-trial","250","894503","0.0-11.0-215.0","","","","false","","","","","","","","","","null","","165.30000000004657","","3","1","null","null","arrowup","[0.325,0.675,0.15,0.85]","","",""
"sailing-trial","251","896814","0.0-11.0-216.0","","","","false","","","","","","","","","","109.20000000018626","","41.5999999998603","","3","0","arrowright","1","arrowright","[0.325,0.675,0.15,0.85]","","",""
"sailing-trial","252","898637","0.0-11.0-217.0","","","","false","","","","","","","","","","null","","219.89999999990687","","3","1","null","null","arrowup","[0.325,0.675,0.15,0.85]","","",""
"sailing-trial","253","900917","0.0-11.0-218.0","","","","false","","","","","","","","","","71.19999999995343","","45.10000000009313","","3","0","arrowright","1","arrowright","[0.85,0.15,0.675,0.325]","","",""
"sailing-trial","254","902786","0.0-11.0-219.0","","","","false","","","","","","","","","","null","","163.4000000001397","","2","1","null","null","arrowup","[0.85,0.15,0.675,0.325]","","",""
"sailing-trial","255","905027","0.0-11.0-220.0","","","","false","","","","","","","","","","118.9000000001397","","53.699999999953434","","3","0","arrowright","1","arrowright","[0.85,0.15,0.675,0.325]","","",""
"sailing-trial","256","906878","0.0-11.0-221.0","","","","false","","","","","","","","","","null","","272.30000000004657","","0","1","null","null","arrowup","[0.85,0.15,0.675,0.325]","","",""
"sailing-trial","257","909761","0.0-11.0-222.0","","","","false","","","","","","","","","","244.60000000009313","","52.0999999998603","","0","1","arrowleft","0","arrowleft","[0.85,0.15,0.675,0.325]","","",""
"sailing-trial","258","911008","0.0-11.0-223.0","","","","false","","","","","","","","","","null","","121.69999999995343","","1","0","null","null","arrowup","[0.85,0.15,0.675,0.325]","","",""
"sailing-trial","259","913894","0.0-11.0-224.0","","","","false","","","","","","","","","","143.5","","60.39999999990687","","0","1","arrowleft","0","arrowleft","[0.85,0.15,0.675,0.325]","","",""
"sailing-trial","260","915712","0.0-11.0-225.0","","","","false","","","","","","","","","","null","","160.39999999990687","","1","1","null","null","arrowup","[0.85,0.15,0.675,0.325]","","",""
"sailing-trial","261","919131","0.0-11.0-226.0","","","","false","","","","","","","","","","57","","798.5999999998603","","0","1","arrowleft","0","arrowleft","[0.85,0.15,0.675,0.325]","","",""
"sailing-trial","262","921020","0.0-11.0-227.0","","","","false","","","","","","","","","","null","","235.30000000004657","","0","1","null","null","arrowup","[0.85,0.15,0.675,0.325]","","",""
"sailing-trial","263","924036","0.0-11.0-228.0","","","","false","","","","","","","","","","114.0999999998603","","166","","0","1","arrowleft","0","arrowleft","[0.85,0.15,0.675,0.325]","","",""
"sailing-trial","264","925570","0.0-11.0-229.0","","","","false","","","","","","","","","","null","","0.2999999998137355","","3","1","null","null","arrowup","[0.85,0.15,0.675,0.325]","","",""
"sailing-trial","265","928472","0.0-11.0-230.0","","","","false","","","","","","","","","","86.29999999981374","","96.5999999998603","","0","1","arrowleft","0","arrowleft","[0.85,0.15,0.675,0.325]","","",""
"sailing-trial","266","929682","0.0-11.0-231.0","","","","false","","","","","","","","","","null","","189.30000000004657","","1","0","null","null","arrowup","[0.85,0.15,0.675,0.325]","","",""
"sailing-trial","267","932578","0.0-11.0-232.0","","","","false","","","","","","","","","","154.10000000009313","","77.60000000009313","","0","1","arrowleft","0","arrowleft","[0.85,0.15,0.675,0.325]","","",""
"sailing-trial","268","933889","0.0-11.0-233.0","","","","false","","","","","","","","","","null","","93.10000000009313","","1","0","null","null","arrowup","[0.85,0.15,0.675,0.325]","","",""
"sailing-trial","269","936248","0.0-11.0-234.0","","","","false","","","","","","","","","","130","","170.5","","0","0","arrowleft","0","arrowleft","[0.675,0.325,0.85,0.15]","","",""
"sailing-trial","270","937509","0.0-11.0-235.0","","","","false","","","","","","","","","","null","","129.19999999995343","","3","0","null","null","arrowup","[0.675,0.325,0.85,0.15]","","",""
"sailing-trial","271","940345","0.0-11.0-236.0","","","","false","","","","","","","","","","110.19999999995343","","166.5999999998603","","0","1","arrowleft","0","arrowleft","[0.675,0.325,0.85,0.15]","","",""
"sailing-trial","272","942054","0.0-11.0-237.0","","","","false","","","","","","","","","","null","","100.19999999995343","","0","1","null","null","arrowup","[0.675,0.325,0.85,0.15]","","",""
"sailing-trial","273","944862","0.0-11.0-238.0","","","","false","","","","","","","","","","148.5","","25.5","","0","1","arrowleft","0","arrowleft","[0.675,0.325,0.85,0.15]","","",""
"sailing-trial","274","946068","0.0-11.0-239.0","","","","false","","","","","","","","","","null","","54.300000000046566","","1","0","null","null","arrowup","[0.675,0.325,0.85,0.15]","","",""
"sailing-trial","275","948772","0.0-11.0-240.0","","","","false","","","","","","","","","","99.69999999995343","","46.699999999953434","","0","1","arrowleft","0","arrowleft","[0.675,0.325,0.85,0.15]","","",""
"sailing-trial","276","950454","0.0-11.0-241.0","","","","false","","","","","","","","","","null","","114.9000000001397","","2","1","null","null","arrowup","[0.675,0.325,0.85,0.15]","","",""
"sailing-trial","277","953429","0.0-11.0-242.0","","","","false","","","","","","","","","","125.60000000009313","","157","","0","1","arrowleft","0","arrowleft","[0.675,0.325,0.85,0.15]","","",""
"sailing-trial","278","954980","0.0-11.0-243.0","","","","false","","","","","","","","","","null","","20.600000000093132","","2","1","null","null","arrowup","[0.675,0.325,0.85,0.15]","","",""
"sailing-trial","279","957988","0.0-11.0-244.0","","","","false","","","","","","","","","","146.29999999981374","","170.70000000018626","","0","1","arrowleft","0","arrowleft","[0.675,0.325,0.85,0.15]","","",""
"sailing-trial","280","959702","0.0-11.0-245.0","","","","false","","","","","","","","","","null","","0.09999999962747097","","2","1","null","null","arrowup","[0.675,0.325,0.85,0.15]","","",""
"sailing-trial","281","962215","0.0-11.0-246.0","","","","false","","","","","","","","","","118.5","","211.20000000018626","","0","0","arrowleft","0","arrowleft","[0.675,0.325,0.85,0.15]","","",""
"sailing-trial","282","963971","0.0-11.0-247.0","","","","false","","","","","","","","","","null","","137.1999999997206","","2","1","null","null","arrowup","[0.675,0.325,0.85,0.15]","","",""
"sailing-trial","283","966360","0.0-11.0-248.0","","","","false","","","","","","","","","","37.6999999997206","","178.39999999990687","","0","0","arrowleft","0","arrowleft","[0.675,0.325,0.85,0.15]","","",""
"sailing-trial","284","968063","0.0-11.0-249.0","","","","false","","","","","","","","","","null","","85.70000000018626","","0","1","null","null","arrowup","[0.675,0.325,0.85,0.15]","","",""
"sailing-trial","285","970864","0.0-11.0-250.0","","","","false","","","","","","","","","","132","","94.89999999990687","","2","1","arrowright","1","arrowleft","[0.85,0.15,0.675,0.325]","","",""
"sailing-trial","286","971978","0.0-11.0-251.0","","","","false","","","","","","","","","","null","","13.899999999906868","","0","0","null","null","arrowup","[0.85,0.15,0.675,0.325]","","",""
"sailing-trial","287","974188","0.0-11.0-252.0","","","","false","","","","","","","","","","145.3000000002794","","22.700000000186265","","2","0","arrowright","1","arrowleft","[0.85,0.15,0.675,0.325]","","",""
"sailing-trial","288","976021","0.0-11.0-253.0","","","","false","","","","","","","","","","null","","122","","0","1","null","null","arrowup","[0.85,0.15,0.675,0.325]","","",""
"sailing-trial","289","978323","0.0-11.0-254.0","","","","false","","","","","","","","","","228.79999999981374","","23.299999999813735","","1","0","arrowleft","0","arrowright","[0.85,0.15,0.675,0.325]","","",""
"sailing-trial","290","980113","0.0-11.0-255.0","","","","false","","","","","","","","","","null","","194","","2","1","null","null","arrowup","[0.85,0.15,0.675,0.325]","","",""
"sailing-trial","291","982829","0.0-11.0-256.0","","","","false","","","","","","","","","","83.10000000009313","","54.60000000009313","","2","1","arrowright","1","arrowleft","[0.85,0.15,0.675,0.325]","","",""
"sailing-trial","292","984638","0.0-11.0-257.0","","","","false","","","","","","","","","","null","","171.8000000002794","","0","1","null","null","arrowup","[0.85,0.15,0.675,0.325]","","",""
"sailing-trial","293","986817","0.0-11.0-258.0","","","","false","","","","","","","","","","6.7999999998137355","","67.20000000018626","","2","0","arrowright","1","arrowleft","[0.85,0.15,0.675,0.325]","","",""
"sailing-trial","294","988514","0.0-11.0-259.0","","","","false","","","","","","","","","","null","","151.10000000009313","","3","1","null","null","arrowup","[0.85,0.15,0.675,0.325]","","",""
"sailing-trial","295","990721","0.0-11.0-260.0","","","","false","","","","","","","","","","121.10000000009313","","40.5","","3","0","arrowright","1","arrowright","[0.85,0.15,0.675,0.325]","","",""
"sailing-trial","296","992039","0.0-11.0-261.0","","","","false","","","","","","","","","","null","","249.39999999990687","","3","0","null","null","arrowup","[0.85,0.15,0.675,0.325]","","",""
"sailing-trial","297","995090","0.0-11.0-262.0","","","","false","","","","","","","","","","289.5","","29.600000000093132","","0","1","arrowleft","0","arrowleft","[0.85,0.15,0.675,0.325]","","",""
"sailing-trial","298","996447","0.0-11.0-263.0","","","","false","","","","","","","","","","null","","175.3000000002794","","3","0","null","null","arrowup","[0.85,0.15,0.675,0.325]","","",""
"sailing-trial","299","999225","0.0-11.0-264.0","","","","false","","","","","","","","","","123.10000000009313","","73.60000000009313","","0","1","arrowleft","0","arrowleft","[0.85,0.15,0.675,0.325]","","",""
"sailing-trial","300","1000377","0.0-11.0-265.0","","","","false","","","","","","","","","","null","","74","","3","0","null","null","arrowup","[0.85,0.15,0.675,0.325]","","",""
"sailing-trial","301","1003214","0.0-11.0-266.0","","","","false","","","","","","","","","","134.29999999981374","","134.8000000002794","","0","1","arrowleft","0","arrowleft","[0.85,0.15,0.675,0.325]","","",""
"sailing-trial","302","1004447","0.0-11.0-267.0","","","","false","","","","","","","","","","null","","79.20000000018626","","2","0","null","null","arrowup","[0.85,0.15,0.675,0.325]","","",""
"sailing-trial","303","1007330","0.0-11.0-268.0","","","","false","","","","","","","","","","110.70000000018626","","204.89999999990687","","0","1","arrowleft","0","arrowleft","[0.675,0.325,0.85,0.15]","","",""
"sailing-trial","304","1008477","0.0-11.0-269.0","","","","false","","","","","","","","","","null","","115.8000000002794","","1","0","null","null","arrowup","[0.675,0.325,0.85,0.15]","","",""
"sailing-trial","305","1011355","0.0-11.0-270.0","","","","false","","","","","","","","","","128.89999999990687","","152.3000000002794","","0","1","arrowleft","0","arrowleft","[0.675,0.325,0.85,0.15]","","",""
"sailing-trial","306","1012680","0.0-11.0-271.0","","","","false","","","","","","","","","","null","","165.29999999981374","","3","0","null","null","arrowup","[0.675,0.325,0.85,0.15]","","",""
"sailing-trial","307","1014964","0.0-11.0-272.0","","","","false","","","","","","","","","","35.6999999997206","","185","","0","0","arrowleft","0","arrowleft","[0.675,0.325,0.85,0.15]","","",""
"sailing-trial","308","1016699","0.0-11.0-273.0","","","","false","","","","","","","","","","null","","160.1999999997206","","1","1","null","null","arrowup","[0.675,0.325,0.85,0.15]","","",""
"sailing-trial","309","1019299","0.0-11.0-274.0","","","","false","","","","","","","","","","0.5","","18.399999999906868","","0","1","arrowleft","0","arrowleft","[0.675,0.325,0.85,0.15]","","",""
"sailing-trial","310","1020947","0.0-11.0-275.0","","","","false","","","","","","","","","","null","","49.10000000009313","","0","1","null","null","arrowup","[0.675,0.325,0.85,0.15]","","",""
"sailing-trial","311","1023732","0.0-11.0-276.0","","","","false","","","","","","","","","","146.89999999990687","","113.70000000018626","","0","1","arrowleft","0","arrowleft","[0.675,0.325,0.85,0.15]","","",""
"sailing-trial","312","1024885","0.0-11.0-277.0","","","","false","","","","","","","","","","null","","38.799999999813735","","2","0","null","null","arrowup","[0.675,0.325,0.85,0.15]","","",""
"sailing-trial","313","1027798","0.0-11.0-278.0","","","","false","","","","","","","","","","90.1999999997206","","169.29999999981374","","0","1","arrowleft","0","arrowleft","[0.675,0.325,0.85,0.15]","","",""
"sailing-trial","314","1029415","0.0-11.0-279.0","","","","false","","","","","","","","","","null","","30.899999999906868","","0","1","null","null","arrowup","[0.675,0.325,0.85,0.15]","","",""
"sailing-trial","315","1031765","0.0-11.0-280.0","","","","false","","","","","","","","","","113.09999999962747","","28.200000000186265","","0","0","arrowleft","0","arrowleft","[0.675,0.325,0.85,0.15]","","",""
"sailing-trial","316","1033031","0.0-11.0-281.0","","","","false","","","","","","","","","","null","","180","","0","0","null","null","arrowup","[0.675,0.325,0.85,0.15]","","",""
"sailing-trial","317","1035312","0.0-11.0-282.0","","","","false","","","","","","","","","","180.39999999990687","","33.200000000186265","","0","0","arrowleft","0","arrowleft","[0.675,0.325,0.85,0.15]","","",""
"sailing-trial","318","1036612","0.0-11.0-283.0","","","","false","","","","","","","","","","null","","193","","1","0","null","null","arrowup","[0.675,0.325,0.85,0.15]","","",""
"sailing-trial","319","1039145","0.0-11.0-284.0","","","","false","","","","","","","","","","211.20000000018626","","174.6999999997206","","3","0","arrowright","1","arrowright","[0.675,0.325,0.85,0.15]","","",""
"sailing-trial","320","1040420","0.0-11.0-285.0","","","","false","","","","","","","","","","null","","139.39999999990687","","3","0","null","null","arrowup","[0.675,0.325,0.85,0.15]","","",""
"sailing-trial","321","1043457","0.0-11.0-286.0","","","","false","","","","","","","","","","353.90000000037253","","76.70000000018626","","2","1","arrowright","1","arrowleft","[0.85,0.15,0.675,0.325]","","",""
"sailing-trial","322","1045264","0.0-11.0-287.0","","","","false","","","","","","","","","","null","","159.29999999981374","","0","1","null","null","arrowup","[0.85,0.15,0.675,0.325]","","",""
"sailing-trial","323","1048232","0.0-11.0-288.0","","","","false","","","","","","","","","","57.10000000009313","","167.70000000018626","","2","1","arrowright","1","arrowleft","[0.85,0.15,0.675,0.325]","","",""
"sailing-trial","324","1049917","0.0-11.0-289.0","","","","false","","","","","","","","","","null","","0.19999999972060323","","0","1","null","null","arrowup","[0.85,0.15,0.675,0.325]","","",""
"sailing-trial","325","1052308","0.0-11.0-290.0","","","","false","","","","","","","","","","132.1999999997206","","114.60000000009313","","2","0","arrowright","1","arrowleft","[0.85,0.15,0.675,0.325]","","",""
"sailing-trial","326","1054024","0.0-11.0-291.0","","","","false","","","","","","","","","","null","","151.79999999981374","","0","1","null","null","arrowup","[0.85,0.15,0.675,0.325]","","",""
"sailing-trial","327","1056857","0.0-11.0-292.0","","","","false","","","","","","","","","","187.8000000002794","","87.60000000009313","","2","1","arrowright","1","arrowleft","[0.85,0.15,0.675,0.325]","","",""
"sailing-trial","328","1058130","0.0-11.0-293.0","","","","false","","","","","","","","","","null","","167.60000000009313","","2","0","null","null","arrowup","[0.85,0.15,0.675,0.325]","","",""
"sailing-trial","329","1060656","0.0-11.0-294.0","","","","false","","","","","","","","","","188","","169.20000000018626","","0","0","arrowleft","0","arrowleft","[0.85,0.15,0.675,0.325]","","",""
"sailing-trial","330","1062565","0.0-11.0-295.0","","","","false","","","","","","","","","","null","","299.89999999990687","","3","1","null","null","arrowup","[0.85,0.15,0.675,0.325]","","",""
"sailing-trial","331","1065417","0.0-11.0-296.0","","","","false","","","","","","","","","","130.40000000037253","","83","","0","1","arrowleft","0","arrowleft","[0.85,0.15,0.675,0.325]","","",""
"sailing-trial","332","1067674","0.0-11.0-297.0","","","","false","","","","","","","","","","null","","506.79999999981374","","0","1","null","null","arrowup","[0.85,0.15,0.675,0.325]","","",""
"sailing-trial","333","1070390","0.0-11.0-298.0","","","","false","","","","","","","","","","71.60000000009313","","27.699999999720603","","0","1","arrowleft","0","arrowleft","[0.85,0.15,0.675,0.325]","","",""
"sailing-trial","334","1072132","0.0-11.0-299.0","","","","false","","","","","","","","","","null","","117.5","","2","1","null","null","arrowup","[0.85,0.15,0.675,0.325]","","",""
"sailing-trial","335","1074824","0.0-11.0-300.0","","","","false","","","","","","","","","","79.60000000009313","","71.89999999990687","","0","1","arrowleft","0","arrowleft","[0.85,0.15,0.675,0.325]","","",""
"sailing-trial","336","1075948","0.0-11.0-301.0","","","","false","","","","","","","","","","null","","51.60000000009313","","1","0","null","null","arrowup","[0.85,0.15,0.675,0.325]","","",""
"sailing-trial","337","1078197","0.0-11.0-302.0","","","","false","","","","","","","","","","164","","16","","0","0","arrowleft","0","arrowleft","[0.325,0.675,0.15,0.85]","","",""
"sailing-trial","338","1079496","0.0-11.0-303.0","","","","false","","","","","","","","","","null","","184.10000000009313","","2","0","null","null","arrowup","[0.325,0.675,0.15,0.85]","","",""
"sailing-trial","339","1081989","0.0-11.0-304.0","","","","false","","","","","","","","","","360.20000000018626","","77.5","","2","0","arrowright","1","arrowleft","[0.325,0.675,0.15,0.85]","","",""
"sailing-trial","340","1083284","0.0-11.0-305.0","","","","false","","","","","","","","","","null","","178.3000000002794","","1","0","null","null","arrowup","[0.325,0.675,0.15,0.85]","","",""
"sailing-trial","341","1085790","0.0-11.0-306.0","","","","false","","","","","","","","","","281.10000000009313","","63.799999999813735","","0","0","arrowleft","0","arrowleft","[0.325,0.675,0.15,0.85]","","",""
"sailing-trial","342","1087070","0.0-11.0-307.0","","","","false","","","","","","","","","","null","","143.3000000002794","","2","0","null","null","arrowup","[0.325,0.675,0.15,0.85]","","",""
"sailing-trial","343","1089493","0.0-11.0-308.0","","","","false","","","","","","","","","","108","","187.70000000018626","","3","0","arrowright","1","arrowright","[0.325,0.675,0.15,0.85]","","",""
"sailing-trial","344","1091334","0.0-11.0-309.0","","","","false","","","","","","","","","","null","","200.5","","0","1","null","null","arrowup","[0.325,0.675,0.15,0.85]","","",""
"sailing-trial","345","1095266","0.0-11.0-310.0","","","","false","","","","","","","","","","15.099999999627471","","1251.3999999999069","","0","1","arrowleft","0","arrowleft","[0.325,0.675,0.15,0.85]","","",""
"sailing-trial","346","1097726","0.0-11.0-311.0","","","","false","","","","","","","","","","null","","815.6000000000931","","1","1","null","null","arrowup","[0.325,0.675,0.15,0.85]","","",""
"sailing-trial","347","1100052","0.0-11.0-312.0","","","","false","","","","","","","","","","159.60000000009313","","13.700000000186265","","0","0","arrowleft","0","arrowleft","[0.325,0.675,0.15,0.85]","","",""
"sailing-trial","348","1101734","0.0-11.0-313.0","","","","false","","","","","","","","","","null","","110.89999999990687","","2","1","null","null","arrowup","[0.325,0.675,0.15,0.85]","","",""
"sailing-trial","349","1105276","0.0-11.0-314.0","","","","false","","","","","","","","","","646.2000000001863","","185.60000000009313","","1","1","arrowleft","0","arrowright","[0.325,0.675,0.15,0.85]","","",""
"sailing-trial","350","1106479","0.0-11.0-315.0","","","","false","","","","","","","","","","null","","67.89999999990687","","1","0","null","null","arrowup","[0.325,0.675,0.15,0.85]","","",""
"sailing-trial","351","1109476","0.0-11.0-316.0","","","","false","","","","","","","","","","286.70000000018626","","1.8999999999068677","","1","1","arrowleft","0","arrowright","[0.325,0.675,0.15,0.85]","","",""
"sailing-trial","352","1110644","0.0-11.0-317.0","","","","false","","","","","","","","","","null","","108.79999999981374","","0","0","null","null","arrowup","[0.325,0.675,0.15,0.85]","","",""
"sailing-trial","353","1113550","0.0-11.0-318.0","","","","false","","","","","","","","","","155.20000000018626","","153","","1","1","arrowleft","0","arrowright","[0.325,0.675,0.15,0.85]","","",""
"sailing-trial","354","1114717","0.0-11.0-319.0","","","","false","","","","","","","","","","null","","99.5","","2","0","null","null","arrowup","[0.325,0.675,0.15,0.85]","","",""
"sailing-trial","355","1117452","0.0-11.0-320.0","","","","false","","","","","","","","","","124.5","","1.1000000000931323","","1","1","arrowleft","0","arrowright","[0.325,0.675,0.15,0.85]","","",""
"sailing-trial","356","1119237","0.0-11.0-321.0","","","","false","","","","","","","","","","null","","163.90000000037253","","2","1","null","null","arrowup","[0.325,0.675,0.15,0.85]","","",""
"sailing-trial","357","1121451","0.0-11.0-322.0","","","","false","","","","","","","","","","31.800000000279397","","98.89999999990687","","1","0","arrowleft","0","arrowright","[0.325,0.675,0.15,0.85]","","",""
"sailing-trial","358","1123135","0.0-11.0-323.0","","","","false","","","","","","","","","","null","","149.39999999990687","","1","1","null","null","arrowup","[0.325,0.675,0.15,0.85]","","",""
"sailing-trial","359","1125894","0.0-11.0-324.0","","","","false","","","","","","","","","","16.899999999906868","","163.60000000009313","","1","1","arrowleft","0","arrowright","[0.15,0.85,0.325,0.675]","","",""
"sailing-trial","360","1127134","0.0-11.0-325.0","","","","false","","","","","","","","","","null","","97.5","","1","0","null","null","arrowup","[0.15,0.85,0.325,0.675]","","",""
"sailing-trial","361","1129435","0.0-11.0-326.0","","","","false","","","","","","","","","","112.20000000018626","","93.20000000018626","","1","0","arrowleft","0","arrowright","[0.15,0.85,0.325,0.675]","","",""
"sailing-trial","362","1131178","0.0-11.0-327.0","","","","false","","","","","","","","","","null","","145.5","","1","1","null","null","arrowup","[0.15,0.85,0.325,0.675]","","",""
"sailing-trial","363","1133992","0.0-11.0-328.0","","","","false","","","","","","","","","","46.10000000009313","","139.60000000009313","","3","1","arrowright","1","arrowright","[0.15,0.85,0.325,0.675]","","",""
"sailing-trial","364","1135917","0.0-11.0-329.0","","","","false","","","","","","","","","","null","","215.8000000002794","","3","1","null","null","arrowup","[0.15,0.85,0.325,0.675]","","",""
"sailing-trial","365","1138243","0.0-11.0-330.0","","","","false","","","","","","","","","","93.29999999981374","","10.5","","3","0","arrowright","1","arrowright","[0.15,0.85,0.325,0.675]","","",""
"sailing-trial","366","1139584","0.0-11.0-331.0","","","","false","","","","","","","","","","null","","150.1999999997206","","2","0","null","null","arrowup","[0.15,0.85,0.325,0.675]","","",""
"sailing-trial","367","1142385","0.0-11.0-332.0","","","","false","","","","","","","","","","80.20000000018626","","166.29999999981374","","3","1","arrowright","1","arrowright","[0.15,0.85,0.325,0.675]","","",""
"sailing-trial","368","1143501","0.0-11.0-333.0","","","","false","","","","","","","","","","null","","89.8000000002794","","0","0","null","null","arrowup","[0.15,0.85,0.325,0.675]","","",""
"sailing-trial","369","1146269","0.0-11.0-334.0","","","","false","","","","","","","","","","150.10000000009313","","20.799999999813735","","3","1","arrowright","1","arrowright","[0.15,0.85,0.325,0.675]","","",""
"sailing-trial","370","1147375","0.0-11.0-335.0","","","","false","","","","","","","","","","null","","13.5","","1","0","null","null","arrowup","[0.15,0.85,0.325,0.675]","","",""
"sailing-trial","371","1150310","0.0-11.0-336.0","","","","false","","","","","","","","","","74.29999999981374","","277.39999999990687","","3","1","arrowright","1","arrowright","[0.15,0.85,0.325,0.675]","","",""
"sailing-trial","372","1151902","0.0-11.0-337.0","","","","false","","","","","","","","","","null","","70.10000000009313","","3","1","null","null","arrowup","[0.15,0.85,0.325,0.675]","","",""
"sailing-trial","373","1154594","0.0-11.0-338.0","","","","false","","","","","","","","","","21.5","","99.5","","3","1","arrowright","1","arrowright","[0.15,0.85,0.325,0.675]","","",""
"sailing-trial","374","1155866","0.0-11.0-339.0","","","","false","","","","","","","","","","null","","75.60000000009313","","1","0","null","null","arrowup","[0.15,0.85,0.325,0.675]","","",""
"sailing-trial","375","1158669","0.0-11.0-340.0","","","","false","","","","","","","","","","210.39999999990687","","45","","3","1","arrowright","1","arrowright","[0.15,0.85,0.325,0.675]","","",""
"sailing-trial","376","1159845","0.0-11.0-341.0","","","","false","","","","","","","","","","null","","12","","3","0","null","null","arrowup","[0.15,0.85,0.325,0.675]","","",""
"sailing-trial","377","1162603","0.0-11.0-342.0","","","","false","","","","","","","","","","48.39999999990687","","17.5","","3","1","arrowright","1","arrowright","[0.15,0.85,0.325,0.675]","","",""
"sailing-trial","378","1163802","0.0-11.0-343.0","","","","false","","","","","","","","","","null","","155.90000000037253","","0","0","null","null","arrowup","[0.15,0.85,0.325,0.675]","","",""
"sailing-trial","379","1166444","0.0-11.0-344.0","","","","false","","","","","","","","","","54","","33.60000000009313","","3","1","arrowright","1","arrowright","[0.325,0.675,0.15,0.85]","","",""
"sailing-trial","380","1167685","0.0-11.0-345.0","","","","false","","","","","","","","","","null","","184.39999999990687","","0","0","null","null","arrowup","[0.325,0.675,0.15,0.85]","","",""
"sailing-trial","381","1170311","0.0-11.0-346.0","","","","false","","","","","","","","","","22.200000000186265","","28.700000000186265","","3","1","arrowright","1","arrowright","[0.325,0.675,0.15,0.85]","","",""
"sailing-trial","382","1171543","0.0-11.0-347.0","","","","false","","","","","","","","","","null","","65.89999999990687","","2","0","null","null","arrowup","[0.325,0.675,0.15,0.85]","","",""
"sailing-trial","383","1174303","0.0-11.0-348.0","","","","false","","","","","","","","","","24.399999999906868","","166.10000000009313","","3","1","arrowright","1","arrowright","[0.325,0.675,0.15,0.85]","","",""
"sailing-trial","384","1175954","0.0-11.0-349.0","","","","false","","","","","","","","","","null","","75.5","","3","1","null","null","arrowup","[0.325,0.675,0.15,0.85]","","",""
"sailing-trial","385","1178162","0.0-11.0-350.0","","","","false","","","","","","","","","","165","","1.3999999999068677","","3","0","arrowright","1","arrowright","[0.325,0.675,0.15,0.85]","","",""
"sailing-trial","386","1179539","0.0-11.0-351.0","","","","false","","","","","","","","","","null","","174.5","","2","0","null","null","arrowup","[0.325,0.675,0.15,0.85]","","",""
"sailing-trial","387","1182478","0.0-11.0-352.0","","","","false","","","","","","","","","","80.39999999990687","","174.1999999997206","","3","1","arrowright","1","arrowright","[0.325,0.675,0.15,0.85]","","",""
"sailing-trial","388","1184078","0.0-11.0-353.0","","","","false","","","","","","","","","","null","","35.60000000009313","","3","1","null","null","arrowup","[0.325,0.675,0.15,0.85]","","",""
"sailing-trial","389","1186828","0.0-11.0-354.0","","","","false","","","","","","","","","","99.89999999990687","","39","","3","1","arrowright","1","arrowright","[0.325,0.675,0.15,0.85]","","",""
"sailing-trial","390","1187940","0.0-11.0-355.0","","","","false","","","","","","","","","","null","","72","","2","0","null","null","arrowup","[0.325,0.675,0.15,0.85]","","",""
"sailing-trial","391","1190653","0.0-11.0-356.0","","","","false","","","","","","","","","","151.8000000002794","","4.100000000093132","","3","1","arrowright","1","arrowright","[0.325,0.675,0.15,0.85]","","",""
"sailing-trial","392","1191907","0.0-11.0-357.0","","","","false","","","","","","","","","","null","","44.3000000002794","","0","0","null","null","arrowup","[0.325,0.675,0.15,0.85]","","",""
"sailing-trial","393","1194680","0.0-11.0-358.0","","","","false","","","","","","","","","","27.200000000186265","","195.5","","3","1","arrowright","1","arrowright","[0.325,0.675,0.15,0.85]","","",""
"sailing-trial","394","1196052","0.0-11.0-359.0","","","","false","","","","","","","","","","null","","160.89999999990687","","0","0","null","null","arrowup","[0.325,0.675,0.15,0.85]","","",""
"sailing-trial","395","1198820","0.0-11.0-360.0","","","","false","","","","","","","","","","29.200000000186265","","28.399999999906868","","3","1","arrowright","1","arrowright","[0.325,0.675,0.15,0.85]","","",""
"sailing-trial","396","1200545","0.0-11.0-361.0","","","","false","","","","","","","","","","null","","0.09999999962747097","","0","1","null","null","arrowup","[0.325,0.675,0.15,0.85]","","",""
"sailing-trial","397","1203264","0.0-11.0-362.0","","","","false","","","","","","","","","","153.10000000009313","","39","","3","1","arrowright","1","arrowright","[0.325,0.675,0.15,0.85]","","",""
"sailing-trial","398","1204411","0.0-11.0-363.0","","","","false","","","","","","","","","","null","","0.3000000002793968","","1","0","null","null","arrowup","[0.325,0.675,0.15,0.85]","","",""
"sailing-trial","399","1207221","0.0-11.0-364.0","","","","false","","","","","","","","","","75.3000000002794","","59.8000000002794","","3","1","arrowright","1","arrowright","[0.325,0.675,0.15,0.85]","","",""
"sailing-trial","400","1208804","0.0-11.0-365.0","","","","false","","","","","","","","","","null","","43.40000000037253","","3","1","null","null","arrowup","[0.325,0.675,0.15,0.85]","","",""
"sailing-trial","401","1211216","0.0-11.0-366.0","","","","false","","","","","","","","","","212","","39.89999999990687","","3","0","arrowright","1","arrowright","[0.675,0.325,0.85,0.15]","","",""
"sailing-trial","402","1212429","0.0-11.0-367.0","","","","false","","","","","","","","","","null","","116.89999999990687","","1","0","null","null","arrowup","[0.675,0.325,0.85,0.15]","","",""
"sailing-trial","403","1214943","0.0-11.0-368.0","","","","false","","","","","","","","","","179","","180.60000000009313","","3","0","arrowright","1","arrowright","[0.675,0.325,0.85,0.15]","","",""
"sailing-trial","404","1216704","0.0-11.0-369.0","","","","false","","","","","","","","","","null","","67","","1","1","null","null","arrowup","[0.675,0.325,0.85,0.15]","","",""
"sailing-trial","405","1219233","0.0-11.0-370.0","","","","false","","","","","","","","","","227.60000000009313","","111.29999999981374","","3","0","arrowright","1","arrowright","[0.675,0.325,0.85,0.15]","","",""
"sailing-trial","406","1220462","0.0-11.0-371.0","","","","false","","","","","","","","","","null","","162.10000000009313","","2","0","null","null","arrowup","[0.675,0.325,0.85,0.15]","","",""
"sailing-trial","407","1222887","0.0-11.0-372.0","","","","false","","","","","","","","","","126.10000000009313","","108.5","","1","0","arrowleft","0","arrowright","[0.675,0.325,0.85,0.15]","","",""
"sailing-trial","408","1224996","0.0-11.0-373.0","","","","false","","","","","","","","","","null","","554.7999999998137","","0","1","null","null","arrowup","[0.675,0.325,0.85,0.15]","","",""
"sailing-trial","409","1227629","0.0-11.0-374.0","","","","false","","","","","","","","","","18","","12.899999999906868","","0","1","arrowleft","0","arrowleft","[0.675,0.325,0.85,0.15]","","",""
"sailing-trial","410","1228749","0.0-11.0-375.0","","","","false","","","","","","","","","","null","","61","","3","0","null","null","arrowup","[0.675,0.325,0.85,0.15]","","",""
"sailing-trial","411","1231094","0.0-11.0-376.0","","","","false","","","","","","","","","","98.79999999981374","","161.10000000009313","","0","0","arrowleft","0","arrowleft","[0.675,0.325,0.85,0.15]","","",""
"sailing-trial","412","1232979","0.0-11.0-377.0","","","","false","","","","","","","","","","null","","153.8000000002794","","0","1","null","null","arrowup","[0.675,0.325,0.85,0.15]","","",""
"sailing-trial","413","1235604","0.0-11.0-378.0","","","","false","","","","","","","","","","62","","18.399999999906868","","0","1","arrowleft","0","arrowleft","[0.675,0.325,0.85,0.15]","","",""
"sailing-trial","414","1236911","0.0-11.0-379.0","","","","false","","","","","","","","","","null","","94.1999999997206","","1","0","null","null","arrowup","[0.675,0.325,0.85,0.15]","","",""
"sailing-trial","415","1239704","0.0-11.0-380.0","","","","false","","","","","","","","","","98.60000000009313","","127.5","","0","1","arrowleft","0","arrowleft","[0.675,0.325,0.85,0.15]","","",""
"sailing-trial","416","1241331","0.0-11.0-381.0","","","","false","","","","","","","","","","null","","76.70000000018626","","1","1","null","null","arrowup","[0.675,0.325,0.85,0.15]","","",""
"sailing-trial","417","1243518","0.0-11.0-382.0","","","","false","","","","","","","","","","58.799999999813735","","61.89999999990687","","0","0","arrowleft","0","arrowleft","[0.675,0.325,0.85,0.15]","","",""
"sailing-trial","418","1245280","0.0-11.0-383.0","","","","false","","","","","","","","","","null","","160.90000000037253","","2","1","null","null","arrowup","[0.675,0.325,0.85,0.15]","","",""
"sailing-trial","419","1247579","0.0-11.0-384.0","","","","false","","","","","","","","","","89.10000000009313","","154.40000000037253","","0","0","arrowleft","0","arrowleft","[0.15,0.85,0.325,0.675]","","",""
"sailing-trial","420","1248940","0.0-11.0-385.0","","","","false","","","","","","","","","","null","","155.39999999990687","","2","0","null","null","arrowup","[0.15,0.85,0.325,0.675]","","",""
"sailing-trial","421","1251988","0.0-11.0-386.0","","","","false","","","","","","","","","","361.29999999981374","","83.39999999990687","","1","1","arrowleft","0","arrowright","[0.15,0.85,0.325,0.675]","","",""
"sailing-trial","422","1253747","0.0-11.0-387.0","","","","false","","","","","","","","","","null","","41.10000000009313","","3","1","null","null","arrowup","[0.15,0.85,0.325,0.675]","","",""
"sailing-trial","423","1256714","0.0-11.0-388.0","","","","false","","","","","","","","","","128.70000000018626","","168.79999999981374","","1","1","arrowleft","0","arrowright","[0.15,0.85,0.325,0.675]","","",""
"sailing-trial","424","1258354","0.0-11.0-389.0","","","","false","","","","","","","","","","null","","60.299999999813735","","2","1","null","null","arrowup","[0.15,0.85,0.325,0.675]","","",""
"sailing-trial","425","1261241","0.0-11.0-390.0","","","","false","","","","","","","","","","156.79999999981374","","90","","1","1","arrowleft","0","arrowright","[0.15,0.85,0.325,0.675]","","",""
"sailing-trial","426","1262879","0.0-11.0-391.0","","","","false","","","","","","","","","","null","","12.400000000372529","","3","1","null","null","arrowup","[0.15,0.85,0.325,0.675]","","",""
"sailing-trial","427","1265531","0.0-11.0-392.0","","","","false","","","","","","","","","","52.39999999990687","","44.799999999813735","","1","1","arrowleft","0","arrowright","[0.15,0.85,0.325,0.675]","","",""
"sailing-trial","428","1267247","0.0-11.0-393.0","","","","false","","","","","","","","","","null","","135.1999999997206","","2","1","null","null","arrowup","[0.15,0.85,0.325,0.675]","","",""
"sailing-trial","429","1270148","0.0-11.0-394.0","","","","false","","","","","","","","","","69.5","","227","","1","1","arrowleft","0","arrowright","[0.15,0.85,0.325,0.675]","","",""
"sailing-trial","430","1271798","0.0-11.0-395.0","","","","false","","","","","","","","","","null","","1.3999999999068677","","1","1","null","null","arrowup","[0.15,0.85,0.325,0.675]","","",""
"sailing-trial","431","1274598","0.0-11.0-396.0","","","","false","","","","","","","","","","122.89999999990687","","122.1999999997206","","1","1","arrowleft","0","arrowright","[0.15,0.85,0.325,0.675]","","",""
"sailing-trial","432","1276155","0.0-11.0-397.0","","","","false","","","","","","","","","","null","","31","","1","1","null","null","arrowup","[0.15,0.85,0.325,0.675]","","",""
"sailing-trial","433","1279073","0.0-11.0-398.0","","","","false","","","","","","","","","","171.29999999981374","","41.6999999997206","","1","1","arrowleft","0","arrowright","[0.15,0.85,0.325,0.675]","","",""
"sailing-trial","434","1280261","0.0-11.0-399.0","","","","false","","","","","","","","","","null","","154.1999999997206","","0","0","null","null","arrowup","[0.15,0.85,0.325,0.675]","","",""
"instructions","435","1287283","0.0-12.0","","","","","","","","","","7020.200000000186","","","","","","","","","","","","","","","","[{""page_index"":0,""viewing_time"":7019.700000000186}]"
"survey-debrief","436","1399269","0.0-13.0","","","","","","","","","","111982.30000000028","","","","","","","","","","","","","","{""difficulty"":""5"",""fun"":""4"",""clarity"":""4"",""strategy"":""If a shop didn't give treasure 2 times in a row, I started looking through others, and generally stuck to the same shop  otherwise."",""feedback"":""the instructions could have made at clear that every turn would alternate between picking an island and then being in fog, and that they were always back and forth, not ranndom""}","",""
