"trial_type","trial_index","time_elapsed","internal_node_id","value","metadata","success","timeout","failed_images","failed_audio","failed_video","browser_interaction","low_quality","rt","stimulus","response","button_pressed","island_rt","island_response","boat_rt","boat_response","boat","reward","island_key","island","boat_key","reward_probabilities","responses","num_errors","view_history"
"pavlovia","0","6","0.0-0.0","","","","","","","","","","","","","","","","","","","","","","","","","",""
"call-function","1","7","0.0-1.0","","{""task_version"":""sailing_part1_v1"",""task_condition"":""good"",""boats"":[""A"",""B"",""D"",""C""],""boats_demo"":[""H"",""G"",""F"",""E""],""islands"":[""A"",""B""],""subject_id"":""13897"",""age"":""14"",""gender"":""Female""}","","","","","","","","","","","","","","","","","","","","","","","",""
"preload","2","4184","0.0-2.0","","","true","false","[]","[]","[]","[{""event"":""fullscreenenter"",""trial"":3,""time"":6258}]","false","","","","","","","","","","","","","","","","",""
"fullscreen","3","7233","0.0-3.0","","","true","","","","","","","","","","","","","","","","","","","","","","",""
"audio-keyboard-response","4","9421","0.0-4.0-0.0","","","","","","","","","","2000","audio/beep_loop.wav"," ","","","","","","","","","","","","","",""
"audio-test","5","11948","0.0-4.0-1.0","","","","","","","","","","null","audio/turtle.mp3","","3","","","","","","","","","","","","",""
"audio-test","6","14156","0.0-4.0-2.0","","","","","","","","","","null","audio/shark.mp3","","2","","","","","","","","","","","","",""
"sailing-instructions","7","50129","0.0-5.0-0.0-0.0","","","","","","","","","","","","","","null","null","null","null","null","null","","","","","","",""
"sailing-trial","8","55454","0.0-5.0-0.0-1.0-0.0","","","","false","","","","","","","","","","4195.199999809265","","null","","null","null","arrowleft","0","null","null","","",""
"sailing-trial","9","58113","0.0-5.0-0.0-1.0-1.0","","","","false","","","","","","","","","","1548.9000000953674","","null","","null","null","arrowright","1","null","null","","",""
"sailing-trial","10","62413","0.0-5.0-0.0-1.0-2.0","","","","false","","","","","","","","","","3163.0999999046326","","null","","null","null","arrowleft","0","null","null","","",""
"sailing-instructions","11","138175","0.0-5.0-0.0-2.0","","","","","","","","","","","","","","null","null","null","null","0","null","","","","","","",""
"sailing-trial","12","147544","0.0-5.0-0.0-3.0-0.0","","","","false","","","","","","","","","","null","","4804.900000095367","","2","1","null","null","arrowleft","[1,1,1,1]","","",""
"sailing-trial","13","152541","0.0-5.0-0.0-3.0-1.0","","","","false","","","","","","","","","","null","","1785.9000000953674","","3","1","null","null","arrowright","[1,1,1,1]","","",""
"sailing-trial","14","157524","0.0-5.0-0.0-3.0-2.0","","","","false","","","","","","","","","","null","","2180.699999809265","","2","0","null","null","arrowleft","[0,0,0,0]","","",""
"sailing-instructions","15","200017","0.0-5.0-0.0-4.0","","","","","","","","","","","","","","null","null","null","null","null","null","","","","","","",""
"sailing-comprehension","16","225094","0.0-5.0-0.0-5.0","","","","","","","","","","21091.700000047684","","","","","","","","","","","","","","[""true"",""true"",""false"",""true""]","0",""
"sailing-instructions","17","329853","0.0-6.0-0.0-0.0","","","","","","","","","","","","","","null","null","null","null","null","null","","","","","","",""
"sailing-comprehension","18","346469","0.0-6.0-0.0-1.0","","","","","","","","","","14306","","","","","","","","","","","","","","[""true"",""false"",""true""]","0",""
"sailing-instructions","19","360669","0.0-7.0-0.0-0.0","","","","","","","","","","","","","","null","null","null","null","null","null","","","","","","",""
"sailing-trial","20","366990","0.0-7.0-0.0-1.0-0.0","","","","false","","","","","","","","","","null","","3286.0999999046326","","0","0","null","null","arrowup","[0.2,0.8,0.2,0.8]","","",""
"sailing-trial","21","371745","0.0-7.0-0.0-1.0-1.0","","","","false","","","","","","","","","","null","","2383.9000000953674","","1","1","null","null","arrowup","[0.2,0.8,0.2,0.8]","","",""
"sailing-trial","22","376463","0.0-7.0-0.0-1.0-2.0","","","","false","","","","","","","","","","null","","2578","","2","0","null","null","arrowup","[0.2,0.8,0.2,0.8]","","",""
"sailing-trial","23","380851","0.0-7.0-0.0-1.0-3.0","","","","false","","","","","","","","","","null","","1891.7000000476837","","3","1","null","null","arrowup","[0.2,0.8,0.2,0.8]","","",""
"sailing-comprehension","24","390379","0.0-7.0-0.0-2.0","","","","","","","","","","7731.5","","","","","","","","","","","","","","[""false""]","0",""
"sailing-instructions","25","401727","0.0-8.0-0.0-0.0","","","","","","","","","","","","","","null","null","null","null","null","null","","","","","","",""
"sailing-comprehension","26","408182","0.0-8.0-0.0-1.0","","","","","","","","","","3287.399999856949","","","","","","","","","","","","","","[""true""]","0",""
"sailing-instructions","27","438824","0.0-9.0-0.0-0.0","","","","","","","","","","","","","","null","null","null","null","null","null","","","","","","",""
"sailing-trial","28","449793","0.0-9.0-0.0-1.0-0.0","","","","false","","","","","","","","","","5022.700000047684","","1417.7999999523163","","2","0","arrowright","1","arrowleft","[0.2,0.8,0.2,0.8]","","",""
"sailing-trial","29","455843","0.0-9.0-0.0-1.0-1.0","","","","false","","","","","","","","","","1597.8000001907349","","675.8999998569489","","1","1","arrowleft","0","arrowright","[0.2,0.8,0.2,0.8]","","",""
"sailing-trial","30","459951","0.0-9.0-0.0-1.0-2.0","","","","false","","","","","","","","","","null","","2161.600000143051","","0","0","null","null","arrowup","[0.2,0.8,0.2,0.8]","","",""
"sailing-trial","31","465176","0.0-9.0-0.0-1.0-3.0","","","","false","","","","","","","","","","1987","","442.80000019073486","","2","0","arrowright","1","arrowleft","[0.2,0.8,0.2,0.8]","","",""
"sailing-trial","32","470377","0.0-9.0-0.0-1.0-4.0","","","","false","","","","","","","","","","null","","3052.5","","3","1","null","null","arrowup","[0.2,0.8,0.2,0.8]","","",""
"sailing-trial","33","476450","0.0-9.0-0.0-1.0-5.0","","","","false","","","","","","","","","","1605.7000000476837","","1280.5999999046326","","1","0","arrowleft","0","arrowright","[0.2,0.8,0.2,0.8]","","",""
"sailing-instructions","34","504384","0.0-10.0","","","","","","","","","","","","","","null","null","null","null","null","null","","","","","","",""
"sailing-trial","35","517540","0.0-11.0-0.0","","","","false","","","","","","","","","","3207.199999809265","","1058.7000000476837","","2","1","arrowright","1","arrowleft","[0.675,0.325,0.85,0.15]","","",""
"sailing-trial","36","523790","0.0-11.0-1.0","","","","false","","","","","","","","","","null","","3872","","0","1","null","null","arrowup","[0.675,0.325,0.85,0.15]","","",""
"sailing-trial","37","529456","0.0-11.0-2.0","","","","false","","","","","","","","","","1246.7999999523163","","490.2000000476837","","0","1","arrowleft","0","arrowleft","[0.675,0.325,0.85,0.15]","","",""
"sailing-trial","38","532922","0.0-11.0-3.0","","","","false","","","","","","","","","","null","","1315.8999998569489","","3","0","null","null","arrowup","[0.675,0.325,0.85,0.15]","","",""
"sailing-trial","39","538209","0.0-11.0-4.0","","","","false","","","","","","","","","","1044.9000000953674","","250.80000019073486","","1","0","arrowleft","0","arrowright","[0.675,0.325,0.85,0.15]","","",""
"sailing-trial","40","542275","0.0-11.0-5.0","","","","false","","","","","","","","","","null","","1202.2000000476837","","1","1","null","null","arrowup","[0.675,0.325,0.85,0.15]","","",""
"sailing-trial","41","548574","0.0-11.0-6.0","","","","false","","","","","","","","","","1328.8999998569489","","1113.2000000476837","","3","0","arrowright","1","arrowright","[0.675,0.325,0.85,0.15]","","",""
"sailing-trial","42","551958","0.0-11.0-7.0","","","","false","","","","","","","","","","null","","1153","","1","1","null","null","arrowup","[0.675,0.325,0.85,0.15]","","",""
"sailing-trial","43","555741","0.0-11.0-8.0","","","","false","","","","","","","","","","639.8999998569489","","163","","0","1","arrowleft","0","arrowleft","[0.675,0.325,0.85,0.15]","","",""
"sailing-trial","44","559022","0.0-11.0-9.0","","","","false","","","","","","","","","","null","","1253.8999998569489","","2","1","null","null","arrowup","[0.675,0.325,0.85,0.15]","","",""
"sailing-trial","45","564006","0.0-11.0-10.0","","","","false","","","","","","","","","","1034.9000000953674","","967.7000000476837","","0","1","arrowleft","0","arrowleft","[0.675,0.325,0.85,0.15]","","",""
"sailing-trial","46","569128","0.0-11.0-11.0","","","","false","","","","","","","","","","null","","2228.4000000953674","","1","0","null","null","arrowup","[0.675,0.325,0.85,0.15]","","",""
"sailing-trial","47","574521","0.0-11.0-12.0","","","","false","","","","","","","","","","902.2000000476837","","1546.7000000476837","","2","0","arrowright","1","arrowleft","[0.675,0.325,0.85,0.15]","","",""
"sailing-trial","48","577682","0.0-11.0-13.0","","","","false","","","","","","","","","","null","","1662.5999999046326","","3","0","null","null","arrowup","[0.675,0.325,0.85,0.15]","","",""
"sailing-trial","49","583523","0.0-11.0-14.0","","","","false","","","","","","","","","","733","","1122.2000000476837","","0","0","arrowleft","0","arrowleft","[0.675,0.325,0.85,0.15]","","",""
"sailing-trial","50","586871","0.0-11.0-15.0","","","","false","","","","","","","","","","null","","1386.2999999523163","","2","1","null","null","arrowup","[0.675,0.325,0.85,0.15]","","",""
"sailing-trial","51","591839","0.0-11.0-16.0","","","","false","","","","","","","","","","1618.5","","227.09999990463257","","1","1","arrowleft","0","arrowright","[0.85,0.15,0.675,0.325]","","",""
"sailing-trial","52","596424","0.0-11.0-17.0","","","","false","","","","","","","","","","null","","1584.9000000953674","","1","0","null","null","arrowup","[0.85,0.15,0.675,0.325]","","",""
"sailing-trial","53","602322","0.0-11.0-18.0","","","","false","","","","","","","","","","942.4000000953674","","945.5999999046326","","3","0","arrowright","1","arrowright","[0.85,0.15,0.675,0.325]","","",""
"sailing-trial","54","605808","0.0-11.0-19.0","","","","false","","","","","","","","","","null","","1314","","1","0","null","null","arrowup","[0.85,0.15,0.675,0.325]","","",""
"sailing-trial","55","610303","0.0-11.0-20.0","","","","false","","","","","","","","","","969.3000001907349","","494.7999999523163","","2","1","arrowright","1","arrowleft","[0.85,0.15,0.675,0.325]","","",""
"sailing-trial","56","613587","0.0-11.0-21.0","","","","false","","","","","","","","","","null","","1459.5","","2","1","null","null","arrowup","[0.85,0.15,0.675,0.325]","","",""
"sailing-trial","57","618622","0.0-11.0-22.0","","","","false","","","","","","","","","","622.9000000953674","","413.59999990463257","","0","0","arrowleft","0","arrowleft","[0.85,0.15,0.675,0.325]","","",""
"sailing-trial","58","622720","0.0-11.0-23.0","","","","false","","","","","","","","","","null","","2011.9000000953674","","0","1","null","null","arrowup","[0.85,0.15,0.675,0.325]","","",""
"sailing-trial","59","627426","0.0-11.0-24.0","","","","false","","","","","","","","","","1100.7000000476837","","150.40000009536743","","2","0","arrowright","1","arrowleft","[0.85,0.15,0.675,0.325]","","",""
"sailing-trial","60","630343","0.0-11.0-25.0","","","","false","","","","","","","","","","null","","1480.4000000953674","","1","0","null","null","arrowup","[0.85,0.15,0.675,0.325]","","",""
"sailing-trial","61","635292","0.0-11.0-26.0","","","","false","","","","","","","","","","725.7000000476837","","222.90000009536743","","0","0","arrowleft","0","arrowleft","[0.85,0.15,0.675,0.325]","","",""
"sailing-trial","62","640453","0.0-11.0-27.0","","","","false","","","","","","","","","","null","","1482.6000001430511","","2","1","null","null","arrowup","[0.85,0.15,0.675,0.325]","","",""
"sailing-trial","63","644785","0.0-11.0-28.0","","","","false","","","","","","","","","","602.7000000476837","","138.70000004768372","","2","1","arrowright","1","arrowleft","[0.85,0.15,0.675,0.325]","","",""
"sailing-trial","64","648104","0.0-11.0-29.0","","","","false","","","","","","","","","","null","","1373","","0","1","null","null","arrowup","[0.85,0.15,0.675,0.325]","","",""
"sailing-trial","65","653218","0.0-11.0-30.0","","","","false","","","","","","","","","","1356.2999999523163","","594.5","","0","1","arrowleft","0","arrowleft","[0.85,0.15,0.675,0.325]","","",""
"sailing-trial","66","657169","0.0-11.0-31.0","","","","false","","","","","","","","","","null","","1971","","3","1","null","null","arrowup","[0.85,0.15,0.675,0.325]","","",""
"sailing-trial","67","661102","0.0-11.0-32.0","","","","false","","","","","","","","","","592.2000000476837","","231.20000004768372","","3","1","arrowright","1","arrowright","[0.85,0.15,0.675,0.325]","","",""
"sailing-trial","68","664383","0.0-11.0-33.0","","","","false","","","","","","","","","","null","","1844.3999998569489","","1","0","null","null","arrowup","[0.85,0.15,0.675,0.325]","","",""
"sailing-trial","69","668370","0.0-11.0-34.0","","","","false","","","","","","","","","","665.4000000953674","","313.39999985694885","","1","1","arrowleft","0","arrowright","[0.325,0.675,0.15,0.85]","","",""
"sailing-trial","70","673667","0.0-11.0-35.0","","","","false","","","","","","","","","","null","","3294","","3","1","null","null","arrowup","[0.325,0.675,0.15,0.85]","","",""
"sailing-trial","71","678975","0.0-11.0-36.0","","","","false","","","","","","","","","","1186.9000000953674","","766.4000000953674","","0","0","arrowleft","0","arrowleft","[0.325,0.675,0.15,0.85]","","",""
"sailing-trial","72","682800","0.0-11.0-37.0","","","","false","","","","","","","","","","null","","1953.7999999523163","","1","1","null","null","arrowup","[0.325,0.675,0.15,0.85]","","",""
"sailing-trial","73","687269","0.0-11.0-38.0","","","","false","","","","","","","","","","535.5","","544.1000001430511","","1","1","arrowleft","0","arrowright","[0.325,0.675,0.15,0.85]","","",""
"sailing-trial","74","690603","0.0-11.0-39.0","","","","false","","","","","","","","","","null","","1392.5","","1","1","null","null","arrowup","[0.325,0.675,0.15,0.85]","","",""
"sailing-trial","75","694966","0.0-11.0-40.0","","","","false","","","","","","","","","","651.3999998569489","","381.7999999523163","","2","1","arrowright","1","arrowleft","[0.325,0.675,0.15,0.85]","","",""
"sailing-trial","76","697935","0.0-11.0-41.0","","","","false","","","","","","","","","","null","","1073.8999998569489","","1","1","null","null","arrowup","[0.325,0.675,0.15,0.85]","","",""
"sailing-trial","77","701552","0.0-11.0-42.0","","","","false","","","","","","","","","","761.5","","31.800000190734863","","1","1","arrowleft","0","arrowright","[0.325,0.675,0.15,0.85]","","",""
"sailing-trial","78","704719","0.0-11.0-43.0","","","","false","","","","","","","","","","null","","1194.3999998569489","","2","0","null","null","arrowup","[0.325,0.675,0.15,0.85]","","",""
"sailing-trial","79","710051","0.0-11.0-44.0","","","","false","","","","","","","","","","896.2999999523163","","442.5","","2","0","arrowright","1","arrowleft","[0.325,0.675,0.15,0.85]","","",""
"sailing-trial","80","714416","0.0-11.0-45.0","","","","false","","","","","","","","","","null","","1363.5","","1","0","null","null","arrowup","[0.325,0.675,0.15,0.85]","","",""
"sailing-trial","81","719682","0.0-11.0-46.0","","","","false","","","","","","","","","","858.5","","738.4000000953674","","3","1","arrowright","1","arrowright","[0.325,0.675,0.15,0.85]","","",""
"sailing-trial","82","723532","0.0-11.0-47.0","","","","false","","","","","","","","","","null","","1131.7000000476837","","3","1","null","null","arrowup","[0.325,0.675,0.15,0.85]","","",""
"sailing-trial","83","727405","0.0-11.0-48.0","","","","false","","","","","","","","","","644.1999998092651","","157.5","","0","0","arrowleft","0","arrowleft","[0.325,0.675,0.15,0.85]","","",""
"sailing-trial","84","730468","0.0-11.0-49.0","","","","false","","","","","","","","","","null","","1148.8999998569489","","1","1","null","null","arrowup","[0.325,0.675,0.15,0.85]","","",""
"sailing-trial","85","734549","0.0-11.0-50.0","","","","false","","","","","","","","","","872.5","","534","","1","1","arrowleft","0","arrowright","[0.325,0.675,0.15,0.85]","","",""
"sailing-trial","86","738629","0.0-11.0-51.0","","","","false","","","","","","","","","","null","","2155.7000000476837","","2","0","null","null","arrowup","[0.325,0.675,0.15,0.85]","","",""
"sailing-trial","87","744083","0.0-11.0-52.0","","","","false","","","","","","","","","","954.7000000476837","","502.39999985694885","","2","0","arrowright","1","arrowleft","[0.325,0.675,0.15,0.85]","","",""
"sailing-trial","88","748881","0.0-11.0-53.0","","","","false","","","","","","","","","","null","","2447.0999999046326","","0","1","null","null","arrowup","[0.325,0.675,0.15,0.85]","","",""
"sailing-trial","89","753815","0.0-11.0-54.0","","","","false","","","","","","","","","","627.6000001430511","","1142","","3","1","arrowright","1","arrowright","[0.325,0.675,0.15,0.85]","","",""
"sailing-trial","90","757149","0.0-11.0-55.0","","","","false","","","","","","","","","","null","","1952","","2","0","null","null","arrowup","[0.325,0.675,0.15,0.85]","","",""
"sailing-trial","91","762113","0.0-11.0-56.0","","","","false","","","","","","","","","","936","","87.40000009536743","","0","1","arrowleft","0","arrowleft","[0.85,0.15,0.675,0.325]","","",""
"sailing-trial","92","764584","0.0-11.0-57.0","","","","false","","","","","","","","","","null","","1176.2000000476837","","2","0","null","null","arrowup","[0.85,0.15,0.675,0.325]","","",""
"sailing-trial","93","771381","0.0-11.0-58.0","","","","false","","","","","","","","","","933.2999999523163","","2270.2000000476837","","3","1","arrowright","1","arrowright","[0.85,0.15,0.675,0.325]","","",""
"sailing-trial","94","774097","0.0-11.0-59.0","","","","false","","","","","","","","","","null","","1144.9000000953674","","1","0","null","null","arrowup","[0.85,0.15,0.675,0.325]","","",""
"sailing-trial","95","777579","0.0-11.0-60.0","","","","false","","","","","","","","","","779.4000000953674","","118.5","","1","0","arrowleft","0","arrowright","[0.85,0.15,0.675,0.325]","","",""
"sailing-trial","96","780563","0.0-11.0-61.0","","","","false","","","","","","","","","","null","","1017.3999998569489","","0","1","null","null","arrowup","[0.85,0.15,0.675,0.325]","","",""
"sailing-trial","97","783548","0.0-11.0-62.0","","","","false","","","","","","","","","","545.7999999523163","","37.700000047683716","","0","0","arrowleft","0","arrowleft","[0.85,0.15,0.675,0.325]","","",""
"sailing-trial","98","786240","0.0-11.0-63.0","","","","false","","","","","","","","","","null","","1186.7000000476837","","3","0","null","null","arrowup","[0.85,0.15,0.675,0.325]","","",""
"sailing-trial","99","791396","0.0-11.0-64.0","","","","false","","","","","","","","","","908.5","","881.5","","0","1","arrowleft","0","arrowleft","[0.85,0.15,0.675,0.325]","","",""
"sailing-trial","100","795991","0.0-11.0-65.0","","","","false","","","","","","","","","","null","","2307.2000000476837","","3","0","null","null","arrowup","[0.85,0.15,0.675,0.325]","","",""
"sailing-trial","101","800597","0.0-11.0-66.0","","","","false","","","","","","","","","","1597.7000000476837","","12.5","","2","1","arrowright","1","arrowleft","[0.85,0.15,0.675,0.325]","","",""
"sailing-trial","102","804461","0.0-11.0-67.0","","","","false","","","","","","","","","","null","","1469.5","","2","0","null","null","arrowup","[0.85,0.15,0.675,0.325]","","",""
"sailing-trial","103","808213","0.0-11.0-68.0","","","","false","","","","","","","","","","582","","148.10000014305115","","0","1","arrowleft","0","arrowleft","[0.85,0.15,0.675,0.325]","","",""
"sailing-trial","104","810974","0.0-11.0-69.0","","","","false","","","","","","","","","","null","","1075.7000000476837","","1","0","null","null","arrowup","[0.85,0.15,0.675,0.325]","","",""
"sailing-trial","105","814630","0.0-11.0-70.0","","","","false","","","","","","","","","","540.3999998569489","","227.70000004768372","","0","1","arrowleft","0","arrowleft","[0.85,0.15,0.675,0.325]","","",""
"sailing-trial","106","818094","0.0-11.0-71.0","","","","false","","","","","","","","","","null","","1491.9000000953674","","0","1","null","null","arrowup","[0.85,0.15,0.675,0.325]","","",""
"sailing-trial","107","823591","0.0-11.0-72.0","","","","false","","","","","","","","","","1371.5999999046326","","688.1999998092651","","0","0","arrowleft","0","arrowleft","[0.15,0.85,0.325,0.675]","","",""
"sailing-trial","108","826343","0.0-11.0-73.0","","","","false","","","","","","","","","","null","","1046.2999999523163","","0","0","null","null","arrowup","[0.15,0.85,0.325,0.675]","","",""
"sailing-trial","109","830462","0.0-11.0-74.0","","","","false","","","","","","","","","","774.0999999046326","","161.09999990463257","","3","1","arrowright","1","arrowright","[0.15,0.85,0.325,0.675]","","",""
"sailing-trial","110","833660","0.0-11.0-75.0","","","","false","","","","","","","","","","null","","1216.9000000953674","","2","1","null","null","arrowup","[0.15,0.85,0.325,0.675]","","",""
"sailing-trial","111","838177","0.0-11.0-76.0","","","","false","","","","","","","","","","1107","","456.7000000476837","","1","1","arrowleft","0","arrowright","[0.15,0.85,0.325,0.675]","","",""
"sailing-trial","112","841076","0.0-11.0-77.0","","","","false","","","","","","","","","","null","","1206","","0","0","null","null","arrowup","[0.15,0.85,0.325,0.675]","","",""
"sailing-trial","113","844909","0.0-11.0-78.0","","","","false","","","","","","","","","","597.1999998092651","","334.19999980926514","","3","0","arrowright","1","arrowright","[0.15,0.85,0.325,0.675]","","",""
"sailing-trial","114","848668","0.0-11.0-79.0","","","","false","","","","","","","","","","null","","1990.7999999523163","","0","0","null","null","arrowup","[0.15,0.85,0.325,0.675]","","",""
"sailing-trial","115","852960","0.0-11.0-80.0","","","","false","","","","","","","","","","854.2000000476837","","268.39999985694885","","1","1","arrowleft","0","arrowright","[0.15,0.85,0.325,0.675]","","",""
"sailing-trial","116","855768","0.0-11.0-81.0","","","","false","","","","","","","","","","null","","1166.2000000476837","","1","0","null","null","arrowup","[0.15,0.85,0.325,0.675]","","",""
"sailing-trial","117","859761","0.0-11.0-82.0","","","","false","","","","","","","","","","688.2000000476837","","496.5","","1","1","arrowleft","0","arrowright","[0.15,0.85,0.325,0.675]","","",""
"sailing-trial","118","862314","0.0-11.0-83.0","","","","false","","","","","","","","","","null","","1082.3999998569489","","0","0","null","null","arrowup","[0.15,0.85,0.325,0.675]","","",""
"sailing-trial","119","866542","0.0-11.0-84.0","","","","false","","","","","","","","","","611.2999999523163","","676.3999998569489","","1","1","arrowleft","0","arrowright","[0.15,0.85,0.325,0.675]","","",""
"sailing-trial","120","869965","0.0-11.0-85.0","","","","false","","","","","","","","","","null","","2030.6000001430511","","2","0","null","null","arrowup","[0.15,0.85,0.325,0.675]","","",""
"sailing-trial","121","874875","0.0-11.0-86.0","","","","false","","","","","","","","","","899.0999999046326","","678.8000001907349","","3","1","arrowright","1","arrowright","[0.15,0.85,0.325,0.675]","","",""
"sailing-trial","122","878259","0.0-11.0-87.0","","","","false","","","","","","","","","","null","","914.4000000953674","","1","1","null","null","arrowup","[0.15,0.85,0.325,0.675]","","",""
"sailing-trial","123","882227","0.0-11.0-88.0","","","","false","","","","","","","","","","903.5999999046326","","170.40000009536743","","1","1","arrowleft","0","arrowright","[0.15,0.85,0.325,0.675]","","",""
"sailing-trial","124","885901","0.0-11.0-89.0","","","","false","","","","","","","","","","null","","2279.5999999046326","","0","0","null","null","arrowup","[0.15,0.85,0.325,0.675]","","",""
"sailing-trial","125","889526","0.0-11.0-90.0","","","","false","","","","","","","","","","766.7999999523163","","78.89999985694885","","1","1","arrowleft","0","arrowright","[0.15,0.85,0.325,0.675]","","",""
"sailing-trial","126","893833","0.0-11.0-91.0","","","","false","","","","","","","","","","null","","2800.5","","1","0","null","null","arrowup","[0.15,0.85,0.325,0.675]","","",""
"sailing-trial","127","898841","0.0-11.0-92.0","","","","false","","","","","","","","","","872.9000000953674","","956.6999998092651","","3","1","arrowright","1","arrowright","[0.15,0.85,0.325,0.675]","","",""
"sailing-trial","128","902972","0.0-11.0-93.0","","","","false","","","","","","","","","","null","","2512.7999999523163","","0","0","null","null","arrowup","[0.15,0.85,0.325,0.675]","","",""
"sailing-trial","129","908508","0.0-11.0-94.0","","","","false","","","","","","","","","","1609.5","","896","","3","1","arrowright","1","arrowright","[0.15,0.85,0.325,0.675]","","",""
"sailing-trial","130","912491","0.0-11.0-95.0","","","","false","","","","","","","","","","null","","1908.5","","1","1","null","null","arrowup","[0.15,0.85,0.325,0.675]","","",""
"sailing-trial","131","917174","0.0-11.0-96.0","","","","false","","","","","","","","","","1430.4000000953674","","94.79999995231628","","1","1","arrowleft","0","arrowright","[0.325,0.675,0.15,0.85]","","",""
"sailing-trial","132","921858","0.0-11.0-97.0","","","","false","","","","","","","","","","null","","2239","","2","1","null","null","arrowup","[0.325,0.675,0.15,0.85]","","",""
"sailing-trial","133","926325","0.0-11.0-98.0","","","","false","","","","","","","","","","759.2999999523163","","703.7999999523163","","3","1","arrowright","1","arrowright","[0.325,0.675,0.15,0.85]","","",""
"sailing-trial","134","928942","0.0-11.0-99.0","","","","false","","","","","","","","","","null","","1163","","1","0","null","null","arrowup","[0.325,0.675,0.15,0.85]","","",""
"sailing-trial","135","933892","0.0-11.0-100.0","","","","false","","","","","","","","","","910.1000001430511","","463.2000000476837","","3","1","arrowright","1","arrowright","[0.325,0.675,0.15,0.85]","","",""
"sailing-trial","136","937747","0.0-11.0-101.0","","","","false","","","","","","","","","","null","","2453.2000000476837","","2","0","null","null","arrowup","[0.325,0.675,0.15,0.85]","","",""
"sailing-trial","137","943475","0.0-11.0-102.0","","","","false","","","","","","","","","","846.7000000476837","","798.7999999523163","","3","1","arrowright","1","arrowright","[0.325,0.675,0.15,0.85]","","",""
"sailing-trial","138","947340","0.0-11.0-103.0","","","","false","","","","","","","","","","null","","1546.3999998569489","","1","1","null","null","arrowup","[0.325,0.675,0.15,0.85]","","",""
"sailing-trial","139","952339","0.0-11.0-104.0","","","","false","","","","","","","","","","776.5","","1159","","1","1","arrowleft","0","arrowright","[0.325,0.675,0.15,0.85]","","",""
"sailing-trial","140","955591","0.0-11.0-105.0","","","","false","","","","","","","","","","null","","1370.7999999523163","","1","1","null","null","arrowup","[0.325,0.675,0.15,0.85]","","",""
"sailing-trial","141","960706","0.0-11.0-106.0","","","","false","","","","","","","","","","769.2000000476837","","424","","1","1","arrowleft","0","arrowright","[0.325,0.675,0.15,0.85]","","",""
"sailing-trial","142","964775","0.0-11.0-107.0","","","","false","","","","","","","","","","null","","2019.7000000476837","","2","0","null","null","arrowup","[0.325,0.675,0.15,0.85]","","",""
"sailing-trial","143","968519","0.0-11.0-108.0","","","","false","","","","","","","","","","571.2000000476837","","333.59999990463257","","0","0","arrowleft","0","arrowleft","[0.325,0.675,0.15,0.85]","","",""
"sailing-trial","144","972606","0.0-11.0-109.0","","","","false","","","","","","","","","","null","","1978.2999999523163","","3","1","null","null","arrowup","[0.325,0.675,0.15,0.85]","","",""
"sailing-trial","145","976740","0.0-11.0-110.0","","","","false","","","","","","","","","","645.0999999046326","","138.70000004768372","","3","1","arrowright","1","arrowright","[0.325,0.675,0.15,0.85]","","",""
"sailing-trial","146","979890","0.0-11.0-111.0","","","","false","","","","","","","","","","null","","1219.2000000476837","","3","1","null","null","arrowup","[0.325,0.675,0.15,0.85]","","",""
"sailing-trial","147","987423","0.0-11.0-112.0","","","","false","","","","","","","","","","1896.7000000476837","","2599.899999856949","","3","1","arrowright","1","arrowright","[0.15,0.85,0.325,0.675]","","",""
"sailing-trial","148","990077","0.0-11.0-113.0","","","","false","","","","","","","","","","null","","1289.1000001430511","","0","0","null","null","arrowup","[0.15,0.85,0.325,0.675]","","",""
"sailing-trial","149","995388","0.0-11.0-114.0","","","","false","","","","","","","","","","744","","1298.1000001430511","","1","1","arrowleft","0","arrowright","[0.15,0.85,0.325,0.675]","","",""
"sailing-trial","150","1001835","0.0-11.0-115.0","","","","false","","","","","","","","","","null","","3424.5","","1","0","null","null","arrowup","[0.15,0.85,0.325,0.675]","","",""
"sailing-trial","151","1006905","0.0-11.0-116.0","","","","false","","","","","","","","","","679.6999998092651","","493.7999999523163","","3","1","arrowright","1","arrowright","[0.15,0.85,0.325,0.675]","","",""
"sailing-trial","152","1010553","0.0-11.0-117.0","","","","false","","","","","","","","","","null","","1435.5","","1","1","null","null","arrowup","[0.15,0.85,0.325,0.675]","","",""
"sailing-trial","153","1016337","0.0-11.0-118.0","","","","false","","","","","","","","","","1025.7000000476837","","706.0999999046326","","3","1","arrowright","1","arrowright","[0.15,0.85,0.325,0.675]","","",""
"sailing-trial","154","1019575","0.0-11.0-119.0","","","","false","","","","","","","","","","null","","1254.5","","2","0","null","null","arrowup","[0.15,0.85,0.325,0.675]","","",""
"sailing-trial","155","1023524","0.0-11.0-120.0","","","","false","","","","","","","","","","792.2999999523163","","157.39999985694885","","3","0","arrowright","1","arrowright","[0.15,0.85,0.325,0.675]","","",""
"sailing-trial","156","1027821","0.0-11.0-121.0","","","","false","","","","","","","","","","null","","1518.6000001430511","","3","1","null","null","arrowup","[0.15,0.85,0.325,0.675]","","",""
"sailing-trial","157","1036003","0.0-11.0-122.0","","","","false","","","","","","","","","","1881.0999999046326","","2627.7000000476837","","1","1","arrowleft","0","arrowright","[0.15,0.85,0.325,0.675]","","",""
"sailing-trial","158","1040726","0.0-11.0-123.0","","","","false","","","","","","","","","","null","","1772.7000000476837","","2","0","null","null","arrowup","[0.15,0.85,0.325,0.675]","","",""
"sailing-trial","159","1046569","0.0-11.0-124.0","","","","false","","","","","","","","","","1525.7000000476837","","1042.7999999523163","","1","1","arrowleft","0","arrowright","[0.15,0.85,0.325,0.675]","","",""
"sailing-trial","160","1050811","0.0-11.0-125.0","","","","false","","","","","","","","","","null","","2705.5","","3","0","null","null","arrowup","[0.15,0.85,0.325,0.675]","","",""
"sailing-trial","161","1059301","0.0-11.0-126.0","","","","false","","","","","","","","","","3458.399999856949","","1223.0999999046326","","3","1","arrowright","1","arrowright","[0.15,0.85,0.325,0.675]","","",""
"sailing-trial","162","1064284","0.0-11.0-127.0","","","","false","","","","","","","","","","null","","2914.5","","2","0","null","null","arrowup","[0.15,0.85,0.325,0.675]","","",""
"sailing-trial","163","1070127","0.0-11.0-128.0","","","","false","","","","","","","","","","2145.4000000953674","","590","","1","0","arrowleft","0","arrowright","[0.85,0.15,0.675,0.325]","","",""
"sailing-trial","164","1074086","0.0-11.0-129.0","","","","false","","","","","","","","","","null","","1543.5999999046326","","3","1","null","null","arrowup","[0.85,0.15,0.675,0.325]","","",""
"sailing-trial","165","1078604","0.0-11.0-130.0","","","","false","","","","","","","","","","1129.9000000953674","","224.79999995231628","","3","0","arrowright","1","arrowright","[0.85,0.15,0.675,0.325]","","",""
"sailing-trial","166","1081985","0.0-11.0-131.0","","","","false","","","","","","","","","","null","","1263.5","","0","1","null","null","arrowup","[0.85,0.15,0.675,0.325]","","",""
"sailing-trial","167","1085999","0.0-11.0-132.0","","","","false","","","","","","","","","","559.5","","768.4000000953674","","0","0","arrowleft","0","arrowleft","[0.85,0.15,0.675,0.325]","","",""
"sailing-trial","168","1090033","0.0-11.0-133.0","","","","false","","","","","","","","","","null","","1398.9000000953674","","0","1","null","null","arrowup","[0.85,0.15,0.675,0.325]","","",""
"sailing-trial","169","1096951","0.0-11.0-134.0","","","","false","","","","","","","","","","1466.5","","1738.4000000953674","","2","1","arrowright","1","arrowleft","[0.85,0.15,0.675,0.325]","","",""
"sailing-trial","170","1099891","0.0-11.0-135.0","","","","false","","","","","","","","","","null","","1247.5","","2","0","null","null","arrowup","[0.85,0.15,0.675,0.325]","","",""
"sailing-trial","171","1104551","0.0-11.0-136.0","","","","false","","","","","","","","","","1116","","291.7000000476837","","2","1","arrowright","1","arrowleft","[0.85,0.15,0.675,0.325]","","",""
"sailing-trial","172","1107499","0.0-11.0-137.0","","","","false","","","","","","","","","","null","","1021.2999999523163","","2","1","null","null","arrowup","[0.85,0.15,0.675,0.325]","","",""
"sailing-trial","173","1112735","0.0-11.0-138.0","","","","false","","","","","","","","","","1036.2999999523163","","1046.2000000476837","","2","1","arrowright","1","arrowleft","[0.85,0.15,0.675,0.325]","","",""
"sailing-trial","174","1117218","0.0-11.0-139.0","","","","false","","","","","","","","","","null","","1842.2000000476837","","3","1","null","null","arrowup","[0.85,0.15,0.675,0.325]","","",""
"sailing-trial","175","1122284","0.0-11.0-140.0","","","","false","","","","","","","","","","1143.6999998092651","","698.0999999046326","","0","1","arrowleft","0","arrowleft","[0.85,0.15,0.675,0.325]","","",""
"sailing-trial","176","1125148","0.0-11.0-141.0","","","","false","","","","","","","","","","null","","1002.0999999046326","","0","1","null","null","arrowup","[0.85,0.15,0.675,0.325]","","",""
"sailing-trial","177","1130249","0.0-11.0-142.0","","","","false","","","","","","","","","","1969.7000000476837","","24.40000009536743","","2","1","arrowright","1","arrowleft","[0.85,0.15,0.675,0.325]","","",""
"sailing-trial","178","1134733","0.0-11.0-143.0","","","","false","","","","","","","","","","null","","2065.5","","0","1","null","null","arrowup","[0.85,0.15,0.675,0.325]","","",""
"sailing-trial","179","1141583","0.0-11.0-144.0","","","","false","","","","","","","","","","2059.5","","1354.2999999523163","","3","1","arrowright","1","arrowright","[0.675,0.325,0.85,0.15]","","",""
"sailing-trial","180","1144583","0.0-11.0-145.0","","","","false","","","","","","","","","","null","","1015.3999998569489","","1","1","null","null","arrowup","[0.675,0.325,0.85,0.15]","","",""
"sailing-trial","181","1149249","0.0-11.0-146.0","","","","false","","","","","","","","","","1047.9000000953674","","539.5999999046326","","3","1","arrowright","1","arrowright","[0.675,0.325,0.85,0.15]","","",""
"sailing-trial","182","1156224","0.0-11.0-147.0","","","","false","","","","","","","","","","null","","5284.699999809265","","3","0","null","null","arrowup","[0.675,0.325,0.85,0.15]","","",""
"sailing-trial","183","1161730","0.0-11.0-148.0","","","","false","","","","","","","","","","1616.2000000476837","","584.3999998569489","","3","1","arrowright","1","arrowright","[0.675,0.325,0.85,0.15]","","",""
"sailing-trial","184","1167268","0.0-11.0-149.0","","","","false","","","","","","","","","","null","","3848.7999999523163","","3","0","null","null","arrowup","[0.675,0.325,0.85,0.15]","","",""
"sailing-trial","185","1173165","0.0-11.0-150.0","","","","false","","","","","","","","","","631.0999999046326","","1482.7999999523163","","3","0","arrowright","1","arrowright","[0.675,0.325,0.85,0.15]","","",""
"sailing-trial","186","1177265","0.0-11.0-151.0","","","","false","","","","","","","","","","null","","1242.5","","3","0","null","null","arrowup","[0.675,0.325,0.85,0.15]","","",""
"sailing-trial","187","1183064","0.0-11.0-152.0","","","","false","","","","","","","","","","1409.9000000953674","","1184.4000000953674","","0","1","arrowleft","0","arrowleft","[0.675,0.325,0.85,0.15]","","",""
"sailing-trial","188","1186253","0.0-11.0-153.0","","","","false","","","","","","","","","","null","","1583.2000000476837","","0","0","null","null","arrowup","[0.675,0.325,0.85,0.15]","","",""
"sailing-trial","189","1190186","0.0-11.0-154.0","","","","false","","","","","","","","","","1443.4000000953674","","81","","1","0","arrowleft","0","arrowright","[0.675,0.325,0.85,0.15]","","",""
"sailing-trial","190","1193010","0.0-11.0-155.0","","","","false","","","","","","","","","","null","","1267.6000001430511","","1","0","null","null","arrowup","[0.675,0.325,0.85,0.15]","","",""
"sailing-trial","191","1196880","0.0-11.0-156.0","","","","false","","","","","","","","","","532.8999998569489","","388.2999999523163","","2","1","arrowright","1","arrowleft","[0.675,0.325,0.85,0.15]","","",""
"sailing-trial","192","1203579","0.0-11.0-157.0","","","","false","","","","","","","","","","null","","4659.5","","2","1","null","null","arrowup","[0.675,0.325,0.85,0.15]","","",""
"sailing-trial","193","1208297","0.0-11.0-158.0","","","","false","","","","","","","","","","913.7999999523163","","744","","2","1","arrowright","1","arrowleft","[0.675,0.325,0.85,0.15]","","",""
"sailing-trial","194","1211431","0.0-11.0-159.0","","","","false","","","","","","","","","","null","","1467.7000000476837","","3","0","null","null","arrowup","[0.675,0.325,0.85,0.15]","","",""
"sailing-trial","195","1216162","0.0-11.0-160.0","","","","false","","","","","","","","","","980.8000001907349","","568.5","","2","1","arrowright","1","arrowleft","[0.675,0.325,0.85,0.15]","","",""
"sailing-trial","196","1219179","0.0-11.0-161.0","","","","false","","","","","","","","","","null","","1049.5","","2","1","null","null","arrowup","[0.675,0.325,0.85,0.15]","","",""
"sailing-trial","197","1225085","0.0-11.0-162.0","","","","false","","","","","","","","","","2204.2999999523163","","446.2000000476837","","2","0","arrowright","1","arrowleft","[0.85,0.15,0.675,0.325]","","",""
"sailing-trial","198","1228112","0.0-11.0-163.0","","","","false","","","","","","","","","","null","","934.3000001907349","","2","1","null","null","arrowup","[0.85,0.15,0.675,0.325]","","",""
"sailing-trial","199","1232642","0.0-11.0-164.0","","","","false","","","","","","","","","","692.9000000953674","","1076","","0","0","arrowleft","0","arrowleft","[0.85,0.15,0.675,0.325]","","",""
"sailing-trial","200","1235496","0.0-11.0-165.0","","","","false","","","","","","","","","","null","","1431.7999999523163","","1","0","null","null","arrowup","[0.85,0.15,0.675,0.325]","","",""
"sailing-trial","201","1239694","0.0-11.0-166.0","","","","false","","","","","","","","","","517.2999999523163","","545.7999999523163","","2","1","arrowright","1","arrowleft","[0.85,0.15,0.675,0.325]","","",""
"sailing-trial","202","1242146","0.0-11.0-167.0","","","","false","","","","","","","","","","null","","1094","","3","0","null","null","arrowup","[0.85,0.15,0.675,0.325]","","",""
"sailing-trial","203","1247512","0.0-11.0-168.0","","","","false","","","","","","","","","","989.8999998569489","","1036.2999999523163","","0","1","arrowleft","0","arrowleft","[0.85,0.15,0.675,0.325]","","",""
"sailing-trial","204","1250878","0.0-11.0-169.0","","","","false","","","","","","","","","","null","","1428.5","","2","1","null","null","arrowup","[0.85,0.15,0.675,0.325]","","",""
"sailing-trial","205","1256795","0.0-11.0-170.0","","","","false","","","","","","","","","","928.2999999523163","","626","","2","1","arrowright","1","arrowleft","[0.85,0.15,0.675,0.325]","","",""
"sailing-trial","206","1260079","0.0-11.0-171.0","","","","false","","","","","","","","","","null","","1347.1000001430511","","1","1","null","null","arrowup","[0.85,0.15,0.675,0.325]","","",""
"sailing-trial","207","1264747","0.0-11.0-172.0","","","","false","","","","","","","","","","845.8999998569489","","901","","3","0","arrowright","1","arrowright","[0.85,0.15,0.675,0.325]","","",""
"sailing-trial","208","1267677","0.0-11.0-173.0","","","","false","","","","","","","","","","null","","984.6999998092651","","2","1","null","null","arrowup","[0.85,0.15,0.675,0.325]","","",""
"sailing-trial","209","1272441","0.0-11.0-174.0","","","","false","","","","","","","","","","597.4000000953674","","1185.6999998092651","","1","0","arrowleft","0","arrowright","[0.85,0.15,0.675,0.325]","","",""
"sailing-trial","210","1276411","0.0-11.0-175.0","","","","false","","","","","","","","","","null","","1308.2000000476837","","0","1","null","null","arrowup","[0.85,0.15,0.675,0.325]","","",""
"sailing-trial","211","1282342","0.0-11.0-176.0","","","","false","","","","","","","","","","814.7999999523163","","810.4000000953674","","2","1","arrowright","1","arrowleft","[0.85,0.15,0.675,0.325]","","",""
"sailing-trial","212","1285859","0.0-11.0-177.0","","","","false","","","","","","","","","","null","","1155.1000001430511","","0","1","null","null","arrowup","[0.85,0.15,0.675,0.325]","","",""
"sailing-trial","213","1292477","0.0-11.0-178.0","","","","false","","","","","","","","","","1465.4000000953674","","1117.2999999523163","","2","0","arrowright","1","arrowleft","[0.85,0.15,0.675,0.325]","","",""
"sailing-trial","214","1296609","0.0-11.0-179.0","","","","false","","","","","","","","","","null","","2529.600000143051","","3","0","null","null","arrowup","[0.85,0.15,0.675,0.325]","","",""
"sailing-trial","215","1302541","0.0-11.0-180.0","","","","false","","","","","","","","","","2253.0999999046326","","370.80000019073486","","2","1","arrowright","1","arrowleft","[0.85,0.15,0.675,0.325]","","",""
"sailing-trial","216","1306538","0.0-11.0-181.0","","","","false","","","","","","","","","","null","","1969.7999999523163","","1","0","null","null","arrowup","[0.85,0.15,0.675,0.325]","","",""
"sailing-trial","217","1311755","0.0-11.0-182.0","","","","false","","","","","","","","","","1184.1000001430511","","1573.3000001907349","","1","0","arrowleft","0","arrowright","[0.675,0.325,0.85,0.15]","","",""
"sailing-trial","218","1315190","0.0-11.0-183.0","","","","false","","","","","","","","","","null","","1006.4000000953674","","3","0","null","null","arrowup","[0.675,0.325,0.85,0.15]","","",""
"sailing-trial","219","1319465","0.0-11.0-184.0","","","","false","","","","","","","","","","1309.5","","336","","0","0","arrowleft","0","arrowleft","[0.675,0.325,0.85,0.15]","","",""
"sailing-trial","220","1322765","0.0-11.0-185.0","","","","false","","","","","","","","","","null","","1869.5","","3","0","null","null","arrowup","[0.675,0.325,0.85,0.15]","","",""
"sailing-trial","221","1326942","0.0-11.0-186.0","","","","false","","","","","","","","","","604.2999999523163","","123","","2","1","arrowright","1","arrowleft","[0.675,0.325,0.85,0.15]","","",""
"sailing-trial","222","1329897","0.0-11.0-187.0","","","","false","","","","","","","","","","null","","1276.5","","3","0","null","null","arrowup","[0.675,0.325,0.85,0.15]","","",""
"sailing-trial","223","1334457","0.0-11.0-188.0","","","","false","","","","","","","","","","1037.9000000953674","","514.7000000476837","","2","1","arrowright","1","arrowleft","[0.675,0.325,0.85,0.15]","","",""
"sailing-trial","224","1337697","0.0-11.0-189.0","","","","false","","","","","","","","","","null","","1687.5","","0","0","null","null","arrowup","[0.675,0.325,0.85,0.15]","","",""
"sailing-trial","225","1343424","0.0-11.0-190.0","","","","false","","","","","","","","","","1581.5","","840","","0","1","arrowleft","0","arrowleft","[0.675,0.325,0.85,0.15]","","",""
"sailing-trial","226","1346433","0.0-11.0-191.0","","","","false","","","","","","","","","","null","","1658.7000000476837","","1","0","null","null","arrowup","[0.675,0.325,0.85,0.15]","","",""
"sailing-trial","227","1351723","0.0-11.0-192.0","","","","false","","","","","","","","","","1064.7000000476837","","653.4000000953674","","2","1","arrowright","1","arrowleft","[0.675,0.325,0.85,0.15]","","",""
"sailing-trial","228","1354672","0.0-11.0-193.0","","","","false","","","","","","","","","","null","","1601.3999998569489","","1","0","null","null","arrowup","[0.675,0.325,0.85,0.15]","","",""
"sailing-trial","229","1366173","0.0-11.0-194.0","","","","false","","","","","","","","","","6418.5","","1174.2999999523163","","2","1","arrowright","1","arrowleft","[0.675,0.325,0.85,0.15]","","",""
"sailing-trial","230","1370439","0.0-11.0-195.0","","","","false","","","","","","","","","","null","","2474.899999856949","","2","1","null","null","arrowup","[0.675,0.325,0.85,0.15]","","",""
"sailing-trial","231","1374224","0.0-11.0-196.0","","","","false","","","","","","","","","","455.09999990463257","","309.7999999523163","","2","1","arrowright","1","arrowleft","[0.675,0.325,0.85,0.15]","","",""
"sailing-trial","232","1377672","0.0-11.0-197.0","","","","false","","","","","","","","","","null","","1648.5","","0","1","null","null","arrowup","[0.675,0.325,0.85,0.15]","","",""
"sailing-trial","233","1382107","0.0-11.0-198.0","","","","false","","","","","","","","","","1215.7999999523163","","316","","0","1","arrowleft","0","arrowleft","[0.85,0.15,0.675,0.325]","","",""
"sailing-trial","234","1385123","0.0-11.0-199.0","","","","false","","","","","","","","","","null","","1157.1000001430511","","3","1","null","null","arrowup","[0.85,0.15,0.675,0.325]","","",""
"sailing-trial","235","1389722","0.0-11.0-200.0","","","","false","","","","","","","","","","919.6000001430511","","258.5","","3","1","arrowright","1","arrowright","[0.85,0.15,0.675,0.325]","","",""
"sailing-trial","236","1394955","0.0-11.0-201.0","","","","false","","","","","","","","","","null","","1793.7000000476837","","0","1","null","null","arrowup","[0.85,0.15,0.675,0.325]","","",""
"sailing-trial","237","1399137","0.0-11.0-202.0","","","","false","","","","","","","","","","939.7000000476837","","61.299999952316284","","2","1","arrowright","1","arrowleft","[0.85,0.15,0.675,0.325]","","",""
"sailing-trial","238","1402252","0.0-11.0-203.0","","","","false","","","","","","","","","","null","","1458.7999999523163","","0","0","null","null","arrowup","[0.85,0.15,0.675,0.325]","","",""
"sailing-trial","239","1406922","0.0-11.0-204.0","","","","false","","","","","","","","","","703.5","","877.7000000476837","","2","1","arrowright","1","arrowleft","[0.85,0.15,0.675,0.325]","","",""
"sailing-trial","240","1409687","0.0-11.0-205.0","","","","false","","","","","","","","","","null","","978.7000000476837","","1","0","null","null","arrowup","[0.85,0.15,0.675,0.325]","","",""
"sailing-trial","241","1415388","0.0-11.0-206.0","","","","false","","","","","","","","","","700.9000000953674","","568.4000000953674","","3","1","arrowright","1","arrowright","[0.85,0.15,0.675,0.325]","","",""
"sailing-trial","242","1419587","0.0-11.0-207.0","","","","false","","","","","","","","","","null","","2010.5","","1","1","null","null","arrowup","[0.85,0.15,0.675,0.325]","","",""
"sailing-trial","243","1428104","0.0-11.0-208.0","","","","false","","","","","","","","","","5141.600000143051","","52.200000047683716","","2","1","arrowright","1","arrowleft","[0.85,0.15,0.675,0.325]","","",""
"sailing-trial","244","1431554","0.0-11.0-209.0","","","","false","","","","","","","","","","null","","1576.4000000953674","","0","1","null","null","arrowup","[0.85,0.15,0.675,0.325]","","",""
"sailing-trial","245","1434902","0.0-11.0-210.0","","","","false","","","","","","","","","","627.7999999523163","","120.59999990463257","","3","0","arrowright","1","arrowright","[0.85,0.15,0.675,0.325]","","",""
"sailing-trial","246","1437424","0.0-11.0-211.0","","","","false","","","","","","","","","","null","","1224.3999998569489","","3","0","null","null","arrowup","[0.85,0.15,0.675,0.325]","","",""
"sailing-trial","247","1442855","0.0-11.0-212.0","","","","false","","","","","","","","","","1768.3999998569489","","469.5","","2","1","arrowright","1","arrowleft","[0.85,0.15,0.675,0.325]","","",""
"sailing-trial","248","1446242","0.0-11.0-213.0","","","","false","","","","","","","","","","null","","1721.4000000953674","","3","0","null","null","arrowup","[0.85,0.15,0.675,0.325]","","",""
"sailing-trial","249","1456602","0.0-11.0-214.0","","","","false","","","","","","","","","","5645.100000143051","","608.0999999046326","","2","1","arrowright","1","arrowleft","[0.85,0.15,0.675,0.325]","","",""
"sailing-trial","250","1460720","0.0-11.0-215.0","","","","false","","","","","","","","","","null","","1607.7999999523163","","3","1","null","null","arrowup","[0.85,0.15,0.675,0.325]","","",""
"sailing-trial","251","1465504","0.0-11.0-216.0","","","","false","","","","","","","","","","1000.3999998569489","","748","","2","1","arrowright","1","arrowleft","[0.85,0.15,0.675,0.325]","","",""
"sailing-trial","252","1470369","0.0-11.0-217.0","","","","false","","","","","","","","","","null","","2827.300000190735","","0","1","null","null","arrowup","[0.85,0.15,0.675,0.325]","","",""
"sailing-trial","253","1482638","0.0-11.0-218.0","","","","false","","","","","","","","","","8748.200000047684","","176.5","","2","0","arrowright","1","arrowleft","[0.675,0.325,0.85,0.15]","","",""
"sailing-trial","254","1485020","0.0-11.0-219.0","","","","false","","","","","","","","","","null","","964.6000001430511","","3","0","null","null","arrowup","[0.675,0.325,0.85,0.15]","","",""
"sailing-trial","255","1488540","0.0-11.0-220.0","","","","false","","","","","","","","","","757.5","","403.40000009536743","","0","0","arrowleft","0","arrowleft","[0.675,0.325,0.85,0.15]","","",""
"sailing-trial","256","1491012","0.0-11.0-221.0","","","","false","","","","","","","","","","null","","1161.6000001430511","","3","0","null","null","arrowup","[0.675,0.325,0.85,0.15]","","",""
"sailing-trial","257","1494618","0.0-11.0-222.0","","","","false","","","","","","","","","","579.2999999523163","","12.199999809265137","","0","1","arrowleft","0","arrowleft","[0.675,0.325,0.85,0.15]","","",""
"sailing-trial","258","1497137","0.0-11.0-223.0","","","","false","","","","","","","","","","null","","1008.0999999046326","","3","0","null","null","arrowup","[0.675,0.325,0.85,0.15]","","",""
"sailing-trial","259","1500868","0.0-11.0-224.0","","","","false","","","","","","","","","","636.3999998569489","","55.799999952316284","","2","1","arrowright","1","arrowleft","[0.675,0.325,0.85,0.15]","","",""
"sailing-trial","260","1503936","0.0-11.0-225.0","","","","false","","","","","","","","","","null","","1223.2000000476837","","0","1","null","null","arrowup","[0.675,0.325,0.85,0.15]","","",""
"sailing-trial","261","1507969","0.0-11.0-226.0","","","","false","","","","","","","","","","908.2000000476837","","297.5","","2","1","arrowright","1","arrowleft","[0.675,0.325,0.85,0.15]","","",""
"sailing-trial","262","1511734","0.0-11.0-227.0","","","","false","","","","","","","","","","null","","1780.4000000953674","","0","1","null","null","arrowup","[0.675,0.325,0.85,0.15]","","",""
"sailing-trial","263","1516999","0.0-11.0-228.0","","","","false","","","","","","","","","","956.4000000953674","","1803.8999998569489","","0","0","arrowleft","0","arrowleft","[0.675,0.325,0.85,0.15]","","",""
"sailing-trial","264","1519516","0.0-11.0-229.0","","","","false","","","","","","","","","","null","","1135.3999998569489","","1","0","null","null","arrowup","[0.675,0.325,0.85,0.15]","","",""
"sailing-trial","265","1523809","0.0-11.0-230.0","","","","false","","","","","","","","","","551.7999999523163","","178.80000019073486","","2","0","arrowright","1","arrowleft","[0.675,0.325,0.85,0.15]","","",""
"sailing-trial","266","1526411","0.0-11.0-231.0","","","","false","","","","","","","","","","null","","1273.9000000953674","","3","0","null","null","arrowup","[0.675,0.325,0.85,0.15]","","",""
"sailing-trial","267","1530194","0.0-11.0-232.0","","","","false","","","","","","","","","","758.2999999523163","","551.2000000476837","","0","0","arrowleft","0","arrowleft","[0.675,0.325,0.85,0.15]","","",""
"sailing-trial","268","1533579","0.0-11.0-233.0","","","","false","","","","","","","","","","null","","1994.8000001907349","","1","0","null","null","arrowup","[0.675,0.325,0.85,0.15]","","",""
"sailing-trial","269","1537951","0.0-11.0-234.0","","","","false","","","","","","","","","","820.2000000476837","","687.2999999523163","","2","1","arrowright","1","arrowleft","[0.675,0.325,0.85,0.15]","","",""
"sailing-trial","270","1541328","0.0-11.0-235.0","","","","false","","","","","","","","","","null","","1963.8000001907349","","2","0","null","null","arrowup","[0.675,0.325,0.85,0.15]","","",""
"sailing-trial","271","1544866","0.0-11.0-236.0","","","","false","","","","","","","","","","863.7000000476837","","186.70000004768372","","2","0","arrowright","1","arrowleft","[0.15,0.85,0.325,0.675]","","",""
"sailing-trial","272","1548701","0.0-11.0-237.0","","","","false","","","","","","","","","","null","","2001.0999999046326","","1","1","null","null","arrowup","[0.15,0.85,0.325,0.675]","","",""
"sailing-trial","273","1552470","0.0-11.0-238.0","","","","false","","","","","","","","","","869.4000000953674","","267","","0","0","arrowleft","0","arrowleft","[0.15,0.85,0.325,0.675]","","",""
"sailing-trial","274","1555632","0.0-11.0-239.0","","","","false","","","","","","","","","","null","","1288.3999998569489","","3","1","null","null","arrowup","[0.15,0.85,0.325,0.675]","","",""
"sailing-trial","275","1559500","0.0-11.0-240.0","","","","false","","","","","","","","","","732.3000001907349","","255.70000004768372","","3","1","arrowright","1","arrowright","[0.15,0.85,0.325,0.675]","","",""
"sailing-trial","276","1562449","0.0-11.0-241.0","","","","false","","","","","","","","","","null","","1012.8999998569489","","1","1","null","null","arrowup","[0.15,0.85,0.325,0.675]","","",""
"sailing-trial","277","1566182","0.0-11.0-242.0","","","","false","","","","","","","","","","790.2999999523163","","40.299999952316284","","3","1","arrowright","1","arrowright","[0.15,0.85,0.325,0.675]","","",""
"sailing-trial","278","1568844","0.0-11.0-243.0","","","","false","","","","","","","","","","null","","1427","","0","0","null","null","arrowup","[0.15,0.85,0.325,0.675]","","",""
"sailing-trial","279","1573598","0.0-11.0-244.0","","","","false","","","","","","","","","","1242.9000000953674","","431.2000000476837","","1","1","arrowleft","0","arrowright","[0.15,0.85,0.325,0.675]","","",""
"sailing-trial","280","1576564","0.0-11.0-245.0","","","","false","","","","","","","","","","null","","1069","","1","1","null","null","arrowup","[0.15,0.85,0.325,0.675]","","",""
"sailing-trial","281","1580697","0.0-11.0-246.0","","","","false","","","","","","","","","","1078.6999998092651","","169.59999990463257","","3","1","arrowright","1","arrowright","[0.15,0.85,0.325,0.675]","","",""
"sailing-trial","282","1583814","0.0-11.0-247.0","","","","false","","","","","","","","","","null","","1086.4000000953674","","3","1","null","null","arrowup","[0.15,0.85,0.325,0.675]","","",""
"sailing-trial","283","1587680","0.0-11.0-248.0","","","","false","","","","","","","","","","977.5","","100.29999995231628","","3","1","arrowright","1","arrowright","[0.15,0.85,0.325,0.675]","","",""
"sailing-trial","284","1590808","0.0-11.0-249.0","","","","false","","","","","","","","","","null","","1743.2999999523163","","3","0","null","null","arrowup","[0.15,0.85,0.325,0.675]","","",""
"sailing-trial","285","1594374","0.0-11.0-250.0","","","","false","","","","","","","","","","696.2000000476837","","525.2999999523163","","1","0","arrowleft","0","arrowright","[0.15,0.85,0.325,0.675]","","",""
"sailing-trial","286","1596910","0.0-11.0-251.0","","","","false","","","","","","","","","","null","","1196","","0","0","null","null","arrowup","[0.15,0.85,0.325,0.675]","","",""
"sailing-trial","287","1600713","0.0-11.0-252.0","","","","false","","","","","","","","","","631.5","","154.5","","3","1","arrowright","1","arrowright","[0.15,0.85,0.325,0.675]","","",""
"sailing-trial","288","1603813","0.0-11.0-253.0","","","","false","","","","","","","","","","null","","1306","","3","1","null","null","arrowup","[0.15,0.85,0.325,0.675]","","",""
"sailing-trial","289","1607853","0.0-11.0-254.0","","","","false","","","","","","","","","","722","","700.7000000476837","","0","0","arrowleft","0","arrowleft","[0.15,0.85,0.325,0.675]","","",""
"sailing-trial","290","1611099","0.0-11.0-255.0","","","","false","","","","","","","","","","null","","1665.5","","3","0","null","null","arrowup","[0.15,0.85,0.325,0.675]","","",""
"sailing-trial","291","1615347","0.0-11.0-256.0","","","","false","","","","","","","","","","846.0999999046326","","370.7000000476837","","1","1","arrowleft","0","arrowright","[0.325,0.675,0.15,0.85]","","",""
"sailing-trial","292","1618547","0.0-11.0-257.0","","","","false","","","","","","","","","","null","","1280.0999999046326","","3","1","null","null","arrowup","[0.325,0.675,0.15,0.85]","","",""
"sailing-trial","293","1623695","0.0-11.0-258.0","","","","false","","","","","","","","","","1701.0999999046326","","547.1999998092651","","3","1","arrowright","1","arrowright","[0.325,0.675,0.15,0.85]","","",""
"sailing-trial","294","1627129","0.0-11.0-259.0","","","","false","","","","","","","","","","null","","1507.4000000953674","","3","1","null","null","arrowup","[0.325,0.675,0.15,0.85]","","",""
"sailing-trial","295","1631862","0.0-11.0-260.0","","","","false","","","","","","","","","","818.2000000476837","","548.1999998092651","","1","1","arrowleft","0","arrowright","[0.325,0.675,0.15,0.85]","","",""
"sailing-trial","296","1634152","0.0-11.0-261.0","","","","false","","","","","","","","","","null","","1004.2000000476837","","0","0","null","null","arrowup","[0.325,0.675,0.15,0.85]","","",""
"sailing-trial","297","1638011","0.0-11.0-262.0","","","","false","","","","","","","","","","650.8999998569489","","311.40000009536743","","3","1","arrowright","1","arrowright","[0.325,0.675,0.15,0.85]","","",""
"sailing-trial","298","1641000","0.0-11.0-263.0","","","","false","","","","","","","","","","null","","1682.5","","0","0","null","null","arrowup","[0.325,0.675,0.15,0.85]","","",""
"sailing-trial","299","1645529","0.0-11.0-264.0","","","","false","","","","","","","","","","960.8999998569489","","745.6000001430511","","3","1","arrowright","1","arrowright","[0.325,0.675,0.15,0.85]","","",""
"sailing-trial","300","1648462","0.0-11.0-265.0","","","","false","","","","","","","","","","null","","959.2999999523163","","0","1","null","null","arrowup","[0.325,0.675,0.15,0.85]","","",""
"sailing-trial","301","1651861","0.0-11.0-266.0","","","","false","","","","","","","","","","652.5","","127.89999985694885","","3","1","arrowright","1","arrowright","[0.325,0.675,0.15,0.85]","","",""
"sailing-trial","302","1654777","0.0-11.0-267.0","","","","false","","","","","","","","","","null","","1015.5","","2","1","null","null","arrowup","[0.325,0.675,0.15,0.85]","","",""
"sailing-trial","303","1658577","0.0-11.0-268.0","","","","false","","","","","","","","","","629.5","","252.79999995231628","","3","1","arrowright","1","arrowright","[0.325,0.675,0.15,0.85]","","",""
"sailing-trial","304","1662038","0.0-11.0-269.0","","","","false","","","","","","","","","","null","","1985.1000001430511","","0","0","null","null","arrowup","[0.325,0.675,0.15,0.85]","","",""
"sailing-trial","305","1666277","0.0-11.0-270.0","","","","false","","","","","","","","","","608.6000001430511","","706.2999999523163","","3","1","arrowright","1","arrowright","[0.325,0.675,0.15,0.85]","","",""
"sailing-trial","306","1669377","0.0-11.0-271.0","","","","false","","","","","","","","","","null","","1422.9000000953674","","3","1","null","null","arrowup","[0.325,0.675,0.15,0.85]","","",""
"sailing-trial","307","1673828","0.0-11.0-272.0","","","","false","","","","","","","","","","1032.5","","157.79999995231628","","1","1","arrowleft","0","arrowright","[0.325,0.675,0.15,0.85]","","",""
"sailing-trial","308","1676116","0.0-11.0-273.0","","","","false","","","","","","","","","","null","","1009","","1","0","null","null","arrowup","[0.325,0.675,0.15,0.85]","","",""
"sailing-trial","309","1679079","0.0-11.0-274.0","","","","false","","","","","","","","","","708.9000000953674","","9.400000095367432","","1","0","arrowleft","0","arrowright","[0.675,0.325,0.85,0.15]","","",""
"sailing-trial","310","1681640","0.0-11.0-275.0","","","","false","","","","","","","","","","null","","1238.5999999046326","","1","0","null","null","arrowup","[0.675,0.325,0.85,0.15]","","",""
"sailing-trial","311","1685761","0.0-11.0-276.0","","","","false","","","","","","","","","","566.1000001430511","","632.7000000476837","","0","1","arrowleft","0","arrowleft","[0.675,0.325,0.85,0.15]","","",""
"sailing-trial","312","1688744","0.0-11.0-277.0","","","","false","","","","","","","","","","null","","1013.1999998092651","","2","1","null","null","arrowup","[0.675,0.325,0.85,0.15]","","",""
"sailing-trial","313","1692795","0.0-11.0-278.0","","","","false","","","","","","","","","","584.9000000953674","","654.5","","3","0","arrowright","1","arrowright","[0.675,0.325,0.85,0.15]","","",""
"sailing-trial","314","1696045","0.0-11.0-279.0","","","","false","","","","","","","","","","null","","1188.0999999046326","","0","1","null","null","arrowup","[0.675,0.325,0.85,0.15]","","",""
"sailing-trial","315","1700127","0.0-11.0-280.0","","","","false","","","","","","","","","","662.0999999046326","","474.39999985694885","","2","1","arrowright","1","arrowleft","[0.675,0.325,0.85,0.15]","","",""
"sailing-trial","316","1703493","0.0-11.0-281.0","","","","false","","","","","","","","","","null","","1314.2999999523163","","2","1","null","null","arrowup","[0.675,0.325,0.85,0.15]","","",""
"sailing-trial","317","1707278","0.0-11.0-282.0","","","","false","","","","","","","","","","548.7999999523163","","215.19999980926514","","0","1","arrowleft","0","arrowleft","[0.675,0.325,0.85,0.15]","","",""
"sailing-trial","318","1711759","0.0-11.0-283.0","","","","false","","","","","","","","","","null","","2631.100000143051","","2","1","null","null","arrowup","[0.675,0.325,0.85,0.15]","","",""
"sailing-trial","319","1716092","0.0-11.0-284.0","","","","false","","","","","","","","","","728.4000000953674","","510.5","","0","1","arrowleft","0","arrowleft","[0.675,0.325,0.85,0.15]","","",""
"sailing-trial","320","1719125","0.0-11.0-285.0","","","","false","","","","","","","","","","null","","1222.6999998092651","","0","1","null","null","arrowup","[0.675,0.325,0.85,0.15]","","",""
"sailing-trial","321","1723690","0.0-11.0-286.0","","","","false","","","","","","","","","","600.6999998092651","","329.59999990463257","","3","0","arrowright","1","arrowright","[0.675,0.325,0.85,0.15]","","",""
"sailing-trial","322","1727696","0.0-11.0-287.0","","","","false","","","","","","","","","","null","","2229.5","","1","0","null","null","arrowup","[0.675,0.325,0.85,0.15]","","",""
"sailing-trial","323","1731291","0.0-11.0-288.0","","","","false","","","","","","","","","","577.1000001430511","","34.200000047683716","","0","1","arrowleft","0","arrowleft","[0.675,0.325,0.85,0.15]","","",""
"sailing-trial","324","1734892","0.0-11.0-289.0","","","","false","","","","","","","","","","null","","1735.5","","0","1","null","null","arrowup","[0.675,0.325,0.85,0.15]","","",""
"sailing-trial","325","1738610","0.0-11.0-290.0","","","","false","","","","","","","","","","673.7000000476837","","148.70000004768372","","2","1","arrowright","1","arrowleft","[0.85,0.15,0.675,0.325]","","",""
"sailing-trial","326","1741083","0.0-11.0-291.0","","","","false","","","","","","","","","","null","","1029.7000000476837","","3","0","null","null","arrowup","[0.85,0.15,0.675,0.325]","","",""
"sailing-trial","327","1745692","0.0-11.0-292.0","","","","false","","","","","","","","","","1152.2999999523163","","543.1000001430511","","0","1","arrowleft","0","arrowleft","[0.85,0.15,0.675,0.325]","","",""
"sailing-trial","328","1748248","0.0-11.0-293.0","","","","false","","","","","","","","","","null","","1229.2999999523163","","1","0","null","null","arrowup","[0.85,0.15,0.675,0.325]","","",""
"sailing-trial","329","1751974","0.0-11.0-294.0","","","","false","","","","","","","","","","584.1000001430511","","306.5","","2","1","arrowright","1","arrowleft","[0.85,0.15,0.675,0.325]","","",""
"sailing-trial","330","1755007","0.0-11.0-295.0","","","","false","","","","","","","","","","null","","1246.1000001430511","","2","1","null","null","arrowup","[0.85,0.15,0.675,0.325]","","",""
"sailing-trial","331","1758590","0.0-11.0-296.0","","","","false","","","","","","","","","","656.5999999046326","","152.80000019073486","","0","1","arrowleft","0","arrowleft","[0.85,0.15,0.675,0.325]","","",""
"sailing-trial","332","1760930","0.0-11.0-297.0","","","","false","","","","","","","","","","null","","1019.7000000476837","","1","0","null","null","arrowup","[0.85,0.15,0.675,0.325]","","",""
"sailing-trial","333","1765009","0.0-11.0-298.0","","","","false","","","","","","","","","","646.8999998569489","","564.5","","0","1","arrowleft","0","arrowleft","[0.85,0.15,0.675,0.325]","","",""
"sailing-trial","334","1767674","0.0-11.0-299.0","","","","false","","","","","","","","","","null","","782.9000000953674","","0","1","null","null","arrowup","[0.85,0.15,0.675,0.325]","","",""
"sailing-trial","335","1771606","0.0-11.0-300.0","","","","false","","","","","","","","","","666.1999998092651","","233.39999985694885","","0","1","arrowleft","0","arrowleft","[0.85,0.15,0.675,0.325]","","",""
"sailing-trial","336","1775940","0.0-11.0-301.0","","","","false","","","","","","","","","","null","","2405.5","","2","1","null","null","arrowup","[0.85,0.15,0.675,0.325]","","",""
"sailing-trial","337","1780257","0.0-11.0-302.0","","","","false","","","","","","","","","","994.2000000476837","","387.2999999523163","","2","1","arrowright","1","arrowleft","[0.85,0.15,0.675,0.325]","","",""
"sailing-trial","338","1783724","0.0-11.0-303.0","","","","false","","","","","","","","","","null","","1514","","2","1","null","null","arrowup","[0.85,0.15,0.675,0.325]","","",""
"sailing-trial","339","1788168","0.0-11.0-304.0","","","","false","","","","","","","","","","1820.7999999523163","","241.10000014305115","","0","0","arrowleft","0","arrowleft","[0.85,0.15,0.675,0.325]","","",""
"sailing-trial","340","1792090","0.0-11.0-305.0","","","","false","","","","","","","","","","null","","1970.9000000953674","","2","1","null","null","arrowup","[0.85,0.15,0.675,0.325]","","",""
"sailing-trial","341","1796974","0.0-11.0-306.0","","","","false","","","","","","","","","","1385.2999999523163","","458.59999990463257","","2","0","arrowright","1","arrowleft","[0.85,0.15,0.675,0.325]","","",""
"sailing-trial","342","1800106","0.0-11.0-307.0","","","","false","","","","","","","","","","null","","1234","","2","1","null","null","arrowup","[0.85,0.15,0.675,0.325]","","",""
"sailing-trial","343","1804007","0.0-11.0-308.0","","","","false","","","","","","","","","","655.5","","151.5","","0","1","arrowleft","0","arrowleft","[0.85,0.15,0.675,0.325]","","",""
"sailing-trial","344","1807205","0.0-11.0-309.0","","","","false","","","","","","","","","","null","","1323.4000000953674","","0","1","null","null","arrowup","[0.85,0.15,0.675,0.325]","","",""
"sailing-trial","345","1811432","0.0-11.0-310.0","","","","false","","","","","","","","","","1316.0999999046326","","11.799999952316284","","2","0","arrowright","1","arrowleft","[0.675,0.325,0.85,0.15]","","",""
"sailing-trial","346","1814077","0.0-11.0-311.0","","","","false","","","","","","","","","","null","","1273.5","","0","0","null","null","arrowup","[0.675,0.325,0.85,0.15]","","",""
"sailing-trial","347","1817428","0.0-11.0-312.0","","","","false","","","","","","","","","","579.4000000953674","","21","","0","0","arrowleft","0","arrowleft","[0.675,0.325,0.85,0.15]","","",""
"sailing-trial","348","1820488","0.0-11.0-313.0","","","","false","","","","","","","","","","null","","779.7000000476837","","2","1","null","null","arrowup","[0.675,0.325,0.85,0.15]","","",""
"sailing-trial","349","1824690","0.0-11.0-314.0","","","","false","","","","","","","","","","654.7999999523163","","486.90000009536743","","2","1","arrowright","1","arrowleft","[0.675,0.325,0.85,0.15]","","",""
"sailing-trial","350","1828855","0.0-11.0-315.0","","","","false","","","","","","","","","","null","","2092.2999999523163","","0","1","null","null","arrowup","[0.675,0.325,0.85,0.15]","","",""
"sailing-trial","351","1833121","0.0-11.0-316.0","","","","false","","","","","","","","","","1018.2999999523163","","431.40000009536743","","0","1","arrowleft","0","arrowleft","[0.675,0.325,0.85,0.15]","","",""
"sailing-trial","352","1835441","0.0-11.0-317.0","","","","false","","","","","","","","","","null","","922.1000001430511","","3","0","null","null","arrowup","[0.675,0.325,0.85,0.15]","","",""
"sailing-trial","353","1839072","0.0-11.0-318.0","","","","false","","","","","","","","","","864","","23.59999990463257","","0","1","arrowleft","0","arrowleft","[0.675,0.325,0.85,0.15]","","",""
"sailing-trial","354","1841800","0.0-11.0-319.0","","","","false","","","","","","","","","","null","","853.7999999523163","","3","0","null","null","arrowup","[0.675,0.325,0.85,0.15]","","",""
"sailing-trial","355","1846070","0.0-11.0-320.0","","","","false","","","","","","","","","","631.5","","875.6999998092651","","0","1","arrowleft","0","arrowleft","[0.675,0.325,0.85,0.15]","","",""
"sailing-trial","356","1848383","0.0-11.0-321.0","","","","false","","","","","","","","","","null","","1098.7999999523163","","1","0","null","null","arrowup","[0.675,0.325,0.85,0.15]","","",""
"sailing-trial","357","1851920","0.0-11.0-322.0","","","","false","","","","","","","","","","655.9000000953674","","33","","0","1","arrowleft","0","arrowleft","[0.675,0.325,0.85,0.15]","","",""
"sailing-trial","358","1855888","0.0-11.0-323.0","","","","false","","","","","","","","","","null","","2098.2000000476837","","2","1","null","null","arrowup","[0.675,0.325,0.85,0.15]","","",""
"sailing-trial","359","1859804","0.0-11.0-324.0","","","","false","","","","","","","","","","564.2999999523163","","500.40000009536743","","0","1","arrowleft","0","arrowleft","[0.675,0.325,0.85,0.15]","","",""
"sailing-trial","360","1862335","0.0-11.0-325.0","","","","false","","","","","","","","","","null","","1289.5999999046326","","0","0","null","null","arrowup","[0.675,0.325,0.85,0.15]","","",""
"sailing-trial","361","1867671","0.0-11.0-326.0","","","","false","","","","","","","","","","783","","1303.1999998092651","","0","1","arrowleft","0","arrowleft","[0.85,0.15,0.675,0.325]","","",""
"sailing-trial","362","1872436","0.0-11.0-327.0","","","","false","","","","","","","","","","null","","2769.100000143051","","0","1","null","null","arrowup","[0.85,0.15,0.675,0.325]","","",""
"sailing-trial","363","1877720","0.0-11.0-328.0","","","","false","","","","","","","","","","1280","","997.9000000953674","","0","1","arrowleft","0","arrowleft","[0.85,0.15,0.675,0.325]","","",""
"sailing-trial","364","1880657","0.0-11.0-329.0","","","","false","","","","","","","","","","null","","1581.7999999523163","","1","0","null","null","arrowup","[0.85,0.15,0.675,0.325]","","",""
"sailing-trial","365","1884303","0.0-11.0-330.0","","","","false","","","","","","","","","","481","","580.3999998569489","","0","1","arrowleft","0","arrowleft","[0.85,0.15,0.675,0.325]","","",""
"sailing-trial","366","1886407","0.0-11.0-331.0","","","","false","","","","","","","","","","null","","857.5","","1","0","null","null","arrowup","[0.85,0.15,0.675,0.325]","","",""
"sailing-trial","367","1890853","0.0-11.0-332.0","","","","false","","","","","","","","","","817.7000000476837","","754.5999999046326","","0","1","arrowleft","0","arrowleft","[0.85,0.15,0.675,0.325]","","",""
"sailing-trial","368","1893802","0.0-11.0-333.0","","","","false","","","","","","","","","","null","","1160.2999999523163","","0","1","null","null","arrowup","[0.85,0.15,0.675,0.325]","","",""
"sailing-trial","369","1897786","0.0-11.0-334.0","","","","false","","","","","","","","","","754","","368.19999980926514","","2","1","arrowright","1","arrowleft","[0.85,0.15,0.675,0.325]","","",""
"sailing-trial","370","1900885","0.0-11.0-335.0","","","","false","","","","","","","","","","null","","1338.5999999046326","","0","1","null","null","arrowup","[0.85,0.15,0.675,0.325]","","",""
"sailing-trial","371","1904235","0.0-11.0-336.0","","","","false","","","","","","","","","","561","","32.200000047683716","","2","1","arrowright","1","arrowleft","[0.85,0.15,0.675,0.325]","","",""
"sailing-trial","372","1907102","0.0-11.0-337.0","","","","false","","","","","","","","","","null","","1014.6000001430511","","2","1","null","null","arrowup","[0.85,0.15,0.675,0.325]","","",""
"sailing-trial","373","1911568","0.0-11.0-338.0","","","","false","","","","","","","","","","622.7000000476837","","1081.6000001430511","","0","1","arrowleft","0","arrowleft","[0.85,0.15,0.675,0.325]","","",""
"sailing-trial","374","1914896","0.0-11.0-339.0","","","","false","","","","","","","","","","null","","1804.6000001430511","","1","0","null","null","arrowup","[0.85,0.15,0.675,0.325]","","",""
"sailing-trial","375","1918801","0.0-11.0-340.0","","","","false","","","","","","","","","","827.7000000476837","","188.5","","0","1","arrowleft","0","arrowleft","[0.85,0.15,0.675,0.325]","","",""
"sailing-trial","376","1922275","0.0-11.0-341.0","","","","false","","","","","","","","","","null","","2117.5999999046326","","3","0","null","null","arrowup","[0.85,0.15,0.675,0.325]","","",""
"sailing-trial","377","1926034","0.0-11.0-342.0","","","","false","","","","","","","","","","572.4000000953674","","445.39999985694885","","0","1","arrowleft","0","arrowleft","[0.85,0.15,0.675,0.325]","","",""
"sailing-trial","378","1929417","0.0-11.0-343.0","","","","false","","","","","","","","","","null","","1634.1999998092651","","0","1","null","null","arrowup","[0.85,0.15,0.675,0.325]","","",""
"sailing-trial","379","1934076","0.0-11.0-344.0","","","","false","","","","","","","","","","1330.8999998569489","","933.5","","2","0","arrowright","1","arrowleft","[0.85,0.15,0.675,0.325]","","",""
"sailing-trial","380","1937083","0.0-11.0-345.0","","","","false","","","","","","","","","","null","","1060.2000000476837","","2","1","null","null","arrowup","[0.85,0.15,0.675,0.325]","","",""
"sailing-trial","381","1940833","0.0-11.0-346.0","","","","false","","","","","","","","","","562.7000000476837","","443.7000000476837","","0","1","arrowleft","0","arrowleft","[0.85,0.15,0.675,0.325]","","",""
"sailing-trial","382","1944183","0.0-11.0-347.0","","","","false","","","","","","","","","","null","","1014","","2","1","null","null","arrowup","[0.85,0.15,0.675,0.325]","","",""
"sailing-trial","383","1948484","0.0-11.0-348.0","","","","false","","","","","","","","","","1169","","276.90000009536743","","0","1","arrowleft","0","arrowleft","[0.675,0.325,0.85,0.15]","","",""
"sailing-trial","384","1951481","0.0-11.0-349.0","","","","false","","","","","","","","","","null","","1627.7999999523163","","3","0","null","null","arrowup","[0.675,0.325,0.85,0.15]","","",""
"sailing-trial","385","1955665","0.0-11.0-350.0","","","","false","","","","","","","","","","635.7999999523163","","746","","0","1","arrowleft","0","arrowleft","[0.675,0.325,0.85,0.15]","","",""
"sailing-trial","386","1958460","0.0-11.0-351.0","","","","false","","","","","","","","","","null","","1439.5","","3","0","null","null","arrowup","[0.675,0.325,0.85,0.15]","","",""
"sailing-trial","387","1962382","0.0-11.0-352.0","","","","false","","","","","","","","","","651.5999999046326","","469.2000000476837","","0","1","arrowleft","0","arrowleft","[0.675,0.325,0.85,0.15]","","",""
"sailing-trial","388","1965849","0.0-11.0-353.0","","","","false","","","","","","","","","","null","","1652.3999998569489","","2","1","null","null","arrowup","[0.675,0.325,0.85,0.15]","","",""
"sailing-trial","389","1969397","0.0-11.0-354.0","","","","false","","","","","","","","","","718.2999999523163","","763.6000001430511","","0","0","arrowleft","0","arrowleft","[0.675,0.325,0.85,0.15]","","",""
"sailing-trial","390","1973132","0.0-11.0-355.0","","","","false","","","","","","","","","","null","","1724.7000000476837","","3","1","null","null","arrowup","[0.675,0.325,0.85,0.15]","","",""
"sailing-trial","391","1978026","0.0-11.0-356.0","","","","false","","","","","","","","","","1911.9000000953674","","477","","0","0","arrowleft","0","arrowleft","[0.675,0.325,0.85,0.15]","","",""
"sailing-trial","392","1980557","0.0-11.0-357.0","","","","false","","","","","","","","","","null","","1087.6000001430511","","3","0","null","null","arrowup","[0.675,0.325,0.85,0.15]","","",""
"sailing-trial","393","1984136","0.0-11.0-358.0","","","","false","","","","","","","","","","667.8000001907349","","474.7999999523163","","1","0","arrowleft","0","arrowright","[0.675,0.325,0.85,0.15]","","",""
"sailing-trial","394","1987231","0.0-11.0-359.0","","","","false","","","","","","","","","","null","","1121.7999999523163","","0","1","null","null","arrowup","[0.675,0.325,0.85,0.15]","","",""
"sailing-trial","395","1991357","0.0-11.0-360.0","","","","false","","","","","","","","","","584.5999999046326","","129.09999990463257","","0","0","arrowleft","0","arrowleft","[0.675,0.325,0.85,0.15]","","",""
"sailing-trial","396","1994044","0.0-11.0-361.0","","","","false","","","","","","","","","","null","","1310.5999999046326","","3","0","null","null","arrowup","[0.675,0.325,0.85,0.15]","","",""
"sailing-trial","397","1998164","0.0-11.0-362.0","","","","false","","","","","","","","","","570.4000000953674","","551.2000000476837","","2","1","arrowright","1","arrowleft","[0.675,0.325,0.85,0.15]","","",""
"sailing-trial","398","2000522","0.0-11.0-363.0","","","","false","","","","","","","","","","null","","1033.9000000953674","","1","0","null","null","arrowup","[0.675,0.325,0.85,0.15]","","",""
"sailing-trial","399","2004164","0.0-11.0-364.0","","","","false","","","","","","","","","","633.7000000476837","","204.89999985694885","","2","1","arrowright","1","arrowleft","[0.675,0.325,0.85,0.15]","","",""
"sailing-trial","400","2006947","0.0-11.0-365.0","","","","false","","","","","","","","","","null","","897.5","","2","1","null","null","arrowup","[0.675,0.325,0.85,0.15]","","",""
"sailing-trial","401","2010395","0.0-11.0-366.0","","","","false","","","","","","","","","","881.3000001907349","","143.20000004768372","","2","0","arrowright","1","arrowleft","[0.85,0.15,0.675,0.325]","","",""
"sailing-trial","402","2013131","0.0-11.0-367.0","","","","false","","","","","","","","","","null","","935.4000000953674","","2","1","null","null","arrowup","[0.85,0.15,0.675,0.325]","","",""
"sailing-trial","403","2017231","0.0-11.0-368.0","","","","false","","","","","","","","","","837.9000000953674","","420.7999999523163","","2","1","arrowright","1","arrowleft","[0.85,0.15,0.675,0.325]","","",""
"sailing-trial","404","2020414","0.0-11.0-369.0","","","","false","","","","","","","","","","null","","1303.0999999046326","","2","1","null","null","arrowup","[0.85,0.15,0.675,0.325]","","",""
"sailing-trial","405","2024081","0.0-11.0-370.0","","","","false","","","","","","","","","","559.3000001907349","","165.20000004768372","","0","1","arrowleft","0","arrowleft","[0.85,0.15,0.675,0.325]","","",""
"sailing-trial","406","2027996","0.0-11.0-371.0","","","","false","","","","","","","","","","null","","1741.0999999046326","","1","1","null","null","arrowup","[0.85,0.15,0.675,0.325]","","",""
"sailing-trial","407","2033679","0.0-11.0-372.0","","","","false","","","","","","","","","","932.1000001430511","","1198.5","","0","1","arrowleft","0","arrowleft","[0.85,0.15,0.675,0.325]","","",""
"sailing-trial","408","2036512","0.0-11.0-373.0","","","","false","","","","","","","","","","null","","911.2000000476837","","2","1","null","null","arrowup","[0.85,0.15,0.675,0.325]","","",""
"sailing-trial","409","2040395","0.0-11.0-374.0","","","","false","","","","","","","","","","1074.6000001430511","","300.89999985694885","","0","1","arrowleft","0","arrowleft","[0.85,0.15,0.675,0.325]","","",""
"sailing-trial","410","2043345","0.0-11.0-375.0","","","","false","","","","","","","","","","null","","1180.7000000476837","","0","1","null","null","arrowup","[0.85,0.15,0.675,0.325]","","",""
"sailing-trial","411","2047061","0.0-11.0-376.0","","","","false","","","","","","","","","","751.5999999046326","","150.70000004768372","","2","1","arrowright","1","arrowleft","[0.85,0.15,0.675,0.325]","","",""
"sailing-trial","412","2049208","0.0-11.0-377.0","","","","false","","","","","","","","","","null","","888.0999999046326","","2","0","null","null","arrowup","[0.85,0.15,0.675,0.325]","","",""
"sailing-trial","413","2053694","0.0-11.0-378.0","","","","false","","","","","","","","","","682.3999998569489","","829.5","","0","1","arrowleft","0","arrowleft","[0.85,0.15,0.675,0.325]","","",""
"sailing-trial","414","2057461","0.0-11.0-379.0","","","","false","","","","","","","","","","null","","1784.2000000476837","","2","1","null","null","arrowup","[0.85,0.15,0.675,0.325]","","",""
"sailing-trial","415","2061578","0.0-11.0-380.0","","","","false","","","","","","","","","","860.5","","463.09999990463257","","0","1","arrowleft","0","arrowleft","[0.85,0.15,0.675,0.325]","","",""
"sailing-trial","416","2064438","0.0-11.0-381.0","","","","false","","","","","","","","","","null","","1568.7999999523163","","0","0","null","null","arrowup","[0.85,0.15,0.675,0.325]","","",""
"sailing-trial","417","2068379","0.0-11.0-382.0","","","","false","","","","","","","","","","1078.6000001430511","","58.700000047683716","","2","1","arrowright","1","arrowleft","[0.675,0.325,0.85,0.15]","","",""
"sailing-trial","418","2071081","0.0-11.0-383.0","","","","false","","","","","","","","","","null","","1435.3999998569489","","3","0","null","null","arrowup","[0.675,0.325,0.85,0.15]","","",""
"sailing-trial","419","2075260","0.0-11.0-384.0","","","","false","","","","","","","","","","653.5","","574.2000000476837","","0","1","arrowleft","0","arrowleft","[0.675,0.325,0.85,0.15]","","",""
"sailing-trial","420","2078597","0.0-11.0-385.0","","","","false","","","","","","","","","","null","","1974.5","","1","0","null","null","arrowup","[0.675,0.325,0.85,0.15]","","",""
"sailing-trial","421","2083760","0.0-11.0-386.0","","","","false","","","","","","","","","","1242.7000000476837","","835.9000000953674","","2","1","arrowright","1","arrowleft","[0.675,0.325,0.85,0.15]","","",""
"sailing-trial","422","2088710","0.0-11.0-387.0","","","","false","","","","","","","","","","null","","2852.4000000953674","","2","1","null","null","arrowup","[0.675,0.325,0.85,0.15]","","",""
"sailing-trial","423","2093027","0.0-11.0-388.0","","","","false","","","","","","","","","","632.6000001430511","","104.89999985694885","","2","1","arrowright","1","arrowleft","[0.675,0.325,0.85,0.15]","","",""
"sailing-trial","424","2095527","0.0-11.0-389.0","","","","false","","","","","","","","","","null","","929.8999998569489","","0","1","null","null","arrowup","[0.675,0.325,0.85,0.15]","","",""
"sailing-trial","425","2100062","0.0-11.0-390.0","","","","false","","","","","","","","","","859.2999999523163","","592.7000000476837","","2","1","arrowright","1","arrowleft","[0.675,0.325,0.85,0.15]","","",""
"sailing-trial","426","2103542","0.0-11.0-391.0","","","","false","","","","","","","","","","null","","1381.0999999046326","","1","1","null","null","arrowup","[0.675,0.325,0.85,0.15]","","",""
"sailing-trial","427","2107140","0.0-11.0-392.0","","","","false","","","","","","","","","","707","","394.7000000476837","","0","0","arrowleft","0","arrowleft","[0.675,0.325,0.85,0.15]","","",""
"sailing-trial","428","2110243","0.0-11.0-393.0","","","","false","","","","","","","","","","null","","843.5","","2","1","null","null","arrowup","[0.675,0.325,0.85,0.15]","","",""
"sailing-trial","429","2113976","0.0-11.0-394.0","","","","false","","","","","","","","","","807.5","","185.29999995231628","","2","1","arrowright","1","arrowleft","[0.675,0.325,0.85,0.15]","","",""
"sailing-trial","430","2117126","0.0-11.0-395.0","","","","false","","","","","","","","","","null","","667.2000000476837","","2","1","null","null","arrowup","[0.675,0.325,0.85,0.15]","","",""
"sailing-trial","431","2121375","0.0-11.0-396.0","","","","false","","","","","","","","","","509.7999999523163","","842.7999999523163","","0","1","arrowleft","0","arrowleft","[0.675,0.325,0.85,0.15]","","",""
"sailing-trial","432","2123897","0.0-11.0-397.0","","","","false","","","","","","","","","","null","","1249.3000001907349","","3","0","null","null","arrowup","[0.675,0.325,0.85,0.15]","","",""
"sailing-trial","433","2127642","0.0-11.0-398.0","","","","false","","","","","","","","","","543.4000000953674","","366.09999990463257","","2","1","arrowright","1","arrowleft","[0.675,0.325,0.85,0.15]","","",""
"sailing-trial","434","2130012","0.0-11.0-399.0","","","","false","","","","","","","","","","null","","1095.8000001907349","","3","0","null","null","arrowup","[0.675,0.325,0.85,0.15]","","",""
"instructions","435","2134393","0.0-12.0","","","","","","","","","","4379.600000143051","","","","","","","","","","","","","","","","[{""page_index"":0,""viewing_time"":4378.900000095367}]"
"survey-debrief","436","2155218","0.0-13.0","","","","","","","","","","20822.799999952316","","","","","","","","","","","","","","{""difficulty"":""5"",""fun"":""1"",""clarity"":""5"",""strategy"":""No"",""feedback"":""No""}","",""
