"trial_type","trial_index","time_elapsed","internal_node_id","value","metadata","success","timeout","failed_images","failed_audio","failed_video","browser_interaction","low_quality","rt","stimulus","response","button_pressed","island_rt","island_response","boat_rt","boat_response","boat","reward","island_key","island","boat_key","reward_probabilities","responses","num_errors","view_history"
"pavlovia","0","3","0.0-0.0","","","","","","","","","","","","","","","","","","","","","","","","","",""
"call-function","1","3","0.0-1.0","","{""task_version"":""sr_pilot_v2"",""task_condition"":""good"",""boats"":[""A"",""C"",""D"",""B""],""boats_demo"":[""G"",""E"",""F"",""H""],""islands"":[""B"",""A""],""subject_id"":""13999"",""age"":""21"",""gender"":""Male""}","","","","","","","","","","","","","","","","","","","","","","","",""
"preload","2","1314","0.0-2.0","","","true","false","[]","[]","[]","[{""event"":""fullscreenenter"",""trial"":3,""time"":2645}]","false","","","","","","","","","","","","","","","","",""
"fullscreen","3","3615","0.0-3.0","","","true","","","","","","","","","","","","","","","","","","","","","","",""
"audio-keyboard-response","4","5867","0.0-4.0-0.0","","","","","","","","","","2176","audio/beep_loop.wav"," ","","","","","","","","","","","","","",""
"audio-test","5","7575","0.0-4.0-1.0","","","","","","","","","","null","audio/turtle.mp3","","3","","","","","","","","","","","","",""
"audio-test","6","10364","0.0-4.0-2.0","","","","","","","","","","null","audio/shark.mp3","","2","","","","","","","","","","","","",""
"sailing-instructions","7","41748","0.0-5.0-0.0-0.0","","","","","","","","","","","","","","null","null","null","null","null","null","","","","","","",""
"sailing-trial","8","45005","0.0-5.0-0.0-1.0-0.0","","","","false","","","","","","","","","","2146.899999999907","","null","","null","null","arrowleft","0","null","null","","",""
"sailing-trial","9","46886","0.0-5.0-0.0-1.0-1.0","","","","false","","","","","","","","","","769.5","","null","","null","null","arrowright","1","null","null","","",""
"sailing-trial","10","49352","0.0-5.0-0.0-1.0-2.0","","","","false","","","","","","","","","","1346.9000000001397","","null","","null","null","arrowleft","0","null","null","","",""
"sailing-instructions","11","90091","0.0-5.0-0.0-2.0","","","","","","","","","","","","","","null","null","null","null","0","null","","","","","","",""
"sailing-trial","12","95236","0.0-5.0-0.0-3.0-0.0","","","","false","","","","","","","","","","null","","2036.1999999999534","","2","1","null","null","arrowleft","[1,1,1,1]","","",""
"sailing-trial","13","98401","0.0-5.0-0.0-3.0-1.0","","","","false","","","","","","","","","","null","","573.5","","3","1","null","null","arrowright","[1,1,1,1]","","",""
"sailing-trial","14","102000","0.0-5.0-0.0-3.0-2.0","","","","false","","","","","","","","","","null","","933.0999999998603","","3","0","null","null","arrowright","[0,0,0,0]","","",""
"sailing-instructions","15","109912","0.0-5.0-0.0-4.0","","","","","","","","","","","","","","null","null","null","null","null","null","","","","","","",""
"sailing-comprehension","16","124827","0.0-5.0-0.0-5.0","","","","","","","","","","10675.399999999907","","","","","","","","","","","","","","[""true"",""true"",""false"",""true""]","0",""
"sailing-instructions","17","190194","0.0-6.0-0.0-0.0","","","","","","","","","","","","","","null","null","null","null","null","null","","","","","","",""
"sailing-comprehension","18","201191","0.0-6.0-0.0-1.0","","","","","","","","","","9420.5","","","","","","","","","","","","","","[""true"",""false"",""true""]","0",""
"sailing-instructions","19","214730","0.0-7.0-0.0-0.0","","","","","","","","","","","","","","null","null","null","null","null","null","","","","","","",""
"sailing-trial","20","221660","0.0-7.0-0.0-1.0-0.0","","","","false","","","","","","","","","","null","","4187.5","","0","0","null","null","arrowup","[0.2,0.8,0.2,0.8]","","",""
"sailing-trial","21","225380","0.0-7.0-0.0-1.0-1.0","","","","false","","","","","","","","","","null","","1750.3000000000466","","1","0","null","null","arrowup","[0.2,0.8,0.2,0.8]","","",""
"sailing-trial","22","228030","0.0-7.0-0.0-1.0-2.0","","","","false","","","","","","","","","","null","","756.6999999999534","","2","1","null","null","arrowup","[0.2,0.8,0.2,0.8]","","",""
"sailing-trial","23","231712","0.0-7.0-0.0-1.0-3.0","","","","false","","","","","","","","","","null","","1402.3999999999069","","3","1","null","null","arrowup","[0.2,0.8,0.2,0.8]","","",""
"sailing-comprehension","24","240994","0.0-7.0-0.0-2.0","","","","","","","","","","4727","","","","","","","","","","","","","","[""true""]","1",""
"sailing-instructions","25","255459","0.0-7.0-0.1-0.1","","","","","","","","","","","","","","null","null","null","null","null","null","","","","","","",""
"sailing-trial","26","257913","0.0-7.0-0.1-1.1-0.1","","","","false","","","","","","","","","","null","","716.8000000000466","","0","0","null","null","arrowup","[0.2,0.8,0.2,0.8]","","",""
"sailing-trial","27","260243","0.0-7.0-0.1-1.1-1.1","","","","false","","","","","","","","","","null","","603.2000000001863","","1","1","null","null","arrowup","[0.2,0.8,0.2,0.8]","","",""
"sailing-trial","28","261994","0.0-7.0-0.1-1.1-2.1","","","","false","","","","","","","","","","null","","577.6000000000931","","2","0","null","null","arrowup","[0.2,0.8,0.2,0.8]","","",""
"sailing-trial","29","264456","0.0-7.0-0.1-1.1-3.1","","","","false","","","","","","","","","","null","","565.4000000001397","","3","1","null","null","arrowup","[0.2,0.8,0.2,0.8]","","",""
"sailing-comprehension","30","269565","0.0-7.0-0.1-2.1","","","","","","","","","","2945.5","","","","","","","","","","","","","","[""false""]","0",""
"sailing-instructions","31","655312","0.0-8.0-0.0-0.0","","","","","","","","","","","","","","null","null","null","null","null","null","","","","","","",""
"sailing-comprehension","32","659198","0.0-8.0-0.0-1.0","","","","","","","","","","3068.8000000000466","","","","","","","","","","","","","","[""true""]","0",""
"sailing-instructions","33","691593","0.0-9.0-0.0-0.0","","","","","","","","","","","","","","null","null","null","null","null","null","","","","","","",""
"sailing-trial","34","697208","0.0-9.0-0.0-1.0-0.0","","","","false","","","","","","","","","","1008.8000000000466","","669.6999999999534","","0","0","arrowleft","0","arrowleft","[0.2,0.8,0.2,0.8]","","",""
"sailing-trial","35","704596","0.0-9.0-0.0-1.0-1.0","","","","false","","","","","","","","","","1840.2000000001863","","1929.2000000001863","","1","1","arrowleft","0","arrowright","[0.2,0.8,0.2,0.8]","","",""
"sailing-trial","36","708276","0.0-9.0-0.0-1.0-2.0","","","","false","","","","","","","","","","null","","1612.1000000000931","","0","1","null","null","arrowup","[0.2,0.8,0.2,0.8]","","",""
"sailing-trial","37","713024","0.0-9.0-0.0-1.0-3.0","","","","false","","","","","","","","","","880.1999999999534","","733.5","","3","1","arrowright","1","arrowright","[0.2,0.8,0.2,0.8]","","",""
"sailing-trial","38","718019","0.0-9.0-0.0-1.0-4.0","","","","false","","","","","","","","","","null","","2968.9000000001397","","3","1","null","null","arrowup","[0.2,0.8,0.2,0.8]","","",""
"sailing-trial","39","722282","0.0-9.0-0.0-1.0-5.0","","","","false","","","","","","","","","","1271.3000000000466","","66.5","","3","0","arrowright","1","arrowright","[0.2,0.8,0.2,0.8]","","",""
"sailing-instructions","40","755015","0.0-10.0","","","","","","","","","","","","","","null","null","null","null","null","null","","","","","","",""
"sailing-trial","41","759527","0.0-11.0-0.0","","","","false","","","","","","","","","","1308.7999999998137","","32.5","","0","0","arrowleft","0","arrowleft","[0.85,0.15,0.675,0.325]","","",""
"sailing-trial","42","763166","0.0-11.0-1.0","","","","false","","","","","","","","","","null","","1227.3000000000466","","3","0","null","null","arrowup","[0.85,0.15,0.675,0.325]","","",""
"sailing-trial","43","768299","0.0-11.0-2.0","","","","false","","","","","","","","","","831.6999999999534","","508.60000000009313","","2","0","arrowright","1","arrowleft","[0.85,0.15,0.675,0.325]","","",""
"sailing-trial","44","771616","0.0-11.0-3.0","","","","false","","","","","","","","","","null","","1062.9000000001397","","1","1","null","null","arrowup","[0.85,0.15,0.675,0.325]","","",""
"sailing-trial","45","775864","0.0-11.0-4.0","","","","false","","","","","","","","","","595.5","","509.80000000004657","","0","1","arrowleft","0","arrowleft","[0.85,0.15,0.675,0.325]","","",""
"sailing-trial","46","778735","0.0-11.0-5.0","","","","false","","","","","","","","","","null","","965.8000000000466","","3","0","null","null","arrowup","[0.85,0.15,0.675,0.325]","","",""
"sailing-trial","47","783041","0.0-11.0-6.0","","","","false","","","","","","","","","","812.1999999999534","","396.80000000004657","","1","0","arrowleft","0","arrowright","[0.85,0.15,0.675,0.325]","","",""
"sailing-trial","48","785941","0.0-11.0-7.0","","","","false","","","","","","","","","","null","","1027.5","","2","1","null","null","arrowup","[0.85,0.15,0.675,0.325]","","",""
"sailing-trial","49","789971","0.0-11.0-8.0","","","","false","","","","","","","","","","546","","419.4000000001397","","0","1","arrowleft","0","arrowleft","[0.85,0.15,0.675,0.325]","","",""
"sailing-trial","50","792650","0.0-11.0-9.0","","","","false","","","","","","","","","","null","","874.7999999998137","","0","0","null","null","arrowup","[0.85,0.15,0.675,0.325]","","",""
"sailing-trial","51","798214","0.0-11.0-10.0","","","","false","","","","","","","","","","1076.3999999999069","","1424","","0","1","arrowleft","0","arrowleft","[0.85,0.15,0.675,0.325]","","",""
"sailing-trial","52","802117","0.0-11.0-11.0","","","","false","","","","","","","","","","null","","859.5999999998603","","2","0","null","null","arrowup","[0.85,0.15,0.675,0.325]","","",""
"sailing-trial","53","806960","0.0-11.0-12.0","","","","false","","","","","","","","","","1426.4000000001397","","470.70000000018626","","0","1","arrowleft","0","arrowleft","[0.85,0.15,0.675,0.325]","","",""
"sailing-trial","54","810569","0.0-11.0-13.0","","","","false","","","","","","","","","","null","","787.6000000000931","","3","0","null","null","arrowup","[0.85,0.15,0.675,0.325]","","",""
"sailing-trial","55","815268","0.0-11.0-14.0","","","","false","","","","","","","","","","639.6000000000931","","921.5","","0","0","arrowleft","0","arrowleft","[0.85,0.15,0.675,0.325]","","",""
"sailing-trial","56","818119","0.0-11.0-15.0","","","","false","","","","","","","","","","null","","917.6000000000931","","0","1","null","null","arrowup","[0.85,0.15,0.675,0.325]","","",""
"sailing-trial","57","822785","0.0-11.0-16.0","","","","false","","","","","","","","","","735.6999999999534","","628","","0","0","arrowleft","0","arrowleft","[0.85,0.15,0.675,0.325]","","",""
"sailing-trial","58","826405","0.0-11.0-17.0","","","","false","","","","","","","","","","null","","1043.6999999999534","","0","0","null","null","arrowup","[0.85,0.15,0.675,0.325]","","",""
"sailing-trial","59","832981","0.0-11.0-18.0","","","","false","","","","","","","","","","2097.399999999907","","924.3999999999069","","1","0","arrowleft","0","arrowright","[0.675,0.325,0.85,0.15]","","",""
"sailing-trial","60","835932","0.0-11.0-19.0","","","","false","","","","","","","","","","null","","848.5","","2","0","null","null","arrowup","[0.675,0.325,0.85,0.15]","","",""
"sailing-trial","61","839987","0.0-11.0-20.0","","","","false","","","","","","","","","","610.5999999998603","","76.39999999990687","","2","1","arrowright","1","arrowleft","[0.675,0.325,0.85,0.15]","","",""
"sailing-trial","62","842888","0.0-11.0-21.0","","","","false","","","","","","","","","","null","","760.3999999999069","","1","0","null","null","arrowup","[0.675,0.325,0.85,0.15]","","",""
"sailing-trial","63","847197","0.0-11.0-22.0","","","","false","","","","","","","","","","581.0999999998603","","670.1999999999534","","3","0","arrowright","1","arrowright","[0.675,0.325,0.85,0.15]","","",""
"sailing-trial","64","850340","0.0-11.0-23.0","","","","false","","","","","","","","","","null","","1135.6999999999534","","3","0","null","null","arrowup","[0.675,0.325,0.85,0.15]","","",""
"sailing-trial","65","854028","0.0-11.0-24.0","","","","false","","","","","","","","","","551.6000000000931","","21.0999999998603","","2","0","arrowright","1","arrowleft","[0.675,0.325,0.85,0.15]","","",""
"sailing-trial","66","857185","0.0-11.0-25.0","","","","false","","","","","","","","","","null","","1023","","1","0","null","null","arrowup","[0.675,0.325,0.85,0.15]","","",""
"sailing-trial","67","861390","0.0-11.0-26.0","","","","false","","","","","","","","","","506.60000000009313","","492.0999999998603","","0","1","arrowleft","0","arrowleft","[0.675,0.325,0.85,0.15]","","",""
"sailing-trial","68","864279","0.0-11.0-27.0","","","","false","","","","","","","","","","null","","920.3000000000466","","3","0","null","null","arrowup","[0.675,0.325,0.85,0.15]","","",""
"sailing-trial","69","869600","0.0-11.0-28.0","","","","false","","","","","","","","","","1389.5999999998603","","920","","0","1","arrowleft","0","arrowleft","[0.675,0.325,0.85,0.15]","","",""
"sailing-trial","70","872229","0.0-11.0-29.0","","","","false","","","","","","","","","","null","","735.5","","1","0","null","null","arrowup","[0.675,0.325,0.85,0.15]","","",""
"sailing-trial","71","875707","0.0-11.0-30.0","","","","false","","","","","","","","","","521","","0.8999999999068677","","0","0","arrowleft","0","arrowleft","[0.675,0.325,0.85,0.15]","","",""
"sailing-trial","72","878868","0.0-11.0-31.0","","","","false","","","","","","","","","","null","","873","","2","0","null","null","arrowup","[0.675,0.325,0.85,0.15]","","",""
"sailing-trial","73","882685","0.0-11.0-32.0","","","","false","","","","","","","","","","579.4000000001397","","235.19999999995343","","3","0","arrowright","1","arrowright","[0.675,0.325,0.85,0.15]","","",""
"sailing-trial","74","885323","0.0-11.0-33.0","","","","false","","","","","","","","","","null","","735.9000000001397","","0","1","null","null","arrowup","[0.675,0.325,0.85,0.15]","","",""
"sailing-trial","75","889322","0.0-11.0-34.0","","","","false","","","","","","","","","","551.9000000001397","","527.9000000001397","","0","1","arrowleft","0","arrowleft","[0.675,0.325,0.85,0.15]","","",""
"sailing-trial","76","891835","0.0-11.0-35.0","","","","false","","","","","","","","","","null","","942.0999999998603","","0","0","null","null","arrowup","[0.675,0.325,0.85,0.15]","","",""
"sailing-trial","77","895699","0.0-11.0-36.0","","","","false","","","","","","","","","","556.4000000001397","","69.19999999995343","","0","1","arrowleft","0","arrowleft","[0.675,0.325,0.85,0.15]","","",""
"sailing-trial","78","898349","0.0-11.0-37.0","","","","false","","","","","","","","","","null","","872.8999999999069","","3","0","null","null","arrowup","[0.675,0.325,0.85,0.15]","","",""
"sailing-trial","79","902374","0.0-11.0-38.0","","","","false","","","","","","","","","","578.5","","623.6999999999534","","0","0","arrowleft","0","arrowleft","[0.675,0.325,0.85,0.15]","","",""
"sailing-trial","80","905056","0.0-11.0-39.0","","","","false","","","","","","","","","","null","","779.0999999998603","","0","0","null","null","arrowup","[0.675,0.325,0.85,0.15]","","",""
"sailing-trial","81","908925","0.0-11.0-40.0","","","","false","","","","","","","","","","609.1999999999534","","188.30000000004657","","0","1","arrowleft","0","arrowleft","[0.85,0.15,0.675,0.325]","","",""
"sailing-trial","82","911421","0.0-11.0-41.0","","","","false","","","","","","","","","","null","","655.1000000000931","","1","0","null","null","arrowup","[0.85,0.15,0.675,0.325]","","",""
"sailing-trial","83","915070","0.0-11.0-42.0","","","","false","","","","","","","","","","574.6000000000931","","173.60000000009313","","0","1","arrowleft","0","arrowleft","[0.85,0.15,0.675,0.325]","","",""
"sailing-trial","84","917834","0.0-11.0-43.0","","","","false","","","","","","","","","","null","","817.5","","3","1","null","null","arrowup","[0.85,0.15,0.675,0.325]","","",""
"sailing-trial","85","921803","0.0-11.0-44.0","","","","false","","","","","","","","","","601.7000000001863","","540.1999999999534","","0","0","arrowleft","0","arrowleft","[0.85,0.15,0.675,0.325]","","",""
"sailing-trial","86","924463","0.0-11.0-45.0","","","","false","","","","","","","","","","null","","768.2999999998137","","0","1","null","null","arrowup","[0.85,0.15,0.675,0.325]","","",""
"sailing-trial","87","929045","0.0-11.0-46.0","","","","false","","","","","","","","","","1385.1000000000931","","118.39999999990687","","1","1","arrowleft","0","arrowright","[0.85,0.15,0.675,0.325]","","",""
"sailing-trial","88","931776","0.0-11.0-47.0","","","","false","","","","","","","","","","null","","872","","2","1","null","null","arrowup","[0.85,0.15,0.675,0.325]","","",""
"sailing-trial","89","936234","0.0-11.0-48.0","","","","false","","","","","","","","","","1168","","443.29999999981374","","1","0","arrowleft","0","arrowright","[0.85,0.15,0.675,0.325]","","",""
"sailing-trial","90","938446","0.0-11.0-49.0","","","","false","","","","","","","","","","null","","595.2999999998137","","2","0","null","null","arrowup","[0.85,0.15,0.675,0.325]","","",""
"sailing-trial","91","941971","0.0-11.0-50.0","","","","false","","","","","","","","","","527.6000000000931","","56.9000000001397","","0","1","arrowleft","0","arrowleft","[0.85,0.15,0.675,0.325]","","",""
"sailing-trial","92","944749","0.0-11.0-51.0","","","","false","","","","","","","","","","null","","868.8999999999069","","3","0","null","null","arrowup","[0.85,0.15,0.675,0.325]","","",""
"sailing-trial","93","948570","0.0-11.0-52.0","","","","false","","","","","","","","","","609","","397.10000000009313","","0","0","arrowleft","0","arrowleft","[0.85,0.15,0.675,0.325]","","",""
"sailing-trial","94","951112","0.0-11.0-53.0","","","","false","","","","","","","","","","null","","819.7000000001863","","3","0","null","null","arrowup","[0.85,0.15,0.675,0.325]","","",""
"sailing-trial","95","954977","0.0-11.0-54.0","","","","false","","","","","","","","","","735.6000000000931","","61.5","","2","1","arrowright","1","arrowleft","[0.85,0.15,0.675,0.325]","","",""
"sailing-trial","96","957593","0.0-11.0-55.0","","","","false","","","","","","","","","","null","","718.5","","0","1","null","null","arrowup","[0.85,0.15,0.675,0.325]","","",""
"sailing-trial","97","962323","0.0-11.0-56.0","","","","false","","","","","","","","","","1283","","432","","3","1","arrowright","1","arrowright","[0.325,0.675,0.15,0.85]","","",""
"sailing-trial","98","964750","0.0-11.0-57.0","","","","false","","","","","","","","","","null","","673","","0","0","null","null","arrowup","[0.325,0.675,0.15,0.85]","","",""
"sailing-trial","99","968989","0.0-11.0-58.0","","","","false","","","","","","","","","","862.6000000000931","","447.60000000009313","","2","0","arrowright","1","arrowleft","[0.325,0.675,0.15,0.85]","","",""
"sailing-trial","100","971568","0.0-11.0-59.0","","","","false","","","","","","","","","","null","","820.2000000001863","","2","0","null","null","arrowup","[0.325,0.675,0.15,0.85]","","",""
"sailing-trial","101","975679","0.0-11.0-60.0","","","","false","","","","","","","","","","679.5999999996275","","426.60000000009313","","3","1","arrowright","1","arrowright","[0.325,0.675,0.15,0.85]","","",""
"sailing-trial","102","978126","0.0-11.0-61.0","","","","false","","","","","","","","","","null","","773.8999999999069","","3","0","null","null","arrowup","[0.325,0.675,0.15,0.85]","","",""
"sailing-trial","103","982142","0.0-11.0-62.0","","","","false","","","","","","","","","","662.5","","441.10000000009313","","3","1","arrowright","1","arrowright","[0.325,0.675,0.15,0.85]","","",""
"sailing-trial","104","984842","0.0-11.0-63.0","","","","false","","","","","","","","","","null","","846.9000000003725","","3","1","null","null","arrowup","[0.325,0.675,0.15,0.85]","","",""
"sailing-trial","105","989087","0.0-11.0-64.0","","","","false","","","","","","","","","","692.5","","638.6000000000931","","3","1","arrowright","1","arrowright","[0.325,0.675,0.15,0.85]","","",""
"sailing-trial","106","991287","0.0-11.0-65.0","","","","false","","","","","","","","","","null","","641","","2","0","null","null","arrowup","[0.325,0.675,0.15,0.85]","","",""
"sailing-trial","107","995966","0.0-11.0-66.0","","","","false","","","","","","","","","","964.1999999997206","","642.8000000002794","","3","1","arrowright","1","arrowright","[0.325,0.675,0.15,0.85]","","",""
"sailing-trial","108","998945","0.0-11.0-67.0","","","","false","","","","","","","","","","null","","755.1000000000931","","2","0","null","null","arrowup","[0.325,0.675,0.15,0.85]","","",""
"sailing-trial","109","1002978","0.0-11.0-68.0","","","","false","","","","","","","","","","637.5","","470.29999999981374","","3","1","arrowright","1","arrowright","[0.325,0.675,0.15,0.85]","","",""
"sailing-trial","110","1005163","0.0-11.0-69.0","","","","false","","","","","","","","","","null","","713.6000000000931","","0","0","null","null","arrowup","[0.325,0.675,0.15,0.85]","","",""
"sailing-trial","111","1009575","0.0-11.0-70.0","","","","false","","","","","","","","","","990.9000000003725","","514.7000000001863","","3","1","arrowright","1","arrowright","[0.325,0.675,0.15,0.85]","","",""
"sailing-trial","112","1012122","0.0-11.0-71.0","","","","false","","","","","","","","","","null","","683.5","","1","1","null","null","arrowup","[0.325,0.675,0.15,0.85]","","",""
"sailing-trial","113","1017001","0.0-11.0-72.0","","","","false","","","","","","","","","","1020.6000000000931","","926","","3","1","arrowright","1","arrowright","[0.325,0.675,0.15,0.85]","","",""
"sailing-trial","114","1019215","0.0-11.0-73.0","","","","false","","","","","","","","","","null","","637.8999999999069","","1","0","null","null","arrowup","[0.325,0.675,0.15,0.85]","","",""
"sailing-trial","115","1023579","0.0-11.0-74.0","","","","false","","","","","","","","","","772.2999999998137","","599.2000000001863","","3","1","arrowright","1","arrowright","[0.15,0.85,0.325,0.675]","","",""
"sailing-trial","116","1026128","0.0-11.0-75.0","","","","false","","","","","","","","","","null","","630.7000000001863","","3","1","null","null","arrowup","[0.15,0.85,0.325,0.675]","","",""
"sailing-trial","117","1030528","0.0-11.0-76.0","","","","false","","","","","","","","","","683.7000000001863","","4.899999999906868","","3","1","arrowright","1","arrowright","[0.15,0.85,0.325,0.675]","","",""
"sailing-trial","118","1033472","0.0-11.0-77.0","","","","false","","","","","","","","","","null","","1028.5","","3","1","null","null","arrowup","[0.15,0.85,0.325,0.675]","","",""
"sailing-trial","119","1037006","0.0-11.0-78.0","","","","false","","","","","","","","","","607.1000000000931","","84.09999999962747","","3","1","arrowright","1","arrowright","[0.15,0.85,0.325,0.675]","","",""
"sailing-trial","120","1038932","0.0-11.0-79.0","","","","false","","","","","","","","","","null","","14.399999999906868","","3","0","null","null","arrowup","[0.15,0.85,0.325,0.675]","","",""
"sailing-trial","121","1043034","0.0-11.0-80.0","","","","false","","","","","","","","","","616.6999999997206","","491.1999999997206","","3","1","arrowright","1","arrowright","[0.15,0.85,0.325,0.675]","","",""
"sailing-trial","122","1045582","0.0-11.0-81.0","","","","false","","","","","","","","","","null","","673.1000000000931","","2","1","null","null","arrowup","[0.15,0.85,0.325,0.675]","","",""
"sailing-trial","123","1049813","0.0-11.0-82.0","","","","false","","","","","","","","","","706.7000000001863","","629.7999999998137","","3","1","arrowright","1","arrowright","[0.15,0.85,0.325,0.675]","","",""
"sailing-trial","124","1052479","0.0-11.0-83.0","","","","false","","","","","","","","","","null","","756.7000000001863","","0","1","null","null","arrowup","[0.15,0.85,0.325,0.675]","","",""
"sailing-trial","125","1057071","0.0-11.0-84.0","","","","false","","","","","","","","","","593","","463.10000000009313","","3","0","arrowright","1","arrowright","[0.15,0.85,0.325,0.675]","","",""
"sailing-trial","126","1062135","0.0-11.0-85.0","","","","false","","","","","","","","","","null","","3218.7999999998137","","2","0","null","null","arrowup","[0.15,0.85,0.325,0.675]","","",""
"sailing-trial","127","1067085","0.0-11.0-86.0","","","","false","","","","","","","","","","1452.3999999999069","","552.7000000001863","","3","1","arrowright","1","arrowright","[0.15,0.85,0.325,0.675]","","",""
"sailing-trial","128","1069296","0.0-11.0-87.0","","","","false","","","","","","","","","","null","","548.7999999998137","","2","0","null","null","arrowup","[0.15,0.85,0.325,0.675]","","",""
"sailing-trial","129","1073249","0.0-11.0-88.0","","","","false","","","","","","","","","","741.8999999999069","","241.20000000018626","","3","1","arrowright","1","arrowright","[0.15,0.85,0.325,0.675]","","",""
"sailing-trial","130","1075811","0.0-11.0-89.0","","","","false","","","","","","","","","","null","","656.7000000001863","","1","1","null","null","arrowup","[0.15,0.85,0.325,0.675]","","",""
"sailing-trial","131","1079878","0.0-11.0-90.0","","","","false","","","","","","","","","","582.5","","507","","3","1","arrowright","1","arrowright","[0.325,0.675,0.15,0.85]","","",""
"sailing-trial","132","1082321","0.0-11.0-91.0","","","","false","","","","","","","","","","null","","589.2000000001863","","0","0","null","null","arrowup","[0.325,0.675,0.15,0.85]","","",""
"sailing-trial","133","1086056","0.0-11.0-92.0","","","","false","","","","","","","","","","689.5","","56.89999999990687","","3","1","arrowright","1","arrowright","[0.325,0.675,0.15,0.85]","","",""
"sailing-trial","134","1088095","0.0-11.0-93.0","","","","false","","","","","","","","","","null","","546.3000000002794","","0","0","null","null","arrowup","[0.325,0.675,0.15,0.85]","","",""
"sailing-trial","135","1091934","0.0-11.0-94.0","","","","false","","","","","","","","","","685.6000000000931","","131.89999999990687","","3","1","arrowright","1","arrowright","[0.325,0.675,0.15,0.85]","","",""
"sailing-trial","136","1094498","0.0-11.0-95.0","","","","false","","","","","","","","","","null","","637.7000000001863","","1","1","null","null","arrowup","[0.325,0.675,0.15,0.85]","","",""
"sailing-trial","137","1098132","0.0-11.0-96.0","","","","false","","","","","","","","","","625.0999999996275","","90.79999999981374","","3","1","arrowright","1","arrowright","[0.325,0.675,0.15,0.85]","","",""
"sailing-trial","138","1100213","0.0-11.0-97.0","","","","false","","","","","","","","","","null","","588.1000000000931","","2","0","null","null","arrowup","[0.325,0.675,0.15,0.85]","","",""
"sailing-trial","139","1103978","0.0-11.0-98.0","","","","false","","","","","","","","","","654.8000000002794","","217.3000000002794","","3","1","arrowright","1","arrowright","[0.325,0.675,0.15,0.85]","","",""
"sailing-trial","140","1106117","0.0-11.0-99.0","","","","false","","","","","","","","","","null","","512","","0","0","null","null","arrowup","[0.325,0.675,0.15,0.85]","","",""
"sailing-trial","141","1109706","0.0-11.0-100.0","","","","false","","","","","","","","","","548.3999999999069","","127.89999999990687","","3","1","arrowright","1","arrowright","[0.325,0.675,0.15,0.85]","","",""
"sailing-trial","142","1112019","0.0-11.0-101.0","","","","false","","","","","","","","","","null","","648.8999999999069","","2","0","null","null","arrowup","[0.325,0.675,0.15,0.85]","","",""
"sailing-trial","143","1115684","0.0-11.0-102.0","","","","false","","","","","","","","","","574","","142.3000000002794","","3","1","arrowright","1","arrowright","[0.325,0.675,0.15,0.85]","","",""
"sailing-trial","144","1118301","0.0-11.0-103.0","","","","false","","","","","","","","","","null","","679.2000000001863","","1","1","null","null","arrowup","[0.325,0.675,0.15,0.85]","","",""
"sailing-trial","145","1121880","0.0-11.0-104.0","","","","false","","","","","","","","","","561.8999999999069","","133.5","","3","1","arrowright","1","arrowright","[0.325,0.675,0.15,0.85]","","",""
"sailing-trial","146","1124744","0.0-11.0-105.0","","","","false","","","","","","","","","","null","","926","","3","1","null","null","arrowup","[0.325,0.675,0.15,0.85]","","",""
"sailing-trial","147","1128377","0.0-11.0-106.0","","","","false","","","","","","","","","","613.6999999997206","","68.5","","3","1","arrowright","1","arrowright","[0.325,0.675,0.15,0.85]","","",""
"sailing-trial","148","1130859","0.0-11.0-107.0","","","","false","","","","","","","","","","null","","634","","1","1","null","null","arrowup","[0.325,0.675,0.15,0.85]","","",""
"sailing-trial","149","1134424","0.0-11.0-108.0","","","","false","","","","","","","","","","600.0999999996275","","67","","3","1","arrowright","1","arrowright","[0.15,0.85,0.325,0.675]","","",""
"sailing-trial","150","1136790","0.0-11.0-109.0","","","","false","","","","","","","","","","null","","590.2000000001863","","3","1","null","null","arrowup","[0.15,0.85,0.325,0.675]","","",""
"sailing-trial","151","1140567","0.0-11.0-110.0","","","","false","","","","","","","","","","601.6000000000931","","640","","3","0","arrowright","1","arrowright","[0.15,0.85,0.325,0.675]","","",""
"sailing-trial","152","1143117","0.0-11.0-111.0","","","","false","","","","","","","","","","null","","626.3999999999069","","3","1","null","null","arrowup","[0.15,0.85,0.325,0.675]","","",""
"sailing-trial","153","1146352","0.0-11.0-112.0","","","","false","","","","","","","","","","582.8999999999069","","110.09999999962747","","3","0","arrowright","1","arrowright","[0.15,0.85,0.325,0.675]","","",""
"sailing-trial","154","1149031","0.0-11.0-113.0","","","","false","","","","","","","","","","null","","817.2999999998137","","0","1","null","null","arrowup","[0.15,0.85,0.325,0.675]","","",""
"sailing-trial","155","1153427","0.0-11.0-114.0","","","","false","","","","","","","","","","712.3999999999069","","707.8000000002794","","3","1","arrowright","1","arrowright","[0.15,0.85,0.325,0.675]","","",""
"sailing-trial","156","1155992","0.0-11.0-115.0","","","","false","","","","","","","","","","null","","662.5","","1","1","null","null","arrowup","[0.15,0.85,0.325,0.675]","","",""
"sailing-trial","157","1159790","0.0-11.0-116.0","","","","false","","","","","","","","","","790.9000000003725","","1.8000000002793968","","3","1","arrowright","1","arrowright","[0.15,0.85,0.325,0.675]","","",""
"sailing-trial","158","1161836","0.0-11.0-117.0","","","","false","","","","","","","","","","null","","669.8999999999069","","0","0","null","null","arrowup","[0.15,0.85,0.325,0.675]","","",""
"sailing-trial","159","1165769","0.0-11.0-118.0","","","","false","","","","","","","","","","605.5","","475.70000000018626","","3","1","arrowright","1","arrowright","[0.15,0.85,0.325,0.675]","","",""
"sailing-trial","160","1167766","0.0-11.0-119.0","","","","false","","","","","","","","","","null","","585.5","","2","0","null","null","arrowup","[0.15,0.85,0.325,0.675]","","",""
"sailing-trial","161","1171315","0.0-11.0-120.0","","","","false","","","","","","","","","","591.7999999998137","","68.5","","3","1","arrowright","1","arrowright","[0.15,0.85,0.325,0.675]","","",""
"sailing-trial","162","1173511","0.0-11.0-121.0","","","","false","","","","","","","","","","null","","559.5","","2","0","null","null","arrowup","[0.15,0.85,0.325,0.675]","","",""
"sailing-trial","163","1177545","0.0-11.0-122.0","","","","false","","","","","","","","","","616.1000000000931","","563.4000000003725","","3","1","arrowright","1","arrowright","[0.15,0.85,0.325,0.675]","","",""
"sailing-trial","164","1180593","0.0-11.0-123.0","","","","false","","","","","","","","","","null","","1147.6000000000931","","3","1","null","null","arrowup","[0.15,0.85,0.325,0.675]","","",""
"sailing-trial","165","1184223","0.0-11.0-124.0","","","","false","","","","","","","","","","619.7000000001863","","132","","3","1","arrowright","1","arrowright","[0.325,0.675,0.15,0.85]","","",""
"sailing-trial","166","1186234","0.0-11.0-125.0","","","","false","","","","","","","","","","null","","663.7999999998137","","3","0","null","null","arrowup","[0.325,0.675,0.15,0.85]","","",""
"sailing-trial","167","1190835","0.0-11.0-126.0","","","","false","","","","","","","","","","615.2999999998137","","978.8000000002794","","3","1","arrowright","1","arrowright","[0.325,0.675,0.15,0.85]","","",""
"sailing-trial","168","1192787","0.0-11.0-127.0","","","","false","","","","","","","","","","null","","594.8999999999069","","2","0","null","null","arrowup","[0.325,0.675,0.15,0.85]","","",""
"sailing-trial","169","1196732","0.0-11.0-128.0","","","","false","","","","","","","","","","591.6000000000931","","519.3999999999069","","3","1","arrowright","1","arrowright","[0.325,0.675,0.15,0.85]","","",""
"sailing-trial","170","1199281","0.0-11.0-129.0","","","","false","","","","","","","","","","null","","604.8999999999069","","3","1","null","null","arrowup","[0.325,0.675,0.15,0.85]","","",""
"sailing-trial","171","1203245","0.0-11.0-130.0","","","","false","","","","","","","","","","678.7999999998137","","224.89999999990687","","3","1","arrowright","1","arrowright","[0.325,0.675,0.15,0.85]","","",""
"sailing-trial","172","1205674","0.0-11.0-131.0","","","","false","","","","","","","","","","null","","513.5","","3","1","null","null","arrowup","[0.325,0.675,0.15,0.85]","","",""
"sailing-trial","173","1209374","0.0-11.0-132.0","","","","false","","","","","","","","","","599.4000000003725","","92.79999999981374","","3","1","arrowright","1","arrowright","[0.325,0.675,0.15,0.85]","","",""
"sailing-trial","174","1211889","0.0-11.0-133.0","","","","false","","","","","","","","","","null","","635.7999999998137","","1","1","null","null","arrowup","[0.325,0.675,0.15,0.85]","","",""
"sailing-trial","175","1215436","0.0-11.0-134.0","","","","false","","","","","","","","","","621.1999999997206","","51.299999999813735","","3","1","arrowright","1","arrowright","[0.325,0.675,0.15,0.85]","","",""
"sailing-trial","176","1217299","0.0-11.0-135.0","","","","false","","","","","","","","","","null","","508.20000000018626","","2","0","null","null","arrowup","[0.325,0.675,0.15,0.85]","","",""
"sailing-trial","177","1222369","0.0-11.0-136.0","","","","false","","","","","","","","","","664.0999999996275","","350.5","","3","0","arrowright","1","arrowright","[0.325,0.675,0.15,0.85]","","",""
"sailing-trial","178","1225124","0.0-11.0-137.0","","","","false","","","","","","","","","","null","","1179.3000000002794","","1","0","null","null","arrowup","[0.325,0.675,0.15,0.85]","","",""
"sailing-trial","179","1228910","0.0-11.0-138.0","","","","false","","","","","","","","","","623.3999999999069","","107.29999999981374","","3","1","arrowright","1","arrowright","[0.325,0.675,0.15,0.85]","","",""
"sailing-trial","180","1231279","0.0-11.0-139.0","","","","false","","","","","","","","","","null","","732","","1","0","null","null","arrowup","[0.325,0.675,0.15,0.85]","","",""
"sailing-trial","181","1236171","0.0-11.0-140.0","","","","false","","","","","","","","","","1472.1999999997206","","439.5","","3","1","arrowright","1","arrowright","[0.325,0.675,0.15,0.85]","","",""
"sailing-trial","182","1238127","0.0-11.0-141.0","","","","false","","","","","","","","","","null","","560","","1","0","null","null","arrowup","[0.325,0.675,0.15,0.85]","","",""
"sailing-trial","183","1242019","0.0-11.0-142.0","","","","false","","","","","","","","","","708.8000000002794","","266.39999999990687","","3","1","arrowright","1","arrowright","[0.325,0.675,0.15,0.85]","","",""
"sailing-trial","184","1243952","0.0-11.0-143.0","","","","false","","","","","","","","","","null","","569.8999999999069","","2","0","null","null","arrowup","[0.325,0.675,0.15,0.85]","","",""
"sailing-trial","185","1248497","0.0-11.0-144.0","","","","false","","","","","","","","","","1168.2999999998137","","432.39999999990687","","3","1","arrowright","1","arrowright","[0.325,0.675,0.15,0.85]","","",""
"sailing-trial","186","1250628","0.0-11.0-145.0","","","","false","","","","","","","","","","null","","605.8999999999069","","2","0","null","null","arrowup","[0.325,0.675,0.15,0.85]","","",""
"sailing-trial","187","1253774","0.0-11.0-146.0","","","","false","","","","","","","","","","624.5","","36.799999999813735","","3","0","arrowright","1","arrowright","[0.85,0.15,0.675,0.325]","","",""
"sailing-trial","188","1256373","0.0-11.0-147.0","","","","false","","","","","","","","","","null","","588.8000000002794","","0","1","null","null","arrowup","[0.85,0.15,0.675,0.325]","","",""
"sailing-trial","189","1259450","0.0-11.0-148.0","","","","false","","","","","","","","","","570.6999999997206","","26.100000000093132","","3","0","arrowright","1","arrowright","[0.85,0.15,0.675,0.325]","","",""
"sailing-trial","190","1262171","0.0-11.0-149.0","","","","false","","","","","","","","","","null","","856.5","","0","1","null","null","arrowup","[0.85,0.15,0.675,0.325]","","",""
"sailing-trial","191","1266121","0.0-11.0-150.0","","","","false","","","","","","","","","","1097.5999999996275","","456.20000000018626","","3","0","arrowright","1","arrowright","[0.85,0.15,0.675,0.325]","","",""
"sailing-trial","192","1268751","0.0-11.0-151.0","","","","false","","","","","","","","","","null","","725.3999999999069","","2","1","null","null","arrowup","[0.85,0.15,0.675,0.325]","","",""
"sailing-trial","193","1272630","0.0-11.0-152.0","","","","false","","","","","","","","","","886.0999999996275","","64.39999999990687","","0","1","arrowleft","0","arrowleft","[0.85,0.15,0.675,0.325]","","",""
"sailing-trial","194","1275047","0.0-11.0-153.0","","","","false","","","","","","","","","","null","","593.5","","3","1","null","null","arrowup","[0.85,0.15,0.675,0.325]","","",""
"sailing-trial","195","1279042","0.0-11.0-154.0","","","","false","","","","","","","","","","541.8999999999069","","416.60000000009313","","0","1","arrowleft","0","arrowleft","[0.85,0.15,0.675,0.325]","","",""
"sailing-trial","196","1281425","0.0-11.0-155.0","","","","false","","","","","","","","","","null","","553.7999999998137","","0","1","null","null","arrowup","[0.85,0.15,0.675,0.325]","","",""
"sailing-trial","197","1285256","0.0-11.0-156.0","","","","false","","","","","","","","","","508.60000000009313","","358.29999999981374","","0","1","arrowleft","0","arrowleft","[0.85,0.15,0.675,0.325]","","",""
"sailing-trial","198","1287193","0.0-11.0-157.0","","","","false","","","","","","","","","","null","","579.5","","1","0","null","null","arrowup","[0.85,0.15,0.675,0.325]","","",""
"sailing-trial","199","1291036","0.0-11.0-158.0","","","","false","","","","","","","","","","486.60000000009313","","426.79999999981374","","0","1","arrowleft","0","arrowleft","[0.85,0.15,0.675,0.325]","","",""
"sailing-trial","200","1292995","0.0-11.0-159.0","","","","false","","","","","","","","","","null","","608.5","","0","0","null","null","arrowup","[0.85,0.15,0.675,0.325]","","",""
"sailing-trial","201","1296949","0.0-11.0-160.0","","","","false","","","","","","","","","","539.2000000001863","","395.60000000009313","","0","1","arrowleft","0","arrowleft","[0.85,0.15,0.675,0.325]","","",""
"sailing-trial","202","1299412","0.0-11.0-161.0","","","","false","","","","","","","","","","null","","560.8000000002794","","2","1","null","null","arrowup","[0.85,0.15,0.675,0.325]","","",""
"sailing-trial","203","1302503","0.0-11.0-162.0","","","","false","","","","","","","","","","590.2000000001863","","103.89999999990687","","0","0","arrowleft","0","arrowleft","[0.675,0.325,0.85,0.15]","","",""
"sailing-trial","204","1304708","0.0-11.0-163.0","","","","false","","","","","","","","","","null","","911.5","","3","0","null","null","arrowup","[0.675,0.325,0.85,0.15]","","",""
"sailing-trial","205","1308642","0.0-11.0-164.0","","","","false","","","","","","","","","","570.6999999997206","","402.79999999981374","","0","1","arrowleft","0","arrowleft","[0.675,0.325,0.85,0.15]","","",""
"sailing-trial","206","1310828","0.0-11.0-165.0","","","","false","","","","","","","","","","null","","596.3999999999069","","3","0","null","null","arrowup","[0.675,0.325,0.85,0.15]","","",""
"sailing-trial","207","1314114","0.0-11.0-166.0","","","","false","","","","","","","","","","663.3999999999069","","7","","0","0","arrowleft","0","arrowleft","[0.675,0.325,0.85,0.15]","","",""
"sailing-trial","208","1316452","0.0-11.0-167.0","","","","false","","","","","","","","","","null","","537.7999999998137","","1","1","null","null","arrowup","[0.675,0.325,0.85,0.15]","","",""
"sailing-trial","209","1319916","0.0-11.0-168.0","","","","false","","","","","","","","","","505.1999999997206","","516.5","","0","0","arrowleft","0","arrowleft","[0.675,0.325,0.85,0.15]","","",""
"sailing-trial","210","1321853","0.0-11.0-169.0","","","","false","","","","","","","","","","null","","598.2000000001863","","3","0","null","null","arrowup","[0.675,0.325,0.85,0.15]","","",""
"sailing-trial","211","1327160","0.0-11.0-170.0","","","","false","","","","","","","","","","2057.100000000093","","330.10000000009313","","1","1","arrowleft","0","arrowright","[0.675,0.325,0.85,0.15]","","",""
"sailing-trial","212","1329543","0.0-11.0-171.0","","","","false","","","","","","","","","","null","","522.7000000001863","","2","1","null","null","arrowup","[0.675,0.325,0.85,0.15]","","",""
"sailing-trial","213","1333240","0.0-11.0-172.0","","","","false","","","","","","","","","","609.2999999998137","","44.40000000037253","","1","1","arrowleft","0","arrowright","[0.675,0.325,0.85,0.15]","","",""
"sailing-trial","214","1335269","0.0-11.0-173.0","","","","false","","","","","","","","","","null","","541.8999999999069","","0","0","null","null","arrowup","[0.675,0.325,0.85,0.15]","","",""
"sailing-trial","215","1339053","0.0-11.0-174.0","","","","false","","","","","","","","","","584.6000000000931","","298.79999999981374","","1","1","arrowleft","0","arrowright","[0.675,0.325,0.85,0.15]","","",""
"sailing-trial","216","1341063","0.0-11.0-175.0","","","","false","","","","","","","","","","null","","592.5","","2","0","null","null","arrowup","[0.675,0.325,0.85,0.15]","","",""
"sailing-trial","217","1344430","0.0-11.0-176.0","","","","false","","","","","","","","","","568.7999999998137","","374.39999999990687","","1","0","arrowleft","0","arrowright","[0.675,0.325,0.85,0.15]","","",""
"sailing-trial","218","1346278","0.0-11.0-177.0","","","","false","","","","","","","","","","null","","504.10000000009313","","1","0","null","null","arrowup","[0.675,0.325,0.85,0.15]","","",""
"sailing-trial","219","1349979","0.0-11.0-178.0","","","","false","","","","","","","","","","485.60000000009313","","303.60000000009313","","1","1","arrowleft","0","arrowright","[0.675,0.325,0.85,0.15]","","",""
"sailing-trial","220","1352001","0.0-11.0-179.0","","","","false","","","","","","","","","","null","","486.10000000009313","","1","0","null","null","arrowup","[0.675,0.325,0.85,0.15]","","",""
"sailing-trial","221","1355379","0.0-11.0-180.0","","","","false","","","","","","","","","","504.8000000002794","","53","","1","0","arrowleft","0","arrowright","[0.675,0.325,0.85,0.15]","","",""
"sailing-trial","222","1358058","0.0-11.0-181.0","","","","false","","","","","","","","","","null","","886.7000000001863","","0","1","null","null","arrowup","[0.675,0.325,0.85,0.15]","","",""
"sailing-trial","223","1361560","0.0-11.0-182.0","","","","false","","","","","","","","","","446.60000000009313","","174.90000000037253","","1","0","arrowleft","0","arrowright","[0.85,0.15,0.675,0.325]","","",""
"sailing-trial","224","1363834","0.0-11.0-183.0","","","","false","","","","","","","","","","null","","925","","1","0","null","null","arrowup","[0.85,0.15,0.675,0.325]","","",""
"sailing-trial","225","1367081","0.0-11.0-184.0","","","","false","","","","","","","","","","508.10000000009313","","85.10000000009313","","1","0","arrowleft","0","arrowright","[0.85,0.15,0.675,0.325]","","",""
"sailing-trial","226","1369562","0.0-11.0-185.0","","","","false","","","","","","","","","","null","","880.3000000002794","","1","0","null","null","arrowup","[0.85,0.15,0.675,0.325]","","",""
"sailing-trial","227","1373076","0.0-11.0-186.0","","","","false","","","","","","","","","","481","","406.5","","1","0","arrowleft","0","arrowright","[0.85,0.15,0.675,0.325]","","",""
"sailing-trial","228","1375629","0.0-11.0-187.0","","","","false","","","","","","","","","","null","","859.5","","3","0","null","null","arrowup","[0.85,0.15,0.675,0.325]","","",""
"sailing-trial","229","1380597","0.0-11.0-188.0","","","","false","","","","","","","","","","471.79999999981374","","430.29999999981374","","1","0","arrowleft","0","arrowright","[0.85,0.15,0.675,0.325]","","",""
"sailing-trial","230","1383356","0.0-11.0-189.0","","","","false","","","","","","","","","","null","","887.1000000000931","","3","1","null","null","arrowup","[0.85,0.15,0.675,0.325]","","",""
"sailing-trial","231","1386698","0.0-11.0-190.0","","","","false","","","","","","","","","","581","","53.8000000002794","","1","0","arrowleft","0","arrowright","[0.85,0.15,0.675,0.325]","","",""
"sailing-trial","232","1389203","0.0-11.0-191.0","","","","false","","","","","","","","","","null","","665.0999999996275","","3","1","null","null","arrowup","[0.85,0.15,0.675,0.325]","","",""
"sailing-trial","233","1392503","0.0-11.0-192.0","","","","false","","","","","","","","","","629","","142.89999999990687","","1","0","arrowleft","0","arrowright","[0.85,0.15,0.675,0.325]","","",""
"sailing-trial","234","1394494","0.0-11.0-193.0","","","","false","","","","","","","","","","null","","571.2000000001863","","2","0","null","null","arrowup","[0.85,0.15,0.675,0.325]","","",""
"sailing-trial","235","1397737","0.0-11.0-194.0","","","","false","","","","","","","","","","602.6000000000931","","170.60000000009313","","3","0","arrowright","1","arrowright","[0.85,0.15,0.675,0.325]","","",""
"sailing-trial","236","1400261","0.0-11.0-195.0","","","","false","","","","","","","","","","null","","650.4000000003725","","1","1","null","null","arrowup","[0.85,0.15,0.675,0.325]","","",""
"sailing-trial","237","1403395","0.0-11.0-196.0","","","","false","","","","","","","","","","561.3000000002794","","72.60000000009313","","3","0","arrowright","1","arrowright","[0.85,0.15,0.675,0.325]","","",""
"sailing-trial","238","1405774","0.0-11.0-197.0","","","","false","","","","","","","","","","null","","595.3000000002794","","0","1","null","null","arrowup","[0.85,0.15,0.675,0.325]","","",""
"sailing-trial","239","1409856","0.0-11.0-198.0","","","","false","","","","","","","","","","943.6000000000931","","109.79999999981374","","3","1","arrowright","1","arrowright","[0.85,0.15,0.675,0.325]","","",""
"sailing-trial","240","1412238","0.0-11.0-199.0","","","","false","","","","","","","","","","null","","621","","0","1","null","null","arrowup","[0.85,0.15,0.675,0.325]","","",""
"sailing-trial","241","1416283","0.0-11.0-200.0","","","","false","","","","","","","","","","1039.5","","103.6999999997206","","3","1","arrowright","1","arrowright","[0.85,0.15,0.675,0.325]","","",""
"sailing-trial","242","1418680","0.0-11.0-201.0","","","","false","","","","","","","","","","null","","679.2999999998137","","1","0","null","null","arrowup","[0.85,0.15,0.675,0.325]","","",""
"sailing-trial","243","1422121","0.0-11.0-202.0","","","","false","","","","","","","","","","633.2000000001863","","179.60000000009313","","3","0","arrowright","1","arrowright","[0.675,0.325,0.85,0.15]","","",""
"sailing-trial","244","1424072","0.0-11.0-203.0","","","","false","","","","","","","","","","null","","638.7000000001863","","1","0","null","null","arrowup","[0.675,0.325,0.85,0.15]","","",""
"sailing-trial","245","1427958","0.0-11.0-204.0","","","","false","","","","","","","","","","765.2999999998137","","127.39999999990687","","2","1","arrowright","1","arrowleft","[0.675,0.325,0.85,0.15]","","",""
"sailing-trial","246","1430574","0.0-11.0-205.0","","","","false","","","","","","","","","","null","","801.1000000000931","","0","1","null","null","arrowup","[0.675,0.325,0.85,0.15]","","",""
"sailing-trial","247","1435338","0.0-11.0-206.0","","","","false","","","","","","","","","","1857.7000000001863","","4.800000000279397","","2","1","arrowright","1","arrowleft","[0.675,0.325,0.85,0.15]","","",""
"sailing-trial","248","1437836","0.0-11.0-207.0","","","","false","","","","","","","","","","null","","654.9000000003725","","1","1","null","null","arrowup","[0.675,0.325,0.85,0.15]","","",""
"sailing-trial","249","1441801","0.0-11.0-208.0","","","","false","","","","","","","","","","594.7999999998137","","381.29999999981374","","2","1","arrowright","1","arrowleft","[0.675,0.325,0.85,0.15]","","",""
"sailing-trial","250","1444314","0.0-11.0-209.0","","","","false","","","","","","","","","","null","","678.8999999999069","","3","1","null","null","arrowup","[0.675,0.325,0.85,0.15]","","",""
"sailing-trial","251","1447912","0.0-11.0-210.0","","","","false","","","","","","","","","","556.2999999998137","","20.600000000093132","","2","1","arrowright","1","arrowleft","[0.675,0.325,0.85,0.15]","","",""
"sailing-trial","252","1449939","0.0-11.0-211.0","","","","false","","","","","","","","","","null","","692.3999999999069","","1","0","null","null","arrowup","[0.675,0.325,0.85,0.15]","","",""
"sailing-trial","253","1453894","0.0-11.0-212.0","","","","false","","","","","","","","","","547.7999999998137","","399.29999999981374","","2","1","arrowright","1","arrowleft","[0.675,0.325,0.85,0.15]","","",""
"sailing-trial","254","1456374","0.0-11.0-213.0","","","","false","","","","","","","","","","null","","600.6999999997206","","2","1","null","null","arrowup","[0.675,0.325,0.85,0.15]","","",""
"sailing-trial","255","1460140","0.0-11.0-214.0","","","","false","","","","","","","","","","493.79999999981374","","410.8000000002794","","2","1","arrowright","1","arrowleft","[0.675,0.325,0.85,0.15]","","",""
"sailing-trial","256","1462671","0.0-11.0-215.0","","","","false","","","","","","","","","","null","","629.3999999999069","","2","1","null","null","arrowup","[0.675,0.325,0.85,0.15]","","",""
"sailing-trial","257","1466536","0.0-11.0-216.0","","","","false","","","","","","","","","","591.3999999999069","","381.5","","2","1","arrowright","1","arrowleft","[0.675,0.325,0.85,0.15]","","",""
"sailing-trial","258","1468961","0.0-11.0-217.0","","","","false","","","","","","","","","","null","","1087.7000000001863","","1","0","null","null","arrowup","[0.675,0.325,0.85,0.15]","","",""
"sailing-trial","259","1473030","0.0-11.0-218.0","","","","false","","","","","","","","","","540.1000000000931","","459.20000000018626","","2","1","arrowright","1","arrowleft","[0.675,0.325,0.85,0.15]","","",""
"sailing-trial","260","1475677","0.0-11.0-219.0","","","","false","","","","","","","","","","null","","835.3000000002794","","0","1","null","null","arrowup","[0.675,0.325,0.85,0.15]","","",""
"sailing-trial","261","1479907","0.0-11.0-220.0","","","","false","","","","","","","","","","1022.7999999998137","","349.10000000009313","","2","1","arrowright","1","arrowleft","[0.675,0.325,0.85,0.15]","","",""
"sailing-trial","262","1482291","0.0-11.0-221.0","","","","false","","","","","","","","","","null","","551.5","","0","1","null","null","arrowup","[0.675,0.325,0.85,0.15]","","",""
"sailing-trial","263","1486035","0.0-11.0-222.0","","","","false","","","","","","","","","","682.3999999999069","","410.60000000009313","","2","0","arrowright","1","arrowleft","[0.325,0.675,0.15,0.85]","","",""
"sailing-trial","264","1488402","0.0-11.0-223.0","","","","false","","","","","","","","","","null","","533.5","","1","1","null","null","arrowup","[0.325,0.675,0.15,0.85]","","",""
"sailing-trial","265","1492035","0.0-11.0-224.0","","","","false","","","","","","","","","","515.2000000001863","","228.1999999997206","","2","0","arrowright","1","arrowleft","[0.325,0.675,0.15,0.85]","","",""
"sailing-trial","266","1494549","0.0-11.0-225.0","","","","false","","","","","","","","","","null","","615.6999999997206","","1","1","null","null","arrowup","[0.325,0.675,0.15,0.85]","","",""
"sailing-trial","267","1497827","0.0-11.0-226.0","","","","false","","","","","","","","","","594.7000000001863","","130.8000000002794","","2","0","arrowright","1","arrowleft","[0.325,0.675,0.15,0.85]","","",""
"sailing-trial","268","1500144","0.0-11.0-227.0","","","","false","","","","","","","","","","null","","506.20000000018626","","3","1","null","null","arrowup","[0.325,0.675,0.15,0.85]","","",""
"sailing-trial","269","1503793","0.0-11.0-228.0","","","","false","","","","","","","","","","598.1000000000931","","55.39999999990687","","3","1","arrowright","1","arrowright","[0.325,0.675,0.15,0.85]","","",""
"sailing-trial","270","1506342","0.0-11.0-229.0","","","","false","","","","","","","","","","null","","680.1000000000931","","2","1","null","null","arrowup","[0.325,0.675,0.15,0.85]","","",""
"sailing-trial","271","1509989","0.0-11.0-230.0","","","","false","","","","","","","","","","695","","53.5","","3","1","arrowright","1","arrowright","[0.325,0.675,0.15,0.85]","","",""
"sailing-trial","272","1512436","0.0-11.0-231.0","","","","false","","","","","","","","","","null","","583.1999999997206","","2","1","null","null","arrowup","[0.325,0.675,0.15,0.85]","","",""
"sailing-trial","273","1516515","0.0-11.0-232.0","","","","false","","","","","","","","","","1114.0999999996275","","11","","3","1","arrowright","1","arrowright","[0.325,0.675,0.15,0.85]","","",""
"sailing-trial","274","1518916","0.0-11.0-233.0","","","","false","","","","","","","","","","null","","557.2999999998137","","3","1","null","null","arrowup","[0.325,0.675,0.15,0.85]","","",""
"sailing-trial","275","1522729","0.0-11.0-234.0","","","","false","","","","","","","","","","623.5","","233","","3","1","arrowright","1","arrowright","[0.325,0.675,0.15,0.85]","","",""
"sailing-trial","276","1524692","0.0-11.0-235.0","","","","false","","","","","","","","","","null","","609.5","","2","0","null","null","arrowup","[0.325,0.675,0.15,0.85]","","",""
"sailing-trial","277","1528376","0.0-11.0-236.0","","","","false","","","","","","","","","","588.3999999999069","","160.20000000018626","","3","1","arrowright","1","arrowright","[0.325,0.675,0.15,0.85]","","",""
"sailing-trial","278","1530826","0.0-11.0-237.0","","","","false","","","","","","","","","","null","","812.6999999997206","","0","0","null","null","arrowup","[0.325,0.675,0.15,0.85]","","",""
"sailing-trial","279","1534472","0.0-11.0-238.0","","","","false","","","","","","","","","","601.7999999998137","","124.20000000018626","","3","1","arrowright","1","arrowright","[0.15,0.85,0.325,0.675]","","",""
"sailing-trial","280","1536674","0.0-11.0-239.0","","","","false","","","","","","","","","","null","","596.8999999999069","","3","0","null","null","arrowup","[0.15,0.85,0.325,0.675]","","",""
"sailing-trial","281","1540286","0.0-11.0-240.0","","","","false","","","","","","","","","","571.0999999996275","","63.60000000009313","","3","1","arrowright","1","arrowright","[0.15,0.85,0.325,0.675]","","",""
"sailing-trial","282","1542754","0.0-11.0-241.0","","","","false","","","","","","","","","","null","","872.6000000000931","","2","0","null","null","arrowup","[0.15,0.85,0.325,0.675]","","",""
"sailing-trial","283","1546912","0.0-11.0-242.0","","","","false","","","","","","","","","","1054.1999999997206","","161.20000000018626","","3","1","arrowright","1","arrowright","[0.15,0.85,0.325,0.675]","","",""
"sailing-trial","284","1549178","0.0-11.0-243.0","","","","false","","","","","","","","","","null","","752.4000000003725","","2","0","null","null","arrowup","[0.15,0.85,0.325,0.675]","","",""
"sailing-trial","285","1554210","0.0-11.0-244.0","","","","false","","","","","","","","","","994","","1101.2000000001863","","3","1","arrowright","1","arrowright","[0.15,0.85,0.325,0.675]","","",""
"sailing-trial","286","1556923","0.0-11.0-245.0","","","","false","","","","","","","","","","null","","875.5","","3","1","null","null","arrowup","[0.15,0.85,0.325,0.675]","","",""
"sailing-trial","287","1561037","0.0-11.0-246.0","","","","false","","","","","","","","","","592.5","","329.5","","3","1","arrowright","1","arrowright","[0.15,0.85,0.325,0.675]","","",""
"sailing-trial","288","1563653","0.0-11.0-247.0","","","","false","","","","","","","","","","null","","754.4000000003725","","2","1","null","null","arrowup","[0.15,0.85,0.325,0.675]","","",""
"sailing-trial","289","1567266","0.0-11.0-248.0","","","","false","","","","","","","","","","610.2999999998137","","83.8000000002794","","3","1","arrowright","1","arrowright","[0.15,0.85,0.325,0.675]","","",""
"sailing-trial","290","1569262","0.0-11.0-249.0","","","","false","","","","","","","","","","null","","681.7999999998137","","3","0","null","null","arrowup","[0.15,0.85,0.325,0.675]","","",""
"sailing-trial","291","1573230","0.0-11.0-250.0","","","","false","","","","","","","","","","531.1000000000931","","439.70000000018626","","3","1","arrowright","1","arrowright","[0.15,0.85,0.325,0.675]","","",""
"sailing-trial","292","1575307","0.0-11.0-251.0","","","","false","","","","","","","","","","null","","718","","1","0","null","null","arrowup","[0.15,0.85,0.325,0.675]","","",""
"sailing-trial","293","1578457","0.0-11.0-252.0","","","","false","","","","","","","","","","539.5","","19.200000000186265","","3","0","arrowright","1","arrowright","[0.15,0.85,0.325,0.675]","","",""
"sailing-trial","294","1580823","0.0-11.0-253.0","","","","false","","","","","","","","","","null","","559.8000000002794","","1","1","null","null","arrowup","[0.15,0.85,0.325,0.675]","","",""
"sailing-trial","295","1584488","0.0-11.0-254.0","","","","false","","","","","","","","","","535","","235.39999999990687","","3","1","arrowright","1","arrowright","[0.325,0.675,0.15,0.85]","","",""
"sailing-trial","296","1586496","0.0-11.0-255.0","","","","false","","","","","","","","","","null","","650.5","","0","0","null","null","arrowup","[0.325,0.675,0.15,0.85]","","",""
"sailing-trial","297","1590083","0.0-11.0-256.0","","","","false","","","","","","","","","","563.3000000002794","","65.29999999981374","","3","1","arrowright","1","arrowright","[0.325,0.675,0.15,0.85]","","",""
"sailing-trial","298","1591988","0.0-11.0-257.0","","","","false","","","","","","","","","","null","","549.8000000002794","","2","0","null","null","arrowup","[0.325,0.675,0.15,0.85]","","",""
"sailing-trial","299","1595481","0.0-11.0-258.0","","","","false","","","","","","","","","","568.2000000001863","","71.29999999981374","","3","1","arrowright","1","arrowright","[0.325,0.675,0.15,0.85]","","",""
"sailing-trial","300","1597404","0.0-11.0-259.0","","","","false","","","","","","","","","","null","","539.1000000000931","","2","0","null","null","arrowup","[0.325,0.675,0.15,0.85]","","",""
"sailing-trial","301","1601443","0.0-11.0-260.0","","","","false","","","","","","","","","","658.3999999999069","","489.5","","3","1","arrowright","1","arrowright","[0.325,0.675,0.15,0.85]","","",""
"sailing-trial","302","1603875","0.0-11.0-261.0","","","","false","","","","","","","","","","null","","574.8000000002794","","1","1","null","null","arrowup","[0.325,0.675,0.15,0.85]","","",""
"sailing-trial","303","1607390","0.0-11.0-262.0","","","","false","","","","","","","","","","562.1000000000931","","51.6999999997206","","3","1","arrowright","1","arrowright","[0.325,0.675,0.15,0.85]","","",""
"sailing-trial","304","1609273","0.0-11.0-263.0","","","","false","","","","","","","","","","null","","589.7000000001863","","0","0","null","null","arrowup","[0.325,0.675,0.15,0.85]","","",""
"sailing-trial","305","1613218","0.0-11.0-264.0","","","","false","","","","","","","","","","621.8999999999069","","438.5","","3","1","arrowright","1","arrowright","[0.325,0.675,0.15,0.85]","","",""
"sailing-trial","306","1615123","0.0-11.0-265.0","","","","false","","","","","","","","","","null","","536.6000000000931","","0","0","null","null","arrowup","[0.325,0.675,0.15,0.85]","","",""
"sailing-trial","307","1619131","0.0-11.0-266.0","","","","false","","","","","","","","","","536.8000000002794","","440.29999999981374","","3","1","arrowright","1","arrowright","[0.325,0.675,0.15,0.85]","","",""
"sailing-trial","308","1621696","0.0-11.0-267.0","","","","false","","","","","","","","","","null","","758.6000000000931","","3","1","null","null","arrowup","[0.325,0.675,0.15,0.85]","","",""
"sailing-trial","309","1625611","0.0-11.0-268.0","","","","false","","","","","","","","","","572.5","","471","","3","1","arrowright","1","arrowright","[0.325,0.675,0.15,0.85]","","",""
"sailing-trial","310","1629799","0.0-11.0-269.0","","","","false","","","","","","","","","","null","","1159","","2","0","null","null","arrowup","[0.325,0.675,0.15,0.85]","","",""
"sailing-trial","311","1635504","0.0-11.0-270.0","","","","false","","","","","","","","","","2808.3000000002794","","36.1999999997206","","3","1","arrowright","1","arrowright","[0.15,0.85,0.325,0.675]","","",""
"sailing-trial","312","1638235","0.0-11.0-271.0","","","","false","","","","","","","","","","null","","931.6999999997206","","1","1","null","null","arrowup","[0.15,0.85,0.325,0.675]","","",""
"sailing-trial","313","1642116","0.0-11.0-272.0","","","","false","","","","","","","","","","577","","406.60000000009313","","3","1","arrowright","1","arrowright","[0.15,0.85,0.325,0.675]","","",""
"sailing-trial","314","1644018","0.0-11.0-273.0","","","","false","","","","","","","","","","null","","596.6000000000931","","0","0","null","null","arrowup","[0.15,0.85,0.325,0.675]","","",""
"sailing-trial","315","1647914","0.0-11.0-274.0","","","","false","","","","","","","","","","728.7999999998137","","327.39999999990687","","3","1","arrowright","1","arrowright","[0.15,0.85,0.325,0.675]","","",""
"sailing-trial","316","1650393","0.0-11.0-275.0","","","","false","","","","","","","","","","null","","661.1999999997206","","1","1","null","null","arrowup","[0.15,0.85,0.325,0.675]","","",""
"sailing-trial","317","1653824","0.0-11.0-276.0","","","","false","","","","","","","","","","501.5","","44.700000000186265","","3","1","arrowright","1","arrowright","[0.15,0.85,0.325,0.675]","","",""
"sailing-trial","318","1655856","0.0-11.0-277.0","","","","false","","","","","","","","","","null","","693.2999999998137","","2","0","null","null","arrowup","[0.15,0.85,0.325,0.675]","","",""
"sailing-trial","319","1659572","0.0-11.0-278.0","","","","false","","","","","","","","","","486.5","","383.10000000009313","","3","1","arrowright","1","arrowright","[0.15,0.85,0.325,0.675]","","",""
"sailing-trial","320","1662420","0.0-11.0-279.0","","","","false","","","","","","","","","","null","","1054.7000000001863","","1","1","null","null","arrowup","[0.15,0.85,0.325,0.675]","","",""
"sailing-trial","321","1665901","0.0-11.0-280.0","","","","false","","","","","","","","","","549.8999999999069","","52.1999999997206","","3","1","arrowright","1","arrowright","[0.15,0.85,0.325,0.675]","","",""
"sailing-trial","322","1667832","0.0-11.0-281.0","","","","false","","","","","","","","","","null","","580.8999999999069","","0","0","null","null","arrowup","[0.15,0.85,0.325,0.675]","","",""
"sailing-trial","323","1671663","0.0-11.0-282.0","","","","false","","","","","","","","","","518.3999999999069","","382.3000000002794","","3","1","arrowright","1","arrowright","[0.15,0.85,0.325,0.675]","","",""
"sailing-trial","324","1674295","0.0-11.0-283.0","","","","false","","","","","","","","","","null","","802.1000000000931","","3","1","null","null","arrowup","[0.15,0.85,0.325,0.675]","","",""
"sailing-trial","325","1677672","0.0-11.0-284.0","","","","false","","","","","","","","","","533.5","","539.6000000000931","","3","0","arrowright","1","arrowright","[0.15,0.85,0.325,0.675]","","",""
"sailing-trial","326","1679491","0.0-11.0-285.0","","","","false","","","","","","","","","","null","","593.2000000001863","","2","0","null","null","arrowup","[0.15,0.85,0.325,0.675]","","",""
"sailing-trial","327","1683221","0.0-11.0-286.0","","","","false","","","","","","","","","","483.20000000018626","","371","","3","1","arrowright","1","arrowright","[0.15,0.85,0.325,0.675]","","",""
"sailing-trial","328","1686138","0.0-11.0-287.0","","","","false","","","","","","","","","","null","","1077.8999999999069","","3","1","null","null","arrowup","[0.15,0.85,0.325,0.675]","","",""
"sailing-trial","329","1689935","0.0-11.0-288.0","","","","false","","","","","","","","","","915","","49.5","","3","1","arrowright","1","arrowright","[0.325,0.675,0.15,0.85]","","",""
"sailing-trial","330","1692400","0.0-11.0-289.0","","","","false","","","","","","","","","","null","","587.3000000002794","","3","1","null","null","arrowup","[0.325,0.675,0.15,0.85]","","",""
"sailing-trial","331","1695949","0.0-11.0-290.0","","","","false","","","","","","","","","","669.2000000001863","","15","","3","1","arrowright","1","arrowright","[0.325,0.675,0.15,0.85]","","",""
"sailing-trial","332","1697888","0.0-11.0-291.0","","","","false","","","","","","","","","","null","","606.7999999998137","","1","0","null","null","arrowup","[0.325,0.675,0.15,0.85]","","",""
"sailing-trial","333","1701425","0.0-11.0-292.0","","","","false","","","","","","","","","","545","","105.40000000037253","","3","1","arrowright","1","arrowright","[0.325,0.675,0.15,0.85]","","",""
"sailing-trial","334","1703726","0.0-11.0-293.0","","","","false","","","","","","","","","","null","","574.6000000000931","","0","1","null","null","arrowup","[0.325,0.675,0.15,0.85]","","",""
"sailing-trial","335","1707174","0.0-11.0-294.0","","","","false","","","","","","","","","","467.09999999962747","","81.29999999981374","","3","1","arrowright","1","arrowright","[0.325,0.675,0.15,0.85]","","",""
"sailing-trial","336","1709125","0.0-11.0-295.0","","","","false","","","","","","","","","","null","","528.8999999999069","","2","0","null","null","arrowup","[0.325,0.675,0.15,0.85]","","",""
"sailing-trial","337","1712604","0.0-11.0-296.0","","","","false","","","","","","","","","","574.1000000000931","","97.29999999981374","","3","1","arrowright","1","arrowright","[0.325,0.675,0.15,0.85]","","",""
"sailing-trial","338","1715034","0.0-11.0-297.0","","","","false","","","","","","","","","","null","","637.5","","3","1","null","null","arrowup","[0.325,0.675,0.15,0.85]","","",""
"sailing-trial","339","1718366","0.0-11.0-298.0","","","","false","","","","","","","","","","523.7000000001863","","399.29999999981374","","3","0","arrowright","1","arrowright","[0.325,0.675,0.15,0.85]","","",""
"sailing-trial","340","1720134","0.0-11.0-299.0","","","","false","","","","","","","","","","null","","479.89999999990687","","0","0","null","null","arrowup","[0.325,0.675,0.15,0.85]","","",""
"sailing-trial","341","1723780","0.0-11.0-300.0","","","","false","","","","","","","","","","537.3999999999069","","195.89999999990687","","3","1","arrowright","1","arrowright","[0.325,0.675,0.15,0.85]","","",""
"sailing-trial","342","1725855","0.0-11.0-301.0","","","","false","","","","","","","","","","null","","515.7000000001863","","2","0","null","null","arrowup","[0.325,0.675,0.15,0.85]","","",""
"sailing-trial","343","1729809","0.0-11.0-302.0","","","","false","","","","","","","","","","522.8999999999069","","448.5","","3","1","arrowright","1","arrowright","[0.325,0.675,0.15,0.85]","","",""
"sailing-trial","344","1733008","0.0-11.0-303.0","","","","false","","","","","","","","","","null","","1382.7000000001863","","3","1","null","null","arrowup","[0.325,0.675,0.15,0.85]","","",""
"sailing-trial","345","1736720","0.0-11.0-304.0","","","","false","","","","","","","","","","615.5","","185.29999999981374","","3","1","arrowright","1","arrowright","[0.325,0.675,0.15,0.85]","","",""
"sailing-trial","346","1738600","0.0-11.0-305.0","","","","false","","","","","","","","","","null","","578.5","","1","0","null","null","arrowup","[0.325,0.675,0.15,0.85]","","",""
"sailing-trial","347","1742290","0.0-11.0-306.0","","","","false","","","","","","","","","","1222.8999999999069","","357.10000000009313","","3","0","arrowright","1","arrowright","[0.675,0.325,0.85,0.15]","","",""
"sailing-trial","348","1744863","0.0-11.0-307.0","","","","false","","","","","","","","","","null","","745.7000000001863","","3","0","null","null","arrowup","[0.675,0.325,0.85,0.15]","","",""
"sailing-trial","349","1747920","0.0-11.0-308.0","","","","false","","","","","","","","","","544.5","","45.89999999990687","","3","0","arrowright","1","arrowright","[0.675,0.325,0.85,0.15]","","",""
"sailing-trial","350","1749997","0.0-11.0-309.0","","","","false","","","","","","","","","","null","","746.2999999998137","","0","0","null","null","arrowup","[0.675,0.325,0.85,0.15]","","",""
"sailing-trial","351","1753196","0.0-11.0-310.0","","","","false","","","","","","","","","","587.2999999998137","","17","","3","0","arrowright","1","arrowright","[0.675,0.325,0.85,0.15]","","",""
"sailing-trial","352","1755324","0.0-11.0-311.0","","","","false","","","","","","","","","","null","","797.8000000002794","","3","0","null","null","arrowup","[0.675,0.325,0.85,0.15]","","",""
"sailing-trial","353","1759589","0.0-11.0-312.0","","","","false","","","","","","","","","","898.7000000001863","","470.60000000009313","","0","1","arrowleft","0","arrowleft","[0.675,0.325,0.85,0.15]","","",""
"sailing-trial","354","1761682","0.0-11.0-313.0","","","","false","","","","","","","","","","null","","683.7000000001863","","3","0","null","null","arrowup","[0.675,0.325,0.85,0.15]","","",""
"sailing-trial","355","1764765","0.0-11.0-314.0","","","","false","","","","","","","","","","553.2999999998137","","103.60000000009313","","0","0","arrowleft","0","arrowleft","[0.675,0.325,0.85,0.15]","","",""
"sailing-trial","356","1766760","0.0-11.0-315.0","","","","false","","","","","","","","","","null","","694.6000000000931","","1","0","null","null","arrowup","[0.675,0.325,0.85,0.15]","","",""
"sailing-trial","357","1770135","0.0-11.0-316.0","","","","false","","","","","","","","","","510.40000000037253","","538.6000000000931","","0","0","arrowleft","0","arrowleft","[0.675,0.325,0.85,0.15]","","",""
"sailing-trial","358","1772038","0.0-11.0-317.0","","","","false","","","","","","","","","","null","","539","","1","0","null","null","arrowup","[0.675,0.325,0.85,0.15]","","",""
"sailing-trial","359","1775477","0.0-11.0-318.0","","","","false","","","","","","","","","","435.6999999997206","","72.8000000002794","","0","1","arrowleft","0","arrowleft","[0.675,0.325,0.85,0.15]","","",""
"sailing-trial","360","1777811","0.0-11.0-319.0","","","","false","","","","","","","","","","null","","709.1000000000931","","0","1","null","null","arrowup","[0.675,0.325,0.85,0.15]","","",""
"sailing-trial","361","1781458","0.0-11.0-320.0","","","","false","","","","","","","","","","465.39999999990687","","301.29999999981374","","0","1","arrowleft","0","arrowleft","[0.675,0.325,0.85,0.15]","","",""
"sailing-trial","362","1784207","0.0-11.0-321.0","","","","false","","","","","","","","","","null","","922.2000000001863","","0","1","null","null","arrowup","[0.675,0.325,0.85,0.15]","","",""
"sailing-trial","363","1787705","0.0-11.0-322.0","","","","false","","","","","","","","","","511.60000000009313","","75.60000000009313","","0","1","arrowleft","0","arrowleft","[0.15,0.85,0.325,0.675]","","",""
"sailing-trial","364","1789918","0.0-11.0-323.0","","","","false","","","","","","","","","","null","","489.89999999990687","","1","1","null","null","arrowup","[0.15,0.85,0.325,0.675]","","",""
"sailing-trial","365","1792722","0.0-11.0-324.0","","","","false","","","","","","","","","","469.60000000009313","","15.200000000186265","","0","0","arrowleft","0","arrowleft","[0.15,0.85,0.325,0.675]","","",""
"sailing-trial","366","1795099","0.0-11.0-325.0","","","","false","","","","","","","","","","null","","518.1999999997206","","1","1","null","null","arrowup","[0.15,0.85,0.325,0.675]","","",""
"sailing-trial","367","1798014","0.0-11.0-326.0","","","","false","","","","","","","","","","520.2000000001863","","76","","0","0","arrowleft","0","arrowleft","[0.15,0.85,0.325,0.675]","","",""
"sailing-trial","368","1800379","0.0-11.0-327.0","","","","false","","","","","","","","","","null","","511.5","","3","1","null","null","arrowup","[0.15,0.85,0.325,0.675]","","",""
"sailing-trial","369","1803744","0.0-11.0-328.0","","","","false","","","","","","","","","","434.39999999990687","","288.89999999990687","","0","0","arrowleft","0","arrowleft","[0.15,0.85,0.325,0.675]","","",""
"sailing-trial","370","1806075","0.0-11.0-329.0","","","","false","","","","","","","","","","null","","542","","1","1","null","null","arrowup","[0.15,0.85,0.325,0.675]","","",""
"sailing-trial","371","1810006","0.0-11.0-330.0","","","","false","","","","","","","","","","496.89999999990687","","570.3000000002794","","1","1","arrowleft","0","arrowright","[0.15,0.85,0.325,0.675]","","",""
"sailing-trial","372","1811818","0.0-11.0-331.0","","","","false","","","","","","","","","","null","","529.6000000000931","","3","0","null","null","arrowup","[0.15,0.85,0.325,0.675]","","",""
"sailing-trial","373","1815585","0.0-11.0-332.0","","","","false","","","","","","","","","","478.1999999997206","","406.20000000018626","","1","1","arrowleft","0","arrowright","[0.15,0.85,0.325,0.675]","","",""
"sailing-trial","374","1817716","0.0-11.0-333.0","","","","false","","","","","","","","","","null","","374.79999999981374","","3","1","null","null","arrowup","[0.15,0.85,0.325,0.675]","","",""
"sailing-trial","375","1821029","0.0-11.0-334.0","","","","false","","","","","","","","","","458.5","","1.6000000000931323","","1","1","arrowleft","0","arrowright","[0.15,0.85,0.325,0.675]","","",""
"sailing-trial","376","1823545","0.0-11.0-335.0","","","","false","","","","","","","","","","null","","694","","2","1","null","null","arrowup","[0.15,0.85,0.325,0.675]","","",""
"sailing-trial","377","1827575","0.0-11.0-336.0","","","","false","","","","","","","","","","527.6000000000931","","443.89999999990687","","1","1","arrowleft","0","arrowright","[0.15,0.85,0.325,0.675]","","",""
"sailing-trial","378","1830473","0.0-11.0-337.0","","","","false","","","","","","","","","","null","","1069.5","","1","1","null","null","arrowup","[0.15,0.85,0.325,0.675]","","",""
"sailing-trial","379","1833923","0.0-11.0-338.0","","","","false","","","","","","","","","","529.8999999999069","","29.09999999962747","","1","1","arrowleft","0","arrowright","[0.15,0.85,0.325,0.675]","","",""
"sailing-trial","380","1835895","0.0-11.0-339.0","","","","false","","","","","","","","","","null","","694","","0","0","null","null","arrowup","[0.15,0.85,0.325,0.675]","","",""
"sailing-trial","381","1839819","0.0-11.0-340.0","","","","false","","","","","","","","","","483.20000000018626","","471.60000000009313","","1","1","arrowleft","0","arrowright","[0.325,0.675,0.15,0.85]","","",""
"sailing-trial","382","1841939","0.0-11.0-341.0","","","","false","","","","","","","","","","null","","586.6000000000931","","2","0","null","null","arrowup","[0.325,0.675,0.15,0.85]","","",""
"sailing-trial","383","1845349","0.0-11.0-342.0","","","","false","","","","","","","","","","492.3000000002794","","62.700000000186265","","1","1","arrowleft","0","arrowright","[0.325,0.675,0.15,0.85]","","",""
"sailing-trial","384","1847731","0.0-11.0-343.0","","","","false","","","","","","","","","","null","","554.8999999999069","","0","1","null","null","arrowup","[0.325,0.675,0.15,0.85]","","",""
"sailing-trial","385","1851161","0.0-11.0-344.0","","","","false","","","","","","","","","","480.79999999981374","","60.10000000009313","","1","1","arrowleft","0","arrowright","[0.325,0.675,0.15,0.85]","","",""
"sailing-trial","386","1853416","0.0-11.0-345.0","","","","false","","","","","","","","","","null","","967.2999999998137","","2","0","null","null","arrowup","[0.325,0.675,0.15,0.85]","","",""
"sailing-trial","387","1856792","0.0-11.0-346.0","","","","false","","","","","","","","","","497.60000000009313","","37.5","","1","1","arrowleft","0","arrowright","[0.325,0.675,0.15,0.85]","","",""
"sailing-trial","388","1859397","0.0-11.0-347.0","","","","false","","","","","","","","","","null","","682.7000000001863","","0","0","null","null","arrowup","[0.325,0.675,0.15,0.85]","","",""
"sailing-trial","389","1863409","0.0-11.0-348.0","","","","false","","","","","","","","","","513.3999999999069","","111.8000000002794","","1","0","arrowleft","0","arrowright","[0.325,0.675,0.15,0.85]","","",""
"sailing-trial","390","1866100","0.0-11.0-349.0","","","","false","","","","","","","","","","null","","818.5","","0","1","null","null","arrowup","[0.325,0.675,0.15,0.85]","","",""
"sailing-trial","391","1869564","0.0-11.0-350.0","","","","false","","","","","","","","","","527.7000000001863","","17.799999999813735","","1","1","arrowleft","0","arrowright","[0.325,0.675,0.15,0.85]","","",""
"sailing-trial","392","1871916","0.0-11.0-351.0","","","","false","","","","","","","","","","null","","550.7999999998137","","2","0","null","null","arrowup","[0.325,0.675,0.15,0.85]","","",""
"sailing-trial","393","1875795","0.0-11.0-352.0","","","","false","","","","","","","","","","865.3999999999069","","686.1999999997206","","1","0","arrowleft","0","arrowright","[0.325,0.675,0.15,0.85]","","",""
"sailing-trial","394","1878466","0.0-11.0-353.0","","","","false","","","","","","","","","","null","","1244.8999999999069","","0","0","null","null","arrowup","[0.325,0.675,0.15,0.85]","","",""
"sailing-trial","395","1882841","0.0-11.0-354.0","","","","false","","","","","","","","","","474.39999999990687","","8.299999999813735","","1","1","arrowleft","0","arrowright","[0.325,0.675,0.15,0.85]","","",""
"sailing-trial","396","1885538","0.0-11.0-355.0","","","","false","","","","","","","","","","null","","873.1000000000931","","3","1","null","null","arrowup","[0.325,0.675,0.15,0.85]","","",""
"sailing-trial","397","1888757","0.0-11.0-356.0","","","","false","","","","","","","","","","488.79999999981374","","410.39999999990687","","1","0","arrowleft","0","arrowright","[0.675,0.325,0.85,0.15]","","",""
"sailing-trial","398","1890935","0.0-11.0-357.0","","","","false","","","","","","","","","","null","","515.7999999998137","","2","1","null","null","arrowup","[0.675,0.325,0.85,0.15]","","",""
"sailing-trial","399","1893984","0.0-11.0-358.0","","","","false","","","","","","","","","","363.39999999990687","","30.800000000279397","","1","0","arrowleft","0","arrowright","[0.675,0.325,0.85,0.15]","","",""
"sailing-trial","400","1896329","0.0-11.0-359.0","","","","false","","","","","","","","","","null","","534.2000000001863","","2","1","null","null","arrowup","[0.675,0.325,0.85,0.15]","","",""
"sailing-trial","401","1899239","0.0-11.0-360.0","","","","false","","","","","","","","","","508.6999999997206","","53.200000000186265","","1","0","arrowleft","0","arrowright","[0.675,0.325,0.85,0.15]","","",""
"sailing-trial","402","1901445","0.0-11.0-361.0","","","","false","","","","","","","","","","null","","492.10000000009313","","2","1","null","null","arrowup","[0.675,0.325,0.85,0.15]","","",""
"sailing-trial","403","1904783","0.0-11.0-362.0","","","","false","","","","","","","","","","532.8999999999069","","456.10000000009313","","2","0","arrowright","1","arrowleft","[0.675,0.325,0.85,0.15]","","",""
"sailing-trial","404","1907418","0.0-11.0-363.0","","","","false","","","","","","","","","","null","","1359.1000000000931","","3","0","null","null","arrowup","[0.675,0.325,0.85,0.15]","","",""
"sailing-trial","405","1911087","0.0-11.0-364.0","","","","false","","","","","","","","","","547.7999999998137","","234.79999999981374","","2","1","arrowright","1","arrowleft","[0.675,0.325,0.85,0.15]","","",""
"sailing-trial","406","1913401","0.0-11.0-365.0","","","","false","","","","","","","","","","null","","607.8999999999069","","1","1","null","null","arrowup","[0.675,0.325,0.85,0.15]","","",""
"sailing-trial","407","1916932","0.0-11.0-366.0","","","","false","","","","","","","","","","519","","147.90000000037253","","2","1","arrowright","1","arrowleft","[0.675,0.325,0.85,0.15]","","",""
"sailing-trial","408","1919249","0.0-11.0-367.0","","","","false","","","","","","","","","","null","","474.3000000002794","","0","1","null","null","arrowup","[0.675,0.325,0.85,0.15]","","",""
"sailing-trial","409","1922947","0.0-11.0-368.0","","","","false","","","","","","","","","","484.5","","342.79999999981374","","2","1","arrowright","1","arrowleft","[0.675,0.325,0.85,0.15]","","",""
"sailing-trial","410","1924587","0.0-11.0-369.0","","","","false","","","","","","","","","","null","","434.70000000018626","","1","0","null","null","arrowup","[0.675,0.325,0.85,0.15]","","",""
"sailing-trial","411","1928193","0.0-11.0-370.0","","","","false","","","","","","","","","","419.60000000009313","","370","","2","1","arrowright","1","arrowleft","[0.675,0.325,0.85,0.15]","","",""
"sailing-trial","412","1930308","0.0-11.0-371.0","","","","false","","","","","","","","","","null","","557.1999999997206","","2","1","null","null","arrowup","[0.675,0.325,0.85,0.15]","","",""
"sailing-trial","413","1934004","0.0-11.0-372.0","","","","false","","","","","","","","","","476.5","","394.10000000009313","","2","1","arrowright","1","arrowleft","[0.675,0.325,0.85,0.15]","","",""
"sailing-trial","414","1936321","0.0-11.0-373.0","","","","false","","","","","","","","","","null","","510.70000000018626","","0","1","null","null","arrowup","[0.675,0.325,0.85,0.15]","","",""
"sailing-trial","415","1939752","0.0-11.0-374.0","","","","false","","","","","","","","","","445.10000000009313","","300.29999999981374","","2","1","arrowright","1","arrowleft","[0.675,0.325,0.85,0.15]","","",""
"sailing-trial","416","1941585","0.0-11.0-375.0","","","","false","","","","","","","","","","null","","521","","1","0","null","null","arrowup","[0.675,0.325,0.85,0.15]","","",""
"sailing-trial","417","1944912","0.0-11.0-376.0","","","","false","","","","","","","","","","418.90000000037253","","191","","2","1","arrowright","1","arrowleft","[0.85,0.15,0.675,0.325]","","",""
"sailing-trial","418","1948037","0.0-11.0-377.0","","","","false","","","","","","","","","","null","","330","","1","0","null","null","arrowup","[0.85,0.15,0.675,0.325]","","",""
"sailing-trial","419","1951628","0.0-11.0-378.0","","","","false","","","","","","","","","","392.39999999990687","","350.1999999997206","","2","1","arrowright","1","arrowleft","[0.85,0.15,0.675,0.325]","","",""
"sailing-trial","420","1953236","0.0-11.0-379.0","","","","false","","","","","","","","","","null","","457.29999999981374","","0","0","null","null","arrowup","[0.85,0.15,0.675,0.325]","","",""
"sailing-trial","421","1956957","0.0-11.0-380.0","","","","false","","","","","","","","","","496.10000000009313","","408.39999999990687","","2","1","arrowright","1","arrowleft","[0.85,0.15,0.675,0.325]","","",""
"sailing-trial","422","1959356","0.0-11.0-381.0","","","","false","","","","","","","","","","null","","566.8999999999069","","3","1","null","null","arrowup","[0.85,0.15,0.675,0.325]","","",""
"sailing-trial","423","1962935","0.0-11.0-382.0","","","","false","","","","","","","","","","350.10000000009313","","363.39999999990687","","2","1","arrowright","1","arrowleft","[0.85,0.15,0.675,0.325]","","",""
"sailing-trial","424","1965385","0.0-11.0-383.0","","","","false","","","","","","","","","","null","","639.2999999998137","","0","1","null","null","arrowup","[0.85,0.15,0.675,0.325]","","",""
"sailing-trial","425","1969067","0.0-11.0-384.0","","","","false","","","","","","","","","","530.2999999998137","","321.5","","2","1","arrowright","1","arrowleft","[0.85,0.15,0.675,0.325]","","",""
"sailing-trial","426","1971529","0.0-11.0-385.0","","","","false","","","","","","","","","","null","","643","","0","1","null","null","arrowup","[0.85,0.15,0.675,0.325]","","",""
"sailing-trial","427","1974993","0.0-11.0-386.0","","","","false","","","","","","","","","","534.2000000001863","","31.399999999906868","","2","1","arrowright","1","arrowleft","[0.85,0.15,0.675,0.325]","","",""
"sailing-trial","428","1977710","0.0-11.0-387.0","","","","false","","","","","","","","","","null","","875.2999999998137","","3","1","null","null","arrowup","[0.85,0.15,0.675,0.325]","","",""
"sailing-trial","429","1981272","0.0-11.0-388.0","","","","false","","","","","","","","","","560.3999999999069","","350.60000000009313","","2","1","arrowright","1","arrowleft","[0.85,0.15,0.675,0.325]","","",""
"sailing-trial","430","1984022","0.0-11.0-389.0","","","","false","","","","","","","","","","null","","942.2000000001863","","2","1","null","null","arrowup","[0.85,0.15,0.675,0.325]","","",""
"sailing-trial","431","1987736","0.0-11.0-390.0","","","","false","","","","","","","","","","513.3999999999069","","301.60000000009313","","2","1","arrowright","1","arrowleft","[0.85,0.15,0.675,0.325]","","",""
"sailing-trial","432","1990419","0.0-11.0-391.0","","","","false","","","","","","","","","","null","","896.3999999999069","","2","1","null","null","arrowup","[0.85,0.15,0.675,0.325]","","",""
"sailing-trial","433","1994332","0.0-11.0-392.0","","","","false","","","","","","","","","","529.5999999996275","","492.5","","2","1","arrowright","1","arrowleft","[0.85,0.15,0.675,0.325]","","",""
"sailing-trial","434","1996797","0.0-11.0-393.0","","","","false","","","","","","","","","","null","","668.1000000000931","","0","1","null","null","arrowup","[0.85,0.15,0.675,0.325]","","",""
"sailing-trial","435","2000460","0.0-11.0-394.0","","","","false","","","","","","","","","","447.29999999981374","","355","","2","1","arrowright","1","arrowleft","[0.85,0.15,0.675,0.325]","","",""
"sailing-trial","436","2002798","0.0-11.0-395.0","","","","false","","","","","","","","","","null","","1129.6000000000931","","1","0","null","null","arrowup","[0.85,0.15,0.675,0.325]","","",""
"sailing-trial","437","2006361","0.0-11.0-396.0","","","","false","","","","","","","","","","487.60000000009313","","328.8000000002794","","2","0","arrowright","1","arrowleft","[0.85,0.15,0.675,0.325]","","",""
"sailing-trial","438","2008822","0.0-11.0-397.0","","","","false","","","","","","","","","","null","","682.3000000002794","","0","1","null","null","arrowup","[0.85,0.15,0.675,0.325]","","",""
"sailing-trial","439","2012252","0.0-11.0-398.0","","","","false","","","","","","","","","","491.39999999990687","","88.70000000018626","","2","1","arrowright","1","arrowleft","[0.85,0.15,0.675,0.325]","","",""
"sailing-trial","440","2014140","0.0-11.0-399.0","","","","false","","","","","","","","","","null","","575.2000000001863","","1","0","null","null","arrowup","[0.85,0.15,0.675,0.325]","","",""
"instructions","441","2019221","0.0-12.0","","","","","","","","","","5079.199999999721","","","","","","","","","","","","","","","","[{""page_index"":0,""viewing_time"":5078.199999999721}]"
"survey-debrief","442","2028812","0.0-13.0","","","","","","","","","","9589","","","","","","","","","","","","","","{""difficulty"":""5"",""fun"":""2"",""clarity"":""5"",""strategy"":"""",""feedback"":""""}","",""
