"trial_type","trial_index","time_elapsed","internal_node_id","value","metadata","success","timeout","failed_images","failed_audio","failed_video","browser_interaction","low_quality","rt","stimulus","response","button_pressed","island_rt","island_response","boat_rt","boat_response","boat","reward","island_key","island","boat_key","reward_probabilities","responses","num_errors","view_history"
"pavlovia","0","16","0.0-0.0","","","","","","","","","","","","","","","","","","","","","","","","","",""
"call-function","1","16","0.0-1.0","","{""task_version"":""sr_pilot_v2"",""task_condition"":""good"",""boats"":[""C"",""D"",""A"",""B""],""boats_demo"":[""F"",""E"",""H"",""G""],""islands"":[""B"",""A""],""subject_id"":""13836"",""age"":""11"",""gender"":""Male""}","","","","","","","","","","","","","","","","","","","","","","","",""
"preload","2","1966","0.0-2.0","","","true","false","[]","[]","[]","[{""event"":""focus"",""trial"":0,""time"":1},{""event"":""fullscreenenter"",""trial"":3,""time"":15304}]","false","","","","","","","","","","","","","","","","",""
"fullscreen","3","16113","0.0-3.0","","","true","","","","","","","","","","","","","","","","","","","","","","",""
"audio-keyboard-response","4","18852","0.0-4.0-0.0","","","","","","","","[{""event"":""focus"",""trial"":0,""time"":1},{""event"":""fullscreenenter"",""trial"":3,""time"":15304},{""event"":""fullscreenexit"",""trial"":5,""time"":42079},{""event"":""blur"",""trial"":5,""time"":45798},{""event"":""focus"",""trial"":5,""time"":51073}]","false","2400","audio/beep_loop.wav"," ","","","","","","","","","","","","","",""
"audio-test","5","65249","0.0-4.0-1.0","","","","","","","","","","null","audio/turtle.mp3","","3","","","","","","","","","","","","",""
"audio-test","6","71020","0.0-4.0-2.0","","","","","","","","[{""event"":""focus"",""trial"":0,""time"":1},{""event"":""fullscreenenter"",""trial"":3,""time"":15304},{""event"":""fullscreenexit"",""trial"":5,""time"":42079},{""event"":""blur"",""trial"":5,""time"":45798},{""event"":""focus"",""trial"":5,""time"":51073},{""event"":""blur"",""trial"":7,""time"":75384},{""event"":""focus"",""trial"":7,""time"":117422},{""event"":""blur"",""trial"":7,""time"":182753},{""event"":""focus"",""trial"":7,""time"":187024},{""event"":""blur"",""trial"":7,""time"":193307},{""event"":""focus"",""trial"":7,""time"":200614},{""event"":""blur"",""trial"":7,""time"":209790},{""event"":""focus"",""trial"":7,""time"":216382},{""event"":""blur"",""trial"":7,""time"":329640},{""event"":""focus"",""trial"":7,""time"":1270712},{""event"":""blur"",""trial"":7,""time"":1277577},{""event"":""focus"",""trial"":7,""time"":1281011},{""event"":""blur"",""trial"":7,""time"":1287344},{""event"":""focus"",""trial"":7,""time"":1289585},{""event"":""blur"",""trial"":7,""time"":1289893},{""event"":""focus"",""trial"":7,""time"":1293601}]","false","null","audio/shark.mp3","","2","","","","","","","","","","","","",""
"sailing-instructions","7","1319684","0.0-5.0-0.0-0.0","","","","","","","","","","","","","","null","null","null","null","null","null","","","","","","",""
"sailing-trial","8","1326453","0.0-5.0-0.0-1.0-0.0","","","","false","","","","","","","","","","5598","","null","","null","null","arrowleft","0","null","null","","",""
"sailing-trial","9","1332366","0.0-5.0-0.0-1.0-1.0","","","","false","","","","","","","","","","4746","","null","","null","null","arrowright","1","null","null","","",""
"sailing-trial","10","1337740","0.0-5.0-0.0-1.0-2.0","","","","false","","","","","","","","","","4229","","null","","null","null","arrowright","1","null","null","","",""
"sailing-instructions","11","1382691","0.0-5.0-0.0-2.0","","","","","","","","","","","","","","null","null","null","null","0","null","","","","","","",""
"sailing-trial","12","1390892","0.0-5.0-0.0-3.0-0.0","","","","false","","","","","","","","","","null","","4063","","2","1","null","null","arrowleft","[1,1,1,1]","","",""
"sailing-trial","13","1395493","0.0-5.0-0.0-3.0-1.0","","","","false","","","","","","","","","","null","","1545","","3","1","null","null","arrowright","[1,1,1,1]","","",""
"sailing-trial","14","1398903","0.0-5.0-0.0-3.0-2.0","","","","false","","","","","","","","","","null","","1594","","2","0","null","null","arrowleft","[0,0,0,0]","","",""
"sailing-instructions","15","1406479","0.0-5.0-0.0-4.0","","","","","","","","","","","","","","null","null","null","null","null","null","","","","","","",""
"sailing-comprehension","16","1467478","0.0-5.0-0.0-5.0","","","","","","","","","","54706","","","","","","","","","","","","","","[""true"",""false"",""false"",""false""]","2",""
"sailing-instructions","17","1797138","0.0-5.0-0.1-0.1","","","","","","","","","","","","","","null","null","null","null","null","null","","","","","","",""
"sailing-trial","18","1803498","0.0-5.0-0.1-1.1-0.1","","","","false","","","","","","","","","","5199","","null","","null","null","arrowleft","0","null","null","","",""
"sailing-trial","19","1806386","0.0-5.0-0.1-1.1-1.1","","","","false","","","","","","","","","","1745","","null","","null","null","arrowright","1","null","null","","",""
"sailing-trial","20","1808554","0.0-5.0-0.1-1.1-2.1","","","","false","","","","","","","","","","1012","","null","","null","null","arrowleft","0","null","null","","",""
"sailing-instructions","21","1856453","0.0-5.0-0.1-2.1","","","","","","","","","","","","","","null","null","null","null","0","null","","","","","","",""
"sailing-trial","22","1861628","0.0-5.0-0.1-3.1-0.1","","","","false","","","","","","","","","","null","","2338","","2","1","null","null","arrowleft","[1,1,1,1]","","",""
"sailing-trial","23","1864675","0.0-5.0-0.1-3.1-1.1","","","","false","","","","","","","","","","null","","493","","3","1","null","null","arrowright","[1,1,1,1]","","",""
"sailing-trial","24","1868303","0.0-5.0-0.1-3.1-2.1","","","","false","","","","","","","","","","null","","815","","2","0","null","null","arrowleft","[0,0,0,0]","","",""
"sailing-instructions","25","1876048","0.0-5.0-0.1-4.1","","","","","","","","","","","","","","null","null","null","null","null","null","","","","","","",""
"sailing-comprehension","26","1890834","0.0-5.0-0.1-5.1","","","","","","","","","","10944","","","","","","","","","","","","","","[""true"",""true"",""false"",""true""]","0",""
"sailing-instructions","27","1961857","0.0-6.0-0.0-0.0","","","","","","","","","","","","","","null","null","null","null","null","null","","","","","","",""
"sailing-comprehension","28","1980148","0.0-6.0-0.0-1.0","","","","","","","","","","16726","","","","","","","","","","","","","","[""true"",""false"",""true""]","0",""
"sailing-instructions","29","1995907","0.0-7.0-0.0-0.0","","","","","","","","","","","","","","null","null","null","null","null","null","","","","","","",""
"sailing-trial","30","2109695","0.0-7.0-0.0-1.0-0.0","","","","false","","","","","","","","","","null","","110718","","0","0","null","null","arrowup","[0.2,0.8,0.2,0.8]","","",""
"sailing-trial","31","2115218","0.0-7.0-0.0-1.0-1.0","","","","false","","","","","","","","","","null","","2128","","1","1","null","null","arrowup","[0.2,0.8,0.2,0.8]","","",""
"sailing-trial","32","2122100","0.0-7.0-0.0-1.0-2.0","","","","false","","","","","","","","","","null","","3614","","2","0","null","null","arrowup","[0.2,0.8,0.2,0.8]","","",""
"sailing-trial","33","2126020","0.0-7.0-0.0-1.0-3.0","","","","false","","","","","","","","","","null","","1882","","3","1","null","null","arrowup","[0.2,0.8,0.2,0.8]","","",""
"sailing-comprehension","34","2149568","0.0-7.0-0.0-2.0","","","","","","","","","","19972","","","","","","","","","","","","","","[""true""]","1",""
"sailing-instructions","35","2169591","0.0-7.0-0.1-0.1","","","","","","","","","","","","","","null","null","null","null","null","null","","","","","","",""
"sailing-trial","36","2173508","0.0-7.0-0.1-1.1-0.1","","","","false","","","","","","","","","","null","","1782","","0","0","null","null","arrowup","[0.2,0.8,0.2,0.8]","","",""
"sailing-trial","37","2175356","0.0-7.0-0.1-1.1-1.1","","","","false","","","","","","","","","","null","","717","","1","0","null","null","arrowup","[0.2,0.8,0.2,0.8]","","",""
"sailing-trial","38","2177524","0.0-7.0-0.1-1.1-2.1","","","","false","","","","","","","","","","null","","535","","2","1","null","null","arrowup","[0.2,0.8,0.2,0.8]","","",""
"sailing-trial","39","2179758","0.0-7.0-0.1-1.1-3.1","","","","false","","","","","","","","","","null","","382","","3","1","null","null","arrowup","[0.2,0.8,0.2,0.8]","","",""
"sailing-comprehension","40","2186134","0.0-7.0-0.1-2.1","","","","","","","","","","4883","","","","","","","","","","","","","","[""false""]","0",""
"sailing-instructions","41","2197210","0.0-8.0-0.0-0.0","","","","","","","","","","","","","","null","null","null","null","null","null","","","","","","",""
"sailing-comprehension","42","2203324","0.0-8.0-0.0-1.0","","","","","","","","","","4536","","","","","","","","","","","","","","[""true""]","0",""
"sailing-instructions","43","2229055","0.0-9.0-0.0-0.0","","","","","","","","","","","","","","null","null","null","null","null","null","","","","","","",""
"sailing-trial","44","2234546","0.0-9.0-0.0-1.0-0.0","","","","false","","","","","","","","","","1280","","445","","3","1","arrowright","1","arrowright","[0.2,0.8,0.2,0.8]","","",""
"sailing-trial","45","2238830","0.0-9.0-0.0-1.0-1.0","","","","false","","","","","","","","","","779","","357","","0","0","arrowleft","0","arrowleft","[0.2,0.8,0.2,0.8]","","",""
"sailing-trial","46","2242680","0.0-9.0-0.0-1.0-2.0","","","","false","","","","","","","","","","null","","1422","","0","1","null","null","arrowup","[0.2,0.8,0.2,0.8]","","",""
"sailing-trial","47","2248258","0.0-9.0-0.0-1.0-3.0","","","","false","","","","","","","","","","643","","1999","","1","1","arrowleft","0","arrowright","[0.2,0.8,0.2,0.8]","","",""
"sailing-trial","48","2251385","0.0-9.0-0.0-1.0-4.0","","","","false","","","","","","","","","","null","","1060","","3","1","null","null","arrowup","[0.2,0.8,0.2,0.8]","","",""
"sailing-trial","49","2256401","0.0-9.0-0.0-1.0-5.0","","","","false","","","","","","","","","","1443","","1085","","2","0","arrowright","1","arrowleft","[0.2,0.8,0.2,0.8]","","",""
"sailing-instructions","50","2303116","0.0-10.0","","","","","","","","","","","","","","null","null","null","null","null","null","","","","","","",""
"sailing-trial","51","2307441","0.0-11.0-0.0","","","","false","","","","","","","","","","1457","","95","","3","1","arrowright","1","arrowright","[0.325,0.675,0.15,0.85]","","",""
"sailing-trial","52","2310740","0.0-11.0-1.0","","","","false","","","","","","","","","","null","","1289","","3","1","null","null","arrowup","[0.325,0.675,0.15,0.85]","","",""
"sailing-trial","53","2315265","0.0-11.0-2.0","","","","false","","","","","","","","","","440","","906","","1","1","arrowleft","0","arrowright","[0.325,0.675,0.15,0.85]","","",""
"sailing-trial","54","2318784","0.0-11.0-3.0","","","","false","","","","","","","","","","null","","971","","0","0","null","null","arrowup","[0.325,0.675,0.15,0.85]","","",""
"sailing-trial","55","2327520","0.0-11.0-4.0","","","","false","","","","","","","","","","4471","","144","","1","0","arrowleft","0","arrowright","[0.325,0.675,0.15,0.85]","","",""
"sailing-trial","56","2330641","0.0-11.0-5.0","","","","false","","","","","","","","","","null","","695","","2","0","null","null","arrowup","[0.325,0.675,0.15,0.85]","","",""
"sailing-trial","57","2333695","0.0-11.0-6.0","","","","false","","","","","","","","","","707","","125","","0","0","arrowleft","0","arrowleft","[0.325,0.675,0.15,0.85]","","",""
"sailing-trial","58","2336137","0.0-11.0-7.0","","","","false","","","","","","","","","","null","","1235","","1","0","null","null","arrowup","[0.325,0.675,0.15,0.85]","","",""
"sailing-trial","59","2338881","0.0-11.0-8.0","","","","false","","","","","","","","","","275","","116","","0","0","arrowleft","0","arrowleft","[0.325,0.675,0.15,0.85]","","",""
"sailing-trial","60","2341394","0.0-11.0-9.0","","","","false","","","","","","","","","","null","","1107","","0","0","null","null","arrowup","[0.325,0.675,0.15,0.85]","","",""
"sailing-trial","61","2344453","0.0-11.0-10.0","","","","false","","","","","","","","","","569","","372","","2","0","arrowright","1","arrowleft","[0.325,0.675,0.15,0.85]","","",""
"sailing-trial","62","2346956","0.0-11.0-11.0","","","","false","","","","","","","","","","null","","954","","2","0","null","null","arrowup","[0.325,0.675,0.15,0.85]","","",""
"sailing-trial","63","2350265","0.0-11.0-12.0","","","","false","","","","","","","","","","443","","400","","3","0","arrowright","1","arrowright","[0.325,0.675,0.15,0.85]","","",""
"sailing-trial","64","2353196","0.0-11.0-13.0","","","","false","","","","","","","","","","null","","1254","","3","1","null","null","arrowup","[0.325,0.675,0.15,0.85]","","",""
"sailing-trial","65","2355724","0.0-11.0-14.0","","","","false","","","","","","","","","","169","","125","","0","0","arrowleft","0","arrowleft","[0.325,0.675,0.15,0.85]","","",""
"sailing-trial","66","2357907","0.0-11.0-15.0","","","","false","","","","","","","","","","null","","489","","2","1","null","null","arrowup","[0.325,0.675,0.15,0.85]","","",""
"sailing-trial","67","2361171","0.0-11.0-16.0","","","","false","","","","","","","","","","79","","395","","3","1","arrowright","1","arrowright","[0.325,0.675,0.15,0.85]","","",""
"sailing-trial","68","2366221","0.0-11.0-17.0","","","","false","","","","","","","","","","null","","2649","","1","0","null","null","arrowup","[0.325,0.675,0.15,0.85]","","",""
"sailing-trial","69","2368900","0.0-11.0-18.0","","","","false","","","","","","","","","","525","","8","","0","0","arrowleft","0","arrowleft","[0.325,0.675,0.15,0.85]","","",""
"sailing-trial","70","2370671","0.0-11.0-19.0","","","","false","","","","","","","","","","null","","131","","1","1","null","null","arrowup","[0.325,0.675,0.15,0.85]","","",""
"sailing-trial","71","2373296","0.0-11.0-20.0","","","","false","","","","","","","","","","61","","355","","2","0","arrowright","1","arrowleft","[0.15,0.85,0.325,0.675]","","",""
"sailing-trial","72","2375068","0.0-11.0-21.0","","","","false","","","","","","","","","","null","","4","","1","1","null","null","arrowup","[0.15,0.85,0.325,0.675]","","",""
"sailing-trial","73","2378153","0.0-11.0-22.0","","","","false","","","","","","","","","","73","","85","","3","1","arrowright","1","arrowright","[0.15,0.85,0.325,0.675]","","",""
"sailing-trial","74","2379953","0.0-11.0-23.0","","","","false","","","","","","","","","","null","","584","","0","0","null","null","arrowup","[0.15,0.85,0.325,0.675]","","",""
"sailing-trial","75","2382179","0.0-11.0-24.0","","","","false","","","","","","","","","","83","","60","","2","0","arrowright","1","arrowleft","[0.15,0.85,0.325,0.675]","","",""
"sailing-trial","76","2388190","0.0-11.0-25.0","","","","false","","","","","","","","","","null","","2734","","0","0","null","null","arrowup","[0.15,0.85,0.325,0.675]","","",""
"sailing-trial","77","2391173","0.0-11.0-26.0","","","","false","","","","","","","","","","285","","38","","2","0","arrowright","1","arrowleft","[0.15,0.85,0.325,0.675]","","",""
"sailing-trial","78","2394669","0.0-11.0-27.0","","","","false","","","","","","","","","","null","","1397","","1","1","null","null","arrowup","[0.15,0.85,0.325,0.675]","","",""
"sailing-trial","79","2397517","0.0-11.0-28.0","","","","false","","","","","","","","","","34","","25","","3","1","arrowright","1","arrowright","[0.15,0.85,0.325,0.675]","","",""
"sailing-trial","80","2400040","0.0-11.0-29.0","","","","false","","","","","","","","","","null","","933","","3","1","null","null","arrowup","[0.15,0.85,0.325,0.675]","","",""
"sailing-trial","81","2403019","0.0-11.0-30.0","","","","false","","","","","","","","","","150","","130","","1","1","arrowleft","0","arrowright","[0.15,0.85,0.325,0.675]","","",""
"sailing-trial","82","2405455","0.0-11.0-31.0","","","","false","","","","","","","","","","null","","614","","2","1","null","null","arrowup","[0.15,0.85,0.325,0.675]","","",""
"sailing-trial","83","2410881","0.0-11.0-32.0","","","","false","","","","","","","","","","146","","20","","2","1","arrowright","1","arrowleft","[0.15,0.85,0.325,0.675]","","",""
"sailing-trial","84","2417632","0.0-11.0-33.0","","","","false","","","","","","","","","","null","","2298","","2","1","null","null","arrowup","[0.15,0.85,0.325,0.675]","","",""
"sailing-trial","85","2420624","0.0-11.0-34.0","","","","false","","","","","","","","","","230","","95","","0","1","arrowleft","0","arrowleft","[0.15,0.85,0.325,0.675]","","",""
"sailing-trial","86","2424256","0.0-11.0-35.0","","","","false","","","","","","","","","","null","","932","","2","1","null","null","arrowup","[0.15,0.85,0.325,0.675]","","",""
"sailing-trial","87","2427217","0.0-11.0-36.0","","","","false","","","","","","","","","","43","","60","","0","1","arrowleft","0","arrowleft","[0.15,0.85,0.325,0.675]","","",""
"sailing-trial","88","2429768","0.0-11.0-37.0","","","","false","","","","","","","","","","null","","1360","","1","0","null","null","arrowup","[0.15,0.85,0.325,0.675]","","",""
"sailing-trial","89","2432563","0.0-11.0-38.0","","","","false","","","","","","","","","","406","","181","","1","0","arrowleft","0","arrowright","[0.85,0.15,0.675,0.325]","","",""
"sailing-trial","90","2435447","0.0-11.0-39.0","","","","false","","","","","","","","","","null","","1764","","3","0","null","null","arrowup","[0.85,0.15,0.675,0.325]","","",""
"sailing-trial","91","2438775","0.0-11.0-40.0","","","","false","","","","","","","","","","367","","189","","2","1","arrowright","1","arrowleft","[0.85,0.15,0.675,0.325]","","",""
"sailing-trial","92","2442195","0.0-11.0-41.0","","","","false","","","","","","","","","","null","","1537","","1","0","null","null","arrowup","[0.85,0.15,0.675,0.325]","","",""
"sailing-trial","93","2444774","0.0-11.0-42.0","","","","false","","","","","","","","","","229","","47","","2","0","arrowright","1","arrowleft","[0.85,0.15,0.675,0.325]","","",""
"sailing-trial","94","2448164","0.0-11.0-43.0","","","","false","","","","","","","","","","null","","894","","2","1","null","null","arrowup","[0.85,0.15,0.675,0.325]","","",""
"sailing-trial","95","2452604","0.0-11.0-44.0","","","","false","","","","","","","","","","243","","70","","3","0","arrowright","1","arrowright","[0.85,0.15,0.675,0.325]","","",""
"sailing-trial","96","2455759","0.0-11.0-45.0","","","","false","","","","","","","","","","null","","1577","","0","1","null","null","arrowup","[0.85,0.15,0.675,0.325]","","",""
"sailing-trial","97","2462699","0.0-11.0-46.0","","","","false","","","","","","","","","","504","","98","","0","1","arrowleft","0","arrowleft","[0.85,0.15,0.675,0.325]","","",""
"sailing-trial","98","2467638","0.0-11.0-47.0","","","","false","","","","","","","","","","null","","1849","","1","0","null","null","arrowup","[0.85,0.15,0.675,0.325]","","",""
"sailing-trial","99","2471548","0.0-11.0-48.0","","","","false","","","","","","","","","","396","","113","","0","1","arrowleft","0","arrowleft","[0.85,0.15,0.675,0.325]","","",""
"sailing-trial","100","2481463","0.0-11.0-49.0","","","","false","","","","","","","","","","null","","6871","","1","0","null","null","arrowup","[0.85,0.15,0.675,0.325]","","",""
"sailing-trial","101","2485273","0.0-11.0-50.0","","","","false","","","","","","","","","","1227","","236","","3","0","arrowright","1","arrowright","[0.85,0.15,0.675,0.325]","","",""
"sailing-trial","102","2487666","0.0-11.0-51.0","","","","false","","","","","","","","","","null","","416","","2","1","null","null","arrowup","[0.85,0.15,0.675,0.325]","","",""
"sailing-trial","103","2491864","0.0-11.0-52.0","","","","false","","","","","","","","","","1433","","120","","0","1","arrowleft","0","arrowleft","[0.85,0.15,0.675,0.325]","","",""
"sailing-trial","104","2496141","0.0-11.0-53.0","","","","false","","","","","","","","","","null","","2643","","0","1","null","null","arrowup","[0.85,0.15,0.675,0.325]","","",""
"sailing-trial","105","2499209","0.0-11.0-54.0","","","","false","","","","","","","","","","196","","86","","2","1","arrowright","1","arrowleft","[0.85,0.15,0.675,0.325]","","",""
"sailing-trial","106","2501115","0.0-11.0-55.0","","","","false","","","","","","","","","","null","","829","","1","0","null","null","arrowup","[0.85,0.15,0.675,0.325]","","",""
"sailing-trial","107","2504412","0.0-11.0-56.0","","","","false","","","","","","","","","","67","","453","","3","1","arrowright","1","arrowright","[0.85,0.15,0.675,0.325]","","",""
"sailing-trial","108","2507741","0.0-11.0-57.0","","","","false","","","","","","","","","","null","","1004","","3","0","null","null","arrowup","[0.85,0.15,0.675,0.325]","","",""
"sailing-trial","109","2510449","0.0-11.0-58.0","","","","false","","","","","","","","","","195","","158","","1","0","arrowleft","0","arrowright","[0.675,0.325,0.85,0.15]","","",""
"sailing-trial","110","2512997","0.0-11.0-59.0","","","","false","","","","","","","","","","null","","1276","","1","0","null","null","arrowup","[0.675,0.325,0.85,0.15]","","",""
"sailing-trial","111","2516260","0.0-11.0-60.0","","","","false","","","","","","","","","","160","","200","","1","1","arrowleft","0","arrowright","[0.675,0.325,0.85,0.15]","","",""
"sailing-trial","112","2518302","0.0-11.0-61.0","","","","false","","","","","","","","","","null","","969","","1","0","null","null","arrowup","[0.675,0.325,0.85,0.15]","","",""
"sailing-trial","113","2521092","0.0-11.0-62.0","","","","false","","","","","","","","","","133","","141","","1","0","arrowleft","0","arrowright","[0.675,0.325,0.85,0.15]","","",""
"sailing-trial","114","2524451","0.0-11.0-63.0","","","","false","","","","","","","","","","null","","1164","","1","0","null","null","arrowup","[0.675,0.325,0.85,0.15]","","",""
"sailing-trial","115","2531082","0.0-11.0-64.0","","","","false","","","","","","","","","","588","","42","","2","1","arrowright","1","arrowleft","[0.675,0.325,0.85,0.15]","","",""
"sailing-trial","116","2533970","0.0-11.0-65.0","","","","false","","","","","","","","","","null","","724","","2","1","null","null","arrowup","[0.675,0.325,0.85,0.15]","","",""
"sailing-trial","117","2536583","0.0-11.0-66.0","","","","false","","","","","","","","","","178","","87","","2","0","arrowright","1","arrowleft","[0.675,0.325,0.85,0.15]","","",""
"sailing-trial","118","2539408","0.0-11.0-67.0","","","","false","","","","","","","","","","null","","497","","0","1","null","null","arrowup","[0.675,0.325,0.85,0.15]","","",""
"sailing-trial","119","2542290","0.0-11.0-68.0","","","","false","","","","","","","","","","194","","31","","1","1","arrowleft","0","arrowright","[0.675,0.325,0.85,0.15]","","",""
"sailing-trial","120","2543503","0.0-11.0-69.0","","","","false","","","","","","","","","","null","","47","","3","0","null","null","arrowup","[0.675,0.325,0.85,0.15]","","",""
"sailing-trial","121","2547483","0.0-11.0-70.0","","","","false","","","","","","","","","","330","","602","","1","1","arrowleft","0","arrowright","[0.675,0.325,0.85,0.15]","","",""
"sailing-trial","122","2549762","0.0-11.0-71.0","","","","false","","","","","","","","","","null","","966","","1","0","null","null","arrowup","[0.675,0.325,0.85,0.15]","","",""
"sailing-trial","123","2552601","0.0-11.0-72.0","","","","false","","","","","","","","","","1","","156","","2","1","arrowright","1","arrowleft","[0.675,0.325,0.85,0.15]","","",""
"sailing-trial","124","2554420","0.0-11.0-73.0","","","","false","","","","","","","","","","null","","28","","0","1","null","null","arrowup","[0.675,0.325,0.85,0.15]","","",""
"sailing-trial","125","2557576","0.0-11.0-74.0","","","","false","","","","","","","","","","100","","60","","2","1","arrowright","1","arrowleft","[0.675,0.325,0.85,0.15]","","",""
"sailing-trial","126","2560618","0.0-11.0-75.0","","","","false","","","","","","","","","","null","","537","","1","0","null","null","arrowup","[0.675,0.325,0.85,0.15]","","",""
"sailing-trial","127","2563923","0.0-11.0-76.0","","","","false","","","","","","","","","","458","","74","","2","1","arrowright","1","arrowleft","[0.675,0.325,0.85,0.15]","","",""
"sailing-trial","128","2565969","0.0-11.0-77.0","","","","false","","","","","","","","","","null","","187","","0","1","null","null","arrowup","[0.675,0.325,0.85,0.15]","","",""
"sailing-trial","129","2568906","0.0-11.0-78.0","","","","false","","","","","","","","","","76","","112","","2","1","arrowright","1","arrowleft","[0.675,0.325,0.85,0.15]","","",""
"sailing-trial","130","2571866","0.0-11.0-79.0","","","","false","","","","","","","","","","null","","430","","0","0","null","null","arrowup","[0.675,0.325,0.85,0.15]","","",""
"sailing-trial","131","2576283","0.0-11.0-80.0","","","","false","","","","","","","","","","1018","","585","","0","1","arrowleft","0","arrowleft","[0.85,0.15,0.675,0.325]","","",""
"sailing-trial","132","2579045","0.0-11.0-81.0","","","","false","","","","","","","","","","null","","1277","","0","0","null","null","arrowup","[0.85,0.15,0.675,0.325]","","",""
"sailing-trial","133","2584511","0.0-11.0-82.0","","","","false","","","","","","","","","","1504","","331","","0","1","arrowleft","0","arrowleft","[0.85,0.15,0.675,0.325]","","",""
"sailing-trial","134","2588017","0.0-11.0-83.0","","","","false","","","","","","","","","","null","","1329","","3","0","null","null","arrowup","[0.85,0.15,0.675,0.325]","","",""
"sailing-trial","135","2592450","0.0-11.0-84.0","","","","false","","","","","","","","","","799","","877","","2","1","arrowright","1","arrowleft","[0.85,0.15,0.675,0.325]","","",""
"sailing-trial","136","2597971","0.0-11.0-85.0","","","","false","","","","","","","","","","null","","2475","","0","0","null","null","arrowup","[0.85,0.15,0.675,0.325]","","",""
"sailing-trial","137","2605734","0.0-11.0-86.0","","","","false","","","","","","","","","","3296","","347","","1","0","arrowleft","0","arrowright","[0.85,0.15,0.675,0.325]","","",""
"sailing-trial","138","2609543","0.0-11.0-87.0","","","","false","","","","","","","","","","null","","1643","","0","1","null","null","arrowup","[0.85,0.15,0.675,0.325]","","",""
"sailing-trial","139","2614989","0.0-11.0-88.0","","","","false","","","","","","","","","","1581","","128","","3","0","arrowright","1","arrowright","[0.85,0.15,0.675,0.325]","","",""
"sailing-trial","140","2620554","0.0-11.0-89.0","","","","false","","","","","","","","","","null","","3678","","0","0","null","null","arrowup","[0.85,0.15,0.675,0.325]","","",""
"sailing-trial","141","2623058","0.0-11.0-90.0","","","","false","","","","","","","","","","238","","50","","2","0","arrowright","1","arrowleft","[0.85,0.15,0.675,0.325]","","",""
"sailing-trial","142","2627804","0.0-11.0-91.0","","","","false","","","","","","","","","","null","","1724","","2","0","null","null","arrowup","[0.85,0.15,0.675,0.325]","","",""
"sailing-trial","143","2636809","0.0-11.0-92.0","","","","false","","","","","","","","","","211","","2196","","0","1","arrowleft","0","arrowleft","[0.85,0.15,0.675,0.325]","","",""
"sailing-trial","144","2642390","0.0-11.0-93.0","","","","false","","","","","","","","","","null","","2543","","0","1","null","null","arrowup","[0.85,0.15,0.675,0.325]","","",""
"sailing-trial","145","2645096","0.0-11.0-94.0","","","","false","","","","","","","","","","209","","212","","1","0","arrowleft","0","arrowright","[0.85,0.15,0.675,0.325]","","",""
"sailing-trial","146","2647234","0.0-11.0-95.0","","","","false","","","","","","","","","","null","","157","","0","1","null","null","arrowup","[0.85,0.15,0.675,0.325]","","",""
"sailing-trial","147","2651552","0.0-11.0-96.0","","","","false","","","","","","","","","","9","","101","","3","0","arrowright","1","arrowright","[0.85,0.15,0.675,0.325]","","",""
"sailing-trial","148","2656827","0.0-11.0-97.0","","","","false","","","","","","","","","","null","","123","","0","1","null","null","arrowup","[0.85,0.15,0.675,0.325]","","",""
"sailing-trial","149","2659278","0.0-11.0-98.0","","","","false","","","","","","","","","","74","","215","","3","0","arrowright","1","arrowright","[0.675,0.325,0.85,0.15]","","",""
"sailing-trial","150","2661266","0.0-11.0-99.0","","","","false","","","","","","","","","","null","","266","","2","1","null","null","arrowup","[0.675,0.325,0.85,0.15]","","",""
"sailing-trial","151","2665434","0.0-11.0-100.0","","","","false","","","","","","","","","","356","","651","","2","1","arrowright","1","arrowleft","[0.675,0.325,0.85,0.15]","","",""
"sailing-trial","152","2667091","0.0-11.0-101.0","","","","false","","","","","","","","","","null","","146","","1","0","null","null","arrowup","[0.675,0.325,0.85,0.15]","","",""
"sailing-trial","153","2669826","0.0-11.0-102.0","","","","false","","","","","","","","","","188","","169","","3","0","arrowright","1","arrowright","[0.675,0.325,0.85,0.15]","","",""
"sailing-trial","154","2671480","0.0-11.0-103.0","","","","false","","","","","","","","","","null","","577","","2","0","null","null","arrowup","[0.675,0.325,0.85,0.15]","","",""
"sailing-trial","155","2674058","0.0-11.0-104.0","","","","false","","","","","","","","","","179","","196","","3","0","arrowright","1","arrowright","[0.675,0.325,0.85,0.15]","","",""
"sailing-trial","156","2675397","0.0-11.0-105.0","","","","false","","","","","","","","","","null","","216","","3","0","null","null","arrowup","[0.675,0.325,0.85,0.15]","","",""
"sailing-trial","157","2678466","0.0-11.0-106.0","","","","false","","","","","","","","","","227","","71","","0","1","arrowleft","0","arrowleft","[0.675,0.325,0.85,0.15]","","",""
"sailing-trial","158","2680086","0.0-11.0-107.0","","","","false","","","","","","","","","","null","","11","","2","1","null","null","arrowup","[0.675,0.325,0.85,0.15]","","",""
"sailing-trial","159","2682788","0.0-11.0-108.0","","","","false","","","","","","","","","","41","","306","","0","0","arrowleft","0","arrowleft","[0.675,0.325,0.85,0.15]","","",""
"sailing-trial","160","2684654","0.0-11.0-109.0","","","","false","","","","","","","","","","null","","2","","2","1","null","null","arrowup","[0.675,0.325,0.85,0.15]","","",""
"sailing-trial","161","2687645","0.0-11.0-110.0","","","","false","","","","","","","","","","70","","158","","0","1","arrowleft","0","arrowleft","[0.675,0.325,0.85,0.15]","","",""
"sailing-trial","162","2689697","0.0-11.0-111.0","","","","false","","","","","","","","","","null","","615","","1","0","null","null","arrowup","[0.675,0.325,0.85,0.15]","","",""
"sailing-trial","163","2694015","0.0-11.0-112.0","","","","false","","","","","","","","","","575","","1351","","0","0","arrowleft","0","arrowleft","[0.675,0.325,0.85,0.15]","","",""
"sailing-trial","164","2696200","0.0-11.0-113.0","","","","false","","","","","","","","","","null","","278","","0","1","null","null","arrowup","[0.675,0.325,0.85,0.15]","","",""
"sailing-trial","165","2699912","0.0-11.0-114.0","","","","false","","","","","","","","","","266","","763","","0","0","arrowleft","0","arrowleft","[0.675,0.325,0.85,0.15]","","",""
"sailing-trial","166","2701295","0.0-11.0-115.0","","","","false","","","","","","","","","","null","","176","","0","0","null","null","arrowup","[0.675,0.325,0.85,0.15]","","",""
"sailing-trial","167","2705239","0.0-11.0-116.0","","","","false","","","","","","","","","","992","","246","","1","1","arrowleft","0","arrowright","[0.325,0.675,0.15,0.85]","","",""
"sailing-trial","168","2707137","0.0-11.0-117.0","","","","false","","","","","","","","","","null","","25","","3","1","null","null","arrowup","[0.325,0.675,0.15,0.85]","","",""
"sailing-trial","169","2711779","0.0-11.0-118.0","","","","false","","","","","","","","","","253","","129","","0","1","arrowleft","0","arrowleft","[0.325,0.675,0.15,0.85]","","",""
"sailing-trial","170","2713356","0.0-11.0-119.0","","","","false","","","","","","","","","","null","","396","","2","0","null","null","arrowup","[0.325,0.675,0.15,0.85]","","",""
"sailing-trial","171","2715840","0.0-11.0-120.0","","","","false","","","","","","","","","","73","","285","","2","0","arrowright","1","arrowleft","[0.325,0.675,0.15,0.85]","","",""
"sailing-trial","172","2717005","0.0-11.0-121.0","","","","false","","","","","","","","","","null","","36","","0","0","null","null","arrowup","[0.325,0.675,0.15,0.85]","","",""
"sailing-trial","173","2720108","0.0-11.0-122.0","","","","false","","","","","","","","","","122","","201","","3","1","arrowright","1","arrowright","[0.325,0.675,0.15,0.85]","","",""
"sailing-trial","174","2723294","0.0-11.0-123.0","","","","false","","","","","","","","","","null","","101","","2","0","null","null","arrowup","[0.325,0.675,0.15,0.85]","","",""
"sailing-trial","175","2732210","0.0-11.0-124.0","","","","false","","","","","","","","","","386","","258","","3","1","arrowright","1","arrowright","[0.325,0.675,0.15,0.85]","","",""
"sailing-trial","176","2734519","0.0-11.0-125.0","","","","false","","","","","","","","","","null","","1044","","0","0","null","null","arrowup","[0.325,0.675,0.15,0.85]","","",""
"sailing-trial","177","2739778","0.0-11.0-126.0","","","","false","","","","","","","","","","484","","501","","1","1","arrowleft","0","arrowright","[0.325,0.675,0.15,0.85]","","",""
"sailing-trial","178","2743397","0.0-11.0-127.0","","","","false","","","","","","","","","","null","","582","","2","0","null","null","arrowup","[0.325,0.675,0.15,0.85]","","",""
"sailing-trial","179","2749965","0.0-11.0-128.0","","","","false","","","","","","","","","","1311","","2993","","2","0","arrowright","1","arrowleft","[0.325,0.675,0.15,0.85]","","",""
"sailing-trial","180","2757005","0.0-11.0-129.0","","","","false","","","","","","","","","","null","","761","","3","1","null","null","arrowup","[0.325,0.675,0.15,0.85]","","",""
"sailing-trial","181","2772035","0.0-11.0-130.0","","","","true","","","","","","","","","","null","","null","","null","null","null","null","null","[0.325,0.675,0.15,0.85]","","",""
"sailing-trial","182","2775667","0.0-11.0-131.0","","","","false","","","","","","","","","","null","","1215","","0","0","null","null","arrowup","[0.325,0.675,0.15,0.85]","","",""
"sailing-trial","183","2781854","0.0-11.0-132.0","","","","false","","","","","","","","","","3278","","101","","1","1","arrowleft","0","arrowright","[0.325,0.675,0.15,0.85]","","",""
"sailing-trial","184","2783760","0.0-11.0-133.0","","","","false","","","","","","","","","","null","","111","","1","1","null","null","arrowup","[0.325,0.675,0.15,0.85]","","",""
"sailing-trial","185","2787376","0.0-11.0-134.0","","","","false","","","","","","","","","","554","","140","","1","1","arrowleft","0","arrowright","[0.15,0.85,0.325,0.675]","","",""
"sailing-trial","186","2794161","0.0-11.0-135.0","","","","false","","","","","","","","","","null","","4776","","0","0","null","null","arrowup","[0.15,0.85,0.325,0.675]","","",""
"sailing-trial","187","2799004","0.0-11.0-136.0","","","","false","","","","","","","","","","1167","","194","","1","1","arrowleft","0","arrowright","[0.15,0.85,0.325,0.675]","","",""
"sailing-trial","188","2801746","0.0-11.0-137.0","","","","false","","","","","","","","","","null","","1266","","2","0","null","null","arrowup","[0.15,0.85,0.325,0.675]","","",""
"sailing-trial","189","2812560","0.0-11.0-138.0","","","","false","","","","","","","","","","605","","85","","3","1","arrowright","1","arrowright","[0.15,0.85,0.325,0.675]","","",""
"sailing-trial","190","2821160","0.0-11.0-139.0","","","","false","","","","","","","","","","null","","1255","","0","1","null","null","arrowup","[0.15,0.85,0.325,0.675]","","",""
"sailing-trial","191","2825399","0.0-11.0-140.0","","","","false","","","","","","","","","","949","","988","","0","0","arrowleft","0","arrowleft","[0.15,0.85,0.325,0.675]","","",""
"sailing-trial","192","2840437","0.0-11.0-141.0","","","","true","","","","","","","","","","null","","null","","null","null","null","null","null","[0.15,0.85,0.325,0.675]","","",""
"sailing-trial","193","2852679","0.0-11.0-142.0","","","","false","","","","","","","","","","7421","","175","","1","1","arrowleft","0","arrowright","[0.15,0.85,0.325,0.675]","","",""
"sailing-trial","194","2855622","0.0-11.0-143.0","","","","false","","","","","","","","","","null","","1889","","0","0","null","null","arrowup","[0.15,0.85,0.325,0.675]","","",""
"sailing-trial","195","2859065","0.0-11.0-144.0","","","","false","","","","","","","","","","96","","364","","1","1","arrowleft","0","arrowright","[0.15,0.85,0.325,0.675]","","",""
"sailing-trial","196","2860304","0.0-11.0-145.0","","","","false","","","","","","","","","","null","","134","","0","0","null","null","arrowup","[0.15,0.85,0.325,0.675]","","",""
"sailing-trial","197","2863474","0.0-11.0-146.0","","","","false","","","","","","","","","","275","","88","","3","1","arrowright","1","arrowright","[0.15,0.85,0.325,0.675]","","",""
"sailing-trial","198","2865417","0.0-11.0-147.0","","","","false","","","","","","","","","","null","","157","","1","1","null","null","arrowup","[0.15,0.85,0.325,0.675]","","",""
"sailing-trial","199","2868347","0.0-11.0-148.0","","","","false","","","","","","","","","","23","","269","","3","1","arrowright","1","arrowright","[0.15,0.85,0.325,0.675]","","",""
"sailing-trial","200","2870847","0.0-11.0-149.0","","","","false","","","","","","","","","","null","","567","","2","1","null","null","arrowup","[0.15,0.85,0.325,0.675]","","",""
"sailing-trial","201","2873366","0.0-11.0-150.0","","","","false","","","","","","","","","","231","","216","","0","0","arrowleft","0","arrowleft","[0.675,0.325,0.85,0.15]","","",""
"sailing-trial","202","2875488","0.0-11.0-151.0","","","","false","","","","","","","","","","null","","1018","","1","0","null","null","arrowup","[0.675,0.325,0.85,0.15]","","",""
"sailing-trial","203","2879976","0.0-11.0-152.0","","","","false","","","","","","","","","","34","","1826","","3","0","arrowright","1","arrowright","[0.675,0.325,0.85,0.15]","","",""
"sailing-trial","204","2884823","0.0-11.0-153.0","","","","false","","","","","","","","","","null","","3766","","1","0","null","null","arrowup","[0.675,0.325,0.85,0.15]","","",""
"sailing-trial","205","2889619","0.0-11.0-154.0","","","","false","","","","","","","","","","1395","","338","","1","0","arrowleft","0","arrowright","[0.675,0.325,0.85,0.15]","","",""
"sailing-trial","206","2891341","0.0-11.0-155.0","","","","false","","","","","","","","","","null","","50","","1","0","null","null","arrowup","[0.675,0.325,0.85,0.15]","","",""
"sailing-trial","207","2894320","0.0-11.0-156.0","","","","false","","","","","","","","","","102","","89","","0","1","arrowleft","0","arrowleft","[0.675,0.325,0.85,0.15]","","",""
"sailing-trial","208","2896327","0.0-11.0-157.0","","","","false","","","","","","","","","","null","","348","","2","1","null","null","arrowup","[0.675,0.325,0.85,0.15]","","",""
"sailing-trial","209","2900992","0.0-11.0-158.0","","","","false","","","","","","","","","","353","","1566","","2","1","arrowright","1","arrowleft","[0.675,0.325,0.85,0.15]","","",""
"sailing-trial","210","2903693","0.0-11.0-159.0","","","","false","","","","","","","","","","null","","15","","2","1","null","null","arrowup","[0.675,0.325,0.85,0.15]","","",""
"sailing-trial","211","2906355","0.0-11.0-160.0","","","","false","","","","","","","","","","283","","194","","3","0","arrowright","1","arrowright","[0.675,0.325,0.85,0.15]","","",""
"sailing-trial","212","2908251","0.0-11.0-161.0","","","","false","","","","","","","","","","null","","207","","2","1","null","null","arrowup","[0.675,0.325,0.85,0.15]","","",""
"sailing-trial","213","2911168","0.0-11.0-162.0","","","","false","","","","","","","","","","42","","653","","3","0","arrowright","1","arrowright","[0.675,0.325,0.85,0.15]","","",""
"sailing-trial","214","2913174","0.0-11.0-163.0","","","","false","","","","","","","","","","null","","845","","3","0","null","null","arrowup","[0.675,0.325,0.85,0.15]","","",""
"sailing-trial","215","2916424","0.0-11.0-164.0","","","","false","","","","","","","","","","347","","228","","2","1","arrowright","1","arrowleft","[0.675,0.325,0.85,0.15]","","",""
"sailing-trial","216","2919483","0.0-11.0-165.0","","","","false","","","","","","","","","","null","","231","","1","1","null","null","arrowup","[0.675,0.325,0.85,0.15]","","",""
"sailing-trial","217","2922780","0.0-11.0-166.0","","","","false","","","","","","","","","","424","","118","","0","1","arrowleft","0","arrowleft","[0.85,0.15,0.675,0.325]","","",""
"sailing-trial","218","2927050","0.0-11.0-167.0","","","","false","","","","","","","","","","null","","1191","","3","0","null","null","arrowup","[0.85,0.15,0.675,0.325]","","",""
"sailing-trial","219","2945444","0.0-11.0-168.0","","","","true","","","","","","","","","","2006","","128","","2","1","arrowright","1","arrowleft","[0.85,0.15,0.675,0.325]","","",""
"sailing-trial","220","2949792","0.0-11.0-169.0","","","","false","","","","","","","","","","null","","2743","","3","1","null","null","arrowup","[0.85,0.15,0.675,0.325]","","",""
"sailing-trial","221","2955213","0.0-11.0-170.0","","","","false","","","","","","","","","","1794","","64","","1","0","arrowleft","0","arrowright","[0.85,0.15,0.675,0.325]","","",""
"sailing-trial","222","2957446","0.0-11.0-171.0","","","","false","","","","","","","","","","null","","452","","2","1","null","null","arrowup","[0.85,0.15,0.675,0.325]","","",""
"sailing-trial","223","2960725","0.0-11.0-172.0","","","","false","","","","","","","","","","166","","453","","1","0","arrowleft","0","arrowright","[0.85,0.15,0.675,0.325]","","",""
"sailing-trial","224","2964166","0.0-11.0-173.0","","","","false","","","","","","","","","","null","","339","","2","1","null","null","arrowup","[0.85,0.15,0.675,0.325]","","",""
"sailing-trial","225","2969025","0.0-11.0-174.0","","","","false","","","","","","","","","","1623","","319","","0","1","arrowleft","0","arrowleft","[0.85,0.15,0.675,0.325]","","",""
"sailing-trial","226","2970664","0.0-11.0-175.0","","","","false","","","","","","","","","","null","","47","","2","1","null","null","arrowup","[0.85,0.15,0.675,0.325]","","",""
"sailing-trial","227","2973803","0.0-11.0-176.0","","","","false","","","","","","","","","","20","","671","","3","0","arrowright","1","arrowright","[0.85,0.15,0.675,0.325]","","",""
"sailing-trial","228","2976416","0.0-11.0-177.0","","","","false","","","","","","","","","","null","","1427","","3","0","null","null","arrowup","[0.85,0.15,0.675,0.325]","","",""
"sailing-trial","229","2981883","0.0-11.0-178.0","","","","false","","","","","","","","","","1239","","107","","3","0","arrowright","1","arrowright","[0.85,0.15,0.675,0.325]","","",""
"sailing-trial","230","2984034","0.0-11.0-179.0","","","","false","","","","","","","","","","null","","369","","3","1","null","null","arrowup","[0.85,0.15,0.675,0.325]","","",""
"sailing-trial","231","2987281","0.0-11.0-180.0","","","","false","","","","","","","","","","125","","312","","0","1","arrowleft","0","arrowleft","[0.85,0.15,0.675,0.325]","","",""
"sailing-trial","232","2992445","0.0-11.0-181.0","","","","false","","","","","","","","","","null","","2990","","0","1","null","null","arrowup","[0.85,0.15,0.675,0.325]","","",""
"sailing-trial","233","2998569","0.0-11.0-182.0","","","","false","","","","","","","","","","243","","1267","","1","1","arrowleft","0","arrowright","[0.85,0.15,0.675,0.325]","","",""
"sailing-trial","234","3001275","0.0-11.0-183.0","","","","false","","","","","","","","","","null","","72","","2","0","null","null","arrowup","[0.85,0.15,0.675,0.325]","","",""
"sailing-trial","235","3005750","0.0-11.0-184.0","","","","false","","","","","","","","","","1298","","343","","0","1","arrowleft","0","arrowleft","[0.85,0.15,0.675,0.325]","","",""
"sailing-trial","236","3020782","0.0-11.0-185.0","","","","true","","","","","","","","","","null","","null","","null","null","null","null","null","[0.85,0.15,0.675,0.325]","","",""
"sailing-trial","237","3024239","0.0-11.0-186.0","","","","false","","","","","","","","","","797","","232","","3","0","arrowright","1","arrowright","[0.675,0.325,0.85,0.15]","","",""
"sailing-trial","238","3028386","0.0-11.0-187.0","","","","false","","","","","","","","","","null","","2459","","1","1","null","null","arrowup","[0.675,0.325,0.85,0.15]","","",""
"sailing-trial","239","3031395","0.0-11.0-188.0","","","","false","","","","","","","","","","57","","253","","0","1","arrowleft","0","arrowleft","[0.675,0.325,0.85,0.15]","","",""
"sailing-trial","240","3032668","0.0-11.0-189.0","","","","false","","","","","","","","","","null","","184","","3","0","null","null","arrowup","[0.675,0.325,0.85,0.15]","","",""
"sailing-trial","241","3035859","0.0-11.0-190.0","","","","false","","","","","","","","","","96","","229","","2","1","arrowright","1","arrowleft","[0.675,0.325,0.85,0.15]","","",""
"sailing-trial","242","3038293","0.0-11.0-191.0","","","","false","","","","","","","","","","null","","389","","0","1","null","null","arrowup","[0.675,0.325,0.85,0.15]","","",""
"sailing-trial","243","3043326","0.0-11.0-192.0","","","","false","","","","","","","","","","226","","255","","2","1","arrowright","1","arrowleft","[0.675,0.325,0.85,0.15]","","",""
"sailing-trial","244","3044948","0.0-11.0-193.0","","","","false","","","","","","","","","","null","","12","","2","1","null","null","arrowup","[0.675,0.325,0.85,0.15]","","",""
"sailing-trial","245","3049140","0.0-11.0-194.0","","","","false","","","","","","","","","","859","","292","","3","0","arrowright","1","arrowright","[0.675,0.325,0.85,0.15]","","",""
"sailing-trial","246","3051669","0.0-11.0-195.0","","","","false","","","","","","","","","","null","","704","","1","1","null","null","arrowup","[0.675,0.325,0.85,0.15]","","",""
"sailing-trial","247","3055879","0.0-11.0-196.0","","","","false","","","","","","","","","","0","","558","","2","1","arrowright","1","arrowleft","[0.675,0.325,0.85,0.15]","","",""
"sailing-trial","248","3057383","0.0-11.0-197.0","","","","false","","","","","","","","","","null","","353","","3","0","null","null","arrowup","[0.675,0.325,0.85,0.15]","","",""
"sailing-trial","249","3062198","0.0-11.0-198.0","","","","false","","","","","","","","","","633","","539","","0","1","arrowleft","0","arrowleft","[0.675,0.325,0.85,0.15]","","",""
"sailing-trial","250","3063913","0.0-11.0-199.0","","","","false","","","","","","","","","","null","","224","","3","0","null","null","arrowup","[0.675,0.325,0.85,0.15]","","",""
"sailing-trial","251","3067927","0.0-11.0-200.0","","","","false","","","","","","","","","","267","","300","","2","1","arrowright","1","arrowleft","[0.675,0.325,0.85,0.15]","","",""
"sailing-trial","252","3075822","0.0-11.0-201.0","","","","false","","","","","","","","","","null","","277","","2","1","null","null","arrowup","[0.675,0.325,0.85,0.15]","","",""
"sailing-trial","253","3078837","0.0-11.0-202.0","","","","false","","","","","","","","","","705","","160","","0","0","arrowleft","0","arrowleft","[0.15,0.85,0.325,0.675]","","",""
"sailing-trial","254","3080910","0.0-11.0-203.0","","","","false","","","","","","","","","","null","","299","","3","1","null","null","arrowup","[0.15,0.85,0.325,0.675]","","",""
"sailing-trial","255","3086571","0.0-11.0-204.0","","","","false","","","","","","","","","","238","","1328","","0","0","arrowleft","0","arrowleft","[0.15,0.85,0.325,0.675]","","",""
"sailing-trial","256","3091082","0.0-11.0-205.0","","","","false","","","","","","","","","","null","","3175","","0","0","null","null","arrowup","[0.15,0.85,0.325,0.675]","","",""
"sailing-trial","257","3094824","0.0-11.0-206.0","","","","false","","","","","","","","","","101","","36","","3","0","arrowright","1","arrowright","[0.15,0.85,0.325,0.675]","","",""
"sailing-trial","258","3097225","0.0-11.0-207.0","","","","false","","","","","","","","","","null","","67","","1","1","null","null","arrowup","[0.15,0.85,0.325,0.675]","","",""
"sailing-trial","259","3106322","0.0-11.0-208.0","","","","false","","","","","","","","","","5523","","1034","","0","0","arrowleft","0","arrowleft","[0.15,0.85,0.325,0.675]","","",""
"sailing-trial","260","3108842","0.0-11.0-209.0","","","","false","","","","","","","","","","null","","857","","2","1","null","null","arrowup","[0.15,0.85,0.325,0.675]","","",""
"sailing-trial","261","3114946","0.0-11.0-210.0","","","","false","","","","","","","","","","3393","","16","","1","1","arrowleft","0","arrowright","[0.15,0.85,0.325,0.675]","","",""
"sailing-trial","262","3117624","0.0-11.0-211.0","","","","false","","","","","","","","","","null","","1083","","2","1","null","null","arrowup","[0.15,0.85,0.325,0.675]","","",""
"sailing-trial","263","3120347","0.0-11.0-212.0","","","","false","","","","","","","","","","276","","159","","2","0","arrowright","1","arrowleft","[0.15,0.85,0.325,0.675]","","",""
"sailing-trial","264","3124535","0.0-11.0-213.0","","","","false","","","","","","","","","","null","","1045","","3","1","null","null","arrowup","[0.15,0.85,0.325,0.675]","","",""
"sailing-trial","265","3127469","0.0-11.0-214.0","","","","false","","","","","","","","","","537","","31","","0","0","arrowleft","0","arrowleft","[0.15,0.85,0.325,0.675]","","",""
"sailing-trial","266","3130245","0.0-11.0-215.0","","","","false","","","","","","","","","","null","","1090","","3","1","null","null","arrowup","[0.15,0.85,0.325,0.675]","","",""
"sailing-trial","267","3132897","0.0-11.0-216.0","","","","false","","","","","","","","","","160","","130","","1","0","arrowleft","0","arrowright","[0.15,0.85,0.325,0.675]","","",""
"sailing-trial","268","3136302","0.0-11.0-217.0","","","","false","","","","","","","","","","null","","1439","","1","1","null","null","arrowup","[0.15,0.85,0.325,0.675]","","",""
"sailing-trial","269","3139525","0.0-11.0-218.0","","","","false","","","","","","","","","","212","","132","","2","1","arrowright","1","arrowleft","[0.675,0.325,0.85,0.15]","","",""
"sailing-trial","270","3140941","0.0-11.0-219.0","","","","false","","","","","","","","","","null","","215","","0","0","null","null","arrowup","[0.675,0.325,0.85,0.15]","","",""
"sailing-trial","271","3144246","0.0-11.0-220.0","","","","false","","","","","","","","","","659","","285","","1","0","arrowleft","0","arrowright","[0.675,0.325,0.85,0.15]","","",""
"sailing-trial","272","3145935","0.0-11.0-221.0","","","","false","","","","","","","","","","null","","430","","1","0","null","null","arrowup","[0.675,0.325,0.85,0.15]","","",""
"sailing-trial","273","3154040","0.0-11.0-222.0","","","","false","","","","","","","","","","774","","402","","3","1","arrowright","1","arrowright","[0.675,0.325,0.85,0.15]","","",""
"sailing-trial","274","3156938","0.0-11.0-223.0","","","","false","","","","","","","","","","null","","199","","0","1","null","null","arrowup","[0.675,0.325,0.85,0.15]","","",""
"sailing-trial","275","3160968","0.0-11.0-224.0","","","","false","","","","","","","","","","539","","436","","2","1","arrowright","1","arrowleft","[0.675,0.325,0.85,0.15]","","",""
"sailing-trial","276","3163683","0.0-11.0-225.0","","","","false","","","","","","","","","","null","","961","","3","0","null","null","arrowup","[0.675,0.325,0.85,0.15]","","",""
"sailing-trial","277","3167178","0.0-11.0-226.0","","","","false","","","","","","","","","","219","","846","","3","0","arrowright","1","arrowright","[0.675,0.325,0.85,0.15]","","",""
"sailing-trial","278","3169866","0.0-11.0-227.0","","","","false","","","","","","","","","","null","","1285","","3","0","null","null","arrowup","[0.675,0.325,0.85,0.15]","","",""
"sailing-trial","279","3173360","0.0-11.0-228.0","","","","false","","","","","","","","","","517","","304","","0","1","arrowleft","0","arrowleft","[0.675,0.325,0.85,0.15]","","",""
"sailing-trial","280","3176106","0.0-11.0-229.0","","","","false","","","","","","","","","","null","","1185","","3","0","null","null","arrowup","[0.675,0.325,0.85,0.15]","","",""
"sailing-trial","281","3180289","0.0-11.0-230.0","","","","false","","","","","","","","","","793","","400","","2","1","arrowright","1","arrowleft","[0.675,0.325,0.85,0.15]","","",""
"sailing-trial","282","3183187","0.0-11.0-231.0","","","","false","","","","","","","","","","null","","1328","","3","0","null","null","arrowup","[0.675,0.325,0.85,0.15]","","",""
"sailing-trial","283","3189871","0.0-11.0-232.0","","","","false","","","","","","","","","","812","","2096","","2","1","arrowright","1","arrowleft","[0.675,0.325,0.85,0.15]","","",""
"sailing-trial","284","3191851","0.0-11.0-233.0","","","","false","","","","","","","","","","null","","275","","2","1","null","null","arrowup","[0.675,0.325,0.85,0.15]","","",""
"sailing-trial","285","3194781","0.0-11.0-234.0","","","","false","","","","","","","","","","97","","71","","2","1","arrowright","1","arrowleft","[0.675,0.325,0.85,0.15]","","",""
"sailing-trial","286","3196106","0.0-11.0-235.0","","","","false","","","","","","","","","","null","","81","","3","0","null","null","arrowup","[0.675,0.325,0.85,0.15]","","",""
"sailing-trial","287","3199136","0.0-11.0-236.0","","","","false","","","","","","","","","","10","","72","","0","1","arrowleft","0","arrowleft","[0.675,0.325,0.85,0.15]","","",""
"sailing-trial","288","3201126","0.0-11.0-237.0","","","","false","","","","","","","","","","null","","159","","2","1","null","null","arrowup","[0.675,0.325,0.85,0.15]","","",""
"sailing-trial","289","3204616","0.0-11.0-238.0","","","","false","","","","","","","","","","244","","398","","2","1","arrowright","1","arrowleft","[0.675,0.325,0.85,0.15]","","",""
"sailing-trial","290","3206512","0.0-11.0-239.0","","","","false","","","","","","","","","","null","","247","","1","1","null","null","arrowup","[0.675,0.325,0.85,0.15]","","",""
"sailing-trial","291","3211920","0.0-11.0-240.0","","","","false","","","","","","","","","","149","","3021","","1","0","arrowleft","0","arrowright","[0.85,0.15,0.675,0.325]","","",""
"sailing-trial","292","3214962","0.0-11.0-241.0","","","","false","","","","","","","","","","null","","645","","2","1","null","null","arrowup","[0.85,0.15,0.675,0.325]","","",""
"sailing-trial","293","3219462","0.0-11.0-242.0","","","","false","","","","","","","","","","2060","","158","","3","0","arrowright","1","arrowright","[0.85,0.15,0.675,0.325]","","",""
"sailing-trial","294","3223319","0.0-11.0-243.0","","","","false","","","","","","","","","","null","","2361","","0","0","null","null","arrowup","[0.85,0.15,0.675,0.325]","","",""
"sailing-trial","295","3227322","0.0-11.0-244.0","","","","false","","","","","","","","","","1108","","379","","1","0","arrowleft","0","arrowright","[0.85,0.15,0.675,0.325]","","",""
"sailing-trial","296","3229869","0.0-11.0-245.0","","","","false","","","","","","","","","","null","","1359","","1","0","null","null","arrowup","[0.85,0.15,0.675,0.325]","","",""
"sailing-trial","297","3233606","0.0-11.0-246.0","","","","false","","","","","","","","","","1136","","525","","1","0","arrowleft","0","arrowright","[0.85,0.15,0.675,0.325]","","",""
"sailing-trial","298","3236942","0.0-11.0-247.0","","","","false","","","","","","","","","","null","","1670","","3","1","null","null","arrowup","[0.85,0.15,0.675,0.325]","","",""
"sailing-trial","299","3240908","0.0-11.0-248.0","","","","false","","","","","","","","","","89","","1723","","2","0","arrowright","1","arrowleft","[0.85,0.15,0.675,0.325]","","",""
"sailing-trial","300","3242982","0.0-11.0-249.0","","","","false","","","","","","","","","","null","","184","","3","1","null","null","arrowup","[0.85,0.15,0.675,0.325]","","",""
"sailing-trial","301","3247159","0.0-11.0-250.0","","","","false","","","","","","","","","","118","","450","","3","1","arrowright","1","arrowright","[0.85,0.15,0.675,0.325]","","",""
"sailing-trial","302","3248530","0.0-11.0-251.0","","","","false","","","","","","","","","","null","","130","","0","0","null","null","arrowup","[0.85,0.15,0.675,0.325]","","",""
"sailing-trial","303","3252155","0.0-11.0-252.0","","","","false","","","","","","","","","","132","","330","","3","0","arrowright","1","arrowright","[0.85,0.15,0.675,0.325]","","",""
"sailing-trial","304","3254942","0.0-11.0-253.0","","","","false","","","","","","","","","","null","","891","","2","1","null","null","arrowup","[0.85,0.15,0.675,0.325]","","",""
"sailing-trial","305","3262465","0.0-11.0-254.0","","","","false","","","","","","","","","","633","","284","","1","1","arrowleft","0","arrowright","[0.85,0.15,0.675,0.325]","","",""
"sailing-trial","306","3264139","0.0-11.0-255.0","","","","false","","","","","","","","","","null","","58","","3","1","null","null","arrowup","[0.85,0.15,0.675,0.325]","","",""
"sailing-trial","307","3268631","0.0-11.0-256.0","","","","false","","","","","","","","","","262","","194","","2","0","arrowright","1","arrowleft","[0.675,0.325,0.85,0.15]","","",""
"sailing-trial","308","3272362","0.0-11.0-257.0","","","","false","","","","","","","","","","null","","2009","","0","1","null","null","arrowup","[0.675,0.325,0.85,0.15]","","",""
"sailing-trial","309","3282727","0.0-11.0-258.0","","","","false","","","","","","","","","","4683","","22","","0","1","arrowleft","0","arrowleft","[0.675,0.325,0.85,0.15]","","",""
"sailing-trial","310","3285349","0.0-11.0-259.0","","","","false","","","","","","","","","","null","","898","","2","1","null","null","arrowup","[0.675,0.325,0.85,0.15]","","",""
"sailing-trial","311","3288266","0.0-11.0-260.0","","","","false","","","","","","","","","","185","","28","","0","1","arrowleft","0","arrowleft","[0.675,0.325,0.85,0.15]","","",""
"sailing-trial","312","3291895","0.0-11.0-261.0","","","","false","","","","","","","","","","null","","1875","","0","1","null","null","arrowup","[0.675,0.325,0.85,0.15]","","",""
"sailing-trial","313","3295575","0.0-11.0-262.0","","","","false","","","","","","","","","","672","","65","","0","1","arrowleft","0","arrowleft","[0.675,0.325,0.85,0.15]","","",""
"sailing-trial","314","3300307","0.0-11.0-263.0","","","","false","","","","","","","","","","null","","2836","","1","0","null","null","arrowup","[0.675,0.325,0.85,0.15]","","",""
"sailing-trial","315","3304738","0.0-11.0-264.0","","","","false","","","","","","","","","","904","","451","","2","1","arrowright","1","arrowleft","[0.675,0.325,0.85,0.15]","","",""
"sailing-trial","316","3306328","0.0-11.0-265.0","","","","false","","","","","","","","","","null","","81","","2","0","null","null","arrowup","[0.675,0.325,0.85,0.15]","","",""
"sailing-trial","317","3310041","0.0-11.0-266.0","","","","false","","","","","","","","","","801","","229","","2","1","arrowright","1","arrowleft","[0.675,0.325,0.85,0.15]","","",""
"sailing-trial","318","3311811","0.0-11.0-267.0","","","","false","","","","","","","","","","null","","628","","2","0","null","null","arrowup","[0.675,0.325,0.85,0.15]","","",""
"sailing-trial","319","3315063","0.0-11.0-268.0","","","","false","","","","","","","","","","209","","347","","2","1","arrowright","1","arrowleft","[0.675,0.325,0.85,0.15]","","",""
"sailing-trial","320","3317230","0.0-11.0-269.0","","","","false","","","","","","","","","","null","","152","","3","0","null","null","arrowup","[0.675,0.325,0.85,0.15]","","",""
"sailing-trial","321","3322813","0.0-11.0-270.0","","","","false","","","","","","","","","","887","","190","","0","1","arrowleft","0","arrowleft","[0.675,0.325,0.85,0.15]","","",""
"sailing-trial","322","3324548","0.0-11.0-271.0","","","","false","","","","","","","","","","null","","50","","0","1","null","null","arrowup","[0.675,0.325,0.85,0.15]","","",""
"sailing-trial","323","3329013","0.0-11.0-272.0","","","","false","","","","","","","","","","97","","165","","2","1","arrowright","1","arrowleft","[0.675,0.325,0.85,0.15]","","",""
"sailing-trial","324","3333364","0.0-11.0-273.0","","","","false","","","","","","","","","","null","","1304","","3","0","null","null","arrowup","[0.675,0.325,0.85,0.15]","","",""
"sailing-trial","325","3337094","0.0-11.0-274.0","","","","false","","","","","","","","","","910","","16","","2","1","arrowright","1","arrowleft","[0.675,0.325,0.85,0.15]","","",""
"sailing-trial","326","3342606","0.0-11.0-275.0","","","","false","","","","","","","","","","null","","3667","","1","1","null","null","arrowup","[0.675,0.325,0.85,0.15]","","",""
"sailing-trial","327","3361133","0.0-11.0-276.0","","","","true","","","","","","","","","","1696","","220","","2","1","arrowright","1","arrowleft","[0.675,0.325,0.85,0.15]","","",""
"sailing-trial","328","3366951","0.0-11.0-277.0","","","","false","","","","","","","","","","null","","4006","","1","1","null","null","arrowup","[0.675,0.325,0.85,0.15]","","",""
"sailing-trial","329","3370056","0.0-11.0-278.0","","","","false","","","","","","","","","","104","","270","","2","1","arrowright","1","arrowleft","[0.675,0.325,0.85,0.15]","","",""
"sailing-trial","330","3371319","0.0-11.0-279.0","","","","false","","","","","","","","","","null","","45","","1","0","null","null","arrowup","[0.675,0.325,0.85,0.15]","","",""
"sailing-trial","331","3375973","0.0-11.0-280.0","","","","false","","","","","","","","","","201","","365","","2","0","arrowright","1","arrowleft","[0.85,0.15,0.675,0.325]","","",""
"sailing-trial","332","3377212","0.0-11.0-281.0","","","","false","","","","","","","","","","null","","1","","3","0","null","null","arrowup","[0.85,0.15,0.675,0.325]","","",""
"sailing-trial","333","3380452","0.0-11.0-282.0","","","","false","","","","","","","","","","461","","147","","2","0","arrowright","1","arrowleft","[0.85,0.15,0.675,0.325]","","",""
"sailing-trial","334","3382764","0.0-11.0-283.0","","","","false","","","","","","","","","","null","","885","","2","0","null","null","arrowup","[0.85,0.15,0.675,0.325]","","",""
"sailing-trial","335","3385791","0.0-11.0-284.0","","","","false","","","","","","","","","","567","","364","","3","0","arrowright","1","arrowright","[0.85,0.15,0.675,0.325]","","",""
"sailing-trial","336","3388121","0.0-11.0-285.0","","","","false","","","","","","","","","","null","","203","","1","0","null","null","arrowup","[0.85,0.15,0.675,0.325]","","",""
"sailing-trial","337","3391609","0.0-11.0-286.0","","","","false","","","","","","","","","","812","","251","","3","0","arrowright","1","arrowright","[0.85,0.15,0.675,0.325]","","",""
"sailing-trial","338","3393806","0.0-11.0-287.0","","","","false","","","","","","","","","","null","","741","","1","0","null","null","arrowup","[0.85,0.15,0.675,0.325]","","",""
"sailing-trial","339","3396149","0.0-11.0-288.0","","","","false","","","","","","","","","","26","","76","","1","0","arrowleft","0","arrowright","[0.85,0.15,0.675,0.325]","","",""
"sailing-trial","340","3398859","0.0-11.0-289.0","","","","false","","","","","","","","","","null","","934","","0","1","null","null","arrowup","[0.85,0.15,0.675,0.325]","","",""
"sailing-trial","341","3401470","0.0-11.0-290.0","","","","false","","","","","","","","","","97","","47","","1","0","arrowleft","0","arrowright","[0.85,0.15,0.675,0.325]","","",""
"sailing-trial","342","3403880","0.0-11.0-291.0","","","","false","","","","","","","","","","null","","905","","2","0","null","null","arrowup","[0.85,0.15,0.675,0.325]","","",""
"sailing-trial","343","3407851","0.0-11.0-292.0","","","","false","","","","","","","","","","84","","474","","0","1","arrowleft","0","arrowleft","[0.85,0.15,0.675,0.325]","","",""
"sailing-trial","344","3410306","0.0-11.0-293.0","","","","false","","","","","","","","","","null","","1276","","1","0","null","null","arrowup","[0.85,0.15,0.675,0.325]","","",""
"sailing-trial","345","3413441","0.0-11.0-294.0","","","","false","","","","","","","","","","573","","181","","1","0","arrowleft","0","arrowright","[0.85,0.15,0.675,0.325]","","",""
"sailing-trial","346","3416615","0.0-11.0-295.0","","","","false","","","","","","","","","","null","","1377","","2","1","null","null","arrowup","[0.85,0.15,0.675,0.325]","","",""
"sailing-trial","347","3420189","0.0-11.0-296.0","","","","false","","","","","","","","","","221","","167","","2","0","arrowright","1","arrowleft","[0.675,0.325,0.85,0.15]","","",""
"sailing-trial","348","3423170","0.0-11.0-297.0","","","","false","","","","","","","","","","null","","1094","","1","0","null","null","arrowup","[0.675,0.325,0.85,0.15]","","",""
"sailing-trial","349","3442138","0.0-11.0-298.0","","","","true","","","","","","","","","","2673","","212","","0","1","arrowleft","0","arrowleft","[0.675,0.325,0.85,0.15]","","",""
"sailing-trial","350","3444086","0.0-11.0-299.0","","","","false","","","","","","","","","","null","","691","","1","0","null","null","arrowup","[0.675,0.325,0.85,0.15]","","",""
"sailing-trial","351","3447925","0.0-11.0-300.0","","","","false","","","","","","","","","","220","","356","","2","1","arrowright","1","arrowleft","[0.675,0.325,0.85,0.15]","","",""
"sailing-trial","352","3451538","0.0-11.0-301.0","","","","false","","","","","","","","","","null","","1875","","1","0","null","null","arrowup","[0.675,0.325,0.85,0.15]","","",""
"sailing-trial","353","3460675","0.0-11.0-302.0","","","","false","","","","","","","","","","6342","","110","","2","1","arrowright","1","arrowleft","[0.675,0.325,0.85,0.15]","","",""
"sailing-trial","354","3466091","0.0-11.0-303.0","","","","false","","","","","","","","","","null","","3723","","3","0","null","null","arrowup","[0.675,0.325,0.85,0.15]","","",""
"sailing-trial","355","3472013","0.0-11.0-304.0","","","","false","","","","","","","","","","569","","1276","","0","0","arrowleft","0","arrowleft","[0.675,0.325,0.85,0.15]","","",""
"sailing-trial","356","3476537","0.0-11.0-305.0","","","","false","","","","","","","","","","null","","3458","","1","0","null","null","arrowup","[0.675,0.325,0.85,0.15]","","",""
"sailing-trial","357","3482223","0.0-11.0-306.0","","","","false","","","","","","","","","","3436","","116","","3","0","arrowright","1","arrowright","[0.675,0.325,0.85,0.15]","","",""
"sailing-trial","358","3485332","0.0-11.0-307.0","","","","false","","","","","","","","","","null","","764","","0","1","null","null","arrowup","[0.675,0.325,0.85,0.15]","","",""
"sailing-trial","359","3488982","0.0-11.0-308.0","","","","false","","","","","","","","","","767","","147","","1","1","arrowleft","0","arrowright","[0.675,0.325,0.85,0.15]","","",""
"sailing-trial","360","3491866","0.0-11.0-309.0","","","","false","","","","","","","","","","null","","1142","","0","1","null","null","arrowup","[0.675,0.325,0.85,0.15]","","",""
"sailing-trial","361","3494889","0.0-11.0-310.0","","","","false","","","","","","","","","","251","","71","","2","1","arrowright","1","arrowleft","[0.675,0.325,0.85,0.15]","","",""
"sailing-trial","362","3497278","0.0-11.0-311.0","","","","false","","","","","","","","","","null","","670","","1","0","null","null","arrowup","[0.675,0.325,0.85,0.15]","","",""
"sailing-trial","363","3501037","0.0-11.0-312.0","","","","false","","","","","","","","","","403","","186","","2","1","arrowright","1","arrowleft","[0.85,0.15,0.675,0.325]","","",""
"sailing-trial","364","3505393","0.0-11.0-313.0","","","","false","","","","","","","","","","null","","2090","","3","1","null","null","arrowup","[0.85,0.15,0.675,0.325]","","",""
"sailing-trial","365","3507827","0.0-11.0-314.0","","","","false","","","","","","","","","","221","","44","","1","0","arrowleft","0","arrowright","[0.85,0.15,0.675,0.325]","","",""
"sailing-trial","366","3510263","0.0-11.0-315.0","","","","false","","","","","","","","","","null","","894","","3","0","null","null","arrowup","[0.85,0.15,0.675,0.325]","","",""
"sailing-trial","367","3513036","0.0-11.0-316.0","","","","false","","","","","","","","","","382","","53","","1","0","arrowleft","0","arrowright","[0.85,0.15,0.675,0.325]","","",""
"sailing-trial","368","3514759","0.0-11.0-317.0","","","","false","","","","","","","","","","null","","265","","1","0","null","null","arrowup","[0.85,0.15,0.675,0.325]","","",""
"sailing-trial","369","3518310","0.0-11.0-318.0","","","","false","","","","","","","","","","42","","40","","0","1","arrowleft","0","arrowleft","[0.85,0.15,0.675,0.325]","","",""
"sailing-trial","370","3521966","0.0-11.0-319.0","","","","false","","","","","","","","","","null","","613","","2","1","null","null","arrowup","[0.85,0.15,0.675,0.325]","","",""
"sailing-trial","371","3528702","0.0-11.0-320.0","","","","false","","","","","","","","","","2427","","194","","1","0","arrowleft","0","arrowright","[0.85,0.15,0.675,0.325]","","",""
"sailing-trial","372","3537901","0.0-11.0-321.0","","","","false","","","","","","","","","","null","","6778","","2","1","null","null","arrowup","[0.85,0.15,0.675,0.325]","","",""
"sailing-trial","373","3540864","0.0-11.0-322.0","","","","false","","","","","","","","","","136","","85","","0","1","arrowleft","0","arrowleft","[0.85,0.15,0.675,0.325]","","",""
"sailing-trial","374","3543304","0.0-11.0-323.0","","","","false","","","","","","","","","","null","","17","","2","1","null","null","arrowup","[0.85,0.15,0.675,0.325]","","",""
"sailing-trial","375","3546690","0.0-11.0-324.0","","","","false","","","","","","","","","","686","","525","","3","0","arrowright","1","arrowright","[0.85,0.15,0.675,0.325]","","",""
"sailing-trial","376","3548766","0.0-11.0-325.0","","","","false","","","","","","","","","","null","","240","","2","1","null","null","arrowup","[0.85,0.15,0.675,0.325]","","",""
"sailing-trial","377","3552835","0.0-11.0-326.0","","","","false","","","","","","","","","","317","","134","","3","1","arrowright","1","arrowright","[0.85,0.15,0.675,0.325]","","",""
"sailing-trial","378","3555047","0.0-11.0-327.0","","","","false","","","","","","","","","","null","","267","","3","1","null","null","arrowup","[0.85,0.15,0.675,0.325]","","",""
"sailing-trial","379","3558973","0.0-11.0-328.0","","","","false","","","","","","","","","","999","","332","","3","0","arrowright","1","arrowright","[0.85,0.15,0.675,0.325]","","",""
"sailing-trial","380","3560451","0.0-11.0-329.0","","","","false","","","","","","","","","","null","","207","","3","0","null","null","arrowup","[0.85,0.15,0.675,0.325]","","",""
"sailing-trial","381","3563396","0.0-11.0-330.0","","","","false","","","","","","","","","","40","","276","","1","0","arrowleft","0","arrowright","[0.85,0.15,0.675,0.325]","","",""
"sailing-trial","382","3565132","0.0-11.0-331.0","","","","false","","","","","","","","","","null","","532","","3","0","null","null","arrowup","[0.85,0.15,0.675,0.325]","","",""
"sailing-trial","383","3568152","0.0-11.0-332.0","","","","false","","","","","","","","","","145","","565","","3","0","arrowright","1","arrowright","[0.675,0.325,0.85,0.15]","","",""
"sailing-trial","384","3569427","0.0-11.0-333.0","","","","false","","","","","","","","","","null","","234","","3","0","null","null","arrowup","[0.675,0.325,0.85,0.15]","","",""
"sailing-trial","385","3571976","0.0-11.0-334.0","","","","false","","","","","","","","","","144","","128","","3","0","arrowright","1","arrowright","[0.675,0.325,0.85,0.15]","","",""
"sailing-trial","386","3573854","0.0-11.0-335.0","","","","false","","","","","","","","","","null","","278","","3","1","null","null","arrowup","[0.675,0.325,0.85,0.15]","","",""
"sailing-trial","387","3576305","0.0-11.0-336.0","","","","false","","","","","","","","","","84","","226","","3","0","arrowright","1","arrowright","[0.675,0.325,0.85,0.15]","","",""
"sailing-trial","388","3578521","0.0-11.0-337.0","","","","false","","","","","","","","","","null","","133","","0","1","null","null","arrowup","[0.675,0.325,0.85,0.15]","","",""
"sailing-trial","389","3581408","0.0-11.0-338.0","","","","false","","","","","","","","","","201","","63","","2","1","arrowright","1","arrowleft","[0.675,0.325,0.85,0.15]","","",""
"sailing-trial","390","3585447","0.0-11.0-339.0","","","","false","","","","","","","","","","null","","810","","0","1","null","null","arrowup","[0.675,0.325,0.85,0.15]","","",""
"sailing-trial","391","3590847","0.0-11.0-340.0","","","","false","","","","","","","","","","1133","","876","","2","1","arrowright","1","arrowleft","[0.675,0.325,0.85,0.15]","","",""
"sailing-trial","392","3593487","0.0-11.0-341.0","","","","false","","","","","","","","","","null","","840","","0","1","null","null","arrowup","[0.675,0.325,0.85,0.15]","","",""
"sailing-trial","393","3596131","0.0-11.0-342.0","","","","false","","","","","","","","","","58","","424","","1","0","arrowleft","0","arrowright","[0.675,0.325,0.85,0.15]","","",""
"sailing-trial","394","3598901","0.0-11.0-343.0","","","","false","","","","","","","","","","null","","987","","0","0","null","null","arrowup","[0.675,0.325,0.85,0.15]","","",""
"sailing-trial","395","3602325","0.0-11.0-344.0","","","","false","","","","","","","","","","484","","33","","3","0","arrowright","1","arrowright","[0.675,0.325,0.85,0.15]","","",""
"sailing-trial","396","3605550","0.0-11.0-345.0","","","","false","","","","","","","","","","null","","984","","2","1","null","null","arrowup","[0.675,0.325,0.85,0.15]","","",""
"sailing-trial","397","3608436","0.0-11.0-346.0","","","","false","","","","","","","","","","130","","117","","2","1","arrowright","1","arrowleft","[0.675,0.325,0.85,0.15]","","",""
"sailing-trial","398","3610632","0.0-11.0-347.0","","","","false","","","","","","","","","","null","","856","","3","0","null","null","arrowup","[0.675,0.325,0.85,0.15]","","",""
"sailing-trial","399","3613837","0.0-11.0-348.0","","","","false","","","","","","","","","","805","","181","","2","0","arrowright","1","arrowleft","[0.325,0.675,0.15,0.85]","","",""
"sailing-trial","400","3615905","0.0-11.0-349.0","","","","false","","","","","","","","","","null","","571","","0","0","null","null","arrowup","[0.325,0.675,0.15,0.85]","","",""
"sailing-trial","401","3620599","0.0-11.0-350.0","","","","false","","","","","","","","","","805","","15","","2","0","arrowright","1","arrowleft","[0.325,0.675,0.15,0.85]","","",""
"sailing-trial","402","3624709","0.0-11.0-351.0","","","","false","","","","","","","","","","null","","2204","","1","1","null","null","arrowup","[0.325,0.675,0.15,0.85]","","",""
"sailing-trial","403","3627583","0.0-11.0-352.0","","","","false","","","","","","","","","","642","","136","","2","0","arrowright","1","arrowleft","[0.325,0.675,0.15,0.85]","","",""
"sailing-trial","404","3631075","0.0-11.0-353.0","","","","false","","","","","","","","","","null","","1338","","3","1","null","null","arrowup","[0.325,0.675,0.15,0.85]","","",""
"sailing-trial","405","3633640","0.0-11.0-354.0","","","","false","","","","","","","","","","4","","232","","0","0","arrowleft","0","arrowleft","[0.325,0.675,0.15,0.85]","","",""
"sailing-trial","406","3635055","0.0-11.0-355.0","","","","false","","","","","","","","","","null","","359","","1","0","null","null","arrowup","[0.325,0.675,0.15,0.85]","","",""
"sailing-trial","407","3638610","0.0-11.0-356.0","","","","false","","","","","","","","","","527","","215","","1","1","arrowleft","0","arrowright","[0.325,0.675,0.15,0.85]","","",""
"sailing-trial","408","3641020","0.0-11.0-357.0","","","","false","","","","","","","","","","null","","272","","3","1","null","null","arrowup","[0.325,0.675,0.15,0.85]","","",""
"sailing-trial","409","3644717","0.0-11.0-358.0","","","","false","","","","","","","","","","449","","203","","3","1","arrowright","1","arrowright","[0.325,0.675,0.15,0.85]","","",""
"sailing-trial","410","3646201","0.0-11.0-359.0","","","","false","","","","","","","","","","null","","3","","0","0","null","null","arrowup","[0.325,0.675,0.15,0.85]","","",""
"sailing-trial","411","3649845","0.0-11.0-360.0","","","","false","","","","","","","","","","287","","483","","2","0","arrowright","1","arrowleft","[0.325,0.675,0.15,0.85]","","",""
"sailing-trial","412","3651951","0.0-11.0-361.0","","","","false","","","","","","","","","","null","","713","","1","0","null","null","arrowup","[0.325,0.675,0.15,0.85]","","",""
"sailing-trial","413","3655815","0.0-11.0-362.0","","","","false","","","","","","","","","","602","","358","","2","0","arrowright","1","arrowleft","[0.325,0.675,0.15,0.85]","","",""
"sailing-trial","414","3657410","0.0-11.0-363.0","","","","false","","","","","","","","","","null","","2","","0","1","null","null","arrowup","[0.325,0.675,0.15,0.85]","","",""
"sailing-trial","415","3660932","0.0-11.0-364.0","","","","false","","","","","","","","","","60","","923","","2","0","arrowright","1","arrowleft","[0.325,0.675,0.15,0.85]","","",""
"sailing-trial","416","3663038","0.0-11.0-365.0","","","","false","","","","","","","","","","null","","167","","2","1","null","null","arrowup","[0.325,0.675,0.15,0.85]","","",""
"sailing-trial","417","3665619","0.0-11.0-366.0","","","","false","","","","","","","","","","112","","68","","2","0","arrowright","1","arrowleft","[0.15,0.85,0.325,0.675]","","",""
"sailing-trial","418","3667470","0.0-11.0-367.0","","","","false","","","","","","","","","","null","","375","","2","0","null","null","arrowup","[0.15,0.85,0.325,0.675]","","",""
"sailing-trial","419","3670415","0.0-11.0-368.0","","","","false","","","","","","","","","","301","","268","","2","0","arrowright","1","arrowleft","[0.15,0.85,0.325,0.675]","","",""
"sailing-trial","420","3673317","0.0-11.0-369.0","","","","false","","","","","","","","","","null","","949","","1","1","null","null","arrowup","[0.15,0.85,0.325,0.675]","","",""
"sailing-trial","421","3677396","0.0-11.0-370.0","","","","false","","","","","","","","","","262","","688","","3","1","arrowright","1","arrowright","[0.15,0.85,0.325,0.675]","","",""
"sailing-trial","422","3680506","0.0-11.0-371.0","","","","false","","","","","","","","","","null","","1330","","3","1","null","null","arrowup","[0.15,0.85,0.325,0.675]","","",""
"sailing-trial","423","3685350","0.0-11.0-372.0","","","","false","","","","","","","","","","1617","","518","","1","1","arrowleft","0","arrowright","[0.15,0.85,0.325,0.675]","","",""
"sailing-trial","424","3687376","0.0-11.0-373.0","","","","false","","","","","","","","","","null","","851","","0","0","null","null","arrowup","[0.15,0.85,0.325,0.675]","","",""
"sailing-trial","425","3692589","0.0-11.0-374.0","","","","false","","","","","","","","","","1235","","1296","","1","1","arrowleft","0","arrowright","[0.15,0.85,0.325,0.675]","","",""
"sailing-trial","426","3694628","0.0-11.0-375.0","","","","false","","","","","","","","","","null","","237","","1","1","null","null","arrowup","[0.15,0.85,0.325,0.675]","","",""
"sailing-trial","427","3698308","0.0-11.0-376.0","","","","false","","","","","","","","","","97","","467","","3","1","arrowright","1","arrowright","[0.15,0.85,0.325,0.675]","","",""
"sailing-trial","428","3700201","0.0-11.0-377.0","","","","false","","","","","","","","","","null","","37","","1","1","null","null","arrowup","[0.15,0.85,0.325,0.675]","","",""
"sailing-trial","429","3705733","0.0-11.0-378.0","","","","false","","","","","","","","","","1345","","47","","2","0","arrowright","1","arrowleft","[0.15,0.85,0.325,0.675]","","",""
"sailing-trial","430","3707341","0.0-11.0-379.0","","","","false","","","","","","","","","","null","","517","","2","0","null","null","arrowup","[0.15,0.85,0.325,0.675]","","",""
"sailing-trial","431","3710720","0.0-11.0-380.0","","","","false","","","","","","","","","","476","","404","","2","0","arrowright","1","arrowleft","[0.15,0.85,0.325,0.675]","","",""
"sailing-trial","432","3712154","0.0-11.0-381.0","","","","false","","","","","","","","","","null","","101","","2","0","null","null","arrowup","[0.15,0.85,0.325,0.675]","","",""
"sailing-trial","433","3715053","0.0-11.0-382.0","","","","false","","","","","","","","","","310","","196","","3","0","arrowright","1","arrowright","[0.325,0.675,0.15,0.85]","","",""
"sailing-trial","434","3716953","0.0-11.0-383.0","","","","false","","","","","","","","","","null","","281","","3","1","null","null","arrowup","[0.325,0.675,0.15,0.85]","","",""
"sailing-trial","435","3720123","0.0-11.0-384.0","","","","false","","","","","","","","","","296","","656","","2","0","arrowright","1","arrowleft","[0.325,0.675,0.15,0.85]","","",""
"sailing-trial","436","3722183","0.0-11.0-385.0","","","","false","","","","","","","","","","null","","193","","3","1","null","null","arrowup","[0.325,0.675,0.15,0.85]","","",""
"sailing-trial","437","3725405","0.0-11.0-386.0","","","","false","","","","","","","","","","244","","74","","3","1","arrowright","1","arrowright","[0.325,0.675,0.15,0.85]","","",""
"sailing-trial","438","3727663","0.0-11.0-387.0","","","","false","","","","","","","","","","null","","129","","3","1","null","null","arrowup","[0.325,0.675,0.15,0.85]","","",""
"sailing-trial","439","3730366","0.0-11.0-388.0","","","","false","","","","","","","","","","10","","348","","3","0","arrowright","1","arrowright","[0.325,0.675,0.15,0.85]","","",""
"sailing-trial","440","3731714","0.0-11.0-389.0","","","","false","","","","","","","","","","null","","47","","2","0","null","null","arrowup","[0.325,0.675,0.15,0.85]","","",""
"sailing-trial","441","3737680","0.0-11.0-390.0","","","","false","","","","","","","","","","29","","2739","","3","1","arrowright","1","arrowright","[0.325,0.675,0.15,0.85]","","",""
"sailing-trial","442","3739174","0.0-11.0-391.0","","","","false","","","","","","","","","","null","","2","","3","0","null","null","arrowup","[0.325,0.675,0.15,0.85]","","",""
"sailing-trial","443","3746338","0.0-11.0-392.0","","","","false","","","","","","","","","","1918","","1282","","3","1","arrowright","1","arrowright","[0.325,0.675,0.15,0.85]","","",""
"sailing-trial","444","3748498","0.0-11.0-393.0","","","","false","","","","","","","","","","null","","820","","0","0","null","null","arrowup","[0.325,0.675,0.15,0.85]","","",""
"sailing-trial","445","3751210","0.0-11.0-394.0","","","","false","","","","","","","","","","180","","76","","1","0","arrowleft","0","arrowright","[0.325,0.675,0.15,0.85]","","",""
"sailing-trial","446","3753551","0.0-11.0-395.0","","","","false","","","","","","","","","","null","","788","","3","1","null","null","arrowup","[0.325,0.675,0.15,0.85]","","",""
"sailing-trial","447","3758033","0.0-11.0-396.0","","","","false","","","","","","","","","","305","","524","","3","0","arrowright","1","arrowright","[0.325,0.675,0.15,0.85]","","",""
"sailing-trial","448","3759546","0.0-11.0-397.0","","","","false","","","","","","","","","","null","","390","","1","0","null","null","arrowup","[0.325,0.675,0.15,0.85]","","",""
"sailing-trial","449","3763793","0.0-11.0-398.0","","","","false","","","","","","","","","","439","","209","","1","1","arrowleft","0","arrowright","[0.325,0.675,0.15,0.85]","","",""
"sailing-trial","450","3773033","0.0-11.0-399.0","","","","false","","","","","","","","","","null","","7088","","3","1","null","null","arrowup","[0.325,0.675,0.15,0.85]","","",""
"instructions","451","3773078","0.0-12.0","","","","","","","","","","26","","","","","","","","","","","","","","","","[{""page_index"":0,""viewing_time"":26}]"
"survey-debrief","452","3813305","0.0-13.0","","","","","","","","","","40208","","","","","","","","","","","","","","{""difficulty"":""5"",""fun"":""1"",""clarity"":""5"",""strategy"":""no"",""feedback"":""no""}","",""
