"trial_type","trial_index","time_elapsed","internal_node_id","value","metadata","browser_interaction","low_quality","success","timeout","failed_images","failed_audio","failed_video","rt","stimulus","response","button_pressed","island_rt","island_response","boat_rt","boat_response","boat","reward","island_key","island","boat_key","reward_probabilities","responses","num_errors","view_history"
"pavlovia","0","2","0.0-0.0","","","","","","","","","","","","","","","","","","","","","","","","","",""
"call-function","1","2","0.0-1.0","","{""task_version"":""sailing_part1_v1"",""task_condition"":""good"",""boats"":[""C"",""A"",""D"",""B""],""boats_demo"":[""G"",""E"",""F"",""H""],""islands"":[""B"",""A""],""subject_id"":""13971"",""age"":""19"",""gender"":""Male""}","[{""event"":""focus"",""trial"":2,""time"":854}]","false","","","","","","","","","","","","","","","","","","","","","",""
"preload","2","3171","0.0-2.0","","","[{""event"":""focus"",""trial"":2,""time"":854},{""event"":""fullscreenenter"",""trial"":3,""time"":3508787}]","false","true","false","[]","[]","[]","","","","","","","","","","","","","","","","",""
"fullscreen","3","3509753","0.0-3.0","","","","","true","","","","","","","","","","","","","","","","","","","","",""
"audio-keyboard-response","4","3512618","0.0-4.0-0.0","","","","","","","","","","2850.6666666666665","audio/beep_loop.wav"," ","","","","","","","","","","","","","",""
"audio-test","5","3515803","0.0-4.0-1.0","","","","","","","","","","null","audio/turtle.mp3","","3","","","","","","","","","","","","",""
"audio-test","6","3518451","0.0-4.0-2.0","","","","","","","","","","null","audio/shark.mp3","","2","","","","","","","","","","","","",""
"sailing-instructions","7","3556333","0.0-5.0-0.0-0.0","","","","","","","","","","","","","","null","null","null","null","null","null","","","","","","",""
"sailing-trial","8","3564090","0.0-5.0-0.0-1.0-0.0","","","","","","false","","","","","","","","6643.0999999940395","","null","","null","null","arrowleft","0","null","null","","",""
"sailing-trial","9","3566938","0.0-5.0-0.0-1.0-1.0","","","","","","false","","","","","","","","1631.7000000178814","","null","","null","null","arrowright","1","null","null","","",""
"sailing-trial","10","3570747","0.0-5.0-0.0-1.0-2.0","","","","","","false","","","","","","","","2674","","null","","null","null","arrowleft","0","null","null","","",""
"sailing-instructions","11","3615322","0.0-5.0-0.0-2.0","","","","","","","","","","","","","","null","null","null","null","0","null","","","","","","",""
"sailing-trial","12","3622874","0.0-5.0-0.0-3.0-0.0","","","","","","false","","","","","","","","null","","3797.0999999940395","","2","1","null","null","arrowleft","[1,1,1,1]","","",""
"sailing-trial","13","3626890","0.0-5.0-0.0-3.0-1.0","","","","","","false","","","","","","","","null","","1138.7999999821186","","3","1","null","null","arrowright","[1,1,1,1]","","",""
"sailing-trial","14","3631720","0.0-5.0-0.0-3.0-2.0","","","","","","false","","","","","","","","null","","1466.5","","2","0","null","null","arrowleft","[0,0,0,0]","","",""
"sailing-instructions","15","3639329","0.0-5.0-0.0-4.0","","","","","","","","","","","","","","null","null","null","null","null","null","","","","","","",""
"sailing-comprehension","16","3661174","0.0-5.0-0.0-5.0","","","","","","","","","","18325.19999998808","","","","","","","","","","","","","","[""true"",""true"",""false"",""true""]","0",""
"sailing-instructions","17","3726318","0.0-6.0-0.0-0.0","","","","","","","","","","","","","","null","null","null","null","null","null","","","","","","",""
"sailing-comprehension","18","3752210","0.0-6.0-0.0-1.0","","","","","","","","","","22874.09999999404","","","","","","","","","","","","","","[""true"",""true"",""true""]","1",""
"sailing-instructions","19","3820794","0.0-6.0-0.1-0.1","","","","","","","","","","","","","","null","null","null","null","null","null","","","","","","",""
"sailing-comprehension","20","3832564","0.0-6.0-0.1-1.1","","","","","","","","","","5841.300000011921","","","","","","","","","","","","","","[""true"",""false"",""false""]","1",""
"sailing-instructions","21","3847678","0.0-7.0-0.0-0.0","","","","","","","","","","","","","","null","null","null","null","null","null","","","","","","",""
"sailing-trial","22","3854953","0.0-7.0-0.0-1.0-0.0","","","","","","false","","","","","","","","null","","4824.9000000059605","","0","0","null","null","arrowup","[0.2,0.8,0.2,0.8]","","",""
"sailing-trial","23","3858458","0.0-7.0-0.0-1.0-1.0","","","","","","false","","","","","","","","null","","1656.300000011921","","1","0","null","null","arrowup","[0.2,0.8,0.2,0.8]","","",""
"sailing-trial","24","3861433","0.0-7.0-0.0-1.0-2.0","","","","","","false","","","","","","","","null","","1243.9000000059605","","2","0","null","null","arrowup","[0.2,0.8,0.2,0.8]","","",""
"sailing-trial","25","3863897","0.0-7.0-0.0-1.0-3.0","","","","","","false","","","","","","","","null","","803.2000000178814","","3","0","null","null","arrowup","[0.2,0.8,0.2,0.8]","","",""
"sailing-comprehension","26","3875024","0.0-7.0-0.0-2.0","","","","","","","","","","6805.5999999940395","","","","","","","","","","","","","","[""true""]","1",""
"sailing-instructions","27","3889392","0.0-7.0-0.1-0.1","","","","","","","","","","","","","","null","null","null","null","null","null","","","","","","",""
"sailing-trial","28","3892858","0.0-7.0-0.1-1.1-0.1","","","","","","false","","","","","","","","null","","774.5999999940395","","0","1","null","null","arrowup","[0.2,0.8,0.2,0.8]","","",""
"sailing-trial","29","3895608","0.0-7.0-0.1-1.1-1.1","","","","","","false","","","","","","","","null","","623.3999999761581","","1","1","null","null","arrowup","[0.2,0.8,0.2,0.8]","","",""
"sailing-trial","30","3898105","0.0-7.0-0.1-1.1-2.1","","","","","","false","","","","","","","","null","","855.2000000178814","","2","0","null","null","arrowup","[0.2,0.8,0.2,0.8]","","",""
"sailing-trial","31","3900825","0.0-7.0-0.1-1.1-3.1","","","","","","false","","","","","","","","null","","590.9000000059605","","3","1","null","null","arrowup","[0.2,0.8,0.2,0.8]","","",""
"sailing-comprehension","32","3906197","0.0-7.0-0.1-2.1","","","","","","","","","","4073.0999999940395","","","","","","","","","","","","","","[""false""]","0",""
"sailing-instructions","33","3917570","0.0-8.0-0.0-0.0","","","","","","","","","","","","","","null","null","null","null","null","null","","","","","","",""
"sailing-comprehension","34","3924576","0.0-8.0-0.0-1.0","","","","","","","","","","3971.0999999940395","","","","","","","","","","","","","","[""false""]","1",""
"sailing-instructions","35","3936629","0.0-8.0-0.1-0.1","","","","","","","","","","","","","","null","null","null","null","null","null","","","","","","",""
"sailing-comprehension","36","3939334","0.0-8.0-0.1-1.1","","","","","","","","","","1485.3999999761581","","","","","","","","","","","","","","[""true""]","0",""
"sailing-instructions","37","3963114","0.0-9.0-0.0-0.0","","","","","","","","","","","","","","null","null","null","null","null","null","","","","","","",""
"sailing-trial","38","3971001","0.0-9.0-0.0-1.0-0.0","","","","","","false","","","","","","","","2311.9000000059605","","1125.9000000059605","","1","1","arrowleft","0","arrowright","[0.2,0.8,0.2,0.8]","","",""
"sailing-trial","39","3976714","0.0-9.0-0.0-1.0-1.0","","","","","","false","","","","","","","","1217.5","","1245.4000000059605","","2","0","arrowright","1","arrowleft","[0.2,0.8,0.2,0.8]","","",""
"sailing-trial","40","3980889","0.0-9.0-0.0-1.0-2.0","","","","","","false","","","","","","","","null","","1791.5","","0","1","null","null","arrowup","[0.2,0.8,0.2,0.8]","","",""
"sailing-trial","41","3985689","0.0-9.0-0.0-1.0-3.0","","","","","","false","","","","","","","","1578.699999988079","","1.600000023841858","","3","1","arrowright","1","arrowright","[0.2,0.8,0.2,0.8]","","",""
"sailing-trial","42","3989289","0.0-9.0-0.0-1.0-4.0","","","","","","false","","","","","","","","null","","1467.199999988079","","3","1","null","null","arrowup","[0.2,0.8,0.2,0.8]","","",""
"sailing-trial","43","3993401","0.0-9.0-0.0-1.0-5.0","","","","","","false","","","","","","","","898.0999999940395","","145.09999999403954","","1","1","arrowleft","0","arrowright","[0.2,0.8,0.2,0.8]","","",""
"sailing-instructions","44","4022958","0.0-10.0","","","","","","","","","","","","","","null","null","null","null","null","null","","","","","","",""
"sailing-trial","45","4030027","0.0-11.0-0.0","","","","","","false","","","","","","","","2403","","811","","0","1","arrowleft","0","arrowleft","[0.325,0.675,0.85,0.15]","","",""
"sailing-trial","46","4033498","0.0-11.0-1.0","","","","","","false","","","","","","","","null","","1324.4000000059605","","1","1","null","null","arrowup","[0.325,0.675,0.85,0.15]","","",""
"sailing-trial","47","4038586","0.0-11.0-2.0","","","","","","false","","","","","","","","801","","1002.4000000059605","","3","0","arrowright","1","arrowright","[0.325,0.675,0.85,0.15]","","",""
"sailing-trial","48","4041722","0.0-11.0-3.0","","","","","","false","","","","","","","","null","","1129.5999999940395","","2","1","null","null","arrowup","[0.325,0.675,0.85,0.15]","","",""
"sailing-trial","49","4046810","0.0-11.0-4.0","","","","","","false","","","","","","","","859.5999999940395","","1287.800000011921","","0","0","arrowleft","0","arrowleft","[0.325,0.675,0.85,0.15]","","",""
"sailing-trial","50","4050025","0.0-11.0-5.0","","","","","","false","","","","","","","","null","","1296.7000000178814","","2","0","null","null","arrowup","[0.325,0.675,0.85,0.15]","","",""
"sailing-trial","51","4054666","0.0-11.0-6.0","","","","","","false","","","","","","","","1039.9000000059605","","582.7000000178814","","2","1","arrowright","1","arrowleft","[0.325,0.675,0.85,0.15]","","",""
"sailing-trial","52","4057401","0.0-11.0-7.0","","","","","","false","","","","","","","","null","","1172.800000011921","","3","0","null","null","arrowup","[0.325,0.675,0.85,0.15]","","",""
"sailing-trial","53","4062874","0.0-11.0-8.0","","","","","","false","","","","","","","","1578.199999988079","","687.5","","1","1","arrowleft","0","arrowright","[0.325,0.675,0.85,0.15]","","",""
"sailing-trial","54","4065130","0.0-11.0-9.0","","","","","","false","","","","","","","","null","","800.9000000059605","","3","0","null","null","arrowup","[0.325,0.675,0.85,0.15]","","",""
"sailing-trial","55","4068825","0.0-11.0-10.0","","","","","","false","","","","","","","","707.5","","483.5","","3","0","arrowright","1","arrowright","[0.325,0.675,0.85,0.15]","","",""
"sailing-trial","56","4071338","0.0-11.0-11.0","","","","","","false","","","","","","","","null","","844.5","","1","0","null","null","arrowup","[0.325,0.675,0.85,0.15]","","",""
"sailing-trial","57","4075706","0.0-11.0-12.0","","","","","","false","","","","","","","","868.8000000119209","","601.4000000059605","","0","1","arrowleft","0","arrowleft","[0.325,0.675,0.85,0.15]","","",""
"sailing-trial","58","4079099","0.0-11.0-13.0","","","","","","false","","","","","","","","null","","1458","","1","1","null","null","arrowup","[0.325,0.675,0.85,0.15]","","",""
"sailing-trial","59","4083674","0.0-11.0-14.0","","","","","","false","","","","","","","","811.5999999940395","","778.0999999940395","","1","1","arrowleft","0","arrowright","[0.325,0.675,0.85,0.15]","","",""
"sailing-trial","60","4086314","0.0-11.0-15.0","","","","","","false","","","","","","","","null","","1137.699999988079","","1","0","null","null","arrowup","[0.325,0.675,0.85,0.15]","","",""
"sailing-trial","61","4090378","0.0-11.0-16.0","","","","","","false","","","","","","","","857.4000000059605","","729.8999999761581","","3","0","arrowright","1","arrowright","[0.325,0.675,0.85,0.15]","","",""
"sailing-trial","62","4092618","0.0-11.0-17.0","","","","","","false","","","","","","","","null","","731.3000000119209","","3","0","null","null","arrowup","[0.325,0.675,0.85,0.15]","","",""
"sailing-trial","63","4096586","0.0-11.0-18.0","","","","","","false","","","","","","","","840.2999999821186","","107.7999999821186","","2","1","arrowright","1","arrowleft","[0.325,0.675,0.85,0.15]","","",""
"sailing-trial","64","4099372","0.0-11.0-19.0","","","","","","false","","","","","","","","null","","808.7999999821186","","2","1","null","null","arrowup","[0.325,0.675,0.85,0.15]","","",""
"sailing-trial","65","4104202","0.0-11.0-20.0","","","","","","false","","","","","","","","1175.2999999821186","","626.4000000059605","","0","0","arrowleft","0","arrowleft","[0.15,0.85,0.675,0.325]","","",""
"sailing-trial","66","4107067","0.0-11.0-21.0","","","","","","false","","","","","","","","null","","929.0999999940395","","2","1","null","null","arrowup","[0.15,0.85,0.675,0.325]","","",""
"sailing-trial","67","4111658","0.0-11.0-22.0","","","","","","false","","","","","","","","1141.300000011921","","489.80000001192093","","1","1","arrowleft","0","arrowright","[0.15,0.85,0.675,0.325]","","",""
"sailing-trial","68","4114138","0.0-11.0-23.0","","","","","","false","","","","","","","","null","","957.5999999940395","","2","0","null","null","arrowup","[0.15,0.85,0.675,0.325]","","",""
"sailing-trial","69","4119338","0.0-11.0-24.0","","","","","","false","","","","","","","","774.0999999940395","","1522.699999988079","","3","1","arrowright","1","arrowright","[0.15,0.85,0.675,0.325]","","",""
"sailing-trial","70","4122202","0.0-11.0-25.0","","","","","","false","","","","","","","","null","","944.0999999940395","","2","1","null","null","arrowup","[0.15,0.85,0.675,0.325]","","",""
"sailing-trial","71","4126634","0.0-11.0-26.0","","","","","","false","","","","","","","","804.5","","927","","0","0","arrowleft","0","arrowleft","[0.15,0.85,0.675,0.325]","","",""
"sailing-trial","72","4129642","0.0-11.0-27.0","","","","","","false","","","","","","","","null","","986.7000000178814","","0","0","null","null","arrowup","[0.15,0.85,0.675,0.325]","","",""
"sailing-trial","73","4133338","0.0-11.0-28.0","","","","","","false","","","","","","","","775.1999999880791","","270.40000000596046","","3","0","arrowright","1","arrowright","[0.15,0.85,0.675,0.325]","","",""
"sailing-trial","74","4137338","0.0-11.0-29.0","","","","","","false","","","","","","","","null","","2107.0999999940395","","2","1","null","null","arrowup","[0.15,0.85,0.675,0.325]","","",""
"sailing-trial","75","4141786","0.0-11.0-30.0","","","","","","false","","","","","","","","728","","730.4000000059605","","0","1","arrowleft","0","arrowleft","[0.15,0.85,0.675,0.325]","","",""
"sailing-trial","76","4144058","0.0-11.0-31.0","","","","","","false","","","","","","","","null","","674.7000000178814","","2","0","null","null","arrowup","[0.15,0.85,0.675,0.325]","","",""
"sailing-trial","77","4148170","0.0-11.0-32.0","","","","","","false","","","","","","","","723.7000000178814","","496.90000000596046","","1","1","arrowleft","0","arrowright","[0.15,0.85,0.675,0.325]","","",""
"sailing-trial","78","4151881","0.0-11.0-33.0","","","","","","false","","","","","","","","null","","1805.199999988079","","1","1","null","null","arrowup","[0.15,0.85,0.675,0.325]","","",""
"sailing-trial","79","4155515","0.0-11.0-34.0","","","","","","false","","","","","","","","741.8000000119209","","424","","3","0","arrowright","1","arrowright","[0.15,0.85,0.675,0.325]","","",""
"sailing-trial","80","4157946","0.0-11.0-35.0","","","","","","false","","","","","","","","null","","986.1000000238419","","2","0","null","null","arrowup","[0.15,0.85,0.675,0.325]","","",""
"sailing-trial","81","4162202","0.0-11.0-36.0","","","","","","false","","","","","","","","861.0999999940395","","522.9000000059605","","2","1","arrowright","1","arrowleft","[0.325,0.675,0.85,0.15]","","",""
"sailing-trial","82","4164778","0.0-11.0-37.0","","","","","","false","","","","","","","","null","","1049.800000011921","","2","0","null","null","arrowup","[0.325,0.675,0.85,0.15]","","",""
"sailing-trial","83","4168650","0.0-11.0-38.0","","","","","","false","","","","","","","","887.2000000178814","","110.59999999403954","","1","1","arrowleft","0","arrowright","[0.325,0.675,0.85,0.15]","","",""
"sailing-trial","84","4171097","0.0-11.0-39.0","","","","","","false","","","","","","","","null","","1008.0999999940395","","3","0","null","null","arrowup","[0.325,0.675,0.85,0.15]","","",""
"sailing-trial","85","4175050","0.0-11.0-40.0","","","","","","false","","","","","","","","703.3000000119209","","358.7999999821186","","0","1","arrowleft","0","arrowleft","[0.325,0.675,0.85,0.15]","","",""
"sailing-trial","86","4178186","0.0-11.0-41.0","","","","","","false","","","","","","","","null","","1225","","1","1","null","null","arrowup","[0.325,0.675,0.85,0.15]","","",""
"sailing-trial","87","4182057","0.0-11.0-42.0","","","","","","false","","","","","","","","657.1000000238419","","321.90000000596046","","2","1","arrowright","1","arrowleft","[0.325,0.675,0.85,0.15]","","",""
"sailing-trial","88","4184425","0.0-11.0-43.0","","","","","","false","","","","","","","","null","","793.5","","3","0","null","null","arrowup","[0.325,0.675,0.85,0.15]","","",""
"sailing-trial","89","4188361","0.0-11.0-44.0","","","","","","false","","","","","","","","725.2999999821186","","509.7000000178814","","3","0","arrowright","1","arrowright","[0.325,0.675,0.85,0.15]","","",""
"sailing-trial","90","4191482","0.0-11.0-45.0","","","","","","false","","","","","","","","null","","1359.4000000059605","","0","0","null","null","arrowup","[0.325,0.675,0.85,0.15]","","",""
"sailing-trial","91","4195721","0.0-11.0-46.0","","","","","","false","","","","","","","","924.2000000178814","","457.5","","0","0","arrowleft","0","arrowleft","[0.325,0.675,0.85,0.15]","","",""
"sailing-trial","92","4197914","0.0-11.0-47.0","","","","","","false","","","","","","","","null","","737.7000000178814","","3","0","null","null","arrowup","[0.325,0.675,0.85,0.15]","","",""
"sailing-trial","93","4202090","0.0-11.0-48.0","","","","","","false","","","","","","","","618.1999999880791","","1098.9000000059605","","1","0","arrowleft","0","arrowright","[0.325,0.675,0.85,0.15]","","",""
"sailing-trial","94","4204697","0.0-11.0-49.0","","","","","","false","","","","","","","","null","","1226.6000000238419","","1","0","null","null","arrowup","[0.325,0.675,0.85,0.15]","","",""
"sailing-trial","95","4208185","0.0-11.0-50.0","","","","","","false","","","","","","","","768.5","","25","","3","0","arrowright","1","arrowright","[0.325,0.675,0.85,0.15]","","",""
"sailing-trial","96","4211708","0.0-11.0-51.0","","","","","","false","","","","","","","","null","","2072.5999999940395","","0","0","null","null","arrowup","[0.325,0.675,0.85,0.15]","","",""
"sailing-trial","97","4215770","0.0-11.0-52.0","","","","","","false","","","","","","","","626","","519.5999999940395","","2","1","arrowright","1","arrowleft","[0.325,0.675,0.85,0.15]","","",""
"sailing-trial","98","4218698","0.0-11.0-53.0","","","","","","false","","","","","","","","null","","1458","","0","0","null","null","arrowup","[0.325,0.675,0.85,0.15]","","",""
"sailing-trial","99","4222139","0.0-11.0-54.0","","","","","","false","","","","","","","","766.6999999880791","","172.7999999821186","","0","0","arrowleft","0","arrowleft","[0.325,0.675,0.85,0.15]","","",""
"sailing-trial","100","4224442","0.0-11.0-55.0","","","","","","false","","","","","","","","null","","950.7999999821186","","3","0","null","null","arrowup","[0.325,0.675,0.85,0.15]","","",""
"sailing-trial","101","4227961","0.0-11.0-56.0","","","","","","false","","","","","","","","782.2000000178814","","265.60000002384186","","1","0","arrowleft","0","arrowright","[0.325,0.675,0.85,0.15]","","",""
"sailing-trial","102","4230266","0.0-11.0-57.0","","","","","","false","","","","","","","","null","","942","","3","0","null","null","arrowup","[0.325,0.675,0.85,0.15]","","",""
"sailing-trial","103","4234330","0.0-11.0-58.0","","","","","","false","","","","","","","","644.7000000178814","","511.09999999403954","","3","1","arrowright","1","arrowright","[0.675,0.325,0.15,0.85]","","",""
"sailing-trial","104","4237338","0.0-11.0-59.0","","","","","","false","","","","","","","","null","","1110.199999988079","","0","1","null","null","arrowup","[0.675,0.325,0.15,0.85]","","",""
"sailing-trial","105","4242026","0.0-11.0-60.0","","","","","","false","","","","","","","","720.8000000119209","","1058.7999999821186","","3","1","arrowright","1","arrowright","[0.675,0.325,0.15,0.85]","","",""
"sailing-trial","106","4244873","0.0-11.0-61.0","","","","","","false","","","","","","","","null","","1259.300000011921","","2","0","null","null","arrowup","[0.675,0.325,0.15,0.85]","","",""
"sailing-trial","107","4248714","0.0-11.0-62.0","","","","","","false","","","","","","","","693.5","","521.3000000119209","","2","0","arrowright","1","arrowleft","[0.675,0.325,0.15,0.85]","","",""
"sailing-trial","108","4251307","0.0-11.0-63.0","","","","","","false","","","","","","","","null","","1224.9000000059605","","3","0","null","null","arrowup","[0.675,0.325,0.15,0.85]","","",""
"sailing-trial","109","4254411","0.0-11.0-64.0","","","","","","false","","","","","","","","527.8000000119209","","54.80000001192093","","3","0","arrowright","1","arrowright","[0.675,0.325,0.15,0.85]","","",""
"sailing-trial","110","4256953","0.0-11.0-65.0","","","","","","false","","","","","","","","null","","1075.699999988079","","2","0","null","null","arrowup","[0.675,0.325,0.15,0.85]","","",""
"sailing-trial","111","4260811","0.0-11.0-66.0","","","","","","false","","","","","","","","563.6999999880791","","428.59999999403954","","0","1","arrowleft","0","arrowleft","[0.675,0.325,0.15,0.85]","","",""
"sailing-trial","112","4263354","0.0-11.0-67.0","","","","","","false","","","","","","","","null","","1145.800000011921","","1","0","null","null","arrowup","[0.675,0.325,0.15,0.85]","","",""
"sailing-trial","113","4267962","0.0-11.0-68.0","","","","","","false","","","","","","","","654.3000000119209","","1502.300000011921","","1","0","arrowleft","0","arrowright","[0.675,0.325,0.15,0.85]","","",""
"sailing-trial","114","4270185","0.0-11.0-69.0","","","","","","false","","","","","","","","null","","852.0999999940395","","1","0","null","null","arrowup","[0.675,0.325,0.15,0.85]","","",""
"sailing-trial","115","4273706","0.0-11.0-70.0","","","","","","false","","","","","","","","1049.5999999940395","","69.40000000596046","","2","0","arrowright","1","arrowleft","[0.675,0.325,0.15,0.85]","","",""
"sailing-trial","116","4275768","0.0-11.0-71.0","","","","","","false","","","","","","","","null","","539.9000000059605","","1","0","null","null","arrowup","[0.675,0.325,0.15,0.85]","","",""
"sailing-trial","117","4279193","0.0-11.0-72.0","","","","","","false","","","","","","","","764.1999999880791","","269.39999997615814","","3","0","arrowright","1","arrowright","[0.675,0.325,0.15,0.85]","","",""
"sailing-trial","118","4282025","0.0-11.0-73.0","","","","","","false","","","","","","","","null","","658.4000000059605","","0","1","null","null","arrowup","[0.675,0.325,0.15,0.85]","","",""
"sailing-trial","119","4285673","0.0-11.0-74.0","","","","","","false","","","","","","","","658.7999999821186","","341.69999998807907","","0","1","arrowleft","0","arrowleft","[0.675,0.325,0.15,0.85]","","",""
"sailing-trial","120","4287706","0.0-11.0-75.0","","","","","","false","","","","","","","","null","","436.90000000596046","","2","0","null","null","arrowup","[0.675,0.325,0.15,0.85]","","",""
"sailing-trial","121","4292857","0.0-11.0-76.0","","","","","","false","","","","","","","","889.1999999880791","","210.59999999403954","","3","0","arrowright","1","arrowright","[0.15,0.85,0.675,0.325]","","",""
"sailing-trial","122","4295769","0.0-11.0-77.0","","","","","","false","","","","","","","","null","","1066.5999999940395","","0","0","null","null","arrowup","[0.15,0.85,0.675,0.325]","","",""
"sailing-trial","123","4299257","0.0-11.0-78.0","","","","","","false","","","","","","","","631.3000000119209","","74.09999999403954","","0","0","arrowleft","0","arrowleft","[0.15,0.85,0.675,0.325]","","",""
"sailing-trial","124","4301993","0.0-11.0-79.0","","","","","","false","","","","","","","","null","","702.5","","1","1","null","null","arrowup","[0.15,0.85,0.675,0.325]","","",""
"sailing-trial","125","4307065","0.0-11.0-80.0","","","","","","false","","","","","","","","622","","1173.800000011921","","3","0","arrowright","1","arrowright","[0.15,0.85,0.675,0.325]","","",""
"sailing-trial","126","4309897","0.0-11.0-81.0","","","","","","false","","","","","","","","null","","883","","2","1","null","null","arrowup","[0.15,0.85,0.675,0.325]","","",""
"sailing-trial","127","4314249","0.0-11.0-82.0","","","","","","false","","","","","","","","689","","1023.9000000059605","","0","0","arrowleft","0","arrowleft","[0.15,0.85,0.675,0.325]","","",""
"sailing-trial","128","4316969","0.0-11.0-83.0","","","","","","false","","","","","","","","null","","929.5","","3","0","null","null","arrowup","[0.15,0.85,0.675,0.325]","","",""
"sailing-trial","129","4321033","0.0-11.0-84.0","","","","","","false","","","","","","","","943.9000000059605","","141.69999998807907","","3","1","arrowright","1","arrowright","[0.15,0.85,0.675,0.325]","","",""
"sailing-trial","130","4324570","0.0-11.0-85.0","","","","","","false","","","","","","","","null","","1577.9000000059605","","2","1","null","null","arrowup","[0.15,0.85,0.675,0.325]","","",""
"sailing-trial","131","4328777","0.0-11.0-86.0","","","","","","false","","","","","","","","954.8000000119209","","367.60000002384186","","1","1","arrowleft","0","arrowright","[0.15,0.85,0.675,0.325]","","",""
"sailing-trial","132","4331160","0.0-11.0-87.0","","","","","","false","","","","","","","","null","","714","","0","0","null","null","arrowup","[0.15,0.85,0.675,0.325]","","",""
"sailing-trial","133","4335497","0.0-11.0-88.0","","","","","","false","","","","","","","","1222.5","","383.59999999403954","","3","0","arrowright","1","arrowright","[0.15,0.85,0.675,0.325]","","",""
"sailing-trial","134","4339705","0.0-11.0-89.0","","","","","","false","","","","","","","","null","","2426.4000000059605","","0","0","null","null","arrowup","[0.15,0.85,0.675,0.325]","","",""
"sailing-trial","135","4344393","0.0-11.0-90.0","","","","","","false","","","","","","","","1362.800000011921","","167.19999998807907","","2","1","arrowright","1","arrowleft","[0.15,0.85,0.675,0.325]","","",""
"sailing-trial","136","4347225","0.0-11.0-91.0","","","","","","false","","","","","","","","null","","780.6999999880791","","1","1","null","null","arrowup","[0.15,0.85,0.675,0.325]","","",""
"sailing-trial","137","4351881","0.0-11.0-92.0","","","","","","false","","","","","","","","605.7999999821186","","1437.5999999940395","","0","0","arrowleft","0","arrowleft","[0.325,0.675,0.85,0.15]","","",""
"sailing-trial","138","4356969","0.0-11.0-93.0","","","","","","false","","","","","","","","null","","3166","","2","1","null","null","arrowup","[0.325,0.675,0.85,0.15]","","",""
"sailing-trial","139","4362041","0.0-11.0-94.0","","","","","","false","","","","","","","","674.4000000059605","","797.2000000178814","","0","1","arrowleft","0","arrowleft","[0.325,0.675,0.85,0.15]","","",""
"sailing-trial","140","4364873","0.0-11.0-95.0","","","","","","false","","","","","","","","null","","895.6000000238419","","2","1","null","null","arrowup","[0.325,0.675,0.85,0.15]","","",""
"sailing-trial","141","4368747","0.0-11.0-96.0","","","","","","false","","","","","","","","554.5999999940395","","390.09999999403954","","1","1","arrowleft","0","arrowright","[0.325,0.675,0.85,0.15]","","",""
"sailing-trial","142","4371705","0.0-11.0-97.0","","","","","","false","","","","","","","","null","","1048.7000000178814","","0","1","null","null","arrowup","[0.325,0.675,0.85,0.15]","","",""
"sailing-trial","143","4376569","0.0-11.0-98.0","","","","","","false","","","","","","","","938.7999999821186","","734.4000000059605","","2","1","arrowright","1","arrowleft","[0.325,0.675,0.85,0.15]","","",""
"sailing-trial","144","4379177","0.0-11.0-99.0","","","","","","false","","","","","","","","null","","1087.4000000059605","","0","0","null","null","arrowup","[0.325,0.675,0.85,0.15]","","",""
"sailing-trial","145","4383161","0.0-11.0-100.0","","","","","","false","","","","","","","","1057.199999988079","","368.19999998807907","","3","0","arrowright","1","arrowright","[0.325,0.675,0.85,0.15]","","",""
"sailing-trial","146","4386138","0.0-11.0-101.0","","","","","","false","","","","","","","","null","","735.8000000119209","","1","1","null","null","arrowup","[0.325,0.675,0.85,0.15]","","",""
"sailing-trial","147","4390234","0.0-11.0-102.0","","","","","","false","","","","","","","","663.4000000059605","","814.7000000178814","","0","0","arrowleft","0","arrowleft","[0.325,0.675,0.85,0.15]","","",""
"sailing-trial","148","4392905","0.0-11.0-103.0","","","","","","false","","","","","","","","null","","687.5999999940395","","0","1","null","null","arrowup","[0.325,0.675,0.85,0.15]","","",""
"sailing-trial","149","4397721","0.0-11.0-104.0","","","","","","false","","","","","","","","1273.7999999821186","","251.40000000596046","","1","1","arrowleft","0","arrowright","[0.325,0.675,0.85,0.15]","","",""
"sailing-trial","150","4400905","0.0-11.0-105.0","","","","","","false","","","","","","","","null","","1229.199999988079","","2","1","null","null","arrowup","[0.325,0.675,0.85,0.15]","","",""
"sailing-trial","151","4404714","0.0-11.0-106.0","","","","","","false","","","","","","","","769.7000000178814","","326.89999997615814","","3","0","arrowright","1","arrowright","[0.325,0.675,0.85,0.15]","","",""
"sailing-trial","152","4408057","0.0-11.0-107.0","","","","","","false","","","","","","","","null","","1465.0999999940395","","2","1","null","null","arrowup","[0.325,0.675,0.85,0.15]","","",""
"sailing-trial","153","4411930","0.0-11.0-108.0","","","","","","false","","","","","","","","718.3999999761581","","478.7000000178814","","0","0","arrowleft","0","arrowleft","[0.15,0.85,0.675,0.325]","","",""
"sailing-trial","154","4415049","0.0-11.0-109.0","","","","","","false","","","","","","","","null","","1636","","3","0","null","null","arrowup","[0.15,0.85,0.675,0.325]","","",""
"sailing-trial","155","4418522","0.0-11.0-110.0","","","","","","false","","","","","","","","641","","238.5","","3","0","arrowright","1","arrowright","[0.15,0.85,0.675,0.325]","","",""
"sailing-trial","156","4422041","0.0-11.0-111.0","","","","","","false","","","","","","","","null","","1889.4000000059605","","0","0","null","null","arrowup","[0.15,0.85,0.675,0.325]","","",""
"sailing-trial","157","4426234","0.0-11.0-112.0","","","","","","false","","","","","","","","566.7999999821186","","1143.300000011921","","2","0","arrowright","1","arrowleft","[0.15,0.85,0.675,0.325]","","",""
"sailing-trial","158","4429385","0.0-11.0-113.0","","","","","","false","","","","","","","","null","","857.2000000178814","","1","1","null","null","arrowup","[0.15,0.85,0.675,0.325]","","",""
"sailing-trial","159","4433753","0.0-11.0-114.0","","","","","","false","","","","","","","","666.6999999880791","","921.7999999821186","","0","0","arrowleft","0","arrowleft","[0.15,0.85,0.675,0.325]","","",""
"sailing-trial","160","4436457","0.0-11.0-115.0","","","","","","false","","","","","","","","null","","1046.300000011921","","3","0","null","null","arrowup","[0.15,0.85,0.675,0.325]","","",""
"sailing-trial","161","4440905","0.0-11.0-116.0","","","","","","false","","","","","","","","1012.5999999940395","","412.7000000178814","","1","1","arrowleft","0","arrowright","[0.15,0.85,0.675,0.325]","","",""
"sailing-trial","162","4443865","0.0-11.0-117.0","","","","","","false","","","","","","","","null","","984.5","","1","1","null","null","arrowup","[0.15,0.85,0.675,0.325]","","",""
"sailing-trial","163","4448490","0.0-11.0-118.0","","","","","","false","","","","","","","","1043.4000000059605","","532.1999999880791","","3","0","arrowright","1","arrowright","[0.15,0.85,0.675,0.325]","","",""
"sailing-trial","164","4451897","0.0-11.0-119.0","","","","","","false","","","","","","","","null","","1470.9000000059605","","1","1","null","null","arrowup","[0.15,0.85,0.675,0.325]","","",""
"sailing-trial","165","4455800","0.0-11.0-120.0","","","","","","false","","","","","","","","659.4000000059605","","314.5","","0","0","arrowleft","0","arrowleft","[0.15,0.85,0.675,0.325]","","",""
"sailing-trial","166","4458793","0.0-11.0-121.0","","","","","","false","","","","","","","","null","","975.4000000059605","","3","1","null","null","arrowup","[0.15,0.85,0.675,0.325]","","",""
"sailing-trial","167","4464248","0.0-11.0-122.0","","","","","","false","","","","","","","","765.5","","592.9000000059605","","2","1","arrowright","1","arrowleft","[0.15,0.85,0.675,0.325]","","",""
"sailing-trial","168","4466776","0.0-11.0-123.0","","","","","","false","","","","","","","","null","","868.3000000119209","","1","0","null","null","arrowup","[0.15,0.85,0.675,0.325]","","",""
"sailing-trial","169","4471448","0.0-11.0-124.0","","","","","","false","","","","","","","","681.1999999880791","","587.4000000059605","","1","1","arrowleft","0","arrowright","[0.15,0.85,0.675,0.325]","","",""
"sailing-trial","170","4474552","0.0-11.0-125.0","","","","","","false","","","","","","","","null","","1031.1000000238419","","1","1","null","null","arrowup","[0.15,0.85,0.675,0.325]","","",""
"sailing-trial","171","4478840","0.0-11.0-126.0","","","","","","false","","","","","","","","1188.7000000178814","","89.59999999403954","","0","1","arrowleft","0","arrowleft","[0.325,0.675,0.85,0.15]","","",""
"sailing-trial","172","4481544","0.0-11.0-127.0","","","","","","false","","","","","","","","null","","981.5999999940395","","1","0","null","null","arrowup","[0.325,0.675,0.85,0.15]","","",""
"sailing-trial","173","4485721","0.0-11.0-128.0","","","","","","false","","","","","","","","791.5999999940395","","571.1999999880791","","3","0","arrowright","1","arrowright","[0.325,0.675,0.85,0.15]","","",""
"sailing-trial","174","4488570","0.0-11.0-129.0","","","","","","false","","","","","","","","null","","826.5","","2","1","null","null","arrowup","[0.325,0.675,0.85,0.15]","","",""
"sailing-trial","175","4492920","0.0-11.0-130.0","","","","","","false","","","","","","","","951.8999999761581","","19.799999982118607","","2","1","arrowright","1","arrowleft","[0.325,0.675,0.85,0.15]","","",""
"sailing-trial","176","4495624","0.0-11.0-131.0","","","","","","false","","","","","","","","null","","1184.199999988079","","0","0","null","null","arrowup","[0.325,0.675,0.85,0.15]","","",""
"sailing-trial","177","4500104","0.0-11.0-132.0","","","","","","false","","","","","","","","593.0999999940395","","1118.800000011921","","1","1","arrowleft","0","arrowright","[0.325,0.675,0.85,0.15]","","",""
"sailing-trial","178","4502794","0.0-11.0-133.0","","","","","","false","","","","","","","","null","","734.9000000059605","","1","1","null","null","arrowup","[0.325,0.675,0.85,0.15]","","",""
"sailing-trial","179","4508313","0.0-11.0-134.0","","","","","","false","","","","","","","","695","","942.0999999940395","","1","1","arrowleft","0","arrowright","[0.325,0.675,0.85,0.15]","","",""
"sailing-trial","180","4511225","0.0-11.0-135.0","","","","","","false","","","","","","","","null","","990.0999999940395","","1","1","null","null","arrowup","[0.325,0.675,0.85,0.15]","","",""
"sailing-trial","181","4515594","0.0-11.0-136.0","","","","","","false","","","","","","","","922.7999999821186","","26.299999982118607","","1","1","arrowleft","0","arrowright","[0.325,0.675,0.85,0.15]","","",""
"sailing-trial","182","4518746","0.0-11.0-137.0","","","","","","false","","","","","","","","null","","1194.9000000059605","","1","1","null","null","arrowup","[0.325,0.675,0.85,0.15]","","",""
"sailing-trial","183","4522537","0.0-11.0-138.0","","","","","","false","","","","","","","","683.6999999880791","","83.69999998807907","","2","1","arrowright","1","arrowleft","[0.325,0.675,0.85,0.15]","","",""
"sailing-trial","184","4525339","0.0-11.0-139.0","","","","","","false","","","","","","","","null","","1195.800000011921","","3","0","null","null","arrowup","[0.325,0.675,0.85,0.15]","","",""
"sailing-trial","185","4529066","0.0-11.0-140.0","","","","","","false","","","","","","","","789.4000000059605","","390.40000000596046","","0","0","arrowleft","0","arrowleft","[0.325,0.675,0.85,0.15]","","",""
"sailing-trial","186","4531962","0.0-11.0-141.0","","","","","","false","","","","","","","","null","","1022.5999999940395","","1","1","null","null","arrowup","[0.325,0.675,0.85,0.15]","","",""
"sailing-trial","187","4536377","0.0-11.0-142.0","","","","","","false","","","","","","","","752.6999999880791","","146.09999999403954","","2","1","arrowright","1","arrowleft","[0.325,0.675,0.85,0.15]","","",""
"sailing-trial","188","4538794","0.0-11.0-143.0","","","","","","false","","","","","","","","null","","969.3000000119209","","2","0","null","null","arrowup","[0.325,0.675,0.85,0.15]","","",""
"sailing-trial","189","4542666","0.0-11.0-144.0","","","","","","false","","","","","","","","750.3000000119209","","643.0999999940395","","0","0","arrowleft","0","arrowleft","[0.325,0.675,0.85,0.15]","","",""
"sailing-trial","190","4544875","0.0-11.0-145.0","","","","","","false","","","","","","","","null","","700.8000000119209","","3","0","null","null","arrowup","[0.325,0.675,0.85,0.15]","","",""
"sailing-trial","191","4548426","0.0-11.0-146.0","","","","","","false","","","","","","","","776.5","","219.89999997615814","","3","0","arrowright","1","arrowright","[0.15,0.85,0.675,0.325]","","",""
"sailing-trial","192","4550985","0.0-11.0-147.0","","","","","","false","","","","","","","","null","","952.5","","0","0","null","null","arrowup","[0.15,0.85,0.675,0.325]","","",""
"sailing-trial","193","4555226","0.0-11.0-148.0","","","","","","false","","","","","","","","618.1999999880791","","585.1999999880791","","1","1","arrowleft","0","arrowright","[0.15,0.85,0.675,0.325]","","",""
"sailing-trial","194","4557673","0.0-11.0-149.0","","","","","","false","","","","","","","","null","","617.8000000119209","","2","1","null","null","arrowup","[0.15,0.85,0.675,0.325]","","",""
"sailing-trial","195","4561738","0.0-11.0-150.0","","","","","","false","","","","","","","","725.7999999821186","","204.60000002384186","","2","1","arrowright","1","arrowleft","[0.15,0.85,0.675,0.325]","","",""
"sailing-trial","196","4564570","0.0-11.0-151.0","","","","","","false","","","","","","","","null","","1263.800000011921","","0","0","null","null","arrowup","[0.15,0.85,0.675,0.325]","","",""
"sailing-trial","197","4569129","0.0-11.0-152.0","","","","","","false","","","","","","","","632.7000000178814","","473.59999999403954","","0","0","arrowleft","0","arrowleft","[0.15,0.85,0.675,0.325]","","",""
"sailing-trial","198","4573210","0.0-11.0-153.0","","","","","","false","","","","","","","","null","","2064.9000000059605","","2","1","null","null","arrowup","[0.15,0.85,0.675,0.325]","","",""
"sailing-trial","199","4577081","0.0-11.0-154.0","","","","","","false","","","","","","","","599.0999999940395","","78.30000001192093","","3","1","arrowright","1","arrowright","[0.15,0.85,0.675,0.325]","","",""
"sailing-trial","200","4579962","0.0-11.0-155.0","","","","","","false","","","","","","","","null","","1028","","2","1","null","null","arrowup","[0.15,0.85,0.675,0.325]","","",""
"sailing-trial","201","4584922","0.0-11.0-156.0","","","","","","false","","","","","","","","553.1999999880791","","364.69999998807907","","3","1","arrowright","1","arrowright","[0.15,0.85,0.675,0.325]","","",""
"sailing-trial","202","4587386","0.0-11.0-157.0","","","","","","false","","","","","","","","null","","785.5","","0","0","null","null","arrowup","[0.15,0.85,0.675,0.325]","","",""
"sailing-trial","203","4591337","0.0-11.0-158.0","","","","","","false","","","","","","","","745.3000000119209","","452.5","","2","0","arrowright","1","arrowleft","[0.15,0.85,0.675,0.325]","","",""
"sailing-trial","204","4593882","0.0-11.0-159.0","","","","","","false","","","","","","","","null","","1018.0999999940395","","0","0","null","null","arrowup","[0.15,0.85,0.675,0.325]","","",""
"sailing-trial","205","4599354","0.0-11.0-160.0","","","","","","false","","","","","","","","853.5","","2150.2000000178814","","0","0","arrowleft","0","arrowleft","[0.15,0.85,0.675,0.325]","","",""
"sailing-trial","206","4602490","0.0-11.0-161.0","","","","","","false","","","","","","","","null","","886.6000000238419","","1","1","null","null","arrowup","[0.15,0.85,0.675,0.325]","","",""
"sailing-trial","207","4606410","0.0-11.0-162.0","","","","","","false","","","","","","","","606.9000000059605","","344.80000001192093","","1","1","arrowleft","0","arrowright","[0.15,0.85,0.675,0.325]","","",""
"sailing-trial","208","4609369","0.0-11.0-163.0","","","","","","false","","","","","","","","null","","1122.2999999821186","","1","1","null","null","arrowup","[0.15,0.85,0.675,0.325]","","",""
"sailing-trial","209","4614681","0.0-11.0-164.0","","","","","","false","","","","","","","","1110.5","","726.1000000238419","","0","1","arrowleft","0","arrowleft","[0.675,0.325,0.15,0.85]","","",""
"sailing-trial","210","4617737","0.0-11.0-165.0","","","","","","false","","","","","","","","null","","1578.800000011921","","0","0","null","null","arrowup","[0.675,0.325,0.15,0.85]","","",""
"sailing-trial","211","4621834","0.0-11.0-166.0","","","","","","false","","","","","","","","539","","39.19999998807907","","3","1","arrowright","1","arrowright","[0.675,0.325,0.15,0.85]","","",""
"sailing-trial","212","4624555","0.0-11.0-167.0","","","","","","false","","","","","","","","null","","855.5999999940395","","3","1","null","null","arrowup","[0.675,0.325,0.15,0.85]","","",""
"sailing-trial","213","4628409","0.0-11.0-168.0","","","","","","false","","","","","","","","776","","478.59999999403954","","0","0","arrowleft","0","arrowleft","[0.675,0.325,0.15,0.85]","","",""
"sailing-trial","214","4630826","0.0-11.0-169.0","","","","","","false","","","","","","","","null","","786.0999999940395","","1","0","null","null","arrowup","[0.675,0.325,0.15,0.85]","","",""
"sailing-trial","215","4634474","0.0-11.0-170.0","","","","","","false","","","","","","","","519.9000000059605","","263.90000000596046","","1","0","arrowleft","0","arrowright","[0.675,0.325,0.15,0.85]","","",""
"sailing-trial","216","4636986","0.0-11.0-171.0","","","","","","false","","","","","","","","null","","896.5999999940395","","1","0","null","null","arrowup","[0.675,0.325,0.15,0.85]","","",""
"sailing-trial","217","4641018","0.0-11.0-172.0","","","","","","false","","","","","","","","643.8000000119209","","603.6000000238419","","3","0","arrowright","1","arrowright","[0.675,0.325,0.15,0.85]","","",""
"sailing-trial","218","4643321","0.0-11.0-173.0","","","","","","false","","","","","","","","null","","912.3999999761581","","0","0","null","null","arrowup","[0.675,0.325,0.15,0.85]","","",""
"sailing-trial","219","4646906","0.0-11.0-174.0","","","","","","false","","","","","","","","566.0999999940395","","396.7999999821186","","1","0","arrowleft","0","arrowright","[0.675,0.325,0.15,0.85]","","",""
"sailing-trial","220","4650922","0.0-11.0-175.0","","","","","","false","","","","","","","","null","","1625.800000011921","","0","1","null","null","arrowup","[0.675,0.325,0.15,0.85]","","",""
"sailing-trial","221","4654777","0.0-11.0-176.0","","","","","","false","","","","","","","","828.5999999940395","","473.80000001192093","","2","0","arrowright","1","arrowleft","[0.675,0.325,0.15,0.85]","","",""
"sailing-trial","222","4657449","0.0-11.0-177.0","","","","","","false","","","","","","","","null","","827.7999999821186","","1","0","null","null","arrowup","[0.675,0.325,0.15,0.85]","","",""
"sailing-trial","223","4661642","0.0-11.0-178.0","","","","","","false","","","","","","","","898.0999999940395","","236.60000002384186","","0","1","arrowleft","0","arrowleft","[0.675,0.325,0.15,0.85]","","",""
"sailing-trial","224","4664570","0.0-11.0-179.0","","","","","","false","","","","","","","","null","","1044.7999999821186","","3","1","null","null","arrowup","[0.675,0.325,0.15,0.85]","","",""
"sailing-trial","225","4669673","0.0-11.0-180.0","","","","","","false","","","","","","","","772.9000000059605","","292.7000000178814","","1","0","arrowleft","0","arrowright","[0.675,0.325,0.15,0.85]","","",""
"sailing-trial","226","4671994","0.0-11.0-181.0","","","","","","false","","","","","","","","null","","853.2000000178814","","2","0","null","null","arrowup","[0.675,0.325,0.15,0.85]","","",""
"sailing-trial","227","4675914","0.0-11.0-182.0","","","","","","false","","","","","","","","646.4000000059605","","427.19999998807907","","2","0","arrowright","1","arrowleft","[0.85,0.15,0.325,0.675]","","",""
"sailing-trial","228","4678458","0.0-11.0-183.0","","","","","","false","","","","","","","","null","","735.3000000119209","","1","0","null","null","arrowup","[0.85,0.15,0.325,0.675]","","",""
"sailing-trial","229","4682042","0.0-11.0-184.0","","","","","","false","","","","","","","","618.0999999940395","","257.69999998807907","","3","0","arrowright","1","arrowright","[0.85,0.15,0.325,0.675]","","",""
"sailing-trial","230","4684746","0.0-11.0-185.0","","","","","","false","","","","","","","","null","","985","","3","0","null","null","arrowup","[0.85,0.15,0.325,0.675]","","",""
"sailing-trial","231","4688922","0.0-11.0-186.0","","","","","","false","","","","","","","","671.5999999940395","","398.60000002384186","","0","1","arrowleft","0","arrowleft","[0.85,0.15,0.325,0.675]","","",""
"sailing-trial","232","4692025","0.0-11.0-187.0","","","","","","false","","","","","","","","null","","934.9000000059605","","3","0","null","null","arrowup","[0.85,0.15,0.325,0.675]","","",""
"sailing-trial","233","4695657","0.0-11.0-188.0","","","","","","false","","","","","","","","913.5","","13.300000011920929","","1","0","arrowleft","0","arrowright","[0.85,0.15,0.325,0.675]","","",""
"sailing-trial","234","4697881","0.0-11.0-189.0","","","","","","false","","","","","","","","null","","798.6999999880791","","3","0","null","null","arrowup","[0.85,0.15,0.325,0.675]","","",""
"sailing-trial","235","4702266","0.0-11.0-190.0","","","","","","false","","","","","","","","601.1000000238419","","634.5999999940395","","2","1","arrowright","1","arrowleft","[0.85,0.15,0.325,0.675]","","",""
"sailing-trial","236","4705866","0.0-11.0-191.0","","","","","","false","","","","","","","","null","","1273.699999988079","","0","1","null","null","arrowup","[0.85,0.15,0.325,0.675]","","",""
"sailing-trial","237","4710281","0.0-11.0-192.0","","","","","","false","","","","","","","","1036.699999988079","","270.30000001192093","","3","1","arrowright","1","arrowright","[0.85,0.15,0.325,0.675]","","",""
"sailing-trial","238","4713209","0.0-11.0-193.0","","","","","","false","","","","","","","","null","","956.5999999940395","","1","0","null","null","arrowup","[0.85,0.15,0.325,0.675]","","",""
"sailing-trial","239","4717705","0.0-11.0-194.0","","","","","","false","","","","","","","","862.5","","713.8000000119209","","3","0","arrowright","1","arrowright","[0.85,0.15,0.325,0.675]","","",""
"sailing-trial","240","4720569","0.0-11.0-195.0","","","","","","false","","","","","","","","null","","683.8000000119209","","3","0","null","null","arrowup","[0.85,0.15,0.325,0.675]","","",""
"sailing-trial","241","4725433","0.0-11.0-196.0","","","","","","false","","","","","","","","597.3999999761581","","1174","","1","1","arrowleft","0","arrowright","[0.85,0.15,0.325,0.675]","","",""
"sailing-trial","242","4729305","0.0-11.0-197.0","","","","","","false","","","","","","","","null","","1859.7999999821186","","1","0","null","null","arrowup","[0.85,0.15,0.325,0.675]","","",""
"sailing-trial","243","4733210","0.0-11.0-198.0","","","","","","false","","","","","","","","591","","272.40000000596046","","0","1","arrowleft","0","arrowleft","[0.85,0.15,0.325,0.675]","","",""
"sailing-trial","244","4736169","0.0-11.0-199.0","","","","","","false","","","","","","","","null","","1005.5999999940395","","0","1","null","null","arrowup","[0.85,0.15,0.325,0.675]","","",""
"sailing-trial","245","4740472","0.0-11.0-200.0","","","","","","false","","","","","","","","1053.6000000238419","","528.2000000178814","","1","0","arrowleft","0","arrowright","[0.85,0.15,0.325,0.675]","","",""
"sailing-trial","246","4743369","0.0-11.0-201.0","","","","","","false","","","","","","","","null","","845.1999999880791","","0","1","null","null","arrowup","[0.85,0.15,0.325,0.675]","","",""
"sailing-trial","247","4747672","0.0-11.0-202.0","","","","","","false","","","","","","","","1479.300000011921","","180","","2","0","arrowright","1","arrowleft","[0.85,0.15,0.325,0.675]","","",""
"sailing-trial","248","4750665","0.0-11.0-203.0","","","","","","false","","","","","","","","null","","998.6999999880791","","2","1","null","null","arrowup","[0.85,0.15,0.325,0.675]","","",""
"sailing-trial","249","4754665","0.0-11.0-204.0","","","","","","false","","","","","","","","538.3999999761581","","254.40000000596046","","3","1","arrowright","1","arrowright","[0.675,0.325,0.15,0.85]","","",""
"sailing-trial","250","4757898","0.0-11.0-205.0","","","","","","false","","","","","","","","null","","763.8999999761581","","0","1","null","null","arrowup","[0.675,0.325,0.15,0.85]","","",""
"sailing-trial","251","4761066","0.0-11.0-206.0","","","","","","false","","","","","","","","611.0999999940395","","455.60000002384186","","0","0","arrowleft","0","arrowleft","[0.675,0.325,0.15,0.85]","","",""
"sailing-trial","252","4763370","0.0-11.0-207.0","","","","","","false","","","","","","","","null","","704.4000000059605","","1","0","null","null","arrowup","[0.675,0.325,0.15,0.85]","","",""
"sailing-trial","253","4767353","0.0-11.0-208.0","","","","","","false","","","","","","","","732.7999999821186","","19.80000001192093","","1","0","arrowleft","0","arrowright","[0.675,0.325,0.15,0.85]","","",""
"sailing-trial","254","4770265","0.0-11.0-209.0","","","","","","false","","","","","","","","null","","854","","3","1","null","null","arrowup","[0.675,0.325,0.15,0.85]","","",""
"sailing-trial","255","4774889","0.0-11.0-210.0","","","","","","false","","","","","","","","511.69999998807907","","980.5999999940395","","3","1","arrowright","1","arrowright","[0.675,0.325,0.15,0.85]","","",""
"sailing-trial","256","4777401","0.0-11.0-211.0","","","","","","false","","","","","","","","null","","762.3000000119209","","0","1","null","null","arrowup","[0.675,0.325,0.15,0.85]","","",""
"sailing-trial","257","4786200","0.0-11.0-212.0","","","","","","false","","","","","","","","4759.199999988079","","1406.800000011921","","1","0","arrowleft","0","arrowright","[0.675,0.325,0.15,0.85]","","",""
"sailing-trial","258","4789337","0.0-11.0-213.0","","","","","","false","","","","","","","","null","","1230.7000000178814","","0","1","null","null","arrowup","[0.675,0.325,0.15,0.85]","","",""
"sailing-trial","259","4796073","0.0-11.0-214.0","","","","","","false","","","","","","","","2011.4000000059605","","1098.9000000059605","","3","1","arrowright","1","arrowright","[0.675,0.325,0.15,0.85]","","",""
"sailing-trial","260","4800009","0.0-11.0-215.0","","","","","","false","","","","","","","","null","","897","","1","0","null","null","arrowup","[0.675,0.325,0.15,0.85]","","",""
"sailing-trial","261","4806217","0.0-11.0-216.0","","","","","","false","","","","","","","","2086.300000011921","","84.69999998807907","","0","1","arrowleft","0","arrowleft","[0.675,0.325,0.15,0.85]","","",""
"sailing-trial","262","4810872","0.0-11.0-217.0","","","","","","false","","","","","","","","null","","1234.699999988079","","3","1","null","null","arrowup","[0.675,0.325,0.15,0.85]","","",""
"sailing-trial","263","4816522","0.0-11.0-218.0","","","","","","false","","","","","","","","2217","","288.7999999821186","","3","1","arrowright","1","arrowright","[0.675,0.325,0.15,0.85]","","",""
"sailing-trial","264","4819177","0.0-11.0-219.0","","","","","","false","","","","","","","","null","","739.4000000059605","","3","1","null","null","arrowup","[0.675,0.325,0.15,0.85]","","",""
"sailing-trial","265","4823785","0.0-11.0-220.0","","","","","","false","","","","","","","","805.5","","732.0999999940395","","3","1","arrowright","1","arrowright","[0.675,0.325,0.15,0.85]","","",""
"sailing-trial","266","4826521","0.0-11.0-221.0","","","","","","false","","","","","","","","null","","1138.199999988079","","2","0","null","null","arrowup","[0.675,0.325,0.15,0.85]","","",""
"sailing-trial","267","4830698","0.0-11.0-222.0","","","","","","false","","","","","","","","1191.0999999940395","","372.90000000596046","","2","0","arrowright","1","arrowleft","[0.675,0.325,0.15,0.85]","","",""
"sailing-trial","268","4834665","0.0-11.0-223.0","","","","","","false","","","","","","","","null","","1842.0999999940395","","3","1","null","null","arrowup","[0.675,0.325,0.15,0.85]","","",""
"sailing-trial","269","4839609","0.0-11.0-224.0","","","","","","false","","","","","","","","1055.5999999940395","","872","","3","1","arrowright","1","arrowright","[0.85,0.15,0.325,0.675]","","",""
"sailing-trial","270","4842809","0.0-11.0-225.0","","","","","","false","","","","","","","","null","","1324.5","","0","1","null","null","arrowup","[0.85,0.15,0.325,0.675]","","",""
"sailing-trial","271","4847641","0.0-11.0-226.0","","","","","","false","","","","","","","","1155.7000000178814","","268.2999999821186","","2","0","arrowright","1","arrowleft","[0.85,0.15,0.325,0.675]","","",""
"sailing-trial","272","4850121","0.0-11.0-227.0","","","","","","false","","","","","","","","null","","995.8000000119209","","0","0","null","null","arrowup","[0.85,0.15,0.325,0.675]","","",""
"sailing-trial","273","4854809","0.0-11.0-228.0","","","","","","false","","","","","","","","881.2999999821186","","567.8000000119209","","3","1","arrowright","1","arrowright","[0.85,0.15,0.325,0.675]","","",""
"sailing-trial","274","4857864","0.0-11.0-229.0","","","","","","false","","","","","","","","null","","1104.7999999821186","","3","1","null","null","arrowup","[0.85,0.15,0.325,0.675]","","",""
"sailing-trial","275","4862841","0.0-11.0-230.0","","","","","","false","","","","","","","","844.5999999940395","","534.5999999940395","","0","1","arrowleft","0","arrowleft","[0.85,0.15,0.325,0.675]","","",""
"sailing-trial","276","4865913","0.0-11.0-231.0","","","","","","false","","","","","","","","null","","1016.2000000178814","","3","1","null","null","arrowup","[0.85,0.15,0.325,0.675]","","",""
"sailing-trial","277","4870346","0.0-11.0-232.0","","","","","","false","","","","","","","","1630.199999988079","","41.5","","1","0","arrowleft","0","arrowright","[0.85,0.15,0.325,0.675]","","",""
"sailing-trial","278","4874089","0.0-11.0-233.0","","","","","","false","","","","","","","","null","","1754.699999988079","","1","0","null","null","arrowup","[0.85,0.15,0.325,0.675]","","",""
"sailing-trial","279","4878154","0.0-11.0-234.0","","","","","","false","","","","","","","","883.5999999940395","","28.599999994039536","","3","1","arrowright","1","arrowright","[0.85,0.15,0.325,0.675]","","",""
"sailing-trial","280","4881321","0.0-11.0-235.0","","","","","","false","","","","","","","","null","","1273.9000000059605","","0","1","null","null","arrowup","[0.85,0.15,0.325,0.675]","","",""
"sailing-trial","281","4885561","0.0-11.0-236.0","","","","","","false","","","","","","","","892.0999999940395","","262.60000002384186","","0","1","arrowleft","0","arrowleft","[0.85,0.15,0.325,0.675]","","",""
"sailing-trial","282","4888665","0.0-11.0-237.0","","","","","","false","","","","","","","","null","","1066","","2","1","null","null","arrowup","[0.85,0.15,0.325,0.675]","","",""
"sailing-trial","283","4892809","0.0-11.0-238.0","","","","","","false","","","","","","","","813.6999999880791","","161","","2","1","arrowright","1","arrowleft","[0.85,0.15,0.325,0.675]","","",""
"sailing-trial","284","4895161","0.0-11.0-239.0","","","","","","false","","","","","","","","null","","936.5","","1","0","null","null","arrowup","[0.85,0.15,0.325,0.675]","","",""
"sailing-trial","285","4899624","0.0-11.0-240.0","","","","","","false","","","","","","","","714.1999999880791","","584.5","","0","1","arrowleft","0","arrowleft","[0.325,0.675,0.85,0.15]","","",""
"sailing-trial","286","4902137","0.0-11.0-241.0","","","","","","false","","","","","","","","null","","680.0999999940395","","2","1","null","null","arrowup","[0.325,0.675,0.85,0.15]","","",""
"sailing-trial","287","4905417","0.0-11.0-242.0","","","","","","false","","","","","","","","549.4000000059605","","203.5","","0","0","arrowleft","0","arrowleft","[0.325,0.675,0.85,0.15]","","",""
"sailing-trial","288","4907641","0.0-11.0-243.0","","","","","","false","","","","","","","","null","","577","","3","0","null","null","arrowup","[0.325,0.675,0.85,0.15]","","",""
"sailing-trial","289","4911562","0.0-11.0-244.0","","","","","","false","","","","","","","","939.2000000178814","","1.300000011920929","","1","1","arrowleft","0","arrowright","[0.325,0.675,0.85,0.15]","","",""
"sailing-trial","290","4913625","0.0-11.0-245.0","","","","","","false","","","","","","","","null","","631.6000000238419","","3","0","null","null","arrowup","[0.325,0.675,0.85,0.15]","","",""
"sailing-trial","291","4919002","0.0-11.0-246.0","","","","","","false","","","","","","","","1803","","534.0999999940395","","3","1","arrowright","1","arrowright","[0.325,0.675,0.85,0.15]","","",""
"sailing-trial","292","4922282","0.0-11.0-247.0","","","","","","false","","","","","","","","null","","631.4000000059605","","3","0","null","null","arrowup","[0.325,0.675,0.85,0.15]","","",""
"sailing-trial","293","4925850","0.0-11.0-248.0","","","","","","false","","","","","","","","557","","331.89999997615814","","0","0","arrowleft","0","arrowleft","[0.325,0.675,0.85,0.15]","","",""
"sailing-trial","294","4928665","0.0-11.0-249.0","","","","","","false","","","","","","","","null","","667.1999999880791","","1","1","null","null","arrowup","[0.325,0.675,0.85,0.15]","","",""
"sailing-trial","295","4932906","0.0-11.0-250.0","","","","","","false","","","","","","","","1172.1000000238419","","23.69999998807907","","1","1","arrowleft","0","arrowright","[0.325,0.675,0.85,0.15]","","",""
"sailing-trial","296","4935724","0.0-11.0-251.0","","","","","","false","","","","","","","","null","","1274.9000000059605","","3","0","null","null","arrowup","[0.325,0.675,0.85,0.15]","","",""
"sailing-trial","297","4939706","0.0-11.0-252.0","","","","","","false","","","","","","","","557.4000000059605","","303.7000000178814","","0","1","arrowleft","0","arrowleft","[0.325,0.675,0.85,0.15]","","",""
"sailing-trial","298","4942874","0.0-11.0-253.0","","","","","","false","","","","","","","","null","","1169","","0","1","null","null","arrowup","[0.325,0.675,0.85,0.15]","","",""
"sailing-trial","299","4948027","0.0-11.0-254.0","","","","","","false","","","","","","","","2062.9000000059605","","22.799999982118607","","3","1","arrowright","1","arrowright","[0.325,0.675,0.85,0.15]","","",""
"sailing-trial","300","4950330","0.0-11.0-255.0","","","","","","false","","","","","","","","null","","955.7000000178814","","3","0","null","null","arrowup","[0.325,0.675,0.85,0.15]","","",""
"sailing-trial","301","4954491","0.0-11.0-256.0","","","","","","false","","","","","","","","860.3000000119209","","402.59999999403954","","2","0","arrowright","1","arrowleft","[0.15,0.85,0.675,0.325]","","",""
"sailing-trial","302","4957738","0.0-11.0-257.0","","","","","","false","","","","","","","","null","","828.0999999940395","","3","0","null","null","arrowup","[0.15,0.85,0.675,0.325]","","",""
"sailing-trial","303","4961689","0.0-11.0-258.0","","","","","","false","","","","","","","","545.6000000238419","","260.59999999403954","","1","1","arrowleft","0","arrowright","[0.15,0.85,0.675,0.325]","","",""
"sailing-trial","304","4964186","0.0-11.0-259.0","","","","","","false","","","","","","","","null","","873.9000000059605","","3","0","null","null","arrowup","[0.15,0.85,0.675,0.325]","","",""
"sailing-trial","305","4967723","0.0-11.0-260.0","","","","","","false","","","","","","","","530.5","","354.2000000178814","","0","0","arrowleft","0","arrowleft","[0.15,0.85,0.675,0.325]","","",""
"sailing-trial","306","4969994","0.0-11.0-261.0","","","","","","false","","","","","","","","null","","810.5999999940395","","0","0","null","null","arrowup","[0.15,0.85,0.675,0.325]","","",""
"sailing-trial","307","4974602","0.0-11.0-262.0","","","","","","false","","","","","","","","538.5","","82.40000000596046","","1","1","arrowleft","0","arrowright","[0.15,0.85,0.675,0.325]","","",""
"sailing-trial","308","4977290","0.0-11.0-263.0","","","","","","false","","","","","","","","null","","1267.5","","3","0","null","null","arrowup","[0.15,0.85,0.675,0.325]","","",""
"sailing-trial","309","4980938","0.0-11.0-264.0","","","","","","false","","","","","","","","523.6999999880791","","567.5","","3","0","arrowright","1","arrowright","[0.15,0.85,0.675,0.325]","","",""
"sailing-trial","310","4984153","0.0-11.0-265.0","","","","","","false","","","","","","","","null","","567.4000000059605","","0","0","null","null","arrowup","[0.15,0.85,0.675,0.325]","","",""
"sailing-trial","311","4988777","0.0-11.0-266.0","","","","","","false","","","","","","","","865.0999999940395","","359.19999998807907","","2","1","arrowright","1","arrowleft","[0.15,0.85,0.675,0.325]","","",""
"sailing-trial","312","4991065","0.0-11.0-267.0","","","","","","false","","","","","","","","null","","775","","3","0","null","null","arrowup","[0.15,0.85,0.675,0.325]","","",""
"sailing-trial","313","4995114","0.0-11.0-268.0","","","","","","false","","","","","","","","553.8000000119209","","439","","2","1","arrowright","1","arrowleft","[0.15,0.85,0.675,0.325]","","",""
"sailing-trial","314","4998075","0.0-11.0-269.0","","","","","","false","","","","","","","","null","","993.4000000059605","","2","1","null","null","arrowup","[0.15,0.85,0.675,0.325]","","",""
"sailing-trial","315","5002714","0.0-11.0-270.0","","","","","","false","","","","","","","","979.5","","809.1999999880791","","3","0","arrowright","1","arrowright","[0.15,0.85,0.675,0.325]","","",""
"sailing-trial","316","5005690","0.0-11.0-271.0","","","","","","false","","","","","","","","null","","942.0999999940395","","1","1","null","null","arrowup","[0.15,0.85,0.675,0.325]","","",""
"sailing-trial","317","5009657","0.0-11.0-272.0","","","","","","false","","","","","","","","1068.5","","13.799999982118607","","0","0","arrowleft","0","arrowleft","[0.15,0.85,0.675,0.325]","","",""
"sailing-trial","318","5013514","0.0-11.0-273.0","","","","","","false","","","","","","","","null","","1984.300000011921","","2","1","null","null","arrowup","[0.15,0.85,0.675,0.325]","","",""
"sailing-trial","319","5017178","0.0-11.0-274.0","","","","","","false","","","","","","","","1045.699999988079","","46.400000005960464","","1","0","arrowleft","0","arrowright","[0.325,0.675,0.85,0.15]","","",""
"sailing-trial","320","5019737","0.0-11.0-275.0","","","","","","false","","","","","","","","null","","691.6999999880791","","3","1","null","null","arrowup","[0.325,0.675,0.85,0.15]","","",""
"sailing-trial","321","5023162","0.0-11.0-276.0","","","","","","false","","","","","","","","651.3000000119209","","330.09999999403954","","3","0","arrowright","1","arrowright","[0.325,0.675,0.85,0.15]","","",""
"sailing-trial","322","5026042","0.0-11.0-277.0","","","","","","false","","","","","","","","null","","879.1999999880791","","2","1","null","null","arrowup","[0.325,0.675,0.85,0.15]","","",""
"sailing-trial","323","5029930","0.0-11.0-278.0","","","","","","false","","","","","","","","616.9000000059605","","315.59999999403954","","2","1","arrowright","1","arrowleft","[0.325,0.675,0.85,0.15]","","",""
"sailing-trial","324","5032121","0.0-11.0-279.0","","","","","","false","","","","","","","","null","","722.8000000119209","","0","0","null","null","arrowup","[0.325,0.675,0.85,0.15]","","",""
"sailing-trial","325","5035497","0.0-11.0-280.0","","","","","","false","","","","","","","","592.8000000119209","","50.5","","3","0","arrowright","1","arrowright","[0.325,0.675,0.85,0.15]","","",""
"sailing-trial","326","5038714","0.0-11.0-281.0","","","","","","false","","","","","","","","null","","1294.5999999940395","","2","1","null","null","arrowup","[0.325,0.675,0.85,0.15]","","",""
"sailing-trial","327","5042474","0.0-11.0-282.0","","","","","","false","","","","","","","","857.2000000178814","","286.90000000596046","","0","0","arrowleft","0","arrowleft","[0.325,0.675,0.85,0.15]","","",""
"sailing-trial","328","5044794","0.0-11.0-283.0","","","","","","false","","","","","","","","null","","746","","1","0","null","null","arrowup","[0.325,0.675,0.85,0.15]","","",""
"sailing-trial","329","5048809","0.0-11.0-284.0","","","","","","false","","","","","","","","548.4000000059605","","167.30000001192093","","1","1","arrowleft","0","arrowright","[0.325,0.675,0.85,0.15]","","",""
"sailing-trial","330","5051305","0.0-11.0-285.0","","","","","","false","","","","","","","","null","","1007.4000000059605","","3","0","null","null","arrowup","[0.325,0.675,0.85,0.15]","","",""
"sailing-trial","331","5055145","0.0-11.0-286.0","","","","","","false","","","","","","","","572.3000000119209","","410.19999998807907","","3","0","arrowright","1","arrowright","[0.325,0.675,0.85,0.15]","","",""
"sailing-trial","332","5058330","0.0-11.0-287.0","","","","","","false","","","","","","","","null","","1015.9000000059605","","0","1","null","null","arrowup","[0.325,0.675,0.85,0.15]","","",""
"sailing-trial","333","5062329","0.0-11.0-288.0","","","","","","false","","","","","","","","830","","264.59999999403954","","2","1","arrowright","1","arrowleft","[0.325,0.675,0.85,0.15]","","",""
"sailing-trial","334","5064409","0.0-11.0-289.0","","","","","","false","","","","","","","","null","","594.5","","2","0","null","null","arrowup","[0.325,0.675,0.85,0.15]","","",""
"sailing-trial","335","5068121","0.0-11.0-290.0","","","","","","false","","","","","","","","605.2000000178814","","224.2999999821186","","3","1","arrowright","1","arrowright","[0.675,0.325,0.15,0.85]","","",""
"sailing-trial","336","5070265","0.0-11.0-291.0","","","","","","false","","","","","","","","null","","762","","2","0","null","null","arrowup","[0.675,0.325,0.15,0.85]","","",""
"sailing-trial","337","5073641","0.0-11.0-292.0","","","","","","false","","","","","","","","560.4000000059605","","255.10000002384186","","0","0","arrowleft","0","arrowleft","[0.675,0.325,0.15,0.85]","","",""
"sailing-trial","338","5076986","0.0-11.0-293.0","","","","","","false","","","","","","","","null","","707.1999999880791","","2","0","null","null","arrowup","[0.675,0.325,0.15,0.85]","","",""
"sailing-trial","339","5081145","0.0-11.0-294.0","","","","","","false","","","","","","","","886.3000000119209","","268.89999997615814","","1","1","arrowleft","0","arrowright","[0.675,0.325,0.15,0.85]","","",""
"sailing-trial","340","5084266","0.0-11.0-295.0","","","","","","false","","","","","","","","null","","916.9000000059605","","3","1","null","null","arrowup","[0.675,0.325,0.15,0.85]","","",""
"sailing-trial","341","5089835","0.0-11.0-296.0","","","","","","false","","","","","","","","1829.0999999940395","","313.19999998807907","","3","1","arrowright","1","arrowright","[0.675,0.325,0.15,0.85]","","",""
"sailing-trial","342","5092234","0.0-11.0-297.0","","","","","","false","","","","","","","","null","","831","","0","0","null","null","arrowup","[0.675,0.325,0.15,0.85]","","",""
"sailing-trial","343","5096137","0.0-11.0-298.0","","","","","","false","","","","","","","","1005.6999999880791","","101.69999998807907","","2","0","arrowright","1","arrowleft","[0.675,0.325,0.15,0.85]","","",""
"sailing-trial","344","5098905","0.0-11.0-299.0","","","","","","false","","","","","","","","null","","744.8000000119209","","0","1","null","null","arrowup","[0.675,0.325,0.15,0.85]","","",""
"sailing-trial","345","5104490","0.0-11.0-300.0","","","","","","false","","","","","","","","596","","404.30000001192093","","0","1","arrowleft","0","arrowleft","[0.675,0.325,0.15,0.85]","","",""
"sailing-trial","346","5108137","0.0-11.0-301.0","","","","","","false","","","","","","","","null","","596.3000000119209","","0","1","null","null","arrowup","[0.675,0.325,0.15,0.85]","","",""
"sailing-trial","347","5111977","0.0-11.0-302.0","","","","","","false","","","","","","","","617.2999999821186","","470.09999999403954","","3","0","arrowright","1","arrowright","[0.675,0.325,0.15,0.85]","","",""
"sailing-trial","348","5114377","0.0-11.0-303.0","","","","","","false","","","","","","","","null","","709.8000000119209","","2","0","null","null","arrowup","[0.675,0.325,0.15,0.85]","","",""
"sailing-trial","349","5118457","0.0-11.0-304.0","","","","","","false","","","","","","","","968.0999999940395","","487.80000001192093","","2","0","arrowright","1","arrowleft","[0.675,0.325,0.15,0.85]","","",""
"sailing-trial","350","5121337","0.0-11.0-305.0","","","","","","false","","","","","","","","null","","996.3999999761581","","3","1","null","null","arrowup","[0.675,0.325,0.15,0.85]","","",""
"sailing-trial","351","5125690","0.0-11.0-306.0","","","","","","false","","","","","","","","721.5","","311.90000000596046","","0","1","arrowleft","0","arrowleft","[0.85,0.15,0.325,0.675]","","",""
"sailing-trial","352","5128474","0.0-11.0-307.0","","","","","","false","","","","","","","","null","","958.3000000119209","","3","1","null","null","arrowup","[0.85,0.15,0.325,0.675]","","",""
"sailing-trial","353","5133418","0.0-11.0-308.0","","","","","","false","","","","","","","","839.9000000059605","","1239.699999988079","","0","1","arrowleft","0","arrowleft","[0.85,0.15,0.325,0.675]","","",""
"sailing-trial","354","5135786","0.0-11.0-309.0","","","","","","false","","","","","","","","null","","738.1000000238419","","1","0","null","null","arrowup","[0.85,0.15,0.325,0.675]","","",""
"sailing-trial","355","5139018","0.0-11.0-310.0","","","","","","false","","","","","","","","565.5999999940395","","79.90000000596046","","1","0","arrowleft","0","arrowright","[0.85,0.15,0.325,0.675]","","",""
"sailing-trial","356","5141386","0.0-11.0-311.0","","","","","","false","","","","","","","","null","","864.5","","1","0","null","null","arrowup","[0.85,0.15,0.325,0.675]","","",""
"sailing-trial","357","5144778","0.0-11.0-312.0","","","","","","false","","","","","","","","428.59999999403954","","88.40000000596046","","2","0","arrowright","1","arrowleft","[0.85,0.15,0.325,0.675]","","",""
"sailing-trial","358","5146921","0.0-11.0-313.0","","","","","","false","","","","","","","","null","","683.0999999940395","","2","0","null","null","arrowup","[0.85,0.15,0.325,0.675]","","",""
"sailing-trial","359","5150841","0.0-11.0-314.0","","","","","","false","","","","","","","","634.3000000119209","","55.5","","3","1","arrowright","1","arrowright","[0.85,0.15,0.325,0.675]","","",""
"sailing-trial","360","5153594","0.0-11.0-315.0","","","","","","false","","","","","","","","null","","1121.5","","2","0","null","null","arrowup","[0.85,0.15,0.325,0.675]","","",""
"sailing-trial","361","5157769","0.0-11.0-316.0","","","","","","false","","","","","","","","850.0999999940395","","411","","2","1","arrowright","1","arrowleft","[0.85,0.15,0.325,0.675]","","",""
"sailing-trial","362","5160425","0.0-11.0-317.0","","","","","","false","","","","","","","","null","","719.7999999821186","","3","1","null","null","arrowup","[0.85,0.15,0.325,0.675]","","",""
"sailing-trial","363","5165547","0.0-11.0-318.0","","","","","","false","","","","","","","","746.9000000059605","","170.30000001192093","","3","1","arrowright","1","arrowright","[0.85,0.15,0.325,0.675]","","",""
"sailing-trial","364","5168329","0.0-11.0-319.0","","","","","","false","","","","","","","","null","","908.0999999940395","","3","1","null","null","arrowup","[0.85,0.15,0.325,0.675]","","",""
"sailing-trial","365","5171994","0.0-11.0-320.0","","","","","","false","","","","","","","","647.6999999880791","","343.90000000596046","","2","0","arrowright","1","arrowleft","[0.85,0.15,0.325,0.675]","","",""
"sailing-trial","366","5174585","0.0-11.0-321.0","","","","","","false","","","","","","","","null","","1058","","0","0","null","null","arrowup","[0.85,0.15,0.325,0.675]","","",""
"sailing-trial","367","5178394","0.0-11.0-322.0","","","","","","false","","","","","","","","521.2000000178814","","284.90000000596046","","3","1","arrowright","1","arrowright","[0.85,0.15,0.325,0.675]","","",""
"sailing-trial","368","5181305","0.0-11.0-323.0","","","","","","false","","","","","","","","null","","947.9000000059605","","0","1","null","null","arrowup","[0.85,0.15,0.325,0.675]","","",""
"sailing-trial","369","5186058","0.0-11.0-324.0","","","","","","false","","","","","","","","627.8000000119209","","524.8999999761581","","0","1","arrowleft","0","arrowleft","[0.85,0.15,0.325,0.675]","","",""
"sailing-trial","370","5188697","0.0-11.0-325.0","","","","","","false","","","","","","","","null","","800.5","","2","1","null","null","arrowup","[0.85,0.15,0.325,0.675]","","",""
"sailing-trial","371","5193099","0.0-11.0-326.0","","","","","","false","","","","","","","","887.6999999880791","","329.90000000596046","","1","0","arrowleft","0","arrowright","[0.85,0.15,0.325,0.675]","","",""
"sailing-trial","372","5196170","0.0-11.0-327.0","","","","","","false","","","","","","","","null","","881.1999999880791","","3","1","null","null","arrowup","[0.85,0.15,0.325,0.675]","","",""
"sailing-trial","373","5200681","0.0-11.0-328.0","","","","","","false","","","","","","","","889.4000000059605","","234.39999997615814","","0","0","arrowleft","0","arrowleft","[0.85,0.15,0.325,0.675]","","",""
"sailing-trial","374","5203177","0.0-11.0-329.0","","","","","","false","","","","","","","","null","","603.1000000238419","","0","1","null","null","arrowup","[0.85,0.15,0.325,0.675]","","",""
"sailing-trial","375","5206889","0.0-11.0-330.0","","","","","","false","","","","","","","","727.2999999821186","","44.80000001192093","","1","0","arrowleft","0","arrowright","[0.675,0.325,0.15,0.85]","","",""
"sailing-trial","376","5209273","0.0-11.0-331.0","","","","","","false","","","","","","","","null","","633.9000000059605","","0","0","null","null","arrowup","[0.675,0.325,0.15,0.85]","","",""
"sailing-trial","377","5212505","0.0-11.0-332.0","","","","","","false","","","","","","","","624.4000000059605","","26.69999998807907","","2","0","arrowright","1","arrowleft","[0.675,0.325,0.15,0.85]","","",""
"sailing-trial","378","5214681","0.0-11.0-333.0","","","","","","false","","","","","","","","null","","720.2000000178814","","2","0","null","null","arrowup","[0.675,0.325,0.15,0.85]","","",""
"sailing-trial","379","5218555","0.0-11.0-334.0","","","","","","false","","","","","","","","615.2000000178814","","405.19999998807907","","3","1","arrowright","1","arrowright","[0.675,0.325,0.15,0.85]","","",""
"sailing-trial","380","5221258","0.0-11.0-335.0","","","","","","false","","","","","","","","null","","803.2000000178814","","1","1","null","null","arrowup","[0.675,0.325,0.15,0.85]","","",""
"sailing-trial","381","5225434","0.0-11.0-336.0","","","","","","false","","","","","","","","852.6999999880791","","627.6999999880791","","0","0","arrowleft","0","arrowleft","[0.675,0.325,0.15,0.85]","","",""
"sailing-trial","382","5228138","0.0-11.0-337.0","","","","","","false","","","","","","","","null","","773.3999999761581","","3","0","null","null","arrowup","[0.675,0.325,0.15,0.85]","","",""
"sailing-trial","383","5232313","0.0-11.0-338.0","","","","","","false","","","","","","","","670","","475.80000001192093","","3","0","arrowright","1","arrowright","[0.675,0.325,0.15,0.85]","","",""
"sailing-trial","384","5234682","0.0-11.0-339.0","","","","","","false","","","","","","","","null","","797.5","","1","0","null","null","arrowup","[0.675,0.325,0.15,0.85]","","",""
"sailing-trial","385","5238761","0.0-11.0-340.0","","","","","","false","","","","","","","","871.1999999880791","","605.1999999880791","","2","0","arrowright","1","arrowleft","[0.675,0.325,0.15,0.85]","","",""
"sailing-trial","386","5241498","0.0-11.0-341.0","","","","","","false","","","","","","","","null","","760.7999999821186","","3","1","null","null","arrowup","[0.675,0.325,0.15,0.85]","","",""
"sailing-trial","387","5244778","0.0-11.0-342.0","","","","","","false","","","","","","","","525.9000000059605","","30.900000005960464","","1","0","arrowleft","0","arrowright","[0.675,0.325,0.15,0.85]","","",""
"sailing-trial","388","5247225","0.0-11.0-343.0","","","","","","false","","","","","","","","null","","891.9000000059605","","2","0","null","null","arrowup","[0.675,0.325,0.15,0.85]","","",""
"sailing-trial","389","5251369","0.0-11.0-344.0","","","","","","false","","","","","","","","582.6999999880791","","415.39999997615814","","0","1","arrowleft","0","arrowleft","[0.675,0.325,0.15,0.85]","","",""
"sailing-trial","390","5253530","0.0-11.0-345.0","","","","","","false","","","","","","","","null","","747.0999999940395","","2","0","null","null","arrowup","[0.675,0.325,0.15,0.85]","","",""
"sailing-trial","391","5257978","0.0-11.0-346.0","","","","","","false","","","","","","","","773.0999999940395","","303.40000000596046","","2","1","arrowright","1","arrowleft","[0.675,0.325,0.15,0.85]","","",""
"sailing-trial","392","5260746","0.0-11.0-347.0","","","","","","false","","","","","","","","null","","800.2999999821186","","0","1","null","null","arrowup","[0.675,0.325,0.15,0.85]","","",""
"sailing-trial","393","5265593","0.0-11.0-348.0","","","","","","false","","","","","","","","636","","1023.4000000059605","","0","1","arrowleft","0","arrowleft","[0.675,0.325,0.15,0.85]","","",""
"sailing-trial","394","5267914","0.0-11.0-349.0","","","","","","false","","","","","","","","null","","703.6999999880791","","0","0","null","null","arrowup","[0.675,0.325,0.15,0.85]","","",""
"sailing-trial","395","5271434","0.0-11.0-350.0","","","","","","false","","","","","","","","838.7999999821186","","97.19999998807907","","1","0","arrowleft","0","arrowright","[0.85,0.15,0.325,0.675]","","",""
"sailing-trial","396","5274345","0.0-11.0-351.0","","","","","","false","","","","","","","","null","","947","","0","1","null","null","arrowup","[0.85,0.15,0.325,0.675]","","",""
"sailing-trial","397","5277593","0.0-11.0-352.0","","","","","","false","","","","","","","","572.2000000178814","","24.400000005960464","","3","0","arrowright","1","arrowright","[0.85,0.15,0.325,0.675]","","",""
"sailing-trial","398","5279785","0.0-11.0-353.0","","","","","","false","","","","","","","","null","","791.0999999940395","","1","0","null","null","arrowup","[0.85,0.15,0.325,0.675]","","",""
"sailing-trial","399","5283386","0.0-11.0-354.0","","","","","","false","","","","","","","","1004.1999999880791","","16","","2","0","arrowright","1","arrowleft","[0.85,0.15,0.325,0.675]","","",""
"sailing-trial","400","5285785","0.0-11.0-355.0","","","","","","false","","","","","","","","null","","811","","2","0","null","null","arrowup","[0.85,0.15,0.325,0.675]","","",""
"sailing-trial","401","5290602","0.0-11.0-356.0","","","","","","false","","","","","","","","693.2000000178814","","701.5","","0","1","arrowleft","0","arrowleft","[0.85,0.15,0.325,0.675]","","",""
"sailing-trial","402","5293706","0.0-11.0-357.0","","","","","","false","","","","","","","","null","","1309.0999999940395","","1","0","null","null","arrowup","[0.85,0.15,0.325,0.675]","","",""
"sailing-trial","403","5297785","0.0-11.0-358.0","","","","","","false","","","","","","","","963.7999999821186","","153.2000000178814","","1","0","arrowleft","0","arrowright","[0.85,0.15,0.325,0.675]","","",""
"sailing-trial","404","5300249","0.0-11.0-359.0","","","","","","false","","","","","","","","null","","924.0999999940395","","3","0","null","null","arrowup","[0.85,0.15,0.325,0.675]","","",""
"sailing-trial","405","5304090","0.0-11.0-360.0","","","","","","false","","","","","","","","590.5","","32.20000001788139","","2","1","arrowright","1","arrowleft","[0.85,0.15,0.325,0.675]","","",""
"sailing-trial","406","5306731","0.0-11.0-361.0","","","","","","false","","","","","","","","null","","646","","0","1","null","null","arrowup","[0.85,0.15,0.325,0.675]","","",""
"sailing-trial","407","5311194","0.0-11.0-362.0","","","","","","false","","","","","","","","665","","774.1999999880791","","3","1","arrowright","1","arrowright","[0.85,0.15,0.325,0.675]","","",""
"sailing-trial","408","5314218","0.0-11.0-363.0","","","","","","false","","","","","","","","null","","876.5","","1","0","null","null","arrowup","[0.85,0.15,0.325,0.675]","","",""
"sailing-trial","409","5319130","0.0-11.0-364.0","","","","","","false","","","","","","","","766.7000000178814","","110.80000001192093","","2","0","arrowright","1","arrowleft","[0.85,0.15,0.325,0.675]","","",""
"sailing-trial","410","5321802","0.0-11.0-365.0","","","","","","false","","","","","","","","null","","1160.2000000178814","","2","0","null","null","arrowup","[0.85,0.15,0.325,0.675]","","",""
"sailing-trial","411","5325801","0.0-11.0-366.0","","","","","","false","","","","","","","","634.2999999821186","","855.5999999940395","","0","0","arrowleft","0","arrowleft","[0.85,0.15,0.325,0.675]","","",""
"sailing-trial","412","5328186","0.0-11.0-367.0","","","","","","false","","","","","","","","null","","881.6999999880791","","0","0","null","null","arrowup","[0.85,0.15,0.325,0.675]","","",""
"sailing-trial","413","5332266","0.0-11.0-368.0","","","","","","false","","","","","","","","635.6999999880791","","21.400000005960464","","1","1","arrowleft","0","arrowright","[0.15,0.85,0.675,0.325]","","",""
"sailing-trial","414","5334618","0.0-11.0-369.0","","","","","","false","","","","","","","","null","","792.8000000119209","","3","0","null","null","arrowup","[0.15,0.85,0.675,0.325]","","",""
"sailing-trial","415","5339018","0.0-11.0-370.0","","","","","","false","","","","","","","","731","","347.2999999821186","","2","1","arrowright","1","arrowleft","[0.15,0.85,0.675,0.325]","","",""
"sailing-trial","416","5341498","0.0-11.0-371.0","","","","","","false","","","","","","","","null","","796.6999999880791","","0","0","null","null","arrowup","[0.15,0.85,0.675,0.325]","","",""
"sailing-trial","417","5345226","0.0-11.0-372.0","","","","","","false","","","","","","","","595.3999999761581","","115.59999999403954","","3","0","arrowright","1","arrowright","[0.15,0.85,0.675,0.325]","","",""
"sailing-trial","418","5348234","0.0-11.0-373.0","","","","","","false","","","","","","","","null","","952.5","","1","1","null","null","arrowup","[0.15,0.85,0.675,0.325]","","",""
"sailing-trial","419","5352026","0.0-11.0-374.0","","","","","","false","","","","","","","","603.8000000119209","","26.30000001192093","","0","0","arrowleft","0","arrowleft","[0.15,0.85,0.675,0.325]","","",""
"sailing-trial","420","5354729","0.0-11.0-375.0","","","","","","false","","","","","","","","null","","570.5999999940395","","2","1","null","null","arrowup","[0.15,0.85,0.675,0.325]","","",""
"sailing-trial","421","5358634","0.0-11.0-376.0","","","","","","false","","","","","","","","558.5","","261.09999999403954","","1","1","arrowleft","0","arrowright","[0.15,0.85,0.675,0.325]","","",""
"sailing-trial","422","5361546","0.0-11.0-377.0","","","","","","false","","","","","","","","null","","931.6999999880791","","3","1","null","null","arrowup","[0.15,0.85,0.675,0.325]","","",""
"sailing-trial","423","5365497","0.0-11.0-378.0","","","","","","false","","","","","","","","675.3000000119209","","358","","3","0","arrowright","1","arrowright","[0.15,0.85,0.675,0.325]","","",""
"sailing-trial","424","5368251","0.0-11.0-379.0","","","","","","false","","","","","","","","null","","753.7000000178814","","2","1","null","null","arrowup","[0.15,0.85,0.675,0.325]","","",""
"sailing-trial","425","5371673","0.0-11.0-380.0","","","","","","false","","","","","","","","692.5","","39.099999994039536","","0","0","arrowleft","0","arrowleft","[0.15,0.85,0.675,0.325]","","",""
"sailing-trial","426","5374986","0.0-11.0-381.0","","","","","","false","","","","","","","","null","","1005.5999999940395","","1","1","null","null","arrowup","[0.15,0.85,0.675,0.325]","","",""
"sailing-trial","427","5378522","0.0-11.0-382.0","","","","","","false","","","","","","","","671.4000000059605","","340","","3","0","arrowright","1","arrowright","[0.15,0.85,0.675,0.325]","","",""
"sailing-trial","428","5381354","0.0-11.0-383.0","","","","","","false","","","","","","","","null","","523.8000000119209","","2","1","null","null","arrowup","[0.15,0.85,0.675,0.325]","","",""
"sailing-trial","429","5385113","0.0-11.0-384.0","","","","","","false","","","","","","","","642.5999999940395","","117.69999998807907","","2","1","arrowright","1","arrowleft","[0.325,0.675,0.85,0.15]","","",""
"sailing-trial","430","5387962","0.0-11.0-385.0","","","","","","false","","","","","","","","null","","938.6000000238419","","1","1","null","null","arrowup","[0.325,0.675,0.85,0.15]","","",""
"sailing-trial","431","5392698","0.0-11.0-386.0","","","","","","false","","","","","","","","733.4000000059605","","280.69999998807907","","1","1","arrowleft","0","arrowright","[0.325,0.675,0.85,0.15]","","",""
"sailing-trial","432","5395578","0.0-11.0-387.0","","","","","","false","","","","","","","","null","","1458.300000011921","","0","0","null","null","arrowup","[0.325,0.675,0.85,0.15]","","",""
"sailing-trial","433","5399690","0.0-11.0-388.0","","","","","","false","","","","","","","","1127.5999999940395","","331.5","","2","0","arrowright","1","arrowleft","[0.325,0.675,0.85,0.15]","","",""
"sailing-trial","434","5402554","0.0-11.0-389.0","","","","","","false","","","","","","","","null","","844.5","","2","1","null","null","arrowup","[0.325,0.675,0.85,0.15]","","",""
"sailing-trial","435","5406042","0.0-11.0-390.0","","","","","","false","","","","","","","","579.1000000238419","","195","","0","0","arrowleft","0","arrowleft","[0.325,0.675,0.85,0.15]","","",""
"sailing-trial","436","5408874","0.0-11.0-391.0","","","","","","false","","","","","","","","null","","838.5","","1","1","null","null","arrowup","[0.325,0.675,0.85,0.15]","","",""
"sailing-trial","437","5412265","0.0-11.0-392.0","","","","","","false","","","","","","","","585.2999999821186","","271.10000002384186","","1","0","arrowleft","0","arrowright","[0.325,0.675,0.85,0.15]","","",""
"sailing-trial","438","5415081","0.0-11.0-393.0","","","","","","false","","","","","","","","null","","952.2000000178814","","1","1","null","null","arrowup","[0.325,0.675,0.85,0.15]","","",""
"sailing-trial","439","5418330","0.0-11.0-394.0","","","","","","false","","","","","","","","503.09999999403954","","47.30000001192093","","3","0","arrowright","1","arrowright","[0.325,0.675,0.85,0.15]","","",""
"sailing-trial","440","5420762","0.0-11.0-395.0","","","","","","false","","","","","","","","null","","754.0999999940395","","0","0","null","null","arrowup","[0.325,0.675,0.85,0.15]","","",""
"sailing-trial","441","5424777","0.0-11.0-396.0","","","","","","false","","","","","","","","758.3999999761581","","242.59999999403954","","2","1","arrowright","1","arrowleft","[0.325,0.675,0.85,0.15]","","",""
"sailing-trial","442","5426873","0.0-11.0-397.0","","","","","","false","","","","","","","","null","","717.8000000119209","","3","0","null","null","arrowup","[0.325,0.675,0.85,0.15]","","",""
"sailing-trial","443","5430041","0.0-11.0-398.0","","","","","","false","","","","","","","","579.8000000119209","","118.59999999403954","","0","0","arrowleft","0","arrowleft","[0.325,0.675,0.85,0.15]","","",""
"sailing-trial","444","5432938","0.0-11.0-399.0","","","","","","false","","","","","","","","null","","1066.0999999940395","","2","1","null","null","arrowup","[0.325,0.675,0.85,0.15]","","",""
"instructions","445","5440651","0.0-12.0","","","","","","","","","","7712","","","","","","","","","","","","","","","","[{""page_index"":0,""viewing_time"":7711.4000000059605}]"
"survey-debrief","446","5504862","0.0-13.0","","","","","","","","","","64209","","","","","","","","","","","","","","{""difficulty"":""5"",""fun"":""4"",""clarity"":""5"",""strategy"":""Yeah, I basically relied on the stores that were giving the most gold and transition to the store that mostly likely have treasure."",""feedback"":""No""}","",""
