"trial_type","trial_index","time_elapsed","internal_node_id","value","metadata","success","timeout","failed_images","failed_audio","failed_video","browser_interaction","low_quality","rt","stimulus","response","button_pressed","island_rt","island_response","boat_rt","boat_response","boat","reward","island_key","island","boat_key","reward_probabilities","responses","num_errors","view_history"
"pavlovia","0","4","0.0-0.0","","","","","","","","","","","","","","","","","","","","","","","","","",""
"call-function","1","5","0.0-1.0","","{""task_version"":""sailing_part1_v1"",""task_condition"":""good"",""boats"":[""A"",""D"",""B"",""C""],""boats_demo"":[""G"",""F"",""H"",""E""],""islands"":[""B"",""A""],""subject_id"":""14372"",""age"":""17"",""gender"":""Male""}","","","","","","","","","","","","","","","","","","","","","","","",""
"preload","2","1810","0.0-2.0","","","true","false","[]","[]","[]","[{""event"":""fullscreenenter"",""trial"":3,""time"":4120}]","false","","","","","","","","","","","","","","","","",""
"fullscreen","3","5094","0.0-3.0","","","true","","","","","","","","","","","","","","","","","","","","","","",""
"audio-keyboard-response","4","6935","0.0-4.0-0.0","","","","","","","","","","1824","audio/beep_loop.wav"," ","","","","","","","","","","","","","",""
"audio-test","5","8430","0.0-4.0-1.0","","","","","","","","","","null","audio/turtle.mp3","","3","","","","","","","","","","","","",""
"audio-test","6","10758","0.0-4.0-2.0","","","","","","","","","","null","audio/shark.mp3","","2","","","","","","","","","","","","",""
"sailing-instructions","7","46553","0.0-5.0-0.0-0.0","","","","","","","","","","","","","","null","null","null","null","null","null","","","","","","",""
"sailing-trial","8","50777","0.0-5.0-0.0-1.0-0.0","","","","false","","","","","","","","","","3091.300003051758","","null","","null","null","arrowleft","0","null","null","","",""
"sailing-trial","9","53147","0.0-5.0-0.0-1.0-1.0","","","","false","","","","","","","","","","1249.400001525879","","null","","null","null","arrowright","1","null","null","","",""
"sailing-trial","10","56659","0.0-5.0-0.0-1.0-2.0","","","","false","","","","","","","","","","2360.199996948242","","null","","null","null","arrowleft","0","null","null","","",""
"sailing-instructions","11","104257","0.0-5.0-0.0-2.0","","","","","","","","","","","","","","null","null","null","null","0","null","","","","","","",""
"sailing-trial","12","111555","0.0-5.0-0.0-3.0-0.0","","","","false","","","","","","","","","","null","","3325","","2","1","null","null","arrowleft","[1,1,1,1]","","",""
"sailing-trial","13","116544","0.0-5.0-0.0-3.0-1.0","","","","false","","","","","","","","","","null","","2336.900001525879","","3","1","null","null","arrowright","[1,1,1,1]","","",""
"sailing-trial","14","120835","0.0-5.0-0.0-3.0-2.0","","","","false","","","","","","","","","","null","","837.7999954223633","","2","0","null","null","arrowleft","[0,0,0,0]","","",""
"sailing-instructions","15","129440","0.0-5.0-0.0-4.0","","","","","","","","","","","","","","null","null","null","null","null","null","","","","","","",""
"sailing-comprehension","16","143196","0.0-5.0-0.0-5.0","","","","","","","","","","10939.399993896484","","","","","","","","","","","","","","[""true"",""true"",""false"",""true""]","0",""
"sailing-instructions","17","205992","0.0-6.0-0.0-0.0","","","","","","","","","","","","","","null","null","null","null","null","null","","","","","","",""
"sailing-comprehension","18","219667","0.0-6.0-0.0-1.0","","","","","","","","","","11592.700004577637","","","","","","","","","","","","","","[""true"",""false"",""true""]","0",""
"sailing-instructions","19","234481","0.0-7.0-0.0-0.0","","","","","","","","","","","","","","null","null","null","null","null","null","","","","","","",""
"sailing-trial","20","241351","0.0-7.0-0.0-1.0-0.0","","","","false","","","","","","","","","","null","","4006.099998474121","","0","0","null","null","arrowup","[0.2,0.8,0.2,0.8]","","",""
"sailing-trial","21","245520","0.0-7.0-0.0-1.0-1.0","","","","false","","","","","","","","","","null","","2128.900001525879","","1","1","null","null","arrowup","[0.2,0.8,0.2,0.8]","","",""
"sailing-trial","22","248833","0.0-7.0-0.0-1.0-2.0","","","","false","","","","","","","","","","null","","1724.3000030517578","","2","0","null","null","arrowup","[0.2,0.8,0.2,0.8]","","",""
"sailing-trial","23","251333","0.0-7.0-0.0-1.0-3.0","","","","false","","","","","","","","","","null","","874.5999984741211","","3","0","null","null","arrowup","[0.2,0.8,0.2,0.8]","","",""
"sailing-comprehension","24","257902","0.0-7.0-0.0-2.0","","","","","","","","","","5161.299995422363","","","","","","","","","","","","","","[""false""]","0",""
"sailing-instructions","25","269448","0.0-8.0-0.0-0.0","","","","","","","","","","","","","","null","null","null","null","null","null","","","","","","",""
"sailing-comprehension","26","274405","0.0-8.0-0.0-1.0","","","","","","","","","","3596.199996948242","","","","","","","","","","","","","","[""true""]","0",""
"sailing-instructions","27","305339","0.0-9.0-0.0-0.0","","","","","","","","","","","","","","null","null","null","null","null","null","","","","","","",""
"sailing-trial","28","312251","0.0-9.0-0.0-1.0-0.0","","","","false","","","","","","","","","","1955.099998474121","","791.7000045776367","","3","1","arrowright","1","arrowright","[0.2,0.8,0.2,0.8]","","",""
"sailing-trial","29","316604","0.0-9.0-0.0-1.0-1.0","","","","false","","","","","","","","","","1485.1999969482422","","128.39999389648438","","0","0","arrowleft","0","arrowleft","[0.2,0.8,0.2,0.8]","","",""
"sailing-trial","30","319847","0.0-9.0-0.0-1.0-2.0","","","","false","","","","","","","","","","null","","1295.3000030517578","","0","0","null","null","arrowup","[0.2,0.8,0.2,0.8]","","",""
"sailing-trial","31","323422","0.0-9.0-0.0-1.0-3.0","","","","false","","","","","","","","","","874.5","","92.0999984741211","","2","0","arrowright","1","arrowleft","[0.2,0.8,0.2,0.8]","","",""
"sailing-trial","32","326523","0.0-9.0-0.0-1.0-4.0","","","","false","","","","","","","","","","null","","1180.1999969482422","","3","1","null","null","arrowup","[0.2,0.8,0.2,0.8]","","",""
"sailing-trial","33","331671","0.0-9.0-0.0-1.0-5.0","","","","false","","","","","","","","","","2068.8999938964844","","659.5999984741211","","0","0","arrowleft","0","arrowleft","[0.2,0.8,0.2,0.8]","","",""
"sailing-instructions","34","361117","0.0-10.0","","","","","","","","","","","","","","null","null","null","null","null","null","","","","","","",""
"sailing-trial","35","367025","0.0-11.0-0.0","","","","false","","","","","","","","","","2731.900001525879","","52","","1","1","arrowleft","0","arrowright","[0.325,0.675,0.85,0.15]","","",""
"sailing-trial","36","370102","0.0-11.0-1.0","","","","false","","","","","","","","","","null","","1386.099998474121","","3","0","null","null","arrowup","[0.325,0.675,0.85,0.15]","","",""
"sailing-trial","37","374483","0.0-11.0-2.0","","","","false","","","","","","","","","","1436.400001525879","","217.5","","3","0","arrowright","1","arrowright","[0.325,0.675,0.85,0.15]","","",""
"sailing-trial","38","377601","0.0-11.0-3.0","","","","false","","","","","","","","","","null","","1080.3000030517578","","2","1","null","null","arrowup","[0.325,0.675,0.85,0.15]","","",""
"sailing-trial","39","382839","0.0-11.0-4.0","","","","false","","","","","","","","","","650.1999969482422","","1469.8000030517578","","1","1","arrowleft","0","arrowright","[0.325,0.675,0.85,0.15]","","",""
"sailing-trial","40","385382","0.0-11.0-5.0","","","","false","","","","","","","","","","null","","1180.900001525879","","0","0","null","null","arrowup","[0.325,0.675,0.85,0.15]","","",""
"sailing-trial","41","389707","0.0-11.0-6.0","","","","false","","","","","","","","","","1196.900001525879","","40.19999694824219","","2","1","arrowright","1","arrowleft","[0.325,0.675,0.85,0.15]","","",""
"sailing-trial","42","392192","0.0-11.0-7.0","","","","false","","","","","","","","","","null","","1174.8000030517578","","1","0","null","null","arrowup","[0.325,0.675,0.85,0.15]","","",""
"sailing-trial","43","396755","0.0-11.0-8.0","","","","false","","","","","","","","","","850.5999984741211","","914.6999969482422","","1","0","arrowleft","0","arrowright","[0.325,0.675,0.85,0.15]","","",""
"sailing-trial","44","399463","0.0-11.0-9.0","","","","false","","","","","","","","","","null","","1353.2999954223633","","1","0","null","null","arrowup","[0.325,0.675,0.85,0.15]","","",""
"sailing-trial","45","403281","0.0-11.0-10.0","","","","false","","","","","","","","","","682.4000015258789","","36.599998474121094","","2","1","arrowright","1","arrowleft","[0.325,0.675,0.85,0.15]","","",""
"sailing-trial","46","405980","0.0-11.0-11.0","","","","false","","","","","","","","","","null","","853.6999969482422","","1","1","null","null","arrowup","[0.325,0.675,0.85,0.15]","","",""
"sailing-trial","47","409061","0.0-11.0-12.0","","","","false","","","","","","","","","","551.7000045776367","","12.400001525878906","","2","0","arrowright","1","arrowleft","[0.325,0.675,0.85,0.15]","","",""
"sailing-trial","48","411905","0.0-11.0-13.0","","","","false","","","","","","","","","","null","","1031.400001525879","","2","1","null","null","arrowup","[0.325,0.675,0.85,0.15]","","",""
"sailing-trial","49","416220","0.0-11.0-14.0","","","","false","","","","","","","","","","585.9000015258789","","671.8000030517578","","2","1","arrowright","1","arrowleft","[0.325,0.675,0.85,0.15]","","",""
"sailing-trial","50","419101","0.0-11.0-15.0","","","","false","","","","","","","","","","null","","963.6999969482422","","0","1","null","null","arrowup","[0.325,0.675,0.85,0.15]","","",""
"sailing-trial","51","422866","0.0-11.0-16.0","","","","false","","","","","","","","","","462.3000030517578","","207","","2","1","arrowright","1","arrowleft","[0.15,0.85,0.675,0.325]","","",""
"sailing-trial","52","425416","0.0-11.0-17.0","","","","false","","","","","","","","","","null","","1119.5","","1","0","null","null","arrowup","[0.15,0.85,0.675,0.325]","","",""
"sailing-trial","53","430297","0.0-11.0-18.0","","","","false","","","","","","","","","","664.5","","497.1000061035156","","2","1","arrowright","1","arrowleft","[0.15,0.85,0.675,0.325]","","",""
"sailing-trial","54","432724","0.0-11.0-19.0","","","","false","","","","","","","","","","null","","1074.1000061035156","","0","0","null","null","arrowup","[0.15,0.85,0.675,0.325]","","",""
"sailing-trial","55","436466","0.0-11.0-20.0","","","","false","","","","","","","","","","602.1999969482422","","637.8999938964844","","2","0","arrowright","1","arrowleft","[0.15,0.85,0.675,0.325]","","",""
"sailing-trial","56","438787","0.0-11.0-21.0","","","","false","","","","","","","","","","null","","999.4000015258789","","3","0","null","null","arrowup","[0.15,0.85,0.675,0.325]","","",""
"sailing-trial","57","442573","0.0-11.0-22.0","","","","false","","","","","","","","","","507.7999954223633","","512.2999954223633","","2","0","arrowright","1","arrowleft","[0.15,0.85,0.675,0.325]","","",""
"sailing-trial","58","444873","0.0-11.0-23.0","","","","false","","","","","","","","","","null","","961.4000015258789","","0","0","null","null","arrowup","[0.15,0.85,0.675,0.325]","","",""
"sailing-trial","59","448975","0.0-11.0-24.0","","","","false","","","","","","","","","","621.0999984741211","","473","","2","1","arrowright","1","arrowleft","[0.15,0.85,0.675,0.325]","","",""
"sailing-trial","60","451307","0.0-11.0-25.0","","","","false","","","","","","","","","","null","","1028.900001525879","","3","0","null","null","arrowup","[0.15,0.85,0.675,0.325]","","",""
"sailing-trial","61","455347","0.0-11.0-26.0","","","","false","","","","","","","","","","638.6999969482422","","477.6999969482422","","2","1","arrowright","1","arrowleft","[0.15,0.85,0.675,0.325]","","",""
"sailing-trial","62","457279","0.0-11.0-27.0","","","","false","","","","","","","","","","null","","528.7000045776367","","0","0","null","null","arrowup","[0.15,0.85,0.675,0.325]","","",""
"sailing-trial","63","461472","0.0-11.0-28.0","","","","false","","","","","","","","","","606.5999984741211","","672.7000045776367","","2","1","arrowright","1","arrowleft","[0.15,0.85,0.675,0.325]","","",""
"sailing-trial","64","464211","0.0-11.0-29.0","","","","false","","","","","","","","","","null","","871.1999969482422","","3","1","null","null","arrowup","[0.15,0.85,0.675,0.325]","","",""
"sailing-trial","65","468256","0.0-11.0-30.0","","","","false","","","","","","","","","","601.1999969482422","","519.7000045776367","","2","1","arrowright","1","arrowleft","[0.15,0.85,0.675,0.325]","","",""
"sailing-trial","66","471226","0.0-11.0-31.0","","","","false","","","","","","","","","","null","","1124.3000030517578","","3","1","null","null","arrowup","[0.15,0.85,0.675,0.325]","","",""
"sailing-trial","67","475140","0.0-11.0-32.0","","","","false","","","","","","","","","","557.7999954223633","","436.7000045776367","","2","1","arrowright","1","arrowleft","[0.15,0.85,0.675,0.325]","","",""
"sailing-trial","68","477202","0.0-11.0-33.0","","","","false","","","","","","","","","","null","","713","","2","0","null","null","arrowup","[0.15,0.85,0.675,0.325]","","",""
"sailing-trial","69","481136","0.0-11.0-34.0","","","","false","","","","","","","","","","622","","446.4000015258789","","2","1","arrowright","1","arrowleft","[0.15,0.85,0.675,0.325]","","",""
"sailing-trial","70","483669","0.0-11.0-35.0","","","","false","","","","","","","","","","null","","691.5999984741211","","3","1","null","null","arrowup","[0.15,0.85,0.675,0.325]","","",""
"sailing-trial","71","487039","0.0-11.0-36.0","","","","false","","","","","","","","","","536","","20.5","","2","1","arrowright","1","arrowleft","[0.325,0.675,0.85,0.15]","","",""
"sailing-trial","72","488916","0.0-11.0-37.0","","","","false","","","","","","","","","","null","","587.9000015258789","","1","0","null","null","arrowup","[0.325,0.675,0.85,0.15]","","",""
"sailing-trial","73","492706","0.0-11.0-38.0","","","","false","","","","","","","","","","639.0999984741211","","207.70000457763672","","2","1","arrowright","1","arrowleft","[0.325,0.675,0.85,0.15]","","",""
"sailing-trial","74","495767","0.0-11.0-39.0","","","","false","","","","","","","","","","null","","869.4000015258789","","1","0","null","null","arrowup","[0.325,0.675,0.85,0.15]","","",""
"sailing-trial","75","500267","0.0-11.0-40.0","","","","false","","","","","","","","","","697.7999954223633","","14.199996948242188","","2","1","arrowright","1","arrowleft","[0.325,0.675,0.85,0.15]","","",""
"sailing-trial","76","502786","0.0-11.0-41.0","","","","false","","","","","","","","","","null","","639.0999984741211","","2","1","null","null","arrowup","[0.325,0.675,0.85,0.15]","","",""
"sailing-trial","77","506284","0.0-11.0-42.0","","","","false","","","","","","","","","","588.3000030517578","","76","","2","1","arrowright","1","arrowleft","[0.325,0.675,0.85,0.15]","","",""
"sailing-trial","78","508798","0.0-11.0-43.0","","","","false","","","","","","","","","","null","","695.8000030517578","","2","1","null","null","arrowup","[0.325,0.675,0.85,0.15]","","",""
"sailing-trial","79","512454","0.0-11.0-44.0","","","","false","","","","","","","","","","395.5","","95.9000015258789","","2","1","arrowright","1","arrowleft","[0.325,0.675,0.85,0.15]","","",""
"sailing-trial","80","514396","0.0-11.0-45.0","","","","false","","","","","","","","","","null","","649.5","","3","0","null","null","arrowup","[0.325,0.675,0.85,0.15]","","",""
"sailing-trial","81","518431","0.0-11.0-46.0","","","","false","","","","","","","","","","608.6999969482422","","673.9000015258789","","2","1","arrowright","1","arrowleft","[0.325,0.675,0.85,0.15]","","",""
"sailing-trial","82","520994","0.0-11.0-47.0","","","","false","","","","","","","","","","null","","614.5","","3","0","null","null","arrowup","[0.325,0.675,0.85,0.15]","","",""
"sailing-trial","83","524552","0.0-11.0-48.0","","","","false","","","","","","","","","","582.3999938964844","","159","","2","1","arrowright","1","arrowleft","[0.325,0.675,0.85,0.15]","","",""
"sailing-trial","84","526572","0.0-11.0-49.0","","","","false","","","","","","","","","","null","","703.8000030517578","","1","0","null","null","arrowup","[0.325,0.675,0.85,0.15]","","",""
"sailing-trial","85","530033","0.0-11.0-50.0","","","","false","","","","","","","","","","562.9000015258789","","18.099998474121094","","2","1","arrowright","1","arrowleft","[0.325,0.675,0.85,0.15]","","",""
"sailing-trial","86","531978","0.0-11.0-51.0","","","","false","","","","","","","","","","null","","693","","3","0","null","null","arrowup","[0.325,0.675,0.85,0.15]","","",""
"sailing-trial","87","535883","0.0-11.0-52.0","","","","false","","","","","","","","","","425.5999984741211","","623.1999969482422","","2","1","arrowright","1","arrowleft","[0.325,0.675,0.85,0.15]","","",""
"sailing-trial","88","538078","0.0-11.0-53.0","","","","false","","","","","","","","","","null","","533.5999984741211","","0","0","null","null","arrowup","[0.325,0.675,0.85,0.15]","","",""
"sailing-trial","89","541380","0.0-11.0-54.0","","","","false","","","","","","","","","","495.9000015258789","","61.30000305175781","","2","1","arrowright","1","arrowleft","[0.15,0.85,0.675,0.325]","","",""
"sailing-trial","90","543239","0.0-11.0-55.0","","","","false","","","","","","","","","","null","","539.2000045776367","","1","0","null","null","arrowup","[0.15,0.85,0.675,0.325]","","",""
"sailing-trial","91","546694","0.0-11.0-56.0","","","","false","","","","","","","","","","511.8000030517578","","178.29999542236328","","2","1","arrowright","1","arrowleft","[0.15,0.85,0.675,0.325]","","",""
"sailing-trial","92","548624","0.0-11.0-57.0","","","","false","","","","","","","","","","null","","736.2000045776367","","0","0","null","null","arrowup","[0.15,0.85,0.675,0.325]","","",""
"sailing-trial","93","551981","0.0-11.0-58.0","","","","false","","","","","","","","","","437.4000015258789","","126.30000305175781","","2","1","arrowright","1","arrowleft","[0.15,0.85,0.675,0.325]","","",""
"sailing-trial","94","554348","0.0-11.0-59.0","","","","false","","","","","","","","","","null","","644.4000015258789","","0","1","null","null","arrowup","[0.15,0.85,0.675,0.325]","","",""
"sailing-trial","95","557810","0.0-11.0-60.0","","","","false","","","","","","","","","","425.2999954223633","","235.5","","2","1","arrowright","1","arrowleft","[0.15,0.85,0.675,0.325]","","",""
"sailing-trial","96","559721","0.0-11.0-61.0","","","","false","","","","","","","","","","null","","635.4000015258789","","0","0","null","null","arrowup","[0.15,0.85,0.675,0.325]","","",""
"sailing-trial","97","563575","0.0-11.0-62.0","","","","false","","","","","","","","","","458.8999938964844","","339.3000030517578","","2","1","arrowright","1","arrowleft","[0.15,0.85,0.675,0.325]","","",""
"sailing-trial","98","566043","0.0-11.0-63.0","","","","false","","","","","","","","","","null","","634","","1","1","null","null","arrowup","[0.15,0.85,0.675,0.325]","","",""
"sailing-trial","99","569154","0.0-11.0-64.0","","","","false","","","","","","","","","","484.5","","328.3000030517578","","2","0","arrowright","1","arrowleft","[0.15,0.85,0.675,0.325]","","",""
"sailing-trial","100","571741","0.0-11.0-65.0","","","","false","","","","","","","","","","null","","777.9000015258789","","1","1","null","null","arrowup","[0.15,0.85,0.675,0.325]","","",""
"sailing-trial","101","574603","0.0-11.0-66.0","","","","false","","","","","","","","","","424.8000030517578","","0.8000030517578125","","2","0","arrowright","1","arrowleft","[0.15,0.85,0.675,0.325]","","",""
"sailing-trial","102","576678","0.0-11.0-67.0","","","","false","","","","","","","","","","null","","794.9000015258789","","3","0","null","null","arrowup","[0.15,0.85,0.675,0.325]","","",""
"sailing-trial","103","580272","0.0-11.0-68.0","","","","false","","","","","","","","","","530.1000061035156","","68.5999984741211","","2","1","arrowright","1","arrowleft","[0.15,0.85,0.675,0.325]","","",""
"sailing-trial","104","581982","0.0-11.0-69.0","","","","false","","","","","","","","","","null","","405.5","","2","0","null","null","arrowup","[0.15,0.85,0.675,0.325]","","",""
"sailing-trial","105","586120","0.0-11.0-70.0","","","","false","","","","","","","","","","525.5999984741211","","616.5","","2","0","arrowright","1","arrowleft","[0.15,0.85,0.675,0.325]","","",""
"sailing-trial","106","588030","0.0-11.0-71.0","","","","false","","","","","","","","","","null","","636.5","","0","0","null","null","arrowup","[0.15,0.85,0.675,0.325]","","",""
"sailing-trial","107","591031","0.0-11.0-72.0","","","","false","","","","","","","","","","536.7000045776367","","45.5","","2","0","arrowright","1","arrowleft","[0.85,0.15,0.325,0.675]","","",""
"sailing-trial","108","593674","0.0-11.0-73.0","","","","false","","","","","","","","","","null","","766.8000030517578","","0","1","null","null","arrowup","[0.85,0.15,0.325,0.675]","","",""
"sailing-trial","109","597460","0.0-11.0-74.0","","","","false","","","","","","","","","","93.30000305175781","","1291.2999954223633","","3","0","arrowright","1","arrowright","[0.85,0.15,0.325,0.675]","","",""
"sailing-trial","110","599573","0.0-11.0-75.0","","","","false","","","","","","","","","","null","","725.5999984741211","","2","0","null","null","arrowup","[0.85,0.15,0.325,0.675]","","",""
"sailing-trial","111","603735","0.0-11.0-76.0","","","","false","","","","","","","","","","537.0999984741211","","786.4000015258789","","3","1","arrowright","1","arrowright","[0.85,0.15,0.325,0.675]","","",""
"sailing-trial","112","607034","0.0-11.0-77.0","","","","false","","","","","","","","","","null","","1460.2999954223633","","3","1","null","null","arrowup","[0.85,0.15,0.325,0.675]","","",""
"sailing-trial","113","610382","0.0-11.0-78.0","","","","false","","","","","","","","","","478.9000015258789","","440.9000015258789","","3","0","arrowright","1","arrowright","[0.85,0.15,0.325,0.675]","","",""
"sailing-trial","114","613206","0.0-11.0-79.0","","","","false","","","","","","","","","","null","","1041.599998474121","","0","1","null","null","arrowup","[0.85,0.15,0.325,0.675]","","",""
"sailing-trial","115","616707","0.0-11.0-80.0","","","","false","","","","","","","","","","566.8000030517578","","144.79999542236328","","0","1","arrowleft","0","arrowleft","[0.85,0.15,0.325,0.675]","","",""
"sailing-trial","116","619733","0.0-11.0-81.0","","","","false","","","","","","","","","","null","","905.6999969482422","","2","1","null","null","arrowup","[0.85,0.15,0.325,0.675]","","",""
"sailing-trial","117","624450","0.0-11.0-82.0","","","","false","","","","","","","","","","485.8000030517578","","1251.3999938964844","","0","1","arrowleft","0","arrowleft","[0.85,0.15,0.325,0.675]","","",""
"sailing-trial","118","626338","0.0-11.0-83.0","","","","false","","","","","","","","","","null","","636.2000045776367","","2","0","null","null","arrowup","[0.85,0.15,0.325,0.675]","","",""
"sailing-trial","119","630248","0.0-11.0-84.0","","","","false","","","","","","","","","","712.9000015258789","","372.0999984741211","","0","1","arrowleft","0","arrowleft","[0.85,0.15,0.325,0.675]","","",""
"sailing-trial","120","632781","0.0-11.0-85.0","","","","false","","","","","","","","","","null","","661.5","","0","1","null","null","arrowup","[0.85,0.15,0.325,0.675]","","",""
"sailing-trial","121","637453","0.0-11.0-86.0","","","","false","","","","","","","","","","496.7000045776367","","850.6999969482422","","0","1","arrowleft","0","arrowleft","[0.85,0.15,0.325,0.675]","","",""
"sailing-trial","122","639803","0.0-11.0-87.0","","","","false","","","","","","","","","","null","","1111.599998474121","","3","0","null","null","arrowup","[0.85,0.15,0.325,0.675]","","",""
"sailing-trial","123","643045","0.0-11.0-88.0","","","","false","","","","","","","","","","667.8000030517578","","41.400001525878906","","0","0","arrowleft","0","arrowleft","[0.85,0.15,0.325,0.675]","","",""
"sailing-trial","124","645161","0.0-11.0-89.0","","","","false","","","","","","","","","","null","","770.3999938964844","","1","0","null","null","arrowup","[0.85,0.15,0.325,0.675]","","",""
"sailing-trial","125","648631","0.0-11.0-90.0","","","","false","","","","","","","","","","564.7000045776367","","61.900001525878906","","0","1","arrowleft","0","arrowleft","[0.85,0.15,0.325,0.675]","","",""
"sailing-trial","126","651547","0.0-11.0-91.0","","","","false","","","","","","","","","","null","","1093.3999938964844","","3","1","null","null","arrowup","[0.85,0.15,0.325,0.675]","","",""
"sailing-trial","127","654962","0.0-11.0-92.0","","","","false","","","","","","","","","","486.3000030517578","","91.10000610351562","","0","1","arrowleft","0","arrowleft","[0.85,0.15,0.325,0.675]","","",""
"sailing-trial","128","656734","0.0-11.0-93.0","","","","false","","","","","","","","","","null","","468.7999954223633","","2","0","null","null","arrowup","[0.85,0.15,0.325,0.675]","","",""
"sailing-trial","129","661544","0.0-11.0-94.0","","","","false","","","","","","","","","","491.1999969482422","","1462.8000030517578","","0","1","arrowleft","0","arrowleft","[0.675,0.325,0.15,0.85]","","",""
"sailing-trial","130","663542","0.0-11.0-95.0","","","","false","","","","","","","","","","null","","751.6000061035156","","1","0","null","null","arrowup","[0.675,0.325,0.15,0.85]","","",""
"sailing-trial","131","666761","0.0-11.0-96.0","","","","false","","","","","","","","","","517.5","","317.6999969482422","","0","0","arrowleft","0","arrowleft","[0.675,0.325,0.15,0.85]","","",""
"sailing-trial","132","668794","0.0-11.0-97.0","","","","false","","","","","","","","","","null","","749.0999984741211","","2","0","null","null","arrowup","[0.675,0.325,0.15,0.85]","","",""
"sailing-trial","133","672162","0.0-11.0-98.0","","","","false","","","","","","","","","","457.6999969482422","","48","","0","1","arrowleft","0","arrowleft","[0.675,0.325,0.15,0.85]","","",""
"sailing-trial","134","674449","0.0-11.0-99.0","","","","false","","","","","","","","","","null","","368.7999954223633","","0","1","null","null","arrowup","[0.675,0.325,0.15,0.85]","","",""
"sailing-trial","135","677376","0.0-11.0-100.0","","","","false","","","","","","","","","","471.6999969482422","","112.9000015258789","","0","0","arrowleft","0","arrowleft","[0.675,0.325,0.15,0.85]","","",""
"sailing-trial","136","679451","0.0-11.0-101.0","","","","false","","","","","","","","","","null","","800.5999984741211","","1","0","null","null","arrowup","[0.675,0.325,0.15,0.85]","","",""
"sailing-trial","137","682768","0.0-11.0-102.0","","","","false","","","","","","","","","","492.7999954223633","","5.099998474121094","","0","1","arrowleft","0","arrowleft","[0.675,0.325,0.15,0.85]","","",""
"sailing-trial","138","684542","0.0-11.0-103.0","","","","false","","","","","","","","","","null","","461.5","","0","0","null","null","arrowup","[0.675,0.325,0.15,0.85]","","",""
"sailing-trial","139","689049","0.0-11.0-104.0","","","","false","","","","","","","","","","446.1999969482422","","1231.3000030517578","","0","1","arrowleft","0","arrowleft","[0.675,0.325,0.15,0.85]","","",""
"sailing-trial","140","691209","0.0-11.0-105.0","","","","false","","","","","","","","","","null","","164.8000030517578","","2","1","null","null","arrowup","[0.675,0.325,0.15,0.85]","","",""
"sailing-trial","141","694225","0.0-11.0-106.0","","","","false","","","","","","","","","","108.5","","41.599998474121094","","0","1","arrowleft","0","arrowleft","[0.675,0.325,0.15,0.85]","","",""
"sailing-trial","142","696842","0.0-11.0-107.0","","","","false","","","","","","","","","","null","","164.8000030517578","","3","1","null","null","arrowup","[0.675,0.325,0.15,0.85]","","",""
"sailing-trial","143","700326","0.0-11.0-108.0","","","","false","","","","","","","","","","361.2000045776367","","307.2000045776367","","0","1","arrowleft","0","arrowleft","[0.675,0.325,0.15,0.85]","","",""
"sailing-trial","144","702324","0.0-11.0-109.0","","","","false","","","","","","","","","","null","","102.4000015258789","","0","1","null","null","arrowup","[0.675,0.325,0.15,0.85]","","",""
"sailing-trial","145","705546","0.0-11.0-110.0","","","","false","","","","","","","","","","317.6999969482422","","140.0999984741211","","0","1","arrowleft","0","arrowleft","[0.675,0.325,0.15,0.85]","","",""
"sailing-trial","146","707172","0.0-11.0-111.0","","","","false","","","","","","","","","","null","","323.9000015258789","","1","0","null","null","arrowup","[0.675,0.325,0.15,0.85]","","",""
"sailing-trial","147","710857","0.0-11.0-112.0","","","","false","","","","","","","","","","523.1999969482422","","309","","0","1","arrowleft","0","arrowleft","[0.85,0.15,0.325,0.675]","","",""
"sailing-trial","148","712472","0.0-11.0-113.0","","","","false","","","","","","","","","","null","","323.4000015258789","","1","0","null","null","arrowup","[0.85,0.15,0.325,0.675]","","",""
"sailing-trial","149","715845","0.0-11.0-114.0","","","","false","","","","","","","","","","542.4000015258789","","55.29999542236328","","0","1","arrowleft","0","arrowleft","[0.85,0.15,0.325,0.675]","","",""
"sailing-trial","150","717972","0.0-11.0-115.0","","","","false","","","","","","","","","","null","","417.5","","2","0","null","null","arrowup","[0.85,0.15,0.325,0.675]","","",""
"sailing-trial","151","722044","0.0-11.0-116.0","","","","false","","","","","","","","","","419.7000045776367","","715.5","","0","1","arrowleft","0","arrowleft","[0.85,0.15,0.325,0.675]","","",""
"sailing-trial","152","724605","0.0-11.0-117.0","","","","false","","","","","","","","","","null","","730.8000030517578","","0","1","null","null","arrowup","[0.85,0.15,0.325,0.675]","","",""
"sailing-trial","153","728178","0.0-11.0-118.0","","","","false","","","","","","","","","","427.6999969482422","","252.3000030517578","","0","1","arrowleft","0","arrowleft","[0.85,0.15,0.325,0.675]","","",""
"sailing-trial","154","731737","0.0-11.0-119.0","","","","false","","","","","","","","","","null","","1808.099998474121","","2","1","null","null","arrowup","[0.85,0.15,0.325,0.675]","","",""
"sailing-trial","155","735076","0.0-11.0-120.0","","","","false","","","","","","","","","","417","","30.5","","0","1","arrowleft","0","arrowleft","[0.85,0.15,0.325,0.675]","","",""
"sailing-trial","156","737424","0.0-11.0-121.0","","","","false","","","","","","","","","","null","","539.2999954223633","","2","1","null","null","arrowup","[0.85,0.15,0.325,0.675]","","",""
"sailing-trial","157","741686","0.0-11.0-122.0","","","","false","","","","","","","","","","630","","738.4000015258789","","0","1","arrowleft","0","arrowleft","[0.85,0.15,0.325,0.675]","","",""
"sailing-trial","158","743926","0.0-11.0-123.0","","","","false","","","","","","","","","","null","","820.2000045776367","","1","0","null","null","arrowup","[0.85,0.15,0.325,0.675]","","",""
"sailing-trial","159","747835","0.0-11.0-124.0","","","","false","","","","","","","","","","601.1999969482422","","386.3000030517578","","0","1","arrowleft","0","arrowleft","[0.85,0.15,0.325,0.675]","","",""
"sailing-trial","160","749917","0.0-11.0-125.0","","","","false","","","","","","","","","","null","","566.0999984741211","","3","0","null","null","arrowup","[0.85,0.15,0.325,0.675]","","",""
"sailing-trial","161","753452","0.0-11.0-126.0","","","","false","","","","","","","","","","521.5","","66.69999694824219","","0","1","arrowleft","0","arrowleft","[0.85,0.15,0.325,0.675]","","",""
"sailing-trial","162","756018","0.0-11.0-127.0","","","","false","","","","","","","","","","null","","684.4000015258789","","3","1","null","null","arrowup","[0.85,0.15,0.325,0.675]","","",""
"sailing-trial","163","759634","0.0-11.0-128.0","","","","false","","","","","","","","","","316.6999969482422","","456.2999954223633","","0","1","arrowleft","0","arrowleft","[0.85,0.15,0.325,0.675]","","",""
"sailing-trial","164","762221","0.0-11.0-129.0","","","","false","","","","","","","","","","null","","469.9000015258789","","2","1","null","null","arrowup","[0.85,0.15,0.325,0.675]","","",""
"sailing-trial","165","766456","0.0-11.0-130.0","","","","false","","","","","","","","","","386.7000045776367","","1389.599998474121","","0","0","arrowleft","0","arrowleft","[0.675,0.325,0.15,0.85]","","",""
"sailing-trial","166","768631","0.0-11.0-131.0","","","","false","","","","","","","","","","null","","834.5","","2","0","null","null","arrowup","[0.675,0.325,0.15,0.85]","","",""
"sailing-trial","167","771447","0.0-11.0-132.0","","","","false","","","","","","","","","","459.1999969482422","","33.400001525878906","","0","0","arrowleft","0","arrowleft","[0.675,0.325,0.15,0.85]","","",""
"sailing-trial","168","774015","0.0-11.0-133.0","","","","false","","","","","","","","","","null","","779.5999984741211","","2","1","null","null","arrowup","[0.675,0.325,0.15,0.85]","","",""
"sailing-trial","169","778847","0.0-11.0-134.0","","","","false","","","","","","","","","","445.8000030517578","","1399.1000061035156","","0","1","arrowleft","0","arrowleft","[0.675,0.325,0.15,0.85]","","",""
"sailing-trial","170","781182","0.0-11.0-135.0","","","","false","","","","","","","","","","null","","563.8000030517578","","0","1","null","null","arrowup","[0.675,0.325,0.15,0.85]","","",""
"sailing-trial","171","783814","0.0-11.0-136.0","","","","false","","","","","","","","","","145.0999984741211","","149.0999984741211","","0","0","arrowleft","0","arrowleft","[0.675,0.325,0.15,0.85]","","",""
"sailing-trial","172","786165","0.0-11.0-137.0","","","","false","","","","","","","","","","null","","572.2999954223633","","3","1","null","null","arrowup","[0.675,0.325,0.15,0.85]","","",""
"sailing-trial","173","789413","0.0-11.0-138.0","","","","false","","","","","","","","","","315.8000030517578","","105.5","","0","1","arrowleft","0","arrowleft","[0.675,0.325,0.15,0.85]","","",""
"sailing-trial","174","791632","0.0-11.0-139.0","","","","false","","","","","","","","","","null","","239.79999542236328","","3","1","null","null","arrowup","[0.675,0.325,0.15,0.85]","","",""
"sailing-trial","175","794795","0.0-11.0-140.0","","","","false","","","","","","","","","","318.6000061035156","","9.099998474121094","","0","1","arrowleft","0","arrowleft","[0.675,0.325,0.15,0.85]","","",""
"sailing-trial","176","796720","0.0-11.0-141.0","","","","false","","","","","","","","","","null","","670.6999969482422","","1","0","null","null","arrowup","[0.675,0.325,0.15,0.85]","","",""
"sailing-trial","177","800753","0.0-11.0-142.0","","","","false","","","","","","","","","","595.9000015258789","","963.5","","0","0","arrowleft","0","arrowleft","[0.675,0.325,0.15,0.85]","","",""
"sailing-trial","178","802960","0.0-11.0-143.0","","","","false","","","","","","","","","","null","","972.0999984741211","","0","0","null","null","arrowup","[0.675,0.325,0.15,0.85]","","",""
"sailing-trial","179","806385","0.0-11.0-144.0","","","","false","","","","","","","","","","569.2000045776367","","475.2999954223633","","0","0","arrowleft","0","arrowleft","[0.675,0.325,0.15,0.85]","","",""
"sailing-trial","180","808420","0.0-11.0-145.0","","","","false","","","","","","","","","","null","","769.6999969482422","","2","0","null","null","arrowup","[0.675,0.325,0.15,0.85]","","",""
"sailing-trial","181","813475","0.0-11.0-146.0","","","","false","","","","","","","","","","498.6000061035156","","1669.2000045776367","","0","1","arrowleft","0","arrowleft","[0.85,0.15,0.325,0.675]","","",""
"sailing-trial","182","815049","0.0-11.0-147.0","","","","false","","","","","","","","","","null","","460.2999954223633","","3","0","null","null","arrowup","[0.85,0.15,0.325,0.675]","","",""
"sailing-trial","183","818543","0.0-11.0-148.0","","","","false","","","","","","","","","","561.5","","674.9000015258789","","0","0","arrowleft","0","arrowleft","[0.85,0.15,0.325,0.675]","","",""
"sailing-trial","184","821558","0.0-11.0-149.0","","","","false","","","","","","","","","","null","","946.8000030517578","","2","1","null","null","arrowup","[0.85,0.15,0.325,0.675]","","",""
"sailing-trial","185","825509","0.0-11.0-150.0","","","","false","","","","","","","","","","339.7000045776367","","766.9000015258789","","3","1","arrowright","1","arrowright","[0.85,0.15,0.325,0.675]","","",""
"sailing-trial","186","827563","0.0-11.0-151.0","","","","false","","","","","","","","","","null","","758.6999969482422","","1","0","null","null","arrowup","[0.85,0.15,0.325,0.675]","","",""
"sailing-trial","187","832272","0.0-11.0-152.0","","","","false","","","","","","","","","","488.1999969482422","","786.0999984741211","","3","1","arrowright","1","arrowright","[0.85,0.15,0.325,0.675]","","",""
"sailing-trial","188","834672","0.0-11.0-153.0","","","","false","","","","","","","","","","null","","645.5","","3","1","null","null","arrowup","[0.85,0.15,0.325,0.675]","","",""
"sailing-trial","189","838139","0.0-11.0-154.0","","","","false","","","","","","","","","","503.7000045776367","","627.5","","3","0","arrowright","1","arrowright","[0.85,0.15,0.325,0.675]","","",""
"sailing-trial","190","840181","0.0-11.0-155.0","","","","false","","","","","","","","","","null","","656.8000030517578","","1","0","null","null","arrowup","[0.85,0.15,0.325,0.675]","","",""
"sailing-trial","191","843897","0.0-11.0-156.0","","","","false","","","","","","","","","","275.5999984741211","","376.2999954223633","","3","1","arrowright","1","arrowright","[0.85,0.15,0.325,0.675]","","",""
"sailing-trial","192","846194","0.0-11.0-157.0","","","","false","","","","","","","","","","null","","810.4000015258789","","2","0","null","null","arrowup","[0.85,0.15,0.325,0.675]","","",""
"sailing-trial","193","849977","0.0-11.0-158.0","","","","false","","","","","","","","","","358.0999984741211","","520.1999969482422","","3","1","arrowright","1","arrowright","[0.85,0.15,0.325,0.675]","","",""
"sailing-trial","194","852994","0.0-11.0-159.0","","","","false","","","","","","","","","","null","","1241.400001525879","","2","1","null","null","arrowup","[0.85,0.15,0.325,0.675]","","",""
"sailing-trial","195","856437","0.0-11.0-160.0","","","","false","","","","","","","","","","398.5999984741211","","124.19999694824219","","3","1","arrowright","1","arrowright","[0.85,0.15,0.325,0.675]","","",""
"sailing-trial","196","858669","0.0-11.0-161.0","","","","false","","","","","","","","","","null","","884.3000030517578","","3","0","null","null","arrowup","[0.85,0.15,0.325,0.675]","","",""
"sailing-trial","197","862385","0.0-11.0-162.0","","","","false","","","","","","","","","","448.7999954223633","","989.5999984741211","","3","0","arrowright","1","arrowright","[0.85,0.15,0.325,0.675]","","",""
"sailing-trial","198","867056","0.0-11.0-163.0","","","","false","","","","","","","","","","null","","876","","0","1","null","null","arrowup","[0.85,0.15,0.325,0.675]","","",""
"sailing-trial","199","871669","0.0-11.0-164.0","","","","false","","","","","","","","","","392.5999984741211","","1363.099998474121","","3","1","arrowright","1","arrowright","[0.675,0.325,0.15,0.85]","","",""
"sailing-trial","200","874088","0.0-11.0-165.0","","","","false","","","","","","","","","","null","","635.5","","0","1","null","null","arrowup","[0.675,0.325,0.15,0.85]","","",""
"sailing-trial","201","877807","0.0-11.0-166.0","","","","false","","","","","","","","","","406","","538.9000015258789","","3","1","arrowright","1","arrowright","[0.675,0.325,0.15,0.85]","","",""
"sailing-trial","202","880146","0.0-11.0-167.0","","","","false","","","","","","","","","","null","","1056.2999954223633","","2","0","null","null","arrowup","[0.675,0.325,0.15,0.85]","","",""
"sailing-trial","203","884021","0.0-11.0-168.0","","","","false","","","","","","","","","","579.1999969482422","","458","","3","1","arrowright","1","arrowright","[0.675,0.325,0.15,0.85]","","",""
"sailing-trial","204","886133","0.0-11.0-169.0","","","","false","","","","","","","","","","null","","429.6999969482422","","1","0","null","null","arrowup","[0.675,0.325,0.15,0.85]","","",""
"sailing-trial","205","890203","0.0-11.0-170.0","","","","false","","","","","","","","","","282.8000030517578","","890.7000045776367","","3","1","arrowright","1","arrowright","[0.675,0.325,0.15,0.85]","","",""
"sailing-trial","206","892521","0.0-11.0-171.0","","","","false","","","","","","","","","","null","","470.9000015258789","","1","1","null","null","arrowup","[0.675,0.325,0.15,0.85]","","",""
"sailing-trial","207","897488","0.0-11.0-172.0","","","","false","","","","","","","","","","283.2000045776367","","1648","","3","1","arrowright","1","arrowright","[0.675,0.325,0.15,0.85]","","",""
"sailing-trial","208","899932","0.0-11.0-173.0","","","","false","","","","","","","","","","null","","675.6000061035156","","0","1","null","null","arrowup","[0.675,0.325,0.15,0.85]","","",""
"sailing-trial","209","903751","0.0-11.0-174.0","","","","false","","","","","","","","","","514.8999938964844","","354.3000030517578","","3","1","arrowright","1","arrowright","[0.675,0.325,0.15,0.85]","","",""
"sailing-trial","210","906352","0.0-11.0-175.0","","","","false","","","","","","","","","","null","","703.3000030517578","","0","1","null","null","arrowup","[0.675,0.325,0.15,0.85]","","",""
"sailing-trial","211","909542","0.0-11.0-176.0","","","","false","","","","","","","","","","457.0999984741211","","335.5","","3","0","arrowright","1","arrowright","[0.675,0.325,0.15,0.85]","","",""
"sailing-trial","212","912279","0.0-11.0-177.0","","","","false","","","","","","","","","","null","","937.2000045776367","","1","1","null","null","arrowup","[0.675,0.325,0.15,0.85]","","",""
"sailing-trial","213","915801","0.0-11.0-178.0","","","","false","","","","","","","","","","450","","134.4000015258789","","3","1","arrowright","1","arrowright","[0.675,0.325,0.15,0.85]","","",""
"sailing-trial","214","917794","0.0-11.0-179.0","","","","false","","","","","","","","","","null","","550.7000045776367","","0","0","null","null","arrowup","[0.675,0.325,0.15,0.85]","","",""
"sailing-trial","215","920843","0.0-11.0-180.0","","","","false","","","","","","","","","","424.3000030517578","","80.4000015258789","","3","0","arrowright","1","arrowright","[0.85,0.15,0.325,0.675]","","",""
"sailing-trial","216","923378","0.0-11.0-181.0","","","","false","","","","","","","","","","null","","740.5","","0","1","null","null","arrowup","[0.85,0.15,0.325,0.675]","","",""
"sailing-trial","217","927898","0.0-11.0-182.0","","","","false","","","","","","","","","","224.29999542236328","","1419.900001525879","","3","1","arrowright","1","arrowright","[0.85,0.15,0.325,0.675]","","",""
"sailing-trial","218","930233","0.0-11.0-183.0","","","","false","","","","","","","","","","null","","516","","1","0","null","null","arrowup","[0.85,0.15,0.325,0.675]","","",""
"sailing-trial","219","934091","0.0-11.0-184.0","","","","false","","","","","","","","","","531.8000030517578","","994.0999984741211","","3","0","arrowright","1","arrowright","[0.85,0.15,0.325,0.675]","","",""
"sailing-trial","220","936728","0.0-11.0-185.0","","","","false","","","","","","","","","","null","","849.8000030517578","","0","1","null","null","arrowup","[0.85,0.15,0.325,0.675]","","",""
"sailing-trial","221","940215","0.0-11.0-186.0","","","","false","","","","","","","","","","366.0999984741211","","199.5","","3","1","arrowright","1","arrowright","[0.85,0.15,0.325,0.675]","","",""
"sailing-trial","222","942239","0.0-11.0-187.0","","","","false","","","","","","","","","","null","","815.0999984741211","","3","0","null","null","arrowup","[0.85,0.15,0.325,0.675]","","",""
"sailing-trial","223","946846","0.0-11.0-188.0","","","","false","","","","","","","","","","879.2999954223633","","776.1000061035156","","3","1","arrowright","1","arrowright","[0.85,0.15,0.325,0.675]","","",""
"sailing-trial","224","949922","0.0-11.0-189.0","","","","false","","","","","","","","","","null","","1787.5","","2","0","null","null","arrowup","[0.85,0.15,0.325,0.675]","","",""
"sailing-trial","225","953338","0.0-11.0-190.0","","","","false","","","","","","","","","","407.2999954223633","","734.6000061035156","","3","0","arrowright","1","arrowright","[0.85,0.15,0.325,0.675]","","",""
"sailing-trial","226","955778","0.0-11.0-191.0","","","","false","","","","","","","","","","null","","1193.2999954223633","","2","0","null","null","arrowup","[0.85,0.15,0.325,0.675]","","",""
"sailing-trial","227","960312","0.0-11.0-192.0","","","","false","","","","","","","","","","574.5999984741211","","958.5","","3","1","arrowright","1","arrowright","[0.85,0.15,0.325,0.675]","","",""
"sailing-trial","228","962184","0.0-11.0-193.0","","","","false","","","","","","","","","","null","","578.0999984741211","","2","0","null","null","arrowup","[0.85,0.15,0.325,0.675]","","",""
"sailing-trial","229","966091","0.0-11.0-194.0","","","","false","","","","","","","","","","705.6000061035156","","309.0999984741211","","3","1","arrowright","1","arrowright","[0.85,0.15,0.325,0.675]","","",""
"sailing-trial","230","968539","0.0-11.0-195.0","","","","false","","","","","","","","","","null","","653.4000015258789","","3","1","null","null","arrowup","[0.85,0.15,0.325,0.675]","","",""
"sailing-trial","231","971938","0.0-11.0-196.0","","","","false","","","","","","","","","","243.8000030517578","","185.79999542236328","","3","1","arrowright","1","arrowright","[0.85,0.15,0.325,0.675]","","",""
"sailing-trial","232","974461","0.0-11.0-197.0","","","","false","","","","","","","","","","null","","500.5999984741211","","3","1","null","null","arrowup","[0.85,0.15,0.325,0.675]","","",""
"sailing-trial","233","978538","0.0-11.0-198.0","","","","false","","","","","","","","","","23","","1219.900001525879","","3","1","arrowright","1","arrowright","[0.675,0.325,0.15,0.85]","","",""
"sailing-trial","234","980294","0.0-11.0-199.0","","","","false","","","","","","","","","","null","","601.8999938964844","","2","0","null","null","arrowup","[0.675,0.325,0.15,0.85]","","",""
"sailing-trial","235","983627","0.0-11.0-200.0","","","","false","","","","","","","","","","462.2000045776367","","41.5","","3","1","arrowright","1","arrowright","[0.675,0.325,0.15,0.85]","","",""
"sailing-trial","236","985567","0.0-11.0-201.0","","","","false","","","","","","","","","","null","","533.8999938964844","","2","0","null","null","arrowup","[0.675,0.325,0.15,0.85]","","",""
"sailing-trial","237","990153","0.0-11.0-202.0","","","","false","","","","","","","","","","459.1000061035156","","1339.400001525879","","3","1","arrowright","1","arrowright","[0.675,0.325,0.15,0.85]","","",""
"sailing-trial","238","992434","0.0-11.0-203.0","","","","false","","","","","","","","","","null","","529.8000030517578","","1","0","null","null","arrowup","[0.675,0.325,0.15,0.85]","","",""
"sailing-trial","239","995903","0.0-11.0-204.0","","","","false","","","","","","","","","","273.2000045776367","","77.39999389648438","","3","1","arrowright","1","arrowright","[0.675,0.325,0.15,0.85]","","",""
"sailing-trial","240","997577","0.0-11.0-205.0","","","","false","","","","","","","","","","null","","403.9000015258789","","2","0","null","null","arrowup","[0.675,0.325,0.15,0.85]","","",""
"sailing-trial","241","1001359","0.0-11.0-206.0","","","","false","","","","","","","","","","580.6999969482422","","32.29999542236328","","3","1","arrowright","1","arrowright","[0.675,0.325,0.15,0.85]","","",""
"sailing-trial","242","1004107","0.0-11.0-207.0","","","","false","","","","","","","","","","null","","631.9000015258789","","2","0","null","null","arrowup","[0.675,0.325,0.15,0.85]","","",""
"sailing-trial","243","1008268","0.0-11.0-208.0","","","","false","","","","","","","","","","702.7000045776367","","61.5","","3","1","arrowright","1","arrowright","[0.675,0.325,0.15,0.85]","","",""
"sailing-trial","244","1011088","0.0-11.0-209.0","","","","false","","","","","","","","","","null","","992.9000015258789","","0","1","null","null","arrowup","[0.675,0.325,0.15,0.85]","","",""
"sailing-trial","245","1014423","0.0-11.0-210.0","","","","false","","","","","","","","","","786.7000045776367","","134.5","","3","0","arrowright","1","arrowright","[0.675,0.325,0.15,0.85]","","",""
"sailing-trial","246","1016935","0.0-11.0-211.0","","","","false","","","","","","","","","","null","","736.3000030517578","","0","1","null","null","arrowup","[0.675,0.325,0.15,0.85]","","",""
"sailing-trial","247","1020705","0.0-11.0-212.0","","","","false","","","","","","","","","","579","","908.6999969482422","","3","0","arrowright","1","arrowright","[0.675,0.325,0.15,0.85]","","",""
"sailing-trial","248","1023468","0.0-11.0-213.0","","","","false","","","","","","","","","","null","","725.1000061035156","","3","1","null","null","arrowup","[0.675,0.325,0.15,0.85]","","",""
"sailing-trial","249","1026971","0.0-11.0-214.0","","","","false","","","","","","","","","","187.1999969482422","","304.7999954223633","","3","1","arrowright","1","arrowright","[0.85,0.15,0.325,0.675]","","",""
"sailing-trial","250","1030213","0.0-11.0-215.0","","","","false","","","","","","","","","","null","","763.3000030517578","","0","1","null","null","arrowup","[0.85,0.15,0.325,0.675]","","",""
"sailing-trial","251","1033345","0.0-11.0-216.0","","","","false","","","","","","","","","","605.9000015258789","","166.5999984741211","","3","0","arrowright","1","arrowright","[0.85,0.15,0.325,0.675]","","",""
"sailing-trial","252","1036397","0.0-11.0-217.0","","","","false","","","","","","","","","","null","","1011.0999984741211","","3","1","null","null","arrowup","[0.85,0.15,0.325,0.675]","","",""
"sailing-trial","253","1039403","0.0-11.0-218.0","","","","false","","","","","","","","","","400.0999984741211","","176.8000030517578","","3","0","arrowright","1","arrowright","[0.85,0.15,0.325,0.675]","","",""
"sailing-trial","254","1042485","0.0-11.0-219.0","","","","false","","","","","","","","","","null","","1294.400001525879","","3","1","null","null","arrowup","[0.85,0.15,0.325,0.675]","","",""
"sailing-trial","255","1045694","0.0-11.0-220.0","","","","false","","","","","","","","","","665.6999969482422","","180","","0","0","arrowleft","0","arrowleft","[0.85,0.15,0.325,0.675]","","",""
"sailing-trial","256","1047643","0.0-11.0-221.0","","","","false","","","","","","","","","","null","","781.2000045776367","","2","0","null","null","arrowup","[0.85,0.15,0.325,0.675]","","",""
"sailing-trial","257","1052267","0.0-11.0-222.0","","","","false","","","","","","","","","","748.4000015258789","","511.8999938964844","","1","0","arrowleft","0","arrowright","[0.85,0.15,0.325,0.675]","","",""
"sailing-trial","258","1055360","0.0-11.0-223.0","","","","false","","","","","","","","","","null","","850.7999954223633","","2","1","null","null","arrowup","[0.85,0.15,0.325,0.675]","","",""
"sailing-trial","259","1059208","0.0-11.0-224.0","","","","false","","","","","","","","","","709","","808.7999954223633","","1","0","arrowleft","0","arrowright","[0.85,0.15,0.325,0.675]","","",""
"sailing-trial","260","1061927","0.0-11.0-225.0","","","","false","","","","","","","","","","null","","880.2000045776367","","3","1","null","null","arrowup","[0.85,0.15,0.325,0.675]","","",""
"sailing-trial","261","1064969","0.0-11.0-226.0","","","","false","","","","","","","","","","617.8000030517578","","62.900001525878906","","2","0","arrowright","1","arrowleft","[0.85,0.15,0.325,0.675]","","",""
"sailing-trial","262","1067332","0.0-11.0-227.0","","","","false","","","","","","","","","","null","","777.5","","1","1","null","null","arrowup","[0.85,0.15,0.325,0.675]","","",""
"sailing-trial","263","1070515","0.0-11.0-228.0","","","","false","","","","","","","","","","703.8000030517578","","61","","2","0","arrowright","1","arrowleft","[0.85,0.15,0.325,0.675]","","",""
"sailing-trial","264","1072623","0.0-11.0-229.0","","","","false","","","","","","","","","","null","","755.0999984741211","","1","0","null","null","arrowup","[0.85,0.15,0.325,0.675]","","",""
"sailing-trial","265","1076591","0.0-11.0-230.0","","","","false","","","","","","","","","","558.9000015258789","","504.5999984741211","","2","1","arrowright","1","arrowleft","[0.15,0.85,0.675,0.325]","","",""
"sailing-trial","266","1078930","0.0-11.0-231.0","","","","false","","","","","","","","","","null","","543","","0","0","null","null","arrowup","[0.15,0.85,0.675,0.325]","","",""
"sailing-trial","267","1083622","0.0-11.0-232.0","","","","false","","","","","","","","","","722.5","","813.0999984741211","","2","0","arrowright","1","arrowleft","[0.15,0.85,0.675,0.325]","","",""
"sailing-trial","268","1085963","0.0-11.0-233.0","","","","false","","","","","","","","","","null","","515.9000015258789","","2","1","null","null","arrowup","[0.15,0.85,0.675,0.325]","","",""
"sailing-trial","269","1089263","0.0-11.0-234.0","","","","false","","","","","","","","","","471.8000030517578","","421.8999938964844","","0","0","arrowleft","0","arrowleft","[0.15,0.85,0.675,0.325]","","",""
"sailing-trial","270","1091625","0.0-11.0-235.0","","","","false","","","","","","","","","","null","","531.0999984741211","","2","1","null","null","arrowup","[0.15,0.85,0.675,0.325]","","",""
"sailing-trial","271","1095412","0.0-11.0-236.0","","","","false","","","","","","","","","","672.5","","240.0999984741211","","0","1","arrowleft","0","arrowleft","[0.15,0.85,0.675,0.325]","","",""
"sailing-trial","272","1097859","0.0-11.0-237.0","","","","false","","","","","","","","","","null","","620.9000015258789","","1","1","null","null","arrowup","[0.15,0.85,0.675,0.325]","","",""
"sailing-trial","273","1100966","0.0-11.0-238.0","","","","false","","","","","","","","","","397.5999984741211","","272.1999969482422","","0","0","arrowleft","0","arrowleft","[0.15,0.85,0.675,0.325]","","",""
"sailing-trial","274","1103194","0.0-11.0-239.0","","","","false","","","","","","","","","","null","","520.1999969482422","","0","0","null","null","arrowup","[0.15,0.85,0.675,0.325]","","",""
"sailing-trial","275","1106202","0.0-11.0-240.0","","","","false","","","","","","","","","","366.9000015258789","","201.5999984741211","","0","0","arrowleft","0","arrowleft","[0.15,0.85,0.675,0.325]","","",""
"sailing-trial","276","1108186","0.0-11.0-241.0","","","","false","","","","","","","","","","null","","599.5","","1","0","null","null","arrowup","[0.15,0.85,0.675,0.325]","","",""
"sailing-trial","277","1111185","0.0-11.0-242.0","","","","false","","","","","","","","","","621.3000030517578","","7.8000030517578125","","0","0","arrowleft","0","arrowleft","[0.15,0.85,0.675,0.325]","","",""
"sailing-trial","278","1113302","0.0-11.0-243.0","","","","false","","","","","","","","","","null","","888","","0","0","null","null","arrowup","[0.15,0.85,0.675,0.325]","","",""
"sailing-trial","279","1117159","0.0-11.0-244.0","","","","false","","","","","","","","","","395.9000015258789","","632.6999969482422","","3","1","arrowright","1","arrowright","[0.15,0.85,0.675,0.325]","","",""
"sailing-trial","280","1119690","0.0-11.0-245.0","","","","false","","","","","","","","","","null","","861","","1","1","null","null","arrowup","[0.15,0.85,0.675,0.325]","","",""
"sailing-trial","281","1122569","0.0-11.0-246.0","","","","false","","","","","","","","","","185.8000030517578","","366.1999969482422","","3","0","arrowright","1","arrowright","[0.15,0.85,0.675,0.325]","","",""
"sailing-trial","282","1125792","0.0-11.0-247.0","","","","false","","","","","","","","","","null","","847.0999984741211","","1","1","null","null","arrowup","[0.15,0.85,0.675,0.325]","","",""
"sailing-trial","283","1129106","0.0-11.0-248.0","","","","false","","","","","","","","","","311","","125.30000305175781","","3","1","arrowright","1","arrowright","[0.15,0.85,0.675,0.325]","","",""
"sailing-trial","284","1132857","0.0-11.0-249.0","","","","false","","","","","","","","","","null","","1874.099998474121","","0","1","null","null","arrowup","[0.15,0.85,0.675,0.325]","","",""
"sailing-trial","285","1136456","0.0-11.0-250.0","","","","false","","","","","","","","","","720.2000045776367","","449.2000045776367","","3","0","arrowright","1","arrowright","[0.325,0.675,0.85,0.15]","","",""
"sailing-trial","286","1138940","0.0-11.0-251.0","","","","false","","","","","","","","","","null","","697.4000015258789","","2","1","null","null","arrowup","[0.325,0.675,0.85,0.15]","","",""
"sailing-trial","287","1142481","0.0-11.0-252.0","","","","false","","","","","","","","","","416.6999969482422","","131.1999969482422","","3","0","arrowright","1","arrowright","[0.325,0.675,0.85,0.15]","","",""
"sailing-trial","288","1144829","0.0-11.0-253.0","","","","false","","","","","","","","","","null","","799.7999954223633","","3","0","null","null","arrowup","[0.325,0.675,0.85,0.15]","","",""
"sailing-trial","289","1148117","0.0-11.0-254.0","","","","false","","","","","","","","","","330.8999938964844","","647.5","","3","0","arrowright","1","arrowright","[0.325,0.675,0.85,0.15]","","",""
"sailing-trial","290","1150387","0.0-11.0-255.0","","","","false","","","","","","","","","","null","","617.0999984741211","","1","1","null","null","arrowup","[0.325,0.675,0.85,0.15]","","",""
"sailing-trial","291","1154151","0.0-11.0-256.0","","","","false","","","","","","","","","","511.4000015258789","","393.8000030517578","","2","1","arrowright","1","arrowleft","[0.325,0.675,0.85,0.15]","","",""
"sailing-trial","292","1156245","0.0-11.0-257.0","","","","false","","","","","","","","","","null","","691.1000061035156","","3","0","null","null","arrowup","[0.325,0.675,0.85,0.15]","","",""
"sailing-trial","293","1160063","0.0-11.0-258.0","","","","false","","","","","","","","","","477.2000045776367","","302.6999969482422","","2","1","arrowright","1","arrowleft","[0.325,0.675,0.85,0.15]","","",""
"sailing-trial","294","1163146","0.0-11.0-259.0","","","","false","","","","","","","","","","null","","1220.5","","0","1","null","null","arrowup","[0.325,0.675,0.85,0.15]","","",""
"sailing-trial","295","1166394","0.0-11.0-260.0","","","","false","","","","","","","","","","561.6999969482422","","310.1999969482422","","2","0","arrowright","1","arrowleft","[0.325,0.675,0.85,0.15]","","",""
"sailing-trial","296","1169095","0.0-11.0-261.0","","","","false","","","","","","","","","","null","","594.1999969482422","","0","1","null","null","arrowup","[0.325,0.675,0.85,0.15]","","",""
"sailing-trial","297","1172042","0.0-11.0-262.0","","","","false","","","","","","","","","","360.8000030517578","","315.2999954223633","","2","0","arrowright","1","arrowleft","[0.325,0.675,0.85,0.15]","","",""
"sailing-trial","298","1174916","0.0-11.0-263.0","","","","false","","","","","","","","","","null","","909.3000030517578","","1","1","null","null","arrowup","[0.325,0.675,0.85,0.15]","","",""
"sailing-trial","299","1177771","0.0-11.0-264.0","","","","false","","","","","","","","","","319.9000015258789","","183.3000030517578","","2","0","arrowright","1","arrowleft","[0.325,0.675,0.85,0.15]","","",""
"sailing-trial","300","1180233","0.0-11.0-265.0","","","","false","","","","","","","","","","null","","905.0999984741211","","0","0","null","null","arrowup","[0.325,0.675,0.85,0.15]","","",""
"sailing-trial","301","1183683","0.0-11.0-266.0","","","","false","","","","","","","","","","432.6000061035156","","100.29999542236328","","2","1","arrowright","1","arrowleft","[0.325,0.675,0.85,0.15]","","",""
"sailing-trial","302","1185791","0.0-11.0-267.0","","","","false","","","","","","","","","","null","","691.6000061035156","","3","0","null","null","arrowup","[0.325,0.675,0.85,0.15]","","",""
"sailing-trial","303","1189876","0.0-11.0-268.0","","","","false","","","","","","","","","","1117.1999969482422","","137.1999969482422","","2","1","arrowright","1","arrowleft","[0.325,0.675,0.85,0.15]","","",""
"sailing-trial","304","1192575","0.0-11.0-269.0","","","","false","","","","","","","","","","null","","1020.1000061035156","","1","1","null","null","arrowup","[0.325,0.675,0.85,0.15]","","",""
"sailing-trial","305","1196098","0.0-11.0-270.0","","","","false","","","","","","","","","","380.1000061035156","","130.60000610351562","","2","1","arrowright","1","arrowleft","[0.325,0.675,0.85,0.15]","","",""
"sailing-trial","306","1198230","0.0-11.0-271.0","","","","false","","","","","","","","","","null","","591.5999984741211","","1","0","null","null","arrowup","[0.325,0.675,0.85,0.15]","","",""
"sailing-trial","307","1202358","0.0-11.0-272.0","","","","false","","","","","","","","","","380","","309.6000061035156","","2","1","arrowright","1","arrowleft","[0.85,0.15,0.325,0.675]","","",""
"sailing-trial","308","1207739","0.0-11.0-273.0","","","","false","","","","","","","","","","null","","2474.900001525879","","1","0","null","null","arrowup","[0.85,0.15,0.325,0.675]","","",""
"sailing-trial","309","1210838","0.0-11.0-274.0","","","","false","","","","","","","","","","501.3000030517578","","160.5","","2","0","arrowright","1","arrowleft","[0.85,0.15,0.325,0.675]","","",""
"sailing-trial","310","1212756","0.0-11.0-275.0","","","","false","","","","","","","","","","null","","636.4000015258789","","3","0","null","null","arrowup","[0.85,0.15,0.325,0.675]","","",""
"sailing-trial","311","1216555","0.0-11.0-276.0","","","","false","","","","","","","","","","536.2999954223633","","375.6999969482422","","2","1","arrowright","1","arrowleft","[0.85,0.15,0.325,0.675]","","",""
"sailing-trial","312","1218410","0.0-11.0-277.0","","","","false","","","","","","","","","","null","","506.0999984741211","","1","0","null","null","arrowup","[0.85,0.15,0.325,0.675]","","",""
"sailing-trial","313","1222236","0.0-11.0-278.0","","","","false","","","","","","","","","","626.9000015258789","","401.9000015258789","","2","0","arrowright","1","arrowleft","[0.85,0.15,0.325,0.675]","","",""
"sailing-trial","314","1224269","0.0-11.0-279.0","","","","false","","","","","","","","","","null","","691.0999984741211","","2","0","null","null","arrowup","[0.85,0.15,0.325,0.675]","","",""
"sailing-trial","315","1228569","0.0-11.0-280.0","","","","false","","","","","","","","","","1150.099998474121","","255.4000015258789","","2","0","arrowright","1","arrowleft","[0.85,0.15,0.325,0.675]","","",""
"sailing-trial","316","1230552","0.0-11.0-281.0","","","","false","","","","","","","","","","null","","650.2000045776367","","1","0","null","null","arrowup","[0.85,0.15,0.325,0.675]","","",""
"sailing-trial","317","1234037","0.0-11.0-282.0","","","","false","","","","","","","","","","491.1999969482422","","123","","3","1","arrowright","1","arrowright","[0.85,0.15,0.325,0.675]","","",""
"sailing-trial","318","1236677","0.0-11.0-283.0","","","","false","","","","","","","","","","null","","613.9000015258789","","2","1","null","null","arrowup","[0.85,0.15,0.325,0.675]","","",""
"sailing-trial","319","1240019","0.0-11.0-284.0","","","","false","","","","","","","","","","130.3000030517578","","538.3000030517578","","3","1","arrowright","1","arrowright","[0.85,0.15,0.325,0.675]","","",""
"sailing-trial","320","1242635","0.0-11.0-285.0","","","","false","","","","","","","","","","null","","833","","0","1","null","null","arrowup","[0.85,0.15,0.325,0.675]","","",""
"sailing-trial","321","1246591","0.0-11.0-286.0","","","","false","","","","","","","","","","504.4000015258789","","1191.5","","3","0","arrowright","1","arrowright","[0.85,0.15,0.325,0.675]","","",""
"sailing-trial","322","1248615","0.0-11.0-287.0","","","","false","","","","","","","","","","null","","645.6999969482422","","1","0","null","null","arrowup","[0.85,0.15,0.325,0.675]","","",""
"sailing-trial","323","1252241","0.0-11.0-288.0","","","","false","","","","","","","","","","323","","401.1999969482422","","3","1","arrowright","1","arrowright","[0.675,0.325,0.15,0.85]","","",""
"sailing-trial","324","1254395","0.0-11.0-289.0","","","","false","","","","","","","","","","null","","825.0999984741211","","1","0","null","null","arrowup","[0.675,0.325,0.15,0.85]","","",""
"sailing-trial","325","1258155","0.0-11.0-290.0","","","","false","","","","","","","","","","426.6999969482422","","449.2000045776367","","3","1","arrowright","1","arrowright","[0.675,0.325,0.15,0.85]","","",""
"sailing-trial","326","1260082","0.0-11.0-291.0","","","","false","","","","","","","","","","null","","666.5999984741211","","2","0","null","null","arrowup","[0.675,0.325,0.15,0.85]","","",""
"sailing-trial","327","1264085","0.0-11.0-292.0","","","","false","","","","","","","","","","442.1000061035156","","523.0999984741211","","3","1","arrowright","1","arrowright","[0.675,0.325,0.15,0.85]","","",""
"sailing-trial","328","1267030","0.0-11.0-293.0","","","","false","","","","","","","","","","null","","1117.5","","0","1","null","null","arrowup","[0.675,0.325,0.15,0.85]","","",""
"sailing-trial","329","1270568","0.0-11.0-294.0","","","","false","","","","","","","","","","413.7999954223633","","199.5","","3","1","arrowright","1","arrowright","[0.675,0.325,0.15,0.85]","","",""
"sailing-trial","330","1273180","0.0-11.0-295.0","","","","false","","","","","","","","","","null","","868.5","","0","1","null","null","arrowup","[0.675,0.325,0.15,0.85]","","",""
"sailing-trial","331","1276734","0.0-11.0-296.0","","","","false","","","","","","","","","","596.5999984741211","","238.70000457763672","","3","1","arrowright","1","arrowright","[0.675,0.325,0.15,0.85]","","",""
"sailing-trial","332","1278793","0.0-11.0-297.0","","","","false","","","","","","","","","","null","","742.2999954223633","","2","0","null","null","arrowup","[0.675,0.325,0.15,0.85]","","",""
"sailing-trial","333","1282161","0.0-11.0-298.0","","","","false","","","","","","","","","","378.1000061035156","","192.9000015258789","","3","1","arrowright","1","arrowright","[0.675,0.325,0.15,0.85]","","",""
"sailing-trial","334","1284461","0.0-11.0-299.0","","","","false","","","","","","","","","","null","","364","","3","1","null","null","arrowup","[0.675,0.325,0.15,0.85]","","",""
"sailing-trial","335","1287694","0.0-11.0-300.0","","","","false","","","","","","","","","","93.79999542236328","","297.9000015258789","","3","1","arrowright","1","arrowright","[0.675,0.325,0.15,0.85]","","",""
"sailing-trial","336","1289775","0.0-11.0-301.0","","","","false","","","","","","","","","","null","","670.8000030517578","","2","0","null","null","arrowup","[0.675,0.325,0.15,0.85]","","",""
"sailing-trial","337","1293410","0.0-11.0-302.0","","","","false","","","","","","","","","","454.0999984741211","","293.9000015258789","","3","1","arrowright","1","arrowright","[0.675,0.325,0.15,0.85]","","",""
"sailing-trial","338","1295934","0.0-11.0-303.0","","","","false","","","","","","","","","","null","","624.3999938964844","","0","1","null","null","arrowup","[0.675,0.325,0.15,0.85]","","",""
"sailing-trial","339","1299315","0.0-11.0-304.0","","","","false","","","","","","","","","","353.3999938964844","","68.9000015258789","","3","1","arrowright","1","arrowright","[0.15,0.85,0.675,0.325]","","",""
"sailing-trial","340","1301957","0.0-11.0-305.0","","","","false","","","","","","","","","","null","","482.8000030517578","","3","0","null","null","arrowup","[0.15,0.85,0.675,0.325]","","",""
"sailing-trial","341","1305723","0.0-11.0-306.0","","","","false","","","","","","","","","","263","","1199.6999969482422","","3","0","arrowright","1","arrowright","[0.15,0.85,0.675,0.325]","","",""
"sailing-trial","342","1307889","0.0-11.0-307.0","","","","false","","","","","","","","","","null","","849","","3","0","null","null","arrowup","[0.15,0.85,0.675,0.325]","","",""
"sailing-trial","343","1310805","0.0-11.0-308.0","","","","false","","","","","","","","","","564","","29.599998474121094","","3","0","arrowright","1","arrowright","[0.15,0.85,0.675,0.325]","","",""
"sailing-trial","344","1313436","0.0-11.0-309.0","","","","false","","","","","","","","","","null","","782.2000045776367","","3","0","null","null","arrowup","[0.15,0.85,0.675,0.325]","","",""
"sailing-trial","345","1317663","0.0-11.0-310.0","","","","false","","","","","","","","","","457.5999984741211","","1448.599998474121","","3","0","arrowright","1","arrowright","[0.15,0.85,0.675,0.325]","","",""
"sailing-trial","346","1320281","0.0-11.0-311.0","","","","false","","","","","","","","","","null","","622","","1","1","null","null","arrowup","[0.15,0.85,0.675,0.325]","","",""
"sailing-trial","347","1323978","0.0-11.0-312.0","","","","false","","","","","","","","","","507.7000045776367","","199.70000457763672","","1","0","arrowleft","0","arrowright","[0.15,0.85,0.675,0.325]","","",""
"sailing-trial","348","1326139","0.0-11.0-313.0","","","","false","","","","","","","","","","null","","748.3000030517578","","0","0","null","null","arrowup","[0.15,0.85,0.675,0.325]","","",""
"sailing-trial","349","1330509","0.0-11.0-314.0","","","","false","","","","","","","","","","634.8999938964844","","182.3000030517578","","1","1","arrowleft","0","arrowright","[0.15,0.85,0.675,0.325]","","",""
"sailing-trial","350","1333024","0.0-11.0-315.0","","","","false","","","","","","","","","","null","","652.5999984741211","","1","1","null","null","arrowup","[0.15,0.85,0.675,0.325]","","",""
"sailing-trial","351","1336540","0.0-11.0-316.0","","","","false","","","","","","","","","","563.1999969482422","","172.29999542236328","","1","1","arrowleft","0","arrowright","[0.15,0.85,0.675,0.325]","","",""
"sailing-trial","352","1340229","0.0-11.0-317.0","","","","false","","","","","","","","","","null","","1063.7000045776367","","2","1","null","null","arrowup","[0.15,0.85,0.675,0.325]","","",""
"sailing-trial","353","1345256","0.0-11.0-318.0","","","","false","","","","","","","","","","1302.2999954223633","","446.3999938964844","","1","1","arrowleft","0","arrowright","[0.15,0.85,0.675,0.325]","","",""
"sailing-trial","354","1347427","0.0-11.0-319.0","","","","false","","","","","","","","","","null","","918.4000015258789","","3","0","null","null","arrowup","[0.15,0.85,0.675,0.325]","","",""
"sailing-trial","355","1351045","0.0-11.0-320.0","","","","false","","","","","","","","","","656.4000015258789","","32.19999694824219","","1","1","arrowleft","0","arrowright","[0.325,0.675,0.85,0.15]","","",""
"sailing-trial","356","1353318","0.0-11.0-321.0","","","","false","","","","","","","","","","null","","917.8000030517578","","0","0","null","null","arrowup","[0.325,0.675,0.85,0.15]","","",""
"sailing-trial","357","1357594","0.0-11.0-322.0","","","","false","","","","","","","","","","618.8999938964844","","891.2999954223633","","2","1","arrowright","1","arrowleft","[0.325,0.675,0.85,0.15]","","",""
"sailing-trial","358","1359493","0.0-11.0-323.0","","","","false","","","","","","","","","","null","","525.5999984741211","","3","0","null","null","arrowup","[0.325,0.675,0.85,0.15]","","",""
"sailing-trial","359","1362302","0.0-11.0-324.0","","","","false","","","","","","","","","","456.5","","25","","2","0","arrowright","1","arrowleft","[0.325,0.675,0.85,0.15]","","",""
"sailing-trial","360","1365292","0.0-11.0-325.0","","","","false","","","","","","","","","","null","","1092.900001525879","","0","1","null","null","arrowup","[0.325,0.675,0.85,0.15]","","",""
"sailing-trial","361","1368703","0.0-11.0-326.0","","","","false","","","","","","","","","","451.1999969482422","","46","","1","1","arrowleft","0","arrowright","[0.325,0.675,0.85,0.15]","","",""
"sailing-trial","362","1370696","0.0-11.0-327.0","","","","false","","","","","","","","","","null","","694.1000061035156","","0","0","null","null","arrowup","[0.325,0.675,0.85,0.15]","","",""
"sailing-trial","363","1374635","0.0-11.0-328.0","","","","false","","","","","","","","","","571.3000030517578","","641.9000015258789","","1","1","arrowleft","0","arrowright","[0.325,0.675,0.85,0.15]","","",""
"sailing-trial","364","1377684","0.0-11.0-329.0","","","","false","","","","","","","","","","null","","395.8000030517578","","3","0","null","null","arrowup","[0.325,0.675,0.85,0.15]","","",""
"sailing-trial","365","1382029","0.0-11.0-330.0","","","","false","","","","","","","","","","517.7999954223633","","383.2000045776367","","1","1","arrowleft","0","arrowright","[0.325,0.675,0.85,0.15]","","",""
"sailing-trial","366","1383899","0.0-11.0-331.0","","","","false","","","","","","","","","","null","","605.1999969482422","","1","0","null","null","arrowup","[0.325,0.675,0.85,0.15]","","",""
"sailing-trial","367","1387417","0.0-11.0-332.0","","","","false","","","","","","","","","","532.3000030517578","","124.9000015258789","","1","1","arrowleft","0","arrowright","[0.325,0.675,0.85,0.15]","","",""
"sailing-trial","368","1389940","0.0-11.0-333.0","","","","false","","","","","","","","","","null","","715.7000045776367","","2","1","null","null","arrowup","[0.325,0.675,0.85,0.15]","","",""
"sailing-trial","369","1393016","0.0-11.0-334.0","","","","false","","","","","","","","","","287.7999954223633","","368.6000061035156","","1","0","arrowleft","0","arrowright","[0.325,0.675,0.85,0.15]","","",""
"sailing-trial","370","1395571","0.0-11.0-335.0","","","","false","","","","","","","","","","null","","641.5999984741211","","2","1","null","null","arrowup","[0.325,0.675,0.85,0.15]","","",""
"sailing-trial","371","1399015","0.0-11.0-336.0","","","","false","","","","","","","","","","510","","138.6999969482422","","1","1","arrowleft","0","arrowright","[0.325,0.675,0.85,0.15]","","",""
"sailing-trial","372","1401048","0.0-11.0-337.0","","","","false","","","","","","","","","","null","","579.5","","0","0","null","null","arrowup","[0.325,0.675,0.85,0.15]","","",""
"sailing-trial","373","1404579","0.0-11.0-338.0","","","","false","","","","","","","","","","577.0999984741211","","701.9000015258789","","1","0","arrowleft","0","arrowright","[0.325,0.675,0.85,0.15]","","",""
"sailing-trial","374","1406763","0.0-11.0-339.0","","","","false","","","","","","","","","","null","","865.5999984741211","","3","0","null","null","arrowup","[0.325,0.675,0.85,0.15]","","",""
"sailing-trial","375","1409946","0.0-11.0-340.0","","","","false","","","","","","","","","","566.5","","77.89999389648438","","1","0","arrowleft","0","arrowright","[0.85,0.15,0.325,0.675]","","",""
"sailing-trial","376","1411930","0.0-11.0-341.0","","","","false","","","","","","","","","","null","","627.5999984741211","","3","0","null","null","arrowup","[0.85,0.15,0.325,0.675]","","",""
"sailing-trial","377","1415497","0.0-11.0-342.0","","","","false","","","","","","","","","","444.8999938964844","","256.2999954223633","","1","1","arrowleft","0","arrowright","[0.85,0.15,0.325,0.675]","","",""
"sailing-trial","378","1418052","0.0-11.0-343.0","","","","false","","","","","","","","","","null","","726","","0","1","null","null","arrowup","[0.85,0.15,0.325,0.675]","","",""
"sailing-trial","379","1421539","0.0-11.0-344.0","","","","false","","","","","","","","","","453.4000015258789","","683.1999969482422","","1","0","arrowleft","0","arrowright","[0.85,0.15,0.325,0.675]","","",""
"sailing-trial","380","1423493","0.0-11.0-345.0","","","","false","","","","","","","","","","null","","619.8000030517578","","1","0","null","null","arrowup","[0.85,0.15,0.325,0.675]","","",""
"sailing-trial","381","1427595","0.0-11.0-346.0","","","","false","","","","","","","","","","562.5999984741211","","623.2000045776367","","1","1","arrowleft","0","arrowright","[0.85,0.15,0.325,0.675]","","",""
"sailing-trial","382","1429651","0.0-11.0-347.0","","","","false","","","","","","","","","","null","","708.4000015258789","","3","0","null","null","arrowup","[0.85,0.15,0.325,0.675]","","",""
"sailing-trial","383","1433267","0.0-11.0-348.0","","","","false","","","","","","","","","","452.0999984741211","","136.9000015258789","","1","1","arrowleft","0","arrowright","[0.85,0.15,0.325,0.675]","","",""
"sailing-trial","384","1435391","0.0-11.0-349.0","","","","false","","","","","","","","","","null","","883.9000015258789","","0","0","null","null","arrowup","[0.85,0.15,0.325,0.675]","","",""
"sailing-trial","385","1438867","0.0-11.0-350.0","","","","false","","","","","","","","","","548.6999969482422","","525.5","","1","0","arrowleft","0","arrowright","[0.85,0.15,0.325,0.675]","","",""
"sailing-trial","386","1441008","0.0-11.0-351.0","","","","false","","","","","","","","","","null","","629.2999954223633","","2","0","null","null","arrowup","[0.85,0.15,0.325,0.675]","","",""
"sailing-trial","387","1444282","0.0-11.0-352.0","","","","false","","","","","","","","","","456.9000015258789","","51.5","","0","1","arrowleft","0","arrowleft","[0.85,0.15,0.325,0.675]","","",""
"sailing-trial","388","1446932","0.0-11.0-353.0","","","","false","","","","","","","","","","null","","588.6000061035156","","3","1","null","null","arrowup","[0.85,0.15,0.325,0.675]","","",""
"sailing-trial","389","1450481","0.0-11.0-354.0","","","","false","","","","","","","","","","301.6999969482422","","440.6999969482422","","0","1","arrowleft","0","arrowleft","[0.85,0.15,0.325,0.675]","","",""
"sailing-trial","390","1452455","0.0-11.0-355.0","","","","false","","","","","","","","","","null","","650.5999984741211","","1","0","null","null","arrowup","[0.85,0.15,0.325,0.675]","","",""
"sailing-trial","391","1456115","0.0-11.0-356.0","","","","false","","","","","","","","","","475.9000015258789","","342.4000015258789","","0","1","arrowleft","0","arrowleft","[0.85,0.15,0.325,0.675]","","",""
"sailing-trial","392","1458807","0.0-11.0-357.0","","","","false","","","","","","","","","","null","","945.0999984741211","","2","1","null","null","arrowup","[0.85,0.15,0.325,0.675]","","",""
"sailing-trial","393","1462029","0.0-11.0-358.0","","","","false","","","","","","","","","","330.4000015258789","","22.599998474121094","","0","1","arrowleft","0","arrowleft","[0.85,0.15,0.325,0.675]","","",""
"sailing-trial","394","1463938","0.0-11.0-359.0","","","","false","","","","","","","","","","null","","688.1999969482422","","1","0","null","null","arrowup","[0.85,0.15,0.325,0.675]","","",""
"sailing-trial","395","1468129","0.0-11.0-360.0","","","","false","","","","","","","","","","481","","186.20000457763672","","0","1","arrowleft","0","arrowleft","[0.85,0.15,0.325,0.675]","","",""
"sailing-trial","396","1469761","0.0-11.0-361.0","","","","false","","","","","","","","","","null","","142.60000610351562","","1","0","null","null","arrowup","[0.85,0.15,0.325,0.675]","","",""
"sailing-trial","397","1473395","0.0-11.0-362.0","","","","false","","","","","","","","","","591.7000045776367","","220.39999389648438","","0","1","arrowleft","0","arrowleft","[0.85,0.15,0.325,0.675]","","",""
"sailing-trial","398","1475299","0.0-11.0-363.0","","","","false","","","","","","","","","","null","","540.9000015258789","","1","0","null","null","arrowup","[0.85,0.15,0.325,0.675]","","",""
"sailing-trial","399","1478428","0.0-11.0-364.0","","","","false","","","","","","","","","","652.4000015258789","","98.9000015258789","","0","0","arrowleft","0","arrowleft","[0.15,0.85,0.675,0.325]","","",""
"sailing-trial","400","1480603","0.0-11.0-365.0","","","","false","","","","","","","","","","null","","852.4000015258789","","3","0","null","null","arrowup","[0.15,0.85,0.675,0.325]","","",""
"sailing-trial","401","1483703","0.0-11.0-366.0","","","","false","","","","","","","","","","553","","41.599998474121094","","0","0","arrowleft","0","arrowleft","[0.15,0.85,0.675,0.325]","","",""
"sailing-trial","402","1486040","0.0-11.0-367.0","","","","false","","","","","","","","","","null","","586.2000045776367","","3","1","null","null","arrowup","[0.15,0.85,0.675,0.325]","","",""
"sailing-trial","403","1488924","0.0-11.0-368.0","","","","false","","","","","","","","","","25.800003051757812","","486.2000045776367","","0","0","arrowleft","0","arrowleft","[0.15,0.85,0.675,0.325]","","",""
"sailing-trial","404","1491010","0.0-11.0-369.0","","","","false","","","","","","","","","","null","","302.9000015258789","","2","1","null","null","arrowup","[0.15,0.85,0.675,0.325]","","",""
"sailing-trial","405","1495209","0.0-11.0-370.0","","","","false","","","","","","","","","","594.7999954223633","","256.8000030517578","","0","0","arrowleft","0","arrowleft","[0.15,0.85,0.675,0.325]","","",""
"sailing-trial","406","1497574","0.0-11.0-371.0","","","","false","","","","","","","","","","null","","308.8000030517578","","2","1","null","null","arrowup","[0.15,0.85,0.675,0.325]","","",""
"sailing-trial","407","1502199","0.0-11.0-372.0","","","","false","","","","","","","","","","815.0999984741211","","1510.400001525879","","0","0","arrowleft","0","arrowleft","[0.15,0.85,0.675,0.325]","","",""
"sailing-trial","408","1504249","0.0-11.0-373.0","","","","false","","","","","","","","","","null","","761.5","","3","0","null","null","arrowup","[0.15,0.85,0.675,0.325]","","",""
"sailing-trial","409","1507364","0.0-11.0-374.0","","","","false","","","","","","","","","","657.6000061035156","","126.10000610351562","","2","0","arrowright","1","arrowleft","[0.15,0.85,0.675,0.325]","","",""
"sailing-trial","410","1509400","0.0-11.0-375.0","","","","false","","","","","","","","","","null","","662.0999984741211","","3","0","null","null","arrowup","[0.15,0.85,0.675,0.325]","","",""
"sailing-trial","411","1513299","0.0-11.0-376.0","","","","false","","","","","","","","","","490.0999984741211","","281.2999954223633","","2","1","arrowright","1","arrowleft","[0.15,0.85,0.675,0.325]","","",""
"sailing-trial","412","1515940","0.0-11.0-377.0","","","","false","","","","","","","","","","null","","739.6000061035156","","2","1","null","null","arrowup","[0.15,0.85,0.675,0.325]","","",""
"sailing-trial","413","1519367","0.0-11.0-378.0","","","","false","","","","","","","","","","472.2000045776367","","126.5","","2","1","arrowright","1","arrowleft","[0.15,0.85,0.675,0.325]","","",""
"sailing-trial","414","1521409","0.0-11.0-379.0","","","","false","","","","","","","","","","null","","826.7000045776367","","0","0","null","null","arrowup","[0.15,0.85,0.675,0.325]","","",""
"sailing-trial","415","1524917","0.0-11.0-380.0","","","","false","","","","","","","","","","550.3000030517578","","146.8000030517578","","2","1","arrowright","1","arrowleft","[0.325,0.675,0.85,0.15]","","",""
"sailing-trial","416","1527062","0.0-11.0-381.0","","","","false","","","","","","","","","","null","","846.6000061035156","","0","0","null","null","arrowup","[0.325,0.675,0.85,0.15]","","",""
"sailing-trial","417","1530483","0.0-11.0-382.0","","","","false","","","","","","","","","","563.2000045776367","","78.39999389648438","","2","1","arrowright","1","arrowleft","[0.325,0.675,0.85,0.15]","","",""
"sailing-trial","418","1532686","0.0-11.0-383.0","","","","false","","","","","","","","","","null","","615.7000045776367","","3","0","null","null","arrowup","[0.325,0.675,0.85,0.15]","","",""
"sailing-trial","419","1535880","0.0-11.0-384.0","","","","false","","","","","","","","","","333.1999969482422","","59.70000457763672","","2","1","arrowright","1","arrowleft","[0.325,0.675,0.85,0.15]","","",""
"sailing-trial","420","1537835","0.0-11.0-385.0","","","","false","","","","","","","","","","null","","617.5999984741211","","3","0","null","null","arrowup","[0.325,0.675,0.85,0.15]","","",""
"sailing-trial","421","1540911","0.0-11.0-386.0","","","","false","","","","","","","","","","423.5999984741211","","369.2000045776367","","2","0","arrowright","1","arrowleft","[0.325,0.675,0.85,0.15]","","",""
"sailing-trial","422","1543551","0.0-11.0-387.0","","","","false","","","","","","","","","","null","","945.9000015258789","","2","1","null","null","arrowup","[0.325,0.675,0.85,0.15]","","",""
"sailing-trial","423","1546543","0.0-11.0-388.0","","","","false","","","","","","","","","","140.9000015258789","","54.900001525878906","","2","1","arrowright","1","arrowleft","[0.325,0.675,0.85,0.15]","","",""
"sailing-trial","424","1548408","0.0-11.0-389.0","","","","false","","","","","","","","","","null","","589.5","","3","0","null","null","arrowup","[0.325,0.675,0.85,0.15]","","",""
"sailing-trial","425","1552234","0.0-11.0-390.0","","","","false","","","","","","","","","","541.1999969482422","","520.9000015258789","","2","1","arrowright","1","arrowleft","[0.325,0.675,0.85,0.15]","","",""
"sailing-trial","426","1554300","0.0-11.0-391.0","","","","false","","","","","","","","","","null","","737.5","","0","0","null","null","arrowup","[0.325,0.675,0.85,0.15]","","",""
"sailing-trial","427","1557241","0.0-11.0-392.0","","","","false","","","","","","","","","","381.3000030517578","","313.9000015258789","","2","0","arrowright","1","arrowleft","[0.325,0.675,0.85,0.15]","","",""
"sailing-trial","428","1559358","0.0-11.0-393.0","","","","false","","","","","","","","","","null","","736.2999954223633","","1","0","null","null","arrowup","[0.325,0.675,0.85,0.15]","","",""
"sailing-trial","429","1562726","0.0-11.0-394.0","","","","false","","","","","","","","","","521.7000045776367","","68.39999389648438","","2","1","arrowright","1","arrowleft","[0.325,0.675,0.85,0.15]","","",""
"sailing-trial","430","1564724","0.0-11.0-395.0","","","","false","","","","","","","","","","null","","808.1999969482422","","1","0","null","null","arrowup","[0.325,0.675,0.85,0.15]","","",""
"sailing-trial","431","1568025","0.0-11.0-396.0","","","","false","","","","","","","","","","420.9000015258789","","66.69999694824219","","2","1","arrowright","1","arrowleft","[0.325,0.675,0.85,0.15]","","",""
"sailing-trial","432","1570880","0.0-11.0-397.0","","","","false","","","","","","","","","","null","","469.4000015258789","","2","1","null","null","arrowup","[0.325,0.675,0.85,0.15]","","",""
"sailing-trial","433","1574097","0.0-11.0-398.0","","","","false","","","","","","","","","","227","","174","","2","1","arrowright","1","arrowleft","[0.325,0.675,0.85,0.15]","","",""
"sailing-trial","434","1576945","0.0-11.0-399.0","","","","false","","","","","","","","","","null","","988.5999984741211","","1","1","null","null","arrowup","[0.325,0.675,0.85,0.15]","","",""
"instructions","435","1581271","0.0-12.0","","","","","","","","","","4324.900001525879","","","","","","","","","","","","","","","","[{""page_index"":0,""viewing_time"":4324.400001525879}]"
"survey-debrief","436","1596530","0.0-13.0","","","","","","","","","","15256.400001525879","","","","","","","","","","","","","","{""difficulty"":""5"",""fun"":""4"",""clarity"":""5"",""strategy"":""no"",""feedback"":""no""}","",""
