"trial_type","trial_index","time_elapsed","internal_node_id","value","metadata","success","timeout","failed_images","failed_audio","failed_video","browser_interaction","low_quality","rt","stimulus","response","button_pressed","island_rt","island_response","boat_rt","boat_response","boat","reward","island_key","island","boat_key","reward_probabilities","responses","num_errors","view_history"
"pavlovia","0","14","0.0-0.0","","","","","","","","","","","","","","","","","","","","","","","","","",""
"call-function","1","19","0.0-1.0","","{""task_version"":""sailing_part1_v1"",""task_condition"":""good"",""boats"":[""A"",""C"",""B"",""D""],""boats_demo"":[""F"",""G"",""H"",""E""],""islands"":[""B"",""A""],""subject_id"":""13977"",""age"":""19"",""gender"":""Female""}","","","","","","","","","","","","","","","","","","","","","","","",""
"preload","2","1243","0.0-2.0","","","true","false","[]","[]","[]","[{""event"":""fullscreenenter"",""trial"":3,""time"":4058}]","false","","","","","","","","","","","","","","","","",""
"fullscreen","3","4922","0.0-3.0","","","true","","","","","","","","","","","","","","","","","","","","","","",""
"audio-keyboard-response","4","6687","0.0-4.0-0.0","","","","","","","","","","0","audio/beep_loop.wav"," ","","","","","","","","","","","","","",""
"audio-test","5","8844","0.0-4.0-1.0","","","","","","","","","","null","audio/turtle.mp3","","3","","","","","","","","","","","","",""
"audio-test","6","11221","0.0-4.0-2.0","","","","","","","","","","null","audio/shark.mp3","","2","","","","","","","","","","","","",""
"sailing-instructions","7","62795","0.0-5.0-0.0-0.0","","","","","","","","","","","","","","null","null","null","null","null","null","","","","","","",""
"sailing-trial","8","67511","0.0-5.0-0.0-1.0-0.0","","","","false","","","","","","","","","","3585.9999999999927","","null","","null","null","arrowleft","0","null","null","","",""
"sailing-trial","9","69712","0.0-5.0-0.0-1.0-1.0","","","","false","","","","","","","","","","1059.0000000000146","","null","","null","null","arrowright","1","null","null","","",""
"sailing-trial","10","72458","0.0-5.0-0.0-1.0-2.0","","","","false","","","","","","","","","","1592","","null","","null","null","arrowleft","0","null","null","","",""
"sailing-instructions","11","114931","0.0-5.0-0.0-2.0","","","","","","","","","","","","","","null","null","null","null","0","null","","","","","","",""
"sailing-trial","12","121294","0.0-5.0-0.0-3.0-0.0","","","","false","","","","","","","","","","null","","2314","","2","1","null","null","arrowleft","[1,1,1,1]","","",""
"sailing-trial","13","125228","0.0-5.0-0.0-3.0-1.0","","","","false","","","","","","","","","","null","","760.0000000000146","","3","1","null","null","arrowright","[1,1,1,1]","","",""
"sailing-trial","14","129025","0.0-5.0-0.0-3.0-2.0","","","","false","","","","","","","","","","null","","602.9999999999854","","2","0","null","null","arrowleft","[0,0,0,0]","","",""
"sailing-instructions","15","136492","0.0-5.0-0.0-4.0","","","","","","","","","","","","","","null","null","null","null","null","null","","","","","","",""
"sailing-comprehension","16","153765","0.0-5.0-0.0-5.0","","","","","","","","","","14148","","","","","","","","","","","","","","[""true"",""true"",""false"",""true""]","0",""
"sailing-instructions","17","218998","0.0-6.0-0.0-0.0","","","","","","","","","","","","","","null","null","null","null","null","null","","","","","","",""
"sailing-comprehension","18","230044","0.0-6.0-0.0-1.0","","","","","","","","","","8987","","","","","","","","","","","","","","[""true"",""false"",""true""]","0",""
"sailing-instructions","19","244759","0.0-7.0-0.0-0.0","","","","","","","","","","","","","","null","null","null","null","null","null","","","","","","",""
"sailing-trial","20","251663","0.0-7.0-0.0-1.0-0.0","","","","false","","","","","","","","","","null","","4032","","0","0","null","null","arrowup","[0.2,0.8,0.2,0.8]","","",""
"sailing-trial","21","256994","0.0-7.0-0.0-1.0-1.0","","","","false","","","","","","","","","","null","","2474","","1","1","null","null","arrowup","[0.2,0.8,0.2,0.8]","","",""
"sailing-trial","22","260931","0.0-7.0-0.0-1.0-2.0","","","","false","","","","","","","","","","null","","1940","","2","0","null","null","arrowup","[0.2,0.8,0.2,0.8]","","",""
"sailing-trial","23","264628","0.0-7.0-0.0-1.0-3.0","","","","false","","","","","","","","","","null","","1454","","3","1","null","null","arrowup","[0.2,0.8,0.2,0.8]","","",""
"sailing-comprehension","24","274264","0.0-7.0-0.0-2.0","","","","","","","","","","7636.000000000058","","","","","","","","","","","","","","[""true""]","1",""
"sailing-instructions","25","288206","0.0-7.0-0.1-0.1","","","","","","","","","","","","","","null","null","null","null","null","null","","","","","","",""
"sailing-trial","26","292269","0.0-7.0-0.1-1.1-0.1","","","","false","","","","","","","","","","null","","1694","","0","0","null","null","arrowup","[0.2,0.8,0.2,0.8]","","",""
"sailing-trial","27","295228","0.0-7.0-0.1-1.1-1.1","","","","false","","","","","","","","","","null","","788.9999999999418","","1","1","null","null","arrowup","[0.2,0.8,0.2,0.8]","","",""
"sailing-trial","28","297566","0.0-7.0-0.1-1.1-2.1","","","","false","","","","","","","","","","null","","699.9999999999418","","2","0","null","null","arrowup","[0.2,0.8,0.2,0.8]","","",""
"sailing-trial","29","299905","0.0-7.0-0.1-1.1-3.1","","","","false","","","","","","","","","","null","","774","","3","0","null","null","arrowup","[0.2,0.8,0.2,0.8]","","",""
"sailing-comprehension","30","305714","0.0-7.0-0.1-2.1","","","","","","","","","","4698.000000000058","","","","","","","","","","","","","","[""false""]","0",""
"sailing-instructions","31","316189","0.0-8.0-0.0-0.0","","","","","","","","","","","","","","null","null","null","null","null","null","","","","","","",""
"sailing-comprehension","32","320294","0.0-8.0-0.0-1.0","","","","","","","","","","3040.000000000058","","","","","","","","","","","","","","[""true""]","0",""
"sailing-instructions","33","342829","0.0-9.0-0.0-0.0","","","","","","","","","","","","","","null","null","null","null","null","null","","","","","","",""
"sailing-trial","34","350471","0.0-9.0-0.0-1.0-0.0","","","","false","","","","","","","","","","1528.9999999999418","","1995","","1","0","arrowleft","0","arrowright","[0.2,0.8,0.2,0.8]","","",""
"sailing-trial","35","356733","0.0-9.0-0.0-1.0-1.0","","","","false","","","","","","","","","","1819","","721","","0","0","arrowleft","0","arrowleft","[0.2,0.8,0.2,0.8]","","",""
"sailing-trial","36","362011","0.0-9.0-0.0-1.0-2.0","","","","false","","","","","","","","","","null","","2323.000000000058","","0","1","null","null","arrowup","[0.2,0.8,0.2,0.8]","","",""
"sailing-trial","37","367927","0.0-9.0-0.0-1.0-3.0","","","","false","","","","","","","","","","824","","693","","2","1","arrowright","1","arrowleft","[0.2,0.8,0.2,0.8]","","",""
"sailing-trial","38","372210","0.0-9.0-0.0-1.0-4.0","","","","false","","","","","","","","","","null","","1821","","3","0","null","null","arrowup","[0.2,0.8,0.2,0.8]","","",""
"sailing-trial","39","378162","0.0-9.0-0.0-1.0-5.0","","","","false","","","","","","","","","","825","","1386","","3","0","arrowright","1","arrowright","[0.2,0.8,0.2,0.8]","","",""
"sailing-instructions","40","407295","0.0-10.0","","","","","","","","","","","","","","null","null","null","null","null","null","","","","","","",""
"sailing-trial","41","413278","0.0-11.0-0.0","","","","false","","","","","","","","","","1503.0000000000582","","474.0000000000582","","0","1","arrowleft","0","arrowleft","[0.675,0.325,0.85,0.15]","","",""
"sailing-trial","42","417296","0.0-11.0-1.0","","","","false","","","","","","","","","","null","","1787","","3","0","null","null","arrowup","[0.675,0.325,0.85,0.15]","","",""
"sailing-trial","43","422744","0.0-11.0-2.0","","","","false","","","","","","","","","","978","","351","","1","1","arrowleft","0","arrowright","[0.675,0.325,0.85,0.15]","","",""
"sailing-trial","44","427494","0.0-11.0-3.0","","","","false","","","","","","","","","","null","","1511","","0","1","null","null","arrowup","[0.675,0.325,0.85,0.15]","","",""
"sailing-trial","45","435478","0.0-11.0-4.0","","","","false","","","","","","","","","","1799","","2104.000000000058","","2","1","arrowright","1","arrowleft","[0.675,0.325,0.85,0.15]","","",""
"sailing-trial","46","442217","0.0-11.0-5.0","","","","false","","","","","","","","","","null","","4521","","1","0","null","null","arrowup","[0.675,0.325,0.85,0.15]","","",""
"sailing-trial","47","447614","0.0-11.0-6.0","","","","false","","","","","","","","","","1001.0000000000582","","423","","3","0","arrowright","1","arrowright","[0.675,0.325,0.85,0.15]","","",""
"sailing-trial","48","452444","0.0-11.0-7.0","","","","false","","","","","","","","","","null","","2229.000000000058","","3","1","null","null","arrowup","[0.675,0.325,0.85,0.15]","","",""
"sailing-trial","49","458047","0.0-11.0-8.0","","","","false","","","","","","","","","","1218.9999999999418","","715.9999999999418","","0","0","arrowleft","0","arrowleft","[0.675,0.325,0.85,0.15]","","",""
"sailing-trial","50","461943","0.0-11.0-9.0","","","","false","","","","","","","","","","null","","1286","","0","1","null","null","arrowup","[0.675,0.325,0.85,0.15]","","",""
"sailing-trial","51","467778","0.0-11.0-10.0","","","","false","","","","","","","","","","1491","","367","","1","1","arrowleft","0","arrowright","[0.675,0.325,0.85,0.15]","","",""
"sailing-trial","52","471302","0.0-11.0-11.0","","","","false","","","","","","","","","","null","","1327.9999999999418","","0","0","null","null","arrowup","[0.675,0.325,0.85,0.15]","","",""
"sailing-trial","53","477100","0.0-11.0-12.0","","","","false","","","","","","","","","","1770.9999999999418","","524","","1","0","arrowleft","0","arrowright","[0.675,0.325,0.85,0.15]","","",""
"sailing-trial","54","481676","0.0-11.0-13.0","","","","false","","","","","","","","","","null","","2195","","2","1","null","null","arrowup","[0.675,0.325,0.85,0.15]","","",""
"sailing-trial","55","486527","0.0-11.0-14.0","","","","false","","","","","","","","","","620","","279","","2","1","arrowright","1","arrowleft","[0.675,0.325,0.85,0.15]","","",""
"sailing-trial","56","489978","0.0-11.0-15.0","","","","false","","","","","","","","","","null","","1159","","2","1","null","null","arrowup","[0.675,0.325,0.85,0.15]","","",""
"sailing-trial","57","494711","0.0-11.0-16.0","","","","false","","","","","","","","","","619","","216","","2","1","arrowright","1","arrowleft","[0.675,0.325,0.85,0.15]","","",""
"sailing-trial","58","498460","0.0-11.0-17.0","","","","false","","","","","","","","","","null","","1316","","2","1","null","null","arrowup","[0.675,0.325,0.85,0.15]","","",""
"sailing-trial","59","503345","0.0-11.0-18.0","","","","false","","","","","","","","","","671","","376","","2","1","arrowright","1","arrowleft","[0.85,0.15,0.675,0.325]","","",""
"sailing-trial","60","507444","0.0-11.0-19.0","","","","false","","","","","","","","","","null","","1746","","0","1","null","null","arrowup","[0.85,0.15,0.675,0.325]","","",""
"sailing-trial","61","513460","0.0-11.0-20.0","","","","false","","","","","","","","","","624","","1437","","2","1","arrowright","1","arrowleft","[0.85,0.15,0.675,0.325]","","",""
"sailing-trial","62","517097","0.0-11.0-21.0","","","","false","","","","","","","","","","null","","1484.9999999998836","","1","0","null","null","arrowup","[0.85,0.15,0.675,0.325]","","",""
"sailing-trial","63","521994","0.0-11.0-22.0","","","","false","","","","","","","","","","803.9999999999418","","246.9999999999418","","2","1","arrowright","1","arrowleft","[0.85,0.15,0.675,0.325]","","",""
"sailing-trial","64","525510","0.0-11.0-23.0","","","","false","","","","","","","","","","null","","1084.9999999999418","","3","1","null","null","arrowup","[0.85,0.15,0.675,0.325]","","",""
"sailing-trial","65","530393","0.0-11.0-24.0","","","","false","","","","","","","","","","576","","470","","2","1","arrowright","1","arrowleft","[0.85,0.15,0.675,0.325]","","",""
"sailing-trial","66","533810","0.0-11.0-25.0","","","","false","","","","","","","","","","null","","864.9999999998836","","3","1","null","null","arrowup","[0.85,0.15,0.675,0.325]","","",""
"sailing-trial","67","538444","0.0-11.0-26.0","","","","false","","","","","","","","","","602","","210.00000000011642","","2","1","arrowright","1","arrowleft","[0.85,0.15,0.675,0.325]","","",""
"sailing-trial","68","541710","0.0-11.0-27.0","","","","false","","","","","","","","","","null","","971","","2","1","null","null","arrowup","[0.85,0.15,0.675,0.325]","","",""
"sailing-trial","69","546105","0.0-11.0-28.0","","","","false","","","","","","","","","","656","","126","","2","0","arrowright","1","arrowleft","[0.85,0.15,0.675,0.325]","","",""
"sailing-trial","70","549046","0.0-11.0-29.0","","","","false","","","","","","","","","","null","","1095","","1","0","null","null","arrowup","[0.85,0.15,0.675,0.325]","","",""
"sailing-trial","71","552894","0.0-11.0-30.0","","","","false","","","","","","","","","","553","","4","","3","0","arrowright","1","arrowright","[0.85,0.15,0.675,0.325]","","",""
"sailing-trial","72","555476","0.0-11.0-31.0","","","","false","","","","","","","","","","null","","820","","3","0","null","null","arrowup","[0.85,0.15,0.675,0.325]","","",""
"sailing-trial","73","560143","0.0-11.0-32.0","","","","false","","","","","","","","","","535","","959","","1","0","arrowleft","0","arrowright","[0.85,0.15,0.675,0.325]","","",""
"sailing-trial","74","562817","0.0-11.0-33.0","","","","false","","","","","","","","","","null","","926.9999999998836","","1","0","null","null","arrowup","[0.85,0.15,0.675,0.325]","","",""
"sailing-trial","75","566785","0.0-11.0-34.0","","","","false","","","","","","","","","","520","","82","","0","0","arrowleft","0","arrowleft","[0.15,0.85,0.325,0.675]","","",""
"sailing-trial","76","569540","0.0-11.0-35.0","","","","false","","","","","","","","","","null","","999","","0","0","null","null","arrowup","[0.15,0.85,0.325,0.675]","","",""
"sailing-trial","77","576544","0.0-11.0-36.0","","","","false","","","","","","","","","","2517","","655","","3","1","arrowright","1","arrowright","[0.15,0.85,0.325,0.675]","","",""
"sailing-trial","78","579000","0.0-11.0-37.0","","","","false","","","","","","","","","","null","","809","","3","0","null","null","arrowup","[0.15,0.85,0.325,0.675]","","",""
"sailing-trial","79","583328","0.0-11.0-38.0","","","","false","","","","","","","","","","563.9999999998836","","107","","3","1","arrowright","1","arrowright","[0.15,0.85,0.325,0.675]","","",""
"sailing-trial","80","585962","0.0-11.0-39.0","","","","false","","","","","","","","","","null","","799","","3","0","null","null","arrowup","[0.15,0.85,0.325,0.675]","","",""
"sailing-trial","81","590681","0.0-11.0-40.0","","","","false","","","","","","","","","","597","","782","","3","0","arrowright","1","arrowright","[0.15,0.85,0.325,0.675]","","",""
"sailing-trial","82","593409","0.0-11.0-41.0","","","","false","","","","","","","","","","null","","1046","","3","0","null","null","arrowup","[0.15,0.85,0.325,0.675]","","",""
"sailing-trial","83","597561","0.0-11.0-42.0","","","","false","","","","","","","","","","496","","48","","2","1","arrowright","1","arrowleft","[0.15,0.85,0.325,0.675]","","",""
"sailing-trial","84","600203","0.0-11.0-43.0","","","","false","","","","","","","","","","null","","923","","0","0","null","null","arrowup","[0.15,0.85,0.325,0.675]","","",""
"sailing-trial","85","604900","0.0-11.0-44.0","","","","false","","","","","","","","","","565.0000000001164","","843","","2","0","arrowright","1","arrowleft","[0.15,0.85,0.325,0.675]","","",""
"sailing-trial","86","607993","0.0-11.0-45.0","","","","false","","","","","","","","","","null","","860","","2","1","null","null","arrowup","[0.15,0.85,0.325,0.675]","","",""
"sailing-trial","87","612037","0.0-11.0-46.0","","","","false","","","","","","","","","","498","","47.000000000116415","","0","0","arrowleft","0","arrowleft","[0.15,0.85,0.325,0.675]","","",""
"sailing-trial","88","615411","0.0-11.0-47.0","","","","false","","","","","","","","","","null","","982","","3","1","null","null","arrowup","[0.15,0.85,0.325,0.675]","","",""
"sailing-trial","89","620711","0.0-11.0-48.0","","","","false","","","","","","","","","","650","","996","","3","1","arrowright","1","arrowright","[0.15,0.85,0.325,0.675]","","",""
"sailing-trial","90","623400","0.0-11.0-49.0","","","","false","","","","","","","","","","null","","859","","3","0","null","null","arrowup","[0.15,0.85,0.325,0.675]","","",""
"sailing-trial","91","628028","0.0-11.0-50.0","","","","false","","","","","","","","","","631","","142","","3","1","arrowright","1","arrowright","[0.325,0.675,0.15,0.85]","","",""
"sailing-trial","92","631811","0.0-11.0-51.0","","","","false","","","","","","","","","","null","","737","","0","0","null","null","arrowup","[0.325,0.675,0.15,0.85]","","",""
"sailing-trial","93","636677","0.0-11.0-52.0","","","","false","","","","","","","","","","713.0000000001164","","555","","3","1","arrowright","1","arrowright","[0.325,0.675,0.15,0.85]","","",""
"sailing-trial","94","639861","0.0-11.0-53.0","","","","false","","","","","","","","","","null","","914.0000000001164","","3","1","null","null","arrowup","[0.325,0.675,0.15,0.85]","","",""
"sailing-trial","95","644661","0.0-11.0-54.0","","","","false","","","","","","","","","","677","","430","","3","1","arrowright","1","arrowright","[0.325,0.675,0.15,0.85]","","",""
"sailing-trial","96","648043","0.0-11.0-55.0","","","","false","","","","","","","","","","null","","1082","","1","1","null","null","arrowup","[0.325,0.675,0.15,0.85]","","",""
"sailing-trial","97","652139","0.0-11.0-56.0","","","","false","","","","","","","","","","620.9999999998836","","45","","3","0","arrowright","1","arrowright","[0.325,0.675,0.15,0.85]","","",""
"sailing-trial","98","655314","0.0-11.0-57.0","","","","false","","","","","","","","","","null","","872","","1","1","null","null","arrowup","[0.325,0.675,0.15,0.85]","","",""
"sailing-trial","99","659761","0.0-11.0-58.0","","","","false","","","","","","","","","","560","","261.0000000001164","","1","1","arrowleft","0","arrowright","[0.325,0.675,0.15,0.85]","","",""
"sailing-trial","100","662410","0.0-11.0-59.0","","","","false","","","","","","","","","","null","","831.0000000001164","","2","0","null","null","arrowup","[0.325,0.675,0.15,0.85]","","",""
"sailing-trial","101","666777","0.0-11.0-60.0","","","","false","","","","","","","","","","539","","178","","1","1","arrowleft","0","arrowright","[0.325,0.675,0.15,0.85]","","",""
"sailing-trial","102","669622","0.0-11.0-61.0","","","","false","","","","","","","","","","null","","985","","3","0","null","null","arrowup","[0.325,0.675,0.15,0.85]","","",""
"sailing-trial","103","674010","0.0-11.0-62.0","","","","false","","","","","","","","","","574.0000000001164","","318","","1","1","arrowleft","0","arrowright","[0.325,0.675,0.15,0.85]","","",""
"sailing-trial","104","677094","0.0-11.0-63.0","","","","false","","","","","","","","","","null","","785","","3","1","null","null","arrowup","[0.325,0.675,0.15,0.85]","","",""
"sailing-trial","105","681510","0.0-11.0-64.0","","","","false","","","","","","","","","","534","","200","","1","1","arrowleft","0","arrowright","[0.325,0.675,0.15,0.85]","","",""
"sailing-trial","106","684810","0.0-11.0-65.0","","","","false","","","","","","","","","","null","","1147","","1","1","null","null","arrowup","[0.325,0.675,0.15,0.85]","","",""
"sailing-trial","107","688724","0.0-11.0-66.0","","","","false","","","","","","","","","","631","","137","","1","0","arrowleft","0","arrowright","[0.15,0.85,0.325,0.675]","","",""
"sailing-trial","108","691728","0.0-11.0-67.0","","","","false","","","","","","","","","","null","","804","","3","1","null","null","arrowup","[0.15,0.85,0.325,0.675]","","",""
"sailing-trial","109","695977","0.0-11.0-68.0","","","","false","","","","","","","","","","607","","58","","3","1","arrowright","1","arrowright","[0.15,0.85,0.325,0.675]","","",""
"sailing-trial","110","699093","0.0-11.0-69.0","","","","false","","","","","","","","","","null","","1148","","2","0","null","null","arrowup","[0.15,0.85,0.325,0.675]","","",""
"sailing-trial","111","703361","0.0-11.0-70.0","","","","false","","","","","","","","","","565.9999999998836","","79","","3","1","arrowright","1","arrowright","[0.15,0.85,0.325,0.675]","","",""
"sailing-trial","112","705882","0.0-11.0-71.0","","","","false","","","","","","","","","","null","","860","","0","0","null","null","arrowup","[0.15,0.85,0.325,0.675]","","",""
"sailing-trial","113","710143","0.0-11.0-72.0","","","","false","","","","","","","","","","576","","119","","3","1","arrowright","1","arrowright","[0.15,0.85,0.325,0.675]","","",""
"sailing-trial","114","712731","0.0-11.0-73.0","","","","false","","","","","","","","","","null","","870","","2","0","null","null","arrowup","[0.15,0.85,0.325,0.675]","","",""
"sailing-trial","115","716828","0.0-11.0-74.0","","","","false","","","","","","","","","","647","","109","","3","0","arrowright","1","arrowright","[0.15,0.85,0.325,0.675]","","",""
"sailing-trial","116","719959","0.0-11.0-75.0","","","","false","","","","","","","","","","null","","812","","1","1","null","null","arrowup","[0.15,0.85,0.325,0.675]","","",""
"sailing-trial","117","724110","0.0-11.0-76.0","","","","false","","","","","","","","","","494","","81","","1","1","arrowleft","0","arrowright","[0.15,0.85,0.325,0.675]","","",""
"sailing-trial","118","727310","0.0-11.0-77.0","","","","false","","","","","","","","","","null","","1005","","2","1","null","null","arrowup","[0.15,0.85,0.325,0.675]","","",""
"sailing-trial","119","731661","0.0-11.0-78.0","","","","false","","","","","","","","","","575","","263","","1","1","arrowleft","0","arrowright","[0.15,0.85,0.325,0.675]","","",""
"sailing-trial","120","734810","0.0-11.0-79.0","","","","false","","","","","","","","","","null","","849","","3","1","null","null","arrowup","[0.15,0.85,0.325,0.675]","","",""
"sailing-trial","121","740075","0.0-11.0-80.0","","","","false","","","","","","","","","","571","","1079","","1","1","arrowleft","0","arrowright","[0.15,0.85,0.325,0.675]","","",""
"sailing-trial","122","742615","0.0-11.0-81.0","","","","false","","","","","","","","","","null","","757","","2","0","null","null","arrowup","[0.15,0.85,0.325,0.675]","","",""
"sailing-trial","123","747261","0.0-11.0-82.0","","","","false","","","","","","","","","","535.0000000001164","","143","","1","0","arrowleft","0","arrowright","[0.325,0.675,0.15,0.85]","","",""
"sailing-trial","124","750092","0.0-11.0-83.0","","","","false","","","","","","","","","","null","","1032","","2","0","null","null","arrowup","[0.325,0.675,0.15,0.85]","","",""
"sailing-trial","125","754860","0.0-11.0-84.0","","","","false","","","","","","","","","","521","","578","","3","1","arrowright","1","arrowright","[0.325,0.675,0.15,0.85]","","",""
"sailing-trial","126","758360","0.0-11.0-85.0","","","","false","","","","","","","","","","null","","1236","","3","1","null","null","arrowup","[0.325,0.675,0.15,0.85]","","",""
"sailing-trial","127","763926","0.0-11.0-86.0","","","","false","","","","","","","","","","679","","461","","3","0","arrowright","1","arrowright","[0.325,0.675,0.15,0.85]","","",""
"sailing-trial","128","767294","0.0-11.0-87.0","","","","false","","","","","","","","","","null","","1081","","3","1","null","null","arrowup","[0.325,0.675,0.15,0.85]","","",""
"sailing-trial","129","771843","0.0-11.0-88.0","","","","false","","","","","","","","","","643","","225","","3","1","arrowright","1","arrowright","[0.325,0.675,0.15,0.85]","","",""
"sailing-trial","130","775226","0.0-11.0-89.0","","","","false","","","","","","","","","","null","","1274","","2","0","null","null","arrowup","[0.325,0.675,0.15,0.85]","","",""
"sailing-trial","131","779560","0.0-11.0-90.0","","","","false","","","","","","","","","","528","","250","","3","1","arrowright","1","arrowright","[0.325,0.675,0.15,0.85]","","",""
"sailing-trial","132","782943","0.0-11.0-91.0","","","","false","","","","","","","","","","null","","954","","1","1","null","null","arrowup","[0.325,0.675,0.15,0.85]","","",""
"sailing-trial","133","787629","0.0-11.0-92.0","","","","false","","","","","","","","","","619","","541","","3","1","arrowright","1","arrowright","[0.325,0.675,0.15,0.85]","","",""
"sailing-trial","134","791048","0.0-11.0-93.0","","","","false","","","","","","","","","","null","","1337","","2","0","null","null","arrowup","[0.325,0.675,0.15,0.85]","","",""
"sailing-trial","135","796910","0.0-11.0-94.0","","","","false","","","","","","","","","","1502.0000000001164","","225","","3","1","arrowright","1","arrowright","[0.325,0.675,0.15,0.85]","","",""
"sailing-trial","136","800193","0.0-11.0-95.0","","","","false","","","","","","","","","","null","","995","","1","1","null","null","arrowup","[0.325,0.675,0.15,0.85]","","",""
"sailing-trial","137","804775","0.0-11.0-96.0","","","","false","","","","","","","","","","585","","255","","3","1","arrowright","1","arrowright","[0.325,0.675,0.15,0.85]","","",""
"sailing-trial","138","807955","0.0-11.0-97.0","","","","false","","","","","","","","","","null","","935","","0","0","null","null","arrowup","[0.325,0.675,0.15,0.85]","","",""
"sailing-trial","139","812427","0.0-11.0-98.0","","","","false","","","","","","","","","","610","","176.99999999988358","","3","1","arrowright","1","arrowright","[0.325,0.675,0.15,0.85]","","",""
"sailing-trial","140","816192","0.0-11.0-99.0","","","","false","","","","","","","","","","null","","1333","","1","1","null","null","arrowup","[0.325,0.675,0.15,0.85]","","",""
"sailing-trial","141","820760","0.0-11.0-100.0","","","","false","","","","","","","","","","635","","152","","3","1","arrowright","1","arrowright","[0.15,0.85,0.325,0.675]","","",""
"sailing-trial","142","823592","0.0-11.0-101.0","","","","false","","","","","","","","","","null","","990","","1","0","null","null","arrowup","[0.15,0.85,0.325,0.675]","","",""
"sailing-trial","143","828427","0.0-11.0-102.0","","","","false","","","","","","","","","","532","","597","","3","1","arrowright","1","arrowright","[0.15,0.85,0.325,0.675]","","",""
"sailing-trial","144","831720","0.0-11.0-103.0","","","","false","","","","","","","","","","null","","1128","","2","0","null","null","arrowup","[0.15,0.85,0.325,0.675]","","",""
"sailing-trial","145","836219","0.0-11.0-104.0","","","","false","","","","","","","","","","501","","457.9999999998836","","3","0","arrowright","1","arrowright","[0.15,0.85,0.325,0.675]","","",""
"sailing-trial","146","839227","0.0-11.0-105.0","","","","false","","","","","","","","","","null","","809.9999999998836","","1","1","null","null","arrowup","[0.15,0.85,0.325,0.675]","","",""
"sailing-trial","147","843760","0.0-11.0-106.0","","","","false","","","","","","","","","","660","","236","","1","1","arrowleft","0","arrowright","[0.15,0.85,0.325,0.675]","","",""
"sailing-trial","148","846272","0.0-11.0-107.0","","","","false","","","","","","","","","","null","","714.0000000001164","","1","0","null","null","arrowup","[0.15,0.85,0.325,0.675]","","",""
"sailing-trial","149","850744","0.0-11.0-108.0","","","","false","","","","","","","","","","606.9999999998836","","234","","1","1","arrowleft","0","arrowright","[0.15,0.85,0.325,0.675]","","",""
"sailing-trial","150","853370","0.0-11.0-109.0","","","","false","","","","","","","","","","null","","857","","0","0","null","null","arrowup","[0.15,0.85,0.325,0.675]","","",""
"sailing-trial","151","857107","0.0-11.0-110.0","","","","false","","","","","","","","","","516","","162.99999999988358","","1","0","arrowleft","0","arrowright","[0.15,0.85,0.325,0.675]","","",""
"sailing-trial","152","859909","0.0-11.0-111.0","","","","false","","","","","","","","","","null","","1131","","0","0","null","null","arrowup","[0.15,0.85,0.325,0.675]","","",""
"sailing-trial","153","864344","0.0-11.0-112.0","","","","false","","","","","","","","","","466","","288","","2","1","arrowright","1","arrowleft","[0.15,0.85,0.325,0.675]","","",""
"sailing-trial","154","867012","0.0-11.0-113.0","","","","false","","","","","","","","","","null","","829.9999999998836","","1","0","null","null","arrowup","[0.15,0.85,0.325,0.675]","","",""
"sailing-trial","155","871197","0.0-11.0-114.0","","","","false","","","","","","","","","","614","","400","","2","0","arrowright","1","arrowleft","[0.15,0.85,0.325,0.675]","","",""
"sailing-trial","156","874326","0.0-11.0-115.0","","","","false","","","","","","","","","","null","","971","","3","1","null","null","arrowup","[0.15,0.85,0.325,0.675]","","",""
"sailing-trial","157","878578","0.0-11.0-116.0","","","","false","","","","","","","","","","527.0000000001164","","208.00000000011642","","3","1","arrowright","1","arrowright","[0.325,0.675,0.15,0.85]","","",""
"sailing-trial","158","881811","0.0-11.0-117.0","","","","false","","","","","","","","","","null","","963.0000000001164","","0","1","null","null","arrowup","[0.325,0.675,0.15,0.85]","","",""
"sailing-trial","159","886759","0.0-11.0-118.0","","","","false","","","","","","","","","","576","","728","","3","1","arrowright","1","arrowright","[0.325,0.675,0.15,0.85]","","",""
"sailing-trial","160","889717","0.0-11.0-119.0","","","","false","","","","","","","","","","null","","907.0000000001164","","2","0","null","null","arrowup","[0.325,0.675,0.15,0.85]","","",""
"sailing-trial","161","893977","0.0-11.0-120.0","","","","false","","","","","","","","","","486","","143","","3","1","arrowright","1","arrowright","[0.325,0.675,0.15,0.85]","","",""
"sailing-trial","162","897293","0.0-11.0-121.0","","","","false","","","","","","","","","","null","","965","","3","1","null","null","arrowup","[0.325,0.675,0.15,0.85]","","",""
"sailing-trial","163","902110","0.0-11.0-122.0","","","","false","","","","","","","","","","757","","213","","3","1","arrowright","1","arrowright","[0.325,0.675,0.15,0.85]","","",""
"sailing-trial","164","905296","0.0-11.0-123.0","","","","false","","","","","","","","","","null","","1246","","2","0","null","null","arrowup","[0.325,0.675,0.15,0.85]","","",""
"sailing-trial","165","909777","0.0-11.0-124.0","","","","false","","","","","","","","","","607.0000000001164","","261","","3","1","arrowright","1","arrowright","[0.325,0.675,0.15,0.85]","","",""
"sailing-trial","166","913093","0.0-11.0-125.0","","","","false","","","","","","","","","","null","","1090","","3","1","null","null","arrowup","[0.325,0.675,0.15,0.85]","","",""
"sailing-trial","167","917626","0.0-11.0-126.0","","","","false","","","","","","","","","","523","","416.0000000001164","","3","1","arrowright","1","arrowright","[0.325,0.675,0.15,0.85]","","",""
"sailing-trial","168","920843","0.0-11.0-127.0","","","","false","","","","","","","","","","null","","941","","1","1","null","null","arrowup","[0.325,0.675,0.15,0.85]","","",""
"sailing-trial","169","925111","0.0-11.0-128.0","","","","false","","","","","","","","","","559","","45","","3","1","arrowright","1","arrowright","[0.325,0.675,0.15,0.85]","","",""
"sailing-trial","170","928392","0.0-11.0-129.0","","","","false","","","","","","","","","","null","","1013.0000000001164","","2","1","null","null","arrowup","[0.325,0.675,0.15,0.85]","","",""
"sailing-trial","171","932861","0.0-11.0-130.0","","","","false","","","","","","","","","","604","","100","","3","1","arrowright","1","arrowright","[0.325,0.675,0.15,0.85]","","",""
"sailing-trial","172","936027","0.0-11.0-131.0","","","","false","","","","","","","","","","null","","966.0000000001164","","2","1","null","null","arrowup","[0.325,0.675,0.15,0.85]","","",""
"sailing-trial","173","940511","0.0-11.0-132.0","","","","false","","","","","","","","","","513","","750","","3","0","arrowright","1","arrowright","[0.325,0.675,0.15,0.85]","","",""
"sailing-trial","174","943876","0.0-11.0-133.0","","","","false","","","","","","","","","","null","","1131","","0","1","null","null","arrowup","[0.325,0.675,0.15,0.85]","","",""
"sailing-trial","175","947820","0.0-11.0-134.0","","","","false","","","","","","","","","","572","","183","","0","0","arrowleft","0","arrowleft","[0.15,0.85,0.325,0.675]","","",""
"sailing-trial","176","950944","0.0-11.0-135.0","","","","false","","","","","","","","","","null","","878","","3","1","null","null","arrowup","[0.15,0.85,0.325,0.675]","","",""
"sailing-trial","177","955457","0.0-11.0-136.0","","","","false","","","","","","","","","","658","","589","","3","0","arrowright","1","arrowright","[0.15,0.85,0.325,0.675]","","",""
"sailing-trial","178","958443","0.0-11.0-137.0","","","","false","","","","","","","","","","null","","709.9999999998836","","1","1","null","null","arrowup","[0.15,0.85,0.325,0.675]","","",""
"sailing-trial","179","963044","0.0-11.0-138.0","","","","false","","","","","","","","","","457","","573.0000000001164","","1","1","arrowleft","0","arrowright","[0.15,0.85,0.325,0.675]","","",""
"sailing-trial","180","965410","0.0-11.0-139.0","","","","false","","","","","","","","","","null","","694","","3","0","null","null","arrowup","[0.15,0.85,0.325,0.675]","","",""
"sailing-trial","181","969859","0.0-11.0-140.0","","","","false","","","","","","","","","","535","","383.0000000001164","","1","1","arrowleft","0","arrowright","[0.15,0.85,0.325,0.675]","","",""
"sailing-trial","182","973178","0.0-11.0-141.0","","","","false","","","","","","","","","","null","","972","","2","1","null","null","arrowup","[0.15,0.85,0.325,0.675]","","",""
"sailing-trial","183","977844","0.0-11.0-142.0","","","","false","","","","","","","","","","626.9999999998836","","487","","1","1","arrowleft","0","arrowright","[0.15,0.85,0.325,0.675]","","",""
"sailing-trial","184","981093","0.0-11.0-143.0","","","","false","","","","","","","","","","null","","992","","0","1","null","null","arrowup","[0.15,0.85,0.325,0.675]","","",""
"sailing-trial","185","985271","0.0-11.0-144.0","","","","false","","","","","","","","","","755","","73.99999999988358","","1","0","arrowleft","0","arrowright","[0.15,0.85,0.325,0.675]","","",""
"sailing-trial","186","988629","0.0-11.0-145.0","","","","false","","","","","","","","","","null","","756","","0","0","null","null","arrowup","[0.15,0.85,0.325,0.675]","","",""
"sailing-trial","187","994618","0.0-11.0-146.0","","","","false","","","","","","","","","","1690","","1043","","0","0","arrowleft","0","arrowleft","[0.15,0.85,0.325,0.675]","","",""
"sailing-trial","188","997710","0.0-11.0-147.0","","","","false","","","","","","","","","","null","","884","","1","1","null","null","arrowup","[0.15,0.85,0.325,0.675]","","",""
"sailing-trial","189","1002077","0.0-11.0-148.0","","","","false","","","","","","","","","","625","","215","","1","1","arrowleft","0","arrowright","[0.15,0.85,0.325,0.675]","","",""
"sailing-trial","190","1004620","0.0-11.0-149.0","","","","false","","","","","","","","","","null","","828.9999999998836","","2","0","null","null","arrowup","[0.15,0.85,0.325,0.675]","","",""
"sailing-trial","191","1009077","0.0-11.0-150.0","","","","false","","","","","","","","","","558.9999999998836","","218.99999999988358","","1","1","arrowleft","0","arrowright","[0.325,0.675,0.15,0.85]","","",""
"sailing-trial","192","1012210","0.0-11.0-151.0","","","","false","","","","","","","","","","null","","998","","3","1","null","null","arrowup","[0.325,0.675,0.15,0.85]","","",""
"sailing-trial","193","1016760","0.0-11.0-152.0","","","","false","","","","","","","","","","571","","412","","1","1","arrowleft","0","arrowright","[0.325,0.675,0.15,0.85]","","",""
"sailing-trial","194","1019391","0.0-11.0-153.0","","","","false","","","","","","","","","","null","","821","","2","0","null","null","arrowup","[0.325,0.675,0.15,0.85]","","",""
"sailing-trial","195","1024161","0.0-11.0-154.0","","","","false","","","","","","","","","","652","","316","","1","1","arrowleft","0","arrowright","[0.325,0.675,0.15,0.85]","","",""
"sailing-trial","196","1027144","0.0-11.0-155.0","","","","false","","","","","","","","","","null","","704.9999999998836","","3","1","null","null","arrowup","[0.325,0.675,0.15,0.85]","","",""
"sailing-trial","197","1031375","0.0-11.0-156.0","","","","false","","","","","","","","","","611.0000000001164","","588.0000000002328","","1","0","arrowleft","0","arrowright","[0.325,0.675,0.15,0.85]","","",""
"sailing-trial","198","1034344","0.0-11.0-157.0","","","","false","","","","","","","","","","null","","851.0000000001164","","3","1","null","null","arrowup","[0.325,0.675,0.15,0.85]","","",""
"sailing-trial","199","1038860","0.0-11.0-158.0","","","","false","","","","","","","","","","511","","425.00000000023283","","3","1","arrowright","1","arrowright","[0.325,0.675,0.15,0.85]","","",""
"sailing-trial","200","1041453","0.0-11.0-159.0","","","","false","","","","","","","","","","null","","897.9999999998836","","0","0","null","null","arrowup","[0.325,0.675,0.15,0.85]","","",""
"sailing-trial","201","1046027","0.0-11.0-160.0","","","","false","","","","","","","","","","510","","446.9999999998836","","3","1","arrowright","1","arrowright","[0.325,0.675,0.15,0.85]","","",""
"sailing-trial","202","1049277","0.0-11.0-161.0","","","","false","","","","","","","","","","null","","1116","","3","1","null","null","arrowup","[0.325,0.675,0.15,0.85]","","",""
"sailing-trial","203","1054124","0.0-11.0-162.0","","","","false","","","","","","","","","","646","","413","","3","0","arrowright","1","arrowright","[0.325,0.675,0.15,0.85]","","",""
"sailing-trial","204","1060446","0.0-11.0-163.0","","","","false","","","","","","","","","","null","","4222","","2","0","null","null","arrowup","[0.325,0.675,0.15,0.85]","","",""
"sailing-trial","205","1065277","0.0-11.0-164.0","","","","false","","","","","","","","","","1230","","402","","3","0","arrowright","1","arrowright","[0.325,0.675,0.15,0.85]","","",""
"sailing-trial","206","1069260","0.0-11.0-165.0","","","","false","","","","","","","","","","null","","1930","","0","0","null","null","arrowup","[0.325,0.675,0.15,0.85]","","",""
"sailing-trial","207","1073545","0.0-11.0-166.0","","","","false","","","","","","","","","","726","","267","","1","0","arrowleft","0","arrowright","[0.325,0.675,0.15,0.85]","","",""
"sailing-trial","208","1076146","0.0-11.0-167.0","","","","false","","","","","","","","","","null","","964","","0","0","null","null","arrowup","[0.325,0.675,0.15,0.85]","","",""
"sailing-trial","209","1080427","0.0-11.0-168.0","","","","false","","","","","","","","","","541","","147","","2","1","arrowright","1","arrowleft","[0.325,0.675,0.15,0.85]","","",""
"sailing-trial","210","1082869","0.0-11.0-169.0","","","","false","","","","","","","","","","null","","761","","2","0","null","null","arrowup","[0.325,0.675,0.15,0.85]","","",""
"sailing-trial","211","1086916","0.0-11.0-170.0","","","","false","","","","","","","","","","757","","246","","2","0","arrowright","1","arrowleft","[0.85,0.15,0.675,0.325]","","",""
"sailing-trial","212","1089975","0.0-11.0-171.0","","","","false","","","","","","","","","","null","","836","","2","1","null","null","arrowup","[0.85,0.15,0.675,0.325]","","",""
"sailing-trial","213","1093762","0.0-11.0-172.0","","","","false","","","","","","","","","","558","","144","","3","0","arrowright","1","arrowright","[0.85,0.15,0.675,0.325]","","",""
"sailing-trial","214","1096165","0.0-11.0-173.0","","","","false","","","","","","","","","","null","","763","","3","0","null","null","arrowup","[0.85,0.15,0.675,0.325]","","",""
"sailing-trial","215","1100426","0.0-11.0-174.0","","","","false","","","","","","","","","","550","","150","","2","1","arrowright","1","arrowleft","[0.85,0.15,0.675,0.325]","","",""
"sailing-trial","216","1103708","0.0-11.0-175.0","","","","false","","","","","","","","","","null","","1503.9999999997672","","3","0","null","null","arrowup","[0.85,0.15,0.675,0.325]","","",""
"sailing-trial","217","1108094","0.0-11.0-176.0","","","","false","","","","","","","","","","640.0000000002328","","196","","2","1","arrowright","1","arrowleft","[0.85,0.15,0.675,0.325]","","",""
"sailing-trial","218","1111426","0.0-11.0-177.0","","","","false","","","","","","","","","","null","","1097","","3","1","null","null","arrowup","[0.85,0.15,0.675,0.325]","","",""
"sailing-trial","219","1115876","0.0-11.0-178.0","","","","false","","","","","","","","","","684.0000000002328","","111","","2","1","arrowright","1","arrowleft","[0.85,0.15,0.675,0.325]","","",""
"sailing-trial","220","1119131","0.0-11.0-179.0","","","","false","","","","","","","","","","null","","1281","","1","0","null","null","arrowup","[0.85,0.15,0.675,0.325]","","",""
"sailing-trial","221","1123494","0.0-11.0-180.0","","","","false","","","","","","","","","","651","","102","","2","1","arrowright","1","arrowleft","[0.85,0.15,0.675,0.325]","","",""
"sailing-trial","222","1126399","0.0-11.0-181.0","","","","false","","","","","","","","","","null","","911","","1","0","null","null","arrowup","[0.85,0.15,0.675,0.325]","","",""
"sailing-trial","223","1130705","0.0-11.0-182.0","","","","false","","","","","","","","","","662","","260","","2","0","arrowright","1","arrowleft","[0.85,0.15,0.675,0.325]","","",""
"sailing-trial","224","1133284","0.0-11.0-183.0","","","","false","","","","","","","","","","null","","901","","3","0","null","null","arrowup","[0.85,0.15,0.675,0.325]","","",""
"sailing-trial","225","1137594","0.0-11.0-184.0","","","","false","","","","","","","","","","566","","151","","0","1","arrowleft","0","arrowleft","[0.85,0.15,0.675,0.325]","","",""
"sailing-trial","226","1140710","0.0-11.0-185.0","","","","false","","","","","","","","","","null","","984","","0","1","null","null","arrowup","[0.85,0.15,0.675,0.325]","","",""
"sailing-trial","227","1145527","0.0-11.0-186.0","","","","false","","","","","","","","","","714","","540","","0","1","arrowleft","0","arrowleft","[0.85,0.15,0.675,0.325]","","",""
"sailing-trial","228","1148743","0.0-11.0-187.0","","","","false","","","","","","","","","","null","","938","","1","1","null","null","arrowup","[0.85,0.15,0.675,0.325]","","",""
"sailing-trial","229","1159293","0.0-11.0-188.0","","","","false","","","","","","","","","","5221","","1087","","0","1","arrowleft","0","arrowleft","[0.675,0.325,0.85,0.15]","","",""
"sailing-trial","230","1163543","0.0-11.0-189.0","","","","false","","","","","","","","","","null","","1781","","1","1","null","null","arrowup","[0.675,0.325,0.85,0.15]","","",""
"sailing-trial","231","1167575","0.0-11.0-190.0","","","","false","","","","","","","","","","509.99999999976717","","22","","0","0","arrowleft","0","arrowleft","[0.675,0.325,0.85,0.15]","","",""
"sailing-trial","232","1170126","0.0-11.0-191.0","","","","false","","","","","","","","","","null","","749","","3","0","null","null","arrowup","[0.675,0.325,0.85,0.15]","","",""
"sailing-trial","233","1174843","0.0-11.0-192.0","","","","false","","","","","","","","","","553.9999999997672","","587","","1","1","arrowleft","0","arrowright","[0.675,0.325,0.85,0.15]","","",""
"sailing-trial","234","1178143","0.0-11.0-193.0","","","","false","","","","","","","","","","null","","780","","2","1","null","null","arrowup","[0.675,0.325,0.85,0.15]","","",""
"sailing-trial","235","1182357","0.0-11.0-194.0","","","","false","","","","","","","","","","760","","26","","1","0","arrowleft","0","arrowright","[0.675,0.325,0.85,0.15]","","",""
"sailing-trial","236","1185494","0.0-11.0-195.0","","","","false","","","","","","","","","","null","","903","","2","1","null","null","arrowup","[0.675,0.325,0.85,0.15]","","",""
"sailing-trial","237","1189959","0.0-11.0-196.0","","","","false","","","","","","","","","","608","","205.00000000023283","","2","1","arrowright","1","arrowleft","[0.675,0.325,0.85,0.15]","","",""
"sailing-trial","238","1192976","0.0-11.0-197.0","","","","false","","","","","","","","","","null","","824.0000000002328","","1","1","null","null","arrowup","[0.675,0.325,0.85,0.15]","","",""
"sailing-trial","239","1197543","0.0-11.0-198.0","","","","false","","","","","","","","","","651","","260","","2","1","arrowright","1","arrowleft","[0.675,0.325,0.85,0.15]","","",""
"sailing-trial","240","1200345","0.0-11.0-199.0","","","","false","","","","","","","","","","null","","962.9999999997672","","1","0","null","null","arrowup","[0.675,0.325,0.85,0.15]","","",""
"sailing-trial","241","1204876","0.0-11.0-200.0","","","","false","","","","","","","","","","639","","249","","2","1","arrowright","1","arrowleft","[0.675,0.325,0.85,0.15]","","",""
"sailing-trial","242","1208893","0.0-11.0-201.0","","","","false","","","","","","","","","","null","","1609.0000000002328","","2","1","null","null","arrowup","[0.675,0.325,0.85,0.15]","","",""
"sailing-trial","243","1213443","0.0-11.0-202.0","","","","false","","","","","","","","","","702","","237","","2","1","arrowright","1","arrowleft","[0.675,0.325,0.85,0.15]","","",""
"sailing-trial","244","1215891","0.0-11.0-203.0","","","","false","","","","","","","","","","null","","761","","1","0","null","null","arrowup","[0.675,0.325,0.85,0.15]","","",""
"sailing-trial","245","1220776","0.0-11.0-204.0","","","","false","","","","","","","","","","752","","530","","2","1","arrowright","1","arrowleft","[0.675,0.325,0.85,0.15]","","",""
"sailing-trial","246","1224127","0.0-11.0-205.0","","","","false","","","","","","","","","","null","","954","","2","1","null","null","arrowup","[0.675,0.325,0.85,0.15]","","",""
"sailing-trial","247","1228727","0.0-11.0-206.0","","","","false","","","","","","","","","","587","","303","","2","1","arrowright","1","arrowleft","[0.675,0.325,0.85,0.15]","","",""
"sailing-trial","248","1232027","0.0-11.0-207.0","","","","false","","","","","","","","","","null","","891.0000000002328","","1","1","null","null","arrowup","[0.675,0.325,0.85,0.15]","","",""
"sailing-trial","249","1236506","0.0-11.0-208.0","","","","false","","","","","","","","","","643","","699","","2","0","arrowright","1","arrowleft","[0.325,0.675,0.15,0.85]","","",""
"sailing-trial","250","1238992","0.0-11.0-209.0","","","","false","","","","","","","","","","null","","804","","1","0","null","null","arrowup","[0.325,0.675,0.15,0.85]","","",""
"sailing-trial","251","1243343","0.0-11.0-210.0","","","","false","","","","","","","","","","677","","151","","1","1","arrowleft","0","arrowright","[0.325,0.675,0.15,0.85]","","",""
"sailing-trial","252","1245988","0.0-11.0-211.0","","","","false","","","","","","","","","","null","","828","","2","0","null","null","arrowup","[0.325,0.675,0.15,0.85]","","",""
"sailing-trial","253","1250276","0.0-11.0-212.0","","","","false","","","","","","","","","","554","","175","","1","1","arrowleft","0","arrowright","[0.325,0.675,0.15,0.85]","","",""
"sailing-trial","254","1253374","0.0-11.0-213.0","","","","false","","","","","","","","","","null","","1285","","1","0","null","null","arrowup","[0.325,0.675,0.15,0.85]","","",""
"sailing-trial","255","1258727","0.0-11.0-214.0","","","","false","","","","","","","","","","1491","","247.00000000023283","","1","1","arrowleft","0","arrowright","[0.325,0.675,0.15,0.85]","","",""
"sailing-trial","256","1261372","0.0-11.0-215.0","","","","false","","","","","","","","","","null","","857.9999999997672","","2","0","null","null","arrowup","[0.325,0.675,0.15,0.85]","","",""
"sailing-trial","257","1265994","0.0-11.0-216.0","","","","false","","","","","","","","","","571","","201","","1","1","arrowleft","0","arrowright","[0.325,0.675,0.15,0.85]","","",""
"sailing-trial","258","1269260","0.0-11.0-217.0","","","","false","","","","","","","","","","null","","995","","3","1","null","null","arrowup","[0.325,0.675,0.15,0.85]","","",""
"sailing-trial","259","1273977","0.0-11.0-218.0","","","","false","","","","","","","","","","821","","104","","1","1","arrowleft","0","arrowright","[0.325,0.675,0.15,0.85]","","",""
"sailing-trial","260","1277444","0.0-11.0-219.0","","","","false","","","","","","","","","","null","","1068","","1","1","null","null","arrowup","[0.325,0.675,0.15,0.85]","","",""
"sailing-trial","261","1283377","0.0-11.0-220.0","","","","false","","","","","","","","","","806","","365","","1","1","arrowleft","0","arrowright","[0.325,0.675,0.15,0.85]","","",""
"sailing-trial","262","1286170","0.0-11.0-221.0","","","","false","","","","","","","","","","null","","841","","2","0","null","null","arrowup","[0.325,0.675,0.15,0.85]","","",""
"sailing-trial","263","1290677","0.0-11.0-222.0","","","","false","","","","","","","","","","638","","126","","1","1","arrowleft","0","arrowright","[0.325,0.675,0.15,0.85]","","",""
"sailing-trial","264","1294809","0.0-11.0-223.0","","","","false","","","","","","","","","","null","","1670","","1","1","null","null","arrowup","[0.325,0.675,0.15,0.85]","","",""
"sailing-trial","265","1299240","0.0-11.0-224.0","","","","false","","","","","","","","","","820","","474.00000000023283","","1","0","arrowleft","0","arrowright","[0.85,0.15,0.675,0.325]","","",""
"sailing-trial","266","1302610","0.0-11.0-225.0","","","","false","","","","","","","","","","null","","1041","","0","1","null","null","arrowup","[0.85,0.15,0.675,0.325]","","",""
"sailing-trial","267","1306827","0.0-11.0-226.0","","","","false","","","","","","","","","","556","","41","","0","1","arrowleft","0","arrowleft","[0.85,0.15,0.675,0.325]","","",""
"sailing-trial","268","1309807","0.0-11.0-227.0","","","","false","","","","","","","","","","null","","1229","","0","0","null","null","arrowup","[0.85,0.15,0.675,0.325]","","",""
"sailing-trial","269","1315093","0.0-11.0-228.0","","","","false","","","","","","","","","","1414","","23","","0","1","arrowleft","0","arrowleft","[0.85,0.15,0.675,0.325]","","",""
"sailing-trial","270","1318278","0.0-11.0-229.0","","","","false","","","","","","","","","","null","","871","","3","0","null","null","arrowup","[0.85,0.15,0.675,0.325]","","",""
"sailing-trial","271","1323310","0.0-11.0-230.0","","","","false","","","","","","","","","","767","","468","","0","1","arrowleft","0","arrowleft","[0.85,0.15,0.675,0.325]","","",""
"sailing-trial","272","1326384","0.0-11.0-231.0","","","","false","","","","","","","","","","null","","1379.0000000002328","","2","0","null","null","arrowup","[0.85,0.15,0.675,0.325]","","",""
"sailing-trial","273","1330526","0.0-11.0-232.0","","","","false","","","","","","","","","","564.0000000002328","","81","","0","1","arrowleft","0","arrowleft","[0.85,0.15,0.675,0.325]","","",""
"sailing-trial","274","1333593","0.0-11.0-233.0","","","","false","","","","","","","","","","null","","860","","0","1","null","null","arrowup","[0.85,0.15,0.675,0.325]","","",""
"sailing-trial","275","1339842","0.0-11.0-234.0","","","","false","","","","","","","","","","616.0000000002328","","867","","0","1","arrowleft","0","arrowleft","[0.85,0.15,0.675,0.325]","","",""
"sailing-trial","276","1342561","0.0-11.0-235.0","","","","false","","","","","","","","","","null","","1038","","0","0","null","null","arrowup","[0.85,0.15,0.675,0.325]","","",""
"sailing-trial","277","1347077","0.0-11.0-236.0","","","","false","","","","","","","","","","809","","176","","0","1","arrowleft","0","arrowleft","[0.85,0.15,0.675,0.325]","","",""
"sailing-trial","278","1349751","0.0-11.0-237.0","","","","false","","","","","","","","","","null","","941","","3","0","null","null","arrowup","[0.85,0.15,0.675,0.325]","","",""
"sailing-trial","279","1355825","0.0-11.0-238.0","","","","false","","","","","","","","","","2218","","198","","0","1","arrowleft","0","arrowleft","[0.85,0.15,0.675,0.325]","","",""
"sailing-trial","280","1359758","0.0-11.0-239.0","","","","false","","","","","","","","","","null","","1666","","2","1","null","null","arrowup","[0.85,0.15,0.675,0.325]","","",""
"sailing-trial","281","1364442","0.0-11.0-240.0","","","","false","","","","","","","","","","640","","246","","0","1","arrowleft","0","arrowleft","[0.85,0.15,0.675,0.325]","","",""
"sailing-trial","282","1367977","0.0-11.0-241.0","","","","false","","","","","","","","","","null","","979.0000000002328","","0","1","null","null","arrowup","[0.85,0.15,0.675,0.325]","","",""
"sailing-trial","283","1372827","0.0-11.0-242.0","","","","false","","","","","","","","","","751.0000000002328","","294.99999999976717","","0","1","arrowleft","0","arrowleft","[0.85,0.15,0.675,0.325]","","",""
"sailing-trial","284","1376692","0.0-11.0-243.0","","","","false","","","","","","","","","","null","","1379.0000000002328","","0","1","null","null","arrowup","[0.85,0.15,0.675,0.325]","","",""
"sailing-trial","285","1382493","0.0-11.0-244.0","","","","false","","","","","","","","","","1885","","117","","0","1","arrowleft","0","arrowleft","[0.85,0.15,0.675,0.325]","","",""
"sailing-trial","286","1385804","0.0-11.0-245.0","","","","false","","","","","","","","","","null","","964","","2","0","null","null","arrowup","[0.85,0.15,0.675,0.325]","","",""
"sailing-trial","287","1390643","0.0-11.0-246.0","","","","false","","","","","","","","","","564","","548","","0","1","arrowleft","0","arrowleft","[0.675,0.325,0.85,0.15]","","",""
"sailing-trial","288","1394223","0.0-11.0-247.0","","","","false","","","","","","","","","","null","","1703","","1","0","null","null","arrowup","[0.675,0.325,0.85,0.15]","","",""
"sailing-trial","289","1398876","0.0-11.0-248.0","","","","false","","","","","","","","","","527","","567","","0","1","arrowleft","0","arrowleft","[0.675,0.325,0.85,0.15]","","",""
"sailing-trial","290","1402877","0.0-11.0-249.0","","","","false","","","","","","","","","","null","","1798","","0","1","null","null","arrowup","[0.675,0.325,0.85,0.15]","","",""
"sailing-trial","291","1407508","0.0-11.0-250.0","","","","false","","","","","","","","","","593","","248","","0","1","arrowleft","0","arrowleft","[0.675,0.325,0.85,0.15]","","",""
"sailing-trial","292","1410744","0.0-11.0-251.0","","","","false","","","","","","","","","","null","","861","","1","1","null","null","arrowup","[0.675,0.325,0.85,0.15]","","",""
"sailing-trial","293","1415232","0.0-11.0-252.0","","","","false","","","","","","","","","","605","","439.99999999976717","","0","0","arrowleft","0","arrowleft","[0.675,0.325,0.85,0.15]","","",""
"sailing-trial","294","1417787","0.0-11.0-253.0","","","","false","","","","","","","","","","null","","897","","1","0","null","null","arrowup","[0.675,0.325,0.85,0.15]","","",""
"sailing-trial","295","1422046","0.0-11.0-254.0","","","","false","","","","","","","","","","959.0000000002328","","259","","0","0","arrowleft","0","arrowleft","[0.675,0.325,0.85,0.15]","","",""
"sailing-trial","296","1425059","0.0-11.0-255.0","","","","false","","","","","","","","","","null","","905.9999999997672","","0","1","null","null","arrowup","[0.675,0.325,0.85,0.15]","","",""
"sailing-trial","297","1429365","0.0-11.0-256.0","","","","false","","","","","","","","","","523","","571","","2","0","arrowright","1","arrowleft","[0.675,0.325,0.85,0.15]","","",""
"sailing-trial","298","1431939","0.0-11.0-257.0","","","","false","","","","","","","","","","null","","916","","0","0","null","null","arrowup","[0.675,0.325,0.85,0.15]","","",""
"sailing-trial","299","1437226","0.0-11.0-258.0","","","","false","","","","","","","","","","1696","","79.99999999976717","","1","1","arrowleft","0","arrowright","[0.675,0.325,0.85,0.15]","","",""
"sailing-trial","300","1440526","0.0-11.0-259.0","","","","false","","","","","","","","","","null","","1063","","1","1","null","null","arrowup","[0.675,0.325,0.85,0.15]","","",""
"sailing-trial","301","1444710","0.0-11.0-260.0","","","","false","","","","","","","","","","606","","43","","1","1","arrowleft","0","arrowright","[0.675,0.325,0.85,0.15]","","",""
"sailing-trial","302","1447962","0.0-11.0-261.0","","","","false","","","","","","","","","","null","","877.9999999997672","","1","0","null","null","arrowup","[0.675,0.325,0.85,0.15]","","",""
"sailing-trial","303","1452576","0.0-11.0-262.0","","","","false","","","","","","","","","","1036.0000000002328","","89","","1","1","arrowleft","0","arrowright","[0.675,0.325,0.85,0.15]","","",""
"sailing-trial","304","1455358","0.0-11.0-263.0","","","","false","","","","","","","","","","null","","906","","2","0","null","null","arrowup","[0.675,0.325,0.85,0.15]","","",""
"sailing-trial","305","1459186","0.0-11.0-264.0","","","","false","","","","","","","","","","607","","32","","1","0","arrowleft","0","arrowright","[0.675,0.325,0.85,0.15]","","",""
"sailing-trial","306","1463891","0.0-11.0-265.0","","","","false","","","","","","","","","","null","","1034","","2","1","null","null","arrowup","[0.675,0.325,0.85,0.15]","","",""
"sailing-trial","307","1472413","0.0-11.0-266.0","","","","false","","","","","","","","","","1916","","416","","1","1","arrowleft","0","arrowright","[0.675,0.325,0.85,0.15]","","",""
"sailing-trial","308","1476030","0.0-11.0-267.0","","","","false","","","","","","","","","","null","","1120","","0","1","null","null","arrowup","[0.675,0.325,0.85,0.15]","","",""
"sailing-trial","309","1481079","0.0-11.0-268.0","","","","false","","","","","","","","","","668.0000000002328","","314","","1","1","arrowleft","0","arrowright","[0.325,0.675,0.15,0.85]","","",""
"sailing-trial","310","1484495","0.0-11.0-269.0","","","","false","","","","","","","","","","null","","1045","","0","0","null","null","arrowup","[0.325,0.675,0.15,0.85]","","",""
"sailing-trial","311","1489715","0.0-11.0-270.0","","","","false","","","","","","","","","","988","","549.9999999997672","","1","1","arrowleft","0","arrowright","[0.325,0.675,0.15,0.85]","","",""
"sailing-trial","312","1493185","0.0-11.0-271.0","","","","false","","","","","","","","","","null","","1607","","2","0","null","null","arrowup","[0.325,0.675,0.15,0.85]","","",""
"sailing-trial","313","1498516","0.0-11.0-272.0","","","","false","","","","","","","","","","1165.0000000002328","","415","","1","1","arrowleft","0","arrowright","[0.325,0.675,0.15,0.85]","","",""
"sailing-trial","314","1502881","0.0-11.0-273.0","","","","false","","","","","","","","","","null","","1952","","0","1","null","null","arrowup","[0.325,0.675,0.15,0.85]","","",""
"sailing-trial","315","1509331","0.0-11.0-274.0","","","","false","","","","","","","","","","2570.999999999767","","93.99999999976717","","1","1","arrowleft","0","arrowright","[0.325,0.675,0.15,0.85]","","",""
"sailing-trial","316","1513231","0.0-11.0-275.0","","","","false","","","","","","","","","","null","","1829","","1","1","null","null","arrowup","[0.325,0.675,0.15,0.85]","","",""
"sailing-trial","317","1517831","0.0-11.0-276.0","","","","false","","","","","","","","","","748","","344","","1","1","arrowleft","0","arrowright","[0.325,0.675,0.15,0.85]","","",""
"sailing-trial","318","1520826","0.0-11.0-277.0","","","","false","","","","","","","","","","null","","1252","","0","0","null","null","arrowup","[0.325,0.675,0.15,0.85]","","",""
"sailing-trial","319","1525698","0.0-11.0-278.0","","","","false","","","","","","","","","","810","","518","","1","1","arrowleft","0","arrowright","[0.325,0.675,0.15,0.85]","","",""
"sailing-trial","320","1529148","0.0-11.0-279.0","","","","false","","","","","","","","","","null","","1088","","2","1","null","null","arrowup","[0.325,0.675,0.15,0.85]","","",""
"sailing-trial","321","1533666","0.0-11.0-280.0","","","","false","","","","","","","","","","708","","469","","1","0","arrowleft","0","arrowright","[0.325,0.675,0.15,0.85]","","",""
"sailing-trial","322","1536581","0.0-11.0-281.0","","","","false","","","","","","","","","","null","","728","","2","1","null","null","arrowup","[0.325,0.675,0.15,0.85]","","",""
"sailing-trial","323","1541165","0.0-11.0-282.0","","","","false","","","","","","","","","","738","","325","","1","1","arrowleft","0","arrowright","[0.325,0.675,0.15,0.85]","","",""
"sailing-trial","324","1543472","0.0-11.0-283.0","","","","false","","","","","","","","","","null","","726.0000000002328","","0","0","null","null","arrowup","[0.325,0.675,0.15,0.85]","","",""
"sailing-trial","325","1548098","0.0-11.0-284.0","","","","false","","","","","","","","","","623","","443","","1","1","arrowleft","0","arrowright","[0.15,0.85,0.325,0.675]","","",""
"sailing-trial","326","1550778","0.0-11.0-285.0","","","","false","","","","","","","","","","null","","862","","2","0","null","null","arrowup","[0.15,0.85,0.325,0.675]","","",""
"sailing-trial","327","1554572","0.0-11.0-286.0","","","","false","","","","","","","","","","598","","77","","1","0","arrowleft","0","arrowright","[0.15,0.85,0.325,0.675]","","",""
"sailing-trial","328","1557168","0.0-11.0-287.0","","","","false","","","","","","","","","","null","","921","","0","0","null","null","arrowup","[0.15,0.85,0.325,0.675]","","",""
"sailing-trial","329","1561047","0.0-11.0-288.0","","","","false","","","","","","","","","","585","","210","","2","0","arrowright","1","arrowleft","[0.15,0.85,0.325,0.675]","","",""
"sailing-trial","330","1564047","0.0-11.0-289.0","","","","false","","","","","","","","","","null","","896","","3","1","null","null","arrowup","[0.15,0.85,0.325,0.675]","","",""
"sailing-trial","331","1568581","0.0-11.0-290.0","","","","false","","","","","","","","","","581","","327","","1","1","arrowleft","0","arrowright","[0.15,0.85,0.325,0.675]","","",""
"sailing-trial","332","1571078","0.0-11.0-291.0","","","","false","","","","","","","","","","null","","800","","0","0","null","null","arrowup","[0.15,0.85,0.325,0.675]","","",""
"sailing-trial","333","1575067","0.0-11.0-292.0","","","","false","","","","","","","","","","656","","237","","1","0","arrowleft","0","arrowright","[0.15,0.85,0.325,0.675]","","",""
"sailing-trial","334","1577490","0.0-11.0-293.0","","","","false","","","","","","","","","","null","","868","","0","0","null","null","arrowup","[0.15,0.85,0.325,0.675]","","",""
"sailing-trial","335","1581152","0.0-11.0-294.0","","","","false","","","","","","","","","","487","","147.00000000023283","","3","0","arrowright","1","arrowright","[0.15,0.85,0.325,0.675]","","",""
"sailing-trial","336","1583981","0.0-11.0-295.0","","","","false","","","","","","","","","","null","","744.9999999997672","","2","1","null","null","arrowup","[0.15,0.85,0.325,0.675]","","",""
"sailing-trial","337","1588331","0.0-11.0-296.0","","","","false","","","","","","","","","","557","","74.00000000023283","","2","1","arrowright","1","arrowleft","[0.15,0.85,0.325,0.675]","","",""
"sailing-trial","338","1591181","0.0-11.0-297.0","","","","false","","","","","","","","","","null","","703","","3","1","null","null","arrowup","[0.15,0.85,0.325,0.675]","","",""
"sailing-trial","339","1595235","0.0-11.0-298.0","","","","false","","","","","","","","","","591","","136.00000000023283","","2","0","arrowright","1","arrowleft","[0.15,0.85,0.325,0.675]","","",""
"sailing-trial","340","1598064","0.0-11.0-299.0","","","","false","","","","","","","","","","null","","738","","1","1","null","null","arrowup","[0.15,0.85,0.325,0.675]","","",""
"sailing-trial","341","1602028","0.0-11.0-300.0","","","","false","","","","","","","","","","550","","319","","3","0","arrowright","1","arrowright","[0.15,0.85,0.325,0.675]","","",""
"sailing-trial","342","1605064","0.0-11.0-301.0","","","","false","","","","","","","","","","null","","934","","1","1","null","null","arrowup","[0.15,0.85,0.325,0.675]","","",""
"sailing-trial","343","1608880","0.0-11.0-302.0","","","","false","","","","","","","","","","469.00000000023283","","148","","1","0","arrowleft","0","arrowright","[0.675,0.325,0.85,0.15]","","",""
"sailing-trial","344","1611580","0.0-11.0-303.0","","","","false","","","","","","","","","","null","","583","","2","1","null","null","arrowup","[0.675,0.325,0.85,0.15]","","",""
"sailing-trial","345","1615833","0.0-11.0-304.0","","","","false","","","","","","","","","","604","","75","","2","1","arrowright","1","arrowleft","[0.675,0.325,0.85,0.15]","","",""
"sailing-trial","346","1618964","0.0-11.0-305.0","","","","false","","","","","","","","","","null","","990","","0","1","null","null","arrowup","[0.675,0.325,0.85,0.15]","","",""
"sailing-trial","347","1623268","0.0-11.0-306.0","","","","false","","","","","","","","","","531","","228","","2","1","arrowright","1","arrowleft","[0.675,0.325,0.85,0.15]","","",""
"sailing-trial","348","1627135","0.0-11.0-307.0","","","","false","","","","","","","","","","null","","2194.999999999767","","1","0","null","null","arrowup","[0.675,0.325,0.85,0.15]","","",""
"sailing-trial","349","1631997","0.0-11.0-308.0","","","","false","","","","","","","","","","738","","280","","2","1","arrowright","1","arrowleft","[0.675,0.325,0.85,0.15]","","",""
"sailing-trial","350","1635847","0.0-11.0-309.0","","","","false","","","","","","","","","","null","","1497.9999999997672","","2","1","null","null","arrowup","[0.675,0.325,0.85,0.15]","","",""
"sailing-trial","351","1639823","0.0-11.0-310.0","","","","false","","","","","","","","","","883","","23","","2","0","arrowright","1","arrowleft","[0.675,0.325,0.85,0.15]","","",""
"sailing-trial","352","1642401","0.0-11.0-311.0","","","","false","","","","","","","","","","null","","984.0000000002328","","1","0","null","null","arrowup","[0.675,0.325,0.85,0.15]","","",""
"sailing-trial","353","1647098","0.0-11.0-312.0","","","","false","","","","","","","","","","601","","407.00000000023283","","0","1","arrowleft","0","arrowleft","[0.675,0.325,0.85,0.15]","","",""
"sailing-trial","354","1650048","0.0-11.0-313.0","","","","false","","","","","","","","","","null","","657","","2","1","null","null","arrowup","[0.675,0.325,0.85,0.15]","","",""
"sailing-trial","355","1654731","0.0-11.0-314.0","","","","false","","","","","","","","","","978","","183","","0","1","arrowleft","0","arrowleft","[0.675,0.325,0.85,0.15]","","",""
"sailing-trial","356","1658065","0.0-11.0-315.0","","","","false","","","","","","","","","","null","","1179","","0","1","null","null","arrowup","[0.675,0.325,0.85,0.15]","","",""
"sailing-trial","357","1662499","0.0-11.0-316.0","","","","false","","","","","","","","","","612","","123","","0","1","arrowleft","0","arrowleft","[0.675,0.325,0.85,0.15]","","",""
"sailing-trial","358","1665407","0.0-11.0-317.0","","","","false","","","","","","","","","","null","","918.9999999997672","","3","0","null","null","arrowup","[0.675,0.325,0.85,0.15]","","",""
"sailing-trial","359","1670432","0.0-11.0-318.0","","","","false","","","","","","","","","","635","","576","","0","1","arrowleft","0","arrowleft","[0.85,0.15,0.675,0.325]","","",""
"sailing-trial","360","1674464","0.0-11.0-319.0","","","","false","","","","","","","","","","null","","1353","","0","1","null","null","arrowup","[0.85,0.15,0.675,0.325]","","",""
"sailing-trial","361","1678964","0.0-11.0-320.0","","","","false","","","","","","","","","","865","","130","","0","1","arrowleft","0","arrowleft","[0.85,0.15,0.675,0.325]","","",""
"sailing-trial","362","1682131","0.0-11.0-321.0","","","","false","","","","","","","","","","null","","1107","","0","1","null","null","arrowup","[0.85,0.15,0.675,0.325]","","",""
"sailing-trial","363","1686864","0.0-11.0-322.0","","","","false","","","","","","","","","","690","","30.99999999976717","","0","1","arrowleft","0","arrowleft","[0.85,0.15,0.675,0.325]","","",""
"sailing-trial","364","1690097","0.0-11.0-323.0","","","","false","","","","","","","","","","null","","1038","","0","1","null","null","arrowup","[0.85,0.15,0.675,0.325]","","",""
"sailing-trial","365","1695081","0.0-11.0-324.0","","","","false","","","","","","","","","","1030","","232","","0","1","arrowleft","0","arrowleft","[0.85,0.15,0.675,0.325]","","",""
"sailing-trial","366","1698447","0.0-11.0-325.0","","","","false","","","","","","","","","","null","","1162","","2","1","null","null","arrowup","[0.85,0.15,0.675,0.325]","","",""
"sailing-trial","367","1703497","0.0-11.0-326.0","","","","false","","","","","","","","","","638","","757","","0","1","arrowleft","0","arrowleft","[0.85,0.15,0.675,0.325]","","",""
"sailing-trial","368","1707996","0.0-11.0-327.0","","","","false","","","","","","","","","","null","","1496.9999999997672","","3","1","null","null","arrowup","[0.85,0.15,0.675,0.325]","","",""
"sailing-trial","369","1713947","0.0-11.0-328.0","","","","false","","","","","","","","","","910","","643","","0","1","arrowleft","0","arrowleft","[0.85,0.15,0.675,0.325]","","",""
"sailing-trial","370","1716635","0.0-11.0-329.0","","","","false","","","","","","","","","","null","","732","","3","0","null","null","arrowup","[0.85,0.15,0.675,0.325]","","",""
"sailing-trial","371","1721847","0.0-11.0-330.0","","","","false","","","","","","","","","","662.0000000002328","","704","","0","1","arrowleft","0","arrowleft","[0.85,0.15,0.675,0.325]","","",""
"sailing-trial","372","1725447","0.0-11.0-331.0","","","","false","","","","","","","","","","null","","1387","","0","1","null","null","arrowup","[0.85,0.15,0.675,0.325]","","",""
"sailing-trial","373","1730548","0.0-11.0-332.0","","","","false","","","","","","","","","","1421","","127","","0","1","arrowleft","0","arrowleft","[0.85,0.15,0.675,0.325]","","",""
"sailing-trial","374","1733781","0.0-11.0-333.0","","","","false","","","","","","","","","","null","","1125.9999999997672","","0","1","null","null","arrowup","[0.85,0.15,0.675,0.325]","","",""
"sailing-trial","375","1739481","0.0-11.0-334.0","","","","false","","","","","","","","","","664","","531","","0","1","arrowleft","0","arrowleft","[0.85,0.15,0.675,0.325]","","",""
"sailing-trial","376","1743131","0.0-11.0-335.0","","","","false","","","","","","","","","","null","","1103.9999999997672","","0","1","null","null","arrowup","[0.85,0.15,0.675,0.325]","","",""
"sailing-trial","377","1748914","0.0-11.0-336.0","","","","false","","","","","","","","","","1600","","332","","0","1","arrowleft","0","arrowleft","[0.85,0.15,0.675,0.325]","","",""
"sailing-trial","378","1751782","0.0-11.0-337.0","","","","false","","","","","","","","","","null","","1000.9999999997672","","0","0","null","null","arrowup","[0.85,0.15,0.675,0.325]","","",""
"sailing-trial","379","1756264","0.0-11.0-338.0","","","","false","","","","","","","","","","689.0000000002328","","260","","0","1","arrowleft","0","arrowleft","[0.675,0.325,0.85,0.15]","","",""
"sailing-trial","380","1760914","0.0-11.0-339.0","","","","false","","","","","","","","","","null","","1098","","0","1","null","null","arrowup","[0.675,0.325,0.85,0.15]","","",""
"sailing-trial","381","1766181","0.0-11.0-340.0","","","","false","","","","","","","","","","1144","","434","","0","1","arrowleft","0","arrowleft","[0.675,0.325,0.85,0.15]","","",""
"sailing-trial","382","1770097","0.0-11.0-341.0","","","","false","","","","","","","","","","null","","1741","","1","1","null","null","arrowup","[0.675,0.325,0.85,0.15]","","",""
"sailing-trial","383","1774397","0.0-11.0-342.0","","","","false","","","","","","","","","","675.9999999997672","","73.00000000023283","","0","1","arrowleft","0","arrowleft","[0.675,0.325,0.85,0.15]","","",""
"sailing-trial","384","1777580","0.0-11.0-343.0","","","","false","","","","","","","","","","null","","1385","","1","0","null","null","arrowup","[0.675,0.325,0.85,0.15]","","",""
"sailing-trial","385","1783548","0.0-11.0-344.0","","","","false","","","","","","","","","","526.0000000002328","","1877","","0","1","arrowleft","0","arrowleft","[0.675,0.325,0.85,0.15]","","",""
"sailing-trial","386","1786352","0.0-11.0-345.0","","","","false","","","","","","","","","","null","","1160.9999999997672","","3","0","null","null","arrowup","[0.675,0.325,0.85,0.15]","","",""
"sailing-trial","387","1790946","0.0-11.0-346.0","","","","false","","","","","","","","","","774","","232","","0","1","arrowleft","0","arrowleft","[0.675,0.325,0.85,0.15]","","",""
"sailing-trial","388","1794181","0.0-11.0-347.0","","","","false","","","","","","","","","","null","","1031","","1","1","null","null","arrowup","[0.675,0.325,0.85,0.15]","","",""
"sailing-trial","389","1799030","0.0-11.0-348.0","","","","false","","","","","","","","","","645","","203.99999999976717","","0","1","arrowleft","0","arrowleft","[0.675,0.325,0.85,0.15]","","",""
"sailing-trial","390","1802448","0.0-11.0-349.0","","","","false","","","","","","","","","","null","","1284","","2","1","null","null","arrowup","[0.675,0.325,0.85,0.15]","","",""
"sailing-trial","391","1807446","0.0-11.0-350.0","","","","false","","","","","","","","","","1015","","490","","0","1","arrowleft","0","arrowleft","[0.675,0.325,0.85,0.15]","","",""
"sailing-trial","392","1811164","0.0-11.0-351.0","","","","false","","","","","","","","","","null","","1574.0000000002328","","0","1","null","null","arrowup","[0.675,0.325,0.85,0.15]","","",""
"sailing-trial","393","1816890","0.0-11.0-352.0","","","","false","","","","","","","","","","1289.9999999997672","","399","","0","0","arrowleft","0","arrowleft","[0.675,0.325,0.85,0.15]","","",""
"sailing-trial","394","1819319","0.0-11.0-353.0","","","","false","","","","","","","","","","null","","804","","3","0","null","null","arrowup","[0.675,0.325,0.85,0.15]","","",""
"sailing-trial","395","1823357","0.0-11.0-354.0","","","","false","","","","","","","","","","696.9999999997672","","343","","0","0","arrowleft","0","arrowleft","[0.675,0.325,0.85,0.15]","","",""
"sailing-trial","396","1826381","0.0-11.0-355.0","","","","false","","","","","","","","","","null","","916","","0","1","null","null","arrowup","[0.675,0.325,0.85,0.15]","","",""
"sailing-trial","397","1832126","0.0-11.0-356.0","","","","false","","","","","","","","","","2530","","199.00000000023283","","0","0","arrowleft","0","arrowleft","[0.675,0.325,0.85,0.15]","","",""
"sailing-trial","398","1834503","0.0-11.0-357.0","","","","false","","","","","","","","","","null","","834.9999999997672","","1","0","null","null","arrowup","[0.675,0.325,0.85,0.15]","","",""
"sailing-trial","399","1838548","0.0-11.0-358.0","","","","false","","","","","","","","","","550","","430","","3","0","arrowright","1","arrowright","[0.675,0.325,0.85,0.15]","","",""
"sailing-trial","400","1841054","0.0-11.0-359.0","","","","false","","","","","","","","","","null","","895","","1","0","null","null","arrowup","[0.675,0.325,0.85,0.15]","","",""
"sailing-trial","401","1845447","0.0-11.0-360.0","","","","false","","","","","","","","","","528","","199","","2","1","arrowright","1","arrowleft","[0.675,0.325,0.85,0.15]","","",""
"sailing-trial","402","1848763","0.0-11.0-361.0","","","","false","","","","","","","","","","null","","1179.0000000002328","","1","1","null","null","arrowup","[0.675,0.325,0.85,0.15]","","",""
"sailing-trial","403","1852970","0.0-11.0-362.0","","","","false","","","","","","","","","","557","","175","","2","0","arrowright","1","arrowleft","[0.85,0.15,0.675,0.325]","","",""
"sailing-trial","404","1855401","0.0-11.0-363.0","","","","false","","","","","","","","","","null","","835","","3","0","null","null","arrowup","[0.85,0.15,0.675,0.325]","","",""
"sailing-trial","405","1859307","0.0-11.0-364.0","","","","false","","","","","","","","","","559","","362","","1","0","arrowleft","0","arrowright","[0.85,0.15,0.675,0.325]","","",""
"sailing-trial","406","1862264","0.0-11.0-365.0","","","","false","","","","","","","","","","null","","861","","2","0","null","null","arrowup","[0.85,0.15,0.675,0.325]","","",""
"sailing-trial","407","1866157","0.0-11.0-366.0","","","","false","","","","","","","","","","569","","354","","1","0","arrowleft","0","arrowright","[0.85,0.15,0.675,0.325]","","",""
"sailing-trial","408","1869214","0.0-11.0-367.0","","","","false","","","","","","","","","","null","","897","","3","1","null","null","arrowup","[0.85,0.15,0.675,0.325]","","",""
"sailing-trial","409","1872772","0.0-11.0-368.0","","","","false","","","","","","","","","","516","","69","","3","0","arrowright","1","arrowright","[0.85,0.15,0.675,0.325]","","",""
"sailing-trial","410","1875631","0.0-11.0-369.0","","","","false","","","","","","","","","","null","","736","","2","1","null","null","arrowup","[0.85,0.15,0.675,0.325]","","",""
"sailing-trial","411","1880148","0.0-11.0-370.0","","","","false","","","","","","","","","","589","","380.99999999976717","","2","1","arrowright","1","arrowleft","[0.85,0.15,0.675,0.325]","","",""
"sailing-trial","412","1885599","0.0-11.0-371.0","","","","false","","","","","","","","","","null","","987","","0","1","null","null","arrowup","[0.85,0.15,0.675,0.325]","","",""
"sailing-trial","413","1890014","0.0-11.0-372.0","","","","false","","","","","","","","","","548","","246","","2","1","arrowright","1","arrowleft","[0.85,0.15,0.675,0.325]","","",""
"sailing-trial","414","1893198","0.0-11.0-373.0","","","","false","","","","","","","","","","null","","1049","","3","1","null","null","arrowup","[0.85,0.15,0.675,0.325]","","",""
"sailing-trial","415","1897253","0.0-11.0-374.0","","","","false","","","","","","","","","","847","","121.00000000023283","","2","0","arrowright","1","arrowleft","[0.85,0.15,0.675,0.325]","","",""
"sailing-trial","416","1900088","0.0-11.0-375.0","","","","false","","","","","","","","","","null","","940.0000000002328","","1","0","null","null","arrowup","[0.85,0.15,0.675,0.325]","","",""
"sailing-trial","417","1904365","0.0-11.0-376.0","","","","false","","","","","","","","","","741","","46","","0","1","arrowleft","0","arrowleft","[0.85,0.15,0.675,0.325]","","",""
"sailing-trial","418","1906646","0.0-11.0-377.0","","","","false","","","","","","","","","","null","","718","","2","0","null","null","arrowup","[0.85,0.15,0.675,0.325]","","",""
"sailing-trial","419","1912477","0.0-11.0-378.0","","","","false","","","","","","","","","","612.9999999997672","","1638","","0","0","arrowleft","0","arrowleft","[0.85,0.15,0.675,0.325]","","",""
"sailing-trial","420","1914749","0.0-11.0-379.0","","","","false","","","","","","","","","","null","","643","","3","0","null","null","arrowup","[0.85,0.15,0.675,0.325]","","",""
"sailing-trial","421","1918844","0.0-11.0-380.0","","","","false","","","","","","","","","","644","","310","","0","0","arrowleft","0","arrowleft","[0.675,0.325,0.85,0.15]","","",""
"sailing-trial","422","1921746","0.0-11.0-381.0","","","","false","","","","","","","","","","null","","733","","1","1","null","null","arrowup","[0.675,0.325,0.85,0.15]","","",""
"sailing-trial","423","1925464","0.0-11.0-382.0","","","","false","","","","","","","","","","630","","73","","1","0","arrowleft","0","arrowright","[0.675,0.325,0.85,0.15]","","",""
"sailing-trial","424","1927706","0.0-11.0-383.0","","","","false","","","","","","","","","","null","","705.9999999997672","","3","0","null","null","arrowup","[0.675,0.325,0.85,0.15]","","",""
"sailing-trial","425","1932198","0.0-11.0-384.0","","","","false","","","","","","","","","","971","","20","","2","1","arrowright","1","arrowleft","[0.675,0.325,0.85,0.15]","","",""
"sailing-trial","426","1935380","0.0-11.0-385.0","","","","false","","","","","","","","","","null","","925","","0","1","null","null","arrowup","[0.675,0.325,0.85,0.15]","","",""
"sailing-trial","427","1939880","0.0-11.0-386.0","","","","false","","","","","","","","","","863.0000000002328","","68","","2","1","arrowright","1","arrowleft","[0.675,0.325,0.85,0.15]","","",""
"sailing-trial","428","1942154","0.0-11.0-387.0","","","","false","","","","","","","","","","null","","717.0000000002328","","3","0","null","null","arrowup","[0.675,0.325,0.85,0.15]","","",""
"sailing-trial","429","1946319","0.0-11.0-388.0","","","","false","","","","","","","","","","574","","405","","2","0","arrowright","1","arrowleft","[0.675,0.325,0.85,0.15]","","",""
"sailing-trial","430","1948629","0.0-11.0-389.0","","","","false","","","","","","","","","","null","","710.9999999997672","","3","0","null","null","arrowup","[0.675,0.325,0.85,0.15]","","",""
"sailing-trial","431","1953080","0.0-11.0-390.0","","","","false","","","","","","","","","","658","","197","","0","1","arrowleft","0","arrowleft","[0.675,0.325,0.85,0.15]","","",""
"sailing-trial","432","1955477","0.0-11.0-391.0","","","","false","","","","","","","","","","null","","708","","3","0","null","null","arrowup","[0.675,0.325,0.85,0.15]","","",""
"sailing-trial","433","1959597","0.0-11.0-392.0","","","","false","","","","","","","","","","574.0000000002328","","71.99999999976717","","0","1","arrowleft","0","arrowleft","[0.675,0.325,0.85,0.15]","","",""
"sailing-trial","434","1962167","0.0-11.0-393.0","","","","false","","","","","","","","","","null","","872.0000000002328","","1","0","null","null","arrowup","[0.675,0.325,0.85,0.15]","","",""
"sailing-trial","435","1966365","0.0-11.0-394.0","","","","false","","","","","","","","","","629","","11.00000000023283","","0","1","arrowleft","0","arrowleft","[0.675,0.325,0.85,0.15]","","",""
"sailing-trial","436","1969357","0.0-11.0-395.0","","","","false","","","","","","","","","","null","","1223","","1","0","null","null","arrowup","[0.675,0.325,0.85,0.15]","","",""
"sailing-trial","437","1974647","0.0-11.0-396.0","","","","false","","","","","","","","","","1442","","145.99999999976717","","0","1","arrowleft","0","arrowleft","[0.675,0.325,0.85,0.15]","","",""
"sailing-trial","438","1978697","0.0-11.0-397.0","","","","false","","","","","","","","","","null","","1688.9999999997672","","2","1","null","null","arrowup","[0.675,0.325,0.85,0.15]","","",""
"sailing-trial","439","1982692","0.0-11.0-398.0","","","","false","","","","","","","","","","926","","107","","0","0","arrowleft","0","arrowleft","[0.675,0.325,0.85,0.15]","","",""
"sailing-trial","440","1985069","0.0-11.0-399.0","","","","false","","","","","","","","","","null","","737","","3","0","null","null","arrowup","[0.675,0.325,0.85,0.15]","","",""
"instructions","441","1990056","0.0-12.0","","","","","","","","","","4983.999999999767","","","","","","","","","","","","","","","","[{""page_index"":0,""viewing_time"":4983.999999999767}]"
"survey-debrief","442","2118558","0.0-13.0","","","","","","","","","","128489","","","","","","","","","","","","","","{""difficulty"":""5"",""fun"":""1"",""clarity"":""5"",""strategy"":""If a shop that was consistently giving me treasure stops giving it to me, I switch to a different shop based on which shops give treasure on the most recent foggy days"",""feedback"":""""}","",""
