"trial_type","trial_index","time_elapsed","internal_node_id","value","metadata","success","timeout","failed_images","failed_audio","failed_video","browser_interaction","low_quality","rt","stimulus","response","button_pressed","island_rt","island_response","boat_rt","boat_response","boat","reward","island_key","island","boat_key","reward_probabilities","responses","num_errors","view_history"
"pavlovia","0","6","0.0-0.0","","","","","","","","","","","","","","","","","","","","","","","","","",""
"call-function","1","9","0.0-1.0","","{""task_version"":""sailing_part1_v1"",""task_condition"":""good"",""boats"":[""C"",""A"",""D"",""B""],""boats_demo"":[""H"",""G"",""E"",""F""],""islands"":[""A"",""B""],""subject_id"":""13874"",""age"":""13"",""gender"":""Female""}","","","","","","","","","","","","","","","","","","","","","","","",""
"preload","2","2281","0.0-2.0","","","true","false","[]","[]","[]","[{""event"":""fullscreenenter"",""trial"":3,""time"":7080}]","false","","","","","","","","","","","","","","","","",""
"fullscreen","3","8064","0.0-3.0","","","true","","","","","","","","","","","","","","","","","","","","","","",""
"audio-keyboard-response","4","13083","0.0-4.0-0.0","","","","","","","","","","5013.333333333334","audio/beep_loop.wav"," ","","","","","","","","","","","","","",""
"audio-test","5","15401","0.0-4.0-1.0","","","","","","","","","","null","audio/turtle.mp3","","3","","","","","","","","","","","","",""
"audio-test","6","19164","0.0-4.0-2.0","","","","","","","","","","null","audio/shark.mp3","","2","","","","","","","","","","","","",""
"sailing-instructions","7","54658","0.0-5.0-0.0-0.0","","","","","","","","","","","","","","null","null","null","null","null","null","","","","","","",""
"sailing-trial","8","59216","0.0-5.0-0.0-1.0-0.0","","","","false","","","","","","","","","","3447.9000000000233","","null","","null","null","arrowleft","0","null","null","","",""
"sailing-trial","9","61319","0.0-5.0-0.0-1.0-1.0","","","","false","","","","","","","","","","997.1000000000349","","null","","null","null","arrowright","1","null","null","","",""
"sailing-trial","10","65415","0.0-5.0-0.0-1.0-2.0","","","","false","","","","","","","","","","2989.9000000000233","","null","","null","null","arrowleft","0","null","null","","",""
"sailing-instructions","11","121929","0.0-5.0-0.0-2.0","","","","","","","","","","","","","","null","null","null","null","0","null","","","","","","",""
"sailing-trial","12","128463","0.0-5.0-0.0-3.0-0.0","","","","false","","","","","","","","","","null","","2426.8000000000466","","2","1","null","null","arrowleft","[1,1,1,1]","","",""
"sailing-trial","13","132664","0.0-5.0-0.0-3.0-1.0","","","","false","","","","","","","","","","null","","1311.5","","3","1","null","null","arrowright","[1,1,1,1]","","",""
"sailing-trial","14","138430","0.0-5.0-0.0-3.0-2.0","","","","false","","","","","","","","","","null","","2230.5","","3","0","null","null","arrowright","[0,0,0,0]","","",""
"sailing-instructions","15","147673","0.0-5.0-0.0-4.0","","","","","","","","","","","","","","null","null","null","null","null","null","","","","","","",""
"sailing-comprehension","16","184508","0.0-5.0-0.0-5.0","","","","","","","","","","31777.099999999977","","","","","","","","","","","","","","[""true"",""true"",""false"",""true""]","0",""
"sailing-instructions","17","263088","0.0-6.0-0.0-0.0","","","","","","","","","","","","","","null","null","null","null","null","null","","","","","","",""
"sailing-comprehension","18","295854","0.0-6.0-0.0-1.0","","","","","","","","","","29033.20000000007","","","","","","","","","","","","","","[""true"",""false"",""true""]","0",""
"sailing-instructions","19","321337","0.0-7.0-0.0-0.0","","","","","","","","","","","","","","null","null","null","null","null","null","","","","","","",""
"sailing-trial","20","335285","0.0-7.0-0.0-1.0-0.0","","","","false","","","","","","","","","","null","","10938.79999999993","","0","0","null","null","arrowup","[0.2,0.8,0.2,0.8]","","",""
"sailing-trial","21","350968","0.0-7.0-0.0-1.0-1.0","","","","false","","","","","","","","","","null","","12688","","1","1","null","null","arrowup","[0.2,0.8,0.2,0.8]","","",""
"sailing-trial","22","357868","0.0-7.0-0.0-1.0-2.0","","","","false","","","","","","","","","","null","","3892.9000000000233","","2","0","null","null","arrowup","[0.2,0.8,0.2,0.8]","","",""
"sailing-trial","23","363585","0.0-7.0-0.0-1.0-3.0","","","","false","","","","","","","","","","null","","2171.1999999999534","","3","1","null","null","arrowup","[0.2,0.8,0.2,0.8]","","",""
"sailing-comprehension","24","389979","0.0-7.0-0.0-2.0","","","","","","","","","","16632.599999999977","","","","","","","","","","","","","","[""true""]","1",""
"sailing-instructions","25","408807","0.0-7.0-0.1-0.1","","","","","","","","","","","","","","null","null","null","null","null","null","","","","","","",""
"sailing-trial","26","414314","0.0-7.0-0.1-1.1-0.1","","","","false","","","","","","","","","","null","","2507.0999999999767","","0","0","null","null","arrowup","[0.2,0.8,0.2,0.8]","","",""
"sailing-trial","27","419066","0.0-7.0-0.1-1.1-1.1","","","","false","","","","","","","","","","null","","1737.0999999999767","","1","1","null","null","arrowup","[0.2,0.8,0.2,0.8]","","",""
"sailing-trial","28","425316","0.0-7.0-0.1-1.1-2.1","","","","false","","","","","","","","","","null","","1344.3000000000466","","2","1","null","null","arrowup","[0.2,0.8,0.2,0.8]","","",""
"sailing-trial","29","428964","0.0-7.0-0.1-1.1-3.1","","","","false","","","","","","","","","","null","","1715.7999999999302","","3","1","null","null","arrowup","[0.2,0.8,0.2,0.8]","","",""
"sailing-comprehension","30","444297","0.0-7.0-0.1-2.1","","","","","","","","","","7363.099999999977","","","","","","","","","","","","","","[""false""]","0",""
"sailing-instructions","31","461368","0.0-8.0-0.0-0.0","","","","","","","","","","","","","","null","null","null","null","null","null","","","","","","",""
"sailing-comprehension","32","481943","0.0-8.0-0.0-1.0","","","","","","","","","","12497.599999999977","","","","","","","","","","","","","","[""true""]","0",""
"sailing-instructions","33","519982","0.0-9.0-0.0-0.0","","","","","","","","","","","","","","null","null","null","null","null","null","","","","","","",""
"sailing-trial","34","531425","0.0-9.0-0.0-1.0-0.0","","","","false","","","","","","","","","","2255.0999999999767","","2492.3000000000466","","1","1","arrowleft","0","arrowright","[0.2,0.8,0.2,0.8]","","",""
"sailing-trial","35","537841","0.0-9.0-0.0-1.0-1.0","","","","false","","","","","","","","","","1339.8999999999069","","929.9000000000233","","2","0","arrowright","1","arrowleft","[0.2,0.8,0.2,0.8]","","",""
"sailing-trial","36","542657","0.0-9.0-0.0-1.0-2.0","","","","false","","","","","","","","","","null","","1808.2999999999302","","0","0","null","null","arrowup","[0.2,0.8,0.2,0.8]","","",""
"sailing-trial","37","548991","0.0-9.0-0.0-1.0-3.0","","","","false","","","","","","","","","","1466.3000000000466","","990.8000000000466","","3","1","arrowright","1","arrowright","[0.2,0.8,0.2,0.8]","","",""
"sailing-trial","38","553640","0.0-9.0-0.0-1.0-4.0","","","","false","","","","","","","","","","null","","1647.8999999999069","","3","0","null","null","arrowup","[0.2,0.8,0.2,0.8]","","",""
"sailing-trial","39","564391","0.0-9.0-0.0-1.0-5.0","","","","false","","","","","","","","","","5379.199999999953","","1258.6000000000931","","1","0","arrowleft","0","arrowright","[0.2,0.8,0.2,0.8]","","",""
"sailing-instructions","40","594026","0.0-10.0","","","","","","","","","","","","","","null","null","null","null","null","null","","","","","","",""
"sailing-trial","41","605883","0.0-11.0-0.0","","","","false","","","","","","","","","","7814.400000000023","","435.19999999995343","","2","0","arrowright","1","arrowleft","[0.15,0.85,0.325,0.675]","","",""
"sailing-trial","42","609655","0.0-11.0-1.0","","","","false","","","","","","","","","","null","","1133.4000000000233","","1","1","null","null","arrowup","[0.15,0.85,0.325,0.675]","","",""
"sailing-trial","43","615020","0.0-11.0-2.0","","","","false","","","","","","","","","","993.5","","266.79999999993015","","0","0","arrowleft","0","arrowleft","[0.15,0.85,0.325,0.675]","","",""
"sailing-trial","44","619136","0.0-11.0-3.0","","","","false","","","","","","","","","","null","","1119.5","","0","0","null","null","arrowup","[0.15,0.85,0.325,0.675]","","",""
"sailing-trial","45","628438","0.0-11.0-4.0","","","","false","","","","","","","","","","4404.199999999953","","434.79999999993015","","1","1","arrowleft","0","arrowright","[0.15,0.85,0.325,0.675]","","",""
"sailing-trial","46","640220","0.0-11.0-5.0","","","","false","","","","","","","","","","null","","7042.70000000007","","3","1","null","null","arrowup","[0.15,0.85,0.325,0.675]","","",""
"sailing-trial","47","648618","0.0-11.0-6.0","","","","false","","","","","","","","","","2964.3000000000466","","595.5","","1","0","arrowleft","0","arrowright","[0.15,0.85,0.325,0.675]","","",""
"sailing-trial","48","652218","0.0-11.0-7.0","","","","false","","","","","","","","","","null","","759.0999999999767","","1","1","null","null","arrowup","[0.15,0.85,0.325,0.675]","","",""
"sailing-trial","49","657868","0.0-11.0-8.0","","","","false","","","","","","","","","","800.5999999999767","","317.4000000000233","","2","0","arrowright","1","arrowleft","[0.15,0.85,0.325,0.675]","","",""
"sailing-trial","50","662052","0.0-11.0-9.0","","","","false","","","","","","","","","","null","","1347.2999999999302","","1","1","null","null","arrowup","[0.15,0.85,0.325,0.675]","","",""
"sailing-trial","51","668800","0.0-11.0-10.0","","","","false","","","","","","","","","","1404.1999999999534","","425.20000000006985","","3","1","arrowright","1","arrowright","[0.15,0.85,0.325,0.675]","","",""
"sailing-trial","52","673117","0.0-11.0-11.0","","","","false","","","","","","","","","","null","","1321.2999999999302","","2","0","null","null","arrowup","[0.15,0.85,0.325,0.675]","","",""
"sailing-trial","53","677885","0.0-11.0-12.0","","","","false","","","","","","","","","","197.69999999995343","","290.10000000009313","","3","1","arrowright","1","arrowright","[0.15,0.85,0.325,0.675]","","",""
"sailing-trial","54","682450","0.0-11.0-13.0","","","","false","","","","","","","","","","null","","1553.2999999999302","","2","0","null","null","arrowup","[0.15,0.85,0.325,0.675]","","",""
"sailing-trial","55","689401","0.0-11.0-14.0","","","","false","","","","","","","","","","2041.8999999999069","","372","","1","1","arrowleft","0","arrowright","[0.15,0.85,0.325,0.675]","","",""
"sailing-trial","56","694382","0.0-11.0-15.0","","","","false","","","","","","","","","","null","","1984.5999999999767","","2","0","null","null","arrowup","[0.15,0.85,0.325,0.675]","","",""
"sailing-trial","57","703401","0.0-11.0-16.0","","","","false","","","","","","","","","","1811.1999999999534","","1528.7999999999302","","2","1","arrowright","1","arrowleft","[0.85,0.15,0.675,0.325]","","",""
"sailing-trial","58","708466","0.0-11.0-17.0","","","","false","","","","","","","","","","null","","2350.79999999993","","2","1","null","null","arrowup","[0.85,0.15,0.675,0.325]","","",""
"sailing-trial","59","714198","0.0-11.0-18.0","","","","false","","","","","","","","","","1396.3999999999069","","94.29999999993015","","2","0","arrowright","1","arrowleft","[0.85,0.15,0.675,0.325]","","",""
"sailing-trial","60","717914","0.0-11.0-19.0","","","","false","","","","","","","","","","null","","1150.8000000000466","","0","1","null","null","arrowup","[0.85,0.15,0.675,0.325]","","",""
"sailing-trial","61","728350","0.0-11.0-20.0","","","","false","","","","","","","","","","685.6999999999534","","4967","","1","0","arrowleft","0","arrowright","[0.85,0.15,0.675,0.325]","","",""
"sailing-trial","62","734699","0.0-11.0-21.0","","","","false","","","","","","","","","","null","","3336.5","","1","0","null","null","arrowup","[0.85,0.15,0.675,0.325]","","",""
"sailing-trial","63","742448","0.0-11.0-22.0","","","","false","","","","","","","","","","2723.6999999999534","","780","","0","1","arrowleft","0","arrowleft","[0.85,0.15,0.675,0.325]","","",""
"sailing-trial","64","746680","0.0-11.0-23.0","","","","false","","","","","","","","","","null","","1373.3999999999069","","2","1","null","null","arrowup","[0.85,0.15,0.675,0.325]","","",""
"sailing-trial","65","752181","0.0-11.0-24.0","","","","false","","","","","","","","","","1342.3999999999069","","376.10000000009313","","0","1","arrowleft","0","arrowleft","[0.85,0.15,0.675,0.325]","","",""
"sailing-trial","66","755313","0.0-11.0-25.0","","","","false","","","","","","","","","","null","","1111.1000000000931","","3","1","null","null","arrowup","[0.85,0.15,0.675,0.325]","","",""
"sailing-trial","67","760290","0.0-11.0-26.0","","","","false","","","","","","","","","","1162.4000000001397","","66.10000000009313","","0","0","arrowleft","0","arrowleft","[0.85,0.15,0.675,0.325]","","",""
"sailing-trial","68","765029","0.0-11.0-27.0","","","","false","","","","","","","","","","null","","2235.399999999907","","0","1","null","null","arrowup","[0.85,0.15,0.675,0.325]","","",""
"sailing-trial","69","774496","0.0-11.0-28.0","","","","false","","","","","","","","","","1984","","2070.5","","2","1","arrowright","1","arrowleft","[0.85,0.15,0.675,0.325]","","",""
"sailing-trial","70","778930","0.0-11.0-29.0","","","","false","","","","","","","","","","null","","2035.4000000001397","","0","1","null","null","arrowup","[0.85,0.15,0.675,0.325]","","",""
"sailing-trial","71","786313","0.0-11.0-30.0","","","","false","","","","","","","","","","2088","","1049.6000000000931","","1","0","arrowleft","0","arrowright","[0.85,0.15,0.675,0.325]","","",""
"sailing-trial","72","790110","0.0-11.0-31.0","","","","false","","","","","","","","","","null","","775","","3","0","null","null","arrowup","[0.85,0.15,0.675,0.325]","","",""
"sailing-trial","73","802160","0.0-11.0-32.0","","","","false","","","","","","","","","","4075.4000000001397","","3043","","1","0","arrowleft","0","arrowright","[0.85,0.15,0.675,0.325]","","",""
"sailing-trial","74","808728","0.0-11.0-33.0","","","","false","","","","","","","","","","null","","2283.4000000001397","","0","1","null","null","arrowup","[0.85,0.15,0.675,0.325]","","",""
"sailing-trial","75","815543","0.0-11.0-34.0","","","","false","","","","","","","","","","1508.5","","1248","","0","1","arrowleft","0","arrowleft","[0.85,0.15,0.675,0.325]","","",""
"sailing-trial","76","821492","0.0-11.0-35.0","","","","false","","","","","","","","","","null","","3997.0999999998603","","3","1","null","null","arrowup","[0.85,0.15,0.675,0.325]","","",""
"sailing-trial","77","828258","0.0-11.0-36.0","","","","false","","","","","","","","","","1505.1000000000931","","714","","3","0","arrowright","1","arrowright","[0.675,0.325,0.85,0.15]","","",""
"sailing-trial","78","831827","0.0-11.0-37.0","","","","false","","","","","","","","","","null","","451.30000000004657","","2","1","null","null","arrowup","[0.675,0.325,0.85,0.15]","","",""
"sailing-trial","79","838977","0.0-11.0-38.0","","","","false","","","","","","","","","","1695.8000000000466","","151.9000000001397","","2","1","arrowright","1","arrowleft","[0.675,0.325,0.85,0.15]","","",""
"sailing-trial","80","846291","0.0-11.0-39.0","","","","false","","","","","","","","","","null","","4698.800000000047","","0","1","null","null","arrowup","[0.675,0.325,0.85,0.15]","","",""
"sailing-trial","81","858424","0.0-11.0-40.0","","","","false","","","","","","","","","","6954.600000000093","","246.19999999995343","","1","0","arrowleft","0","arrowright","[0.675,0.325,0.85,0.15]","","",""
"sailing-trial","82","862159","0.0-11.0-41.0","","","","false","","","","","","","","","","null","","858.5","","0","1","null","null","arrowup","[0.675,0.325,0.85,0.15]","","",""
"sailing-trial","83","865942","0.0-11.0-42.0","","","","false","","","","","","","","","","816.1000000000931","","13.900000000139698","","0","0","arrowleft","0","arrowleft","[0.675,0.325,0.85,0.15]","","",""
"sailing-trial","84","870075","0.0-11.0-43.0","","","","false","","","","","","","","","","null","","1706.3999999999069","","0","1","null","null","arrowup","[0.675,0.325,0.85,0.15]","","",""
"sailing-trial","85","875675","0.0-11.0-44.0","","","","false","","","","","","","","","","1162.6000000000931","","343.0999999998603","","3","0","arrowright","1","arrowright","[0.675,0.325,0.85,0.15]","","",""
"sailing-trial","86","879358","0.0-11.0-45.0","","","","false","","","","","","","","","","null","","502.5","","0","1","null","null","arrowup","[0.675,0.325,0.85,0.15]","","",""
"sailing-trial","87","883924","0.0-11.0-46.0","","","","false","","","","","","","","","","939.3000000000466","","353.39999999990687","","0","1","arrowleft","0","arrowleft","[0.675,0.325,0.85,0.15]","","",""
"sailing-trial","88","891660","0.0-11.0-47.0","","","","false","","","","","","","","","","null","","4900.800000000047","","3","0","null","null","arrowup","[0.675,0.325,0.85,0.15]","","",""
"sailing-trial","89","901290","0.0-11.0-48.0","","","","false","","","","","","","","","","3883.899999999907","","1452.5","","2","1","arrowright","1","arrowleft","[0.675,0.325,0.85,0.15]","","",""
"sailing-trial","90","908305","0.0-11.0-49.0","","","","false","","","","","","","","","","null","","3543.1999999999534","","2","1","null","null","arrowup","[0.675,0.325,0.85,0.15]","","",""
"sailing-trial","91","914463","0.0-11.0-50.0","","","","false","","","","","","","","","","2802.4000000001397","","677.4000000001397","","2","0","arrowright","1","arrowleft","[0.675,0.325,0.85,0.15]","","",""
"sailing-trial","92","920920","0.0-11.0-51.0","","","","false","","","","","","","","","","null","","3442.6999999999534","","1","0","null","null","arrowup","[0.675,0.325,0.85,0.15]","","",""
"sailing-trial","93","935337","0.0-11.0-52.0","","","","false","","","","","","","","","","5915.09999999986","","1579.1999999999534","","2","1","arrowright","1","arrowleft","[0.675,0.325,0.85,0.15]","","",""
"sailing-trial","94","939818","0.0-11.0-53.0","","","","false","","","","","","","","","","null","","2144.3000000000466","","3","1","null","null","arrowup","[0.675,0.325,0.85,0.15]","","",""
"sailing-trial","95","946303","0.0-11.0-54.0","","","","false","","","","","","","","","","1315.1999999999534","","1062.5999999998603","","0","0","arrowleft","0","arrowleft","[0.675,0.325,0.85,0.15]","","",""
"sailing-trial","96","950353","0.0-11.0-55.0","","","","false","","","","","","","","","","null","","553.6000000000931","","0","1","null","null","arrowup","[0.675,0.325,0.85,0.15]","","",""
"sailing-trial","97","959120","0.0-11.0-56.0","","","","false","","","","","","","","","","2609.100000000093","","580.5","","3","1","arrowright","1","arrowright","[0.85,0.15,0.675,0.325]","","",""
"sailing-trial","98","965384","0.0-11.0-57.0","","","","false","","","","","","","","","","null","","3258","","3","0","null","null","arrowup","[0.85,0.15,0.675,0.325]","","",""
"sailing-trial","99","977118","0.0-11.0-58.0","","","","false","","","","","","","","","","6597.600000000093","","822.8999999999069","","1","0","arrowleft","0","arrowright","[0.85,0.15,0.675,0.325]","","",""
"sailing-trial","100","983135","0.0-11.0-59.0","","","","false","","","","","","","","","","null","","2001.8000000000466","","2","1","null","null","arrowup","[0.85,0.15,0.675,0.325]","","",""
"sailing-trial","101","990017","0.0-11.0-60.0","","","","false","","","","","","","","","","645.5","","1741.6999999999534","","3","0","arrowright","1","arrowright","[0.85,0.15,0.675,0.325]","","",""
"sailing-trial","102","993266","0.0-11.0-61.0","","","","false","","","","","","","","","","null","","226.5","","1","0","null","null","arrowup","[0.85,0.15,0.675,0.325]","","",""
"sailing-trial","103","998966","0.0-11.0-62.0","","","","false","","","","","","","","","","1278.3000000000466","","172","","1","0","arrowleft","0","arrowright","[0.85,0.15,0.675,0.325]","","",""
"sailing-trial","104","1003116","0.0-11.0-63.0","","","","false","","","","","","","","","","null","","1161.5","","0","1","null","null","arrowup","[0.85,0.15,0.675,0.325]","","",""
"sailing-trial","105","1010432","0.0-11.0-64.0","","","","false","","","","","","","","","","1233.2000000001863","","1610.1000000000931","","2","0","arrowright","1","arrowleft","[0.85,0.15,0.675,0.325]","","",""
"sailing-trial","106","1015833","0.0-11.0-65.0","","","","false","","","","","","","","","","null","","2400.6999999999534","","1","0","null","null","arrowup","[0.85,0.15,0.675,0.325]","","",""
"sailing-trial","107","1025165","0.0-11.0-66.0","","","","false","","","","","","","","","","4661","","497.60000000009313","","0","1","arrowleft","0","arrowleft","[0.85,0.15,0.675,0.325]","","",""
"sailing-trial","108","1029475","0.0-11.0-67.0","","","","false","","","","","","","","","","null","","2524.5999999998603","","3","0","null","null","arrowup","[0.85,0.15,0.675,0.325]","","",""
"sailing-trial","109","1034848","0.0-11.0-68.0","","","","false","","","","","","","","","","1250.1999999999534","","58.799999999813735","","1","0","arrowleft","0","arrowright","[0.85,0.15,0.675,0.325]","","",""
"sailing-trial","110","1037398","0.0-11.0-69.0","","","","false","","","","","","","","","","null","","90.19999999995343","","0","1","null","null","arrowup","[0.85,0.15,0.675,0.325]","","",""
"sailing-trial","111","1041615","0.0-11.0-70.0","","","","false","","","","","","","","","","791.6999999999534","","537.5999999998603","","2","1","arrowright","1","arrowleft","[0.85,0.15,0.675,0.325]","","",""
"sailing-trial","112","1045348","0.0-11.0-71.0","","","","false","","","","","","","","","","null","","1792.1000000000931","","1","1","null","null","arrowup","[0.85,0.15,0.675,0.325]","","",""
"sailing-trial","113","1049014","0.0-11.0-72.0","","","","false","","","","","","","","","","79.80000000004657","","651.5000000001164","","2","1","arrowright","1","arrowleft","[0.85,0.15,0.675,0.325]","","",""
"sailing-trial","114","1051581","0.0-11.0-73.0","","","","false","","","","","","","","","","null","","865.8000000002794","","2","1","null","null","arrowup","[0.85,0.15,0.675,0.325]","","",""
"sailing-trial","115","1058265","0.0-11.0-74.0","","","","false","","","","","","","","","","1663.6000000000931","","925.8999999999069","","0","1","arrowleft","0","arrowleft","[0.85,0.15,0.675,0.325]","","",""
"sailing-trial","116","1061431","0.0-11.0-75.0","","","","false","","","","","","","","","","null","","307.79999999981374","","0","1","null","null","arrowup","[0.85,0.15,0.675,0.325]","","",""
"sailing-trial","117","1065212","0.0-11.0-76.0","","","","false","","","","","","","","","","462.09999999962747","","756.9000000003725","","2","0","arrowright","1","arrowleft","[0.675,0.325,0.85,0.15]","","",""
"sailing-trial","118","1070029","0.0-11.0-77.0","","","","false","","","","","","","","","","null","","1814.2000000001863","","3","0","null","null","arrowup","[0.675,0.325,0.85,0.15]","","",""
"sailing-trial","119","1085196","0.0-11.0-78.0","","","","false","","","","","","","","","","3762","","1674","","0","1","arrowleft","0","arrowleft","[0.675,0.325,0.85,0.15]","","",""
"sailing-trial","120","1091280","0.0-11.0-79.0","","","","false","","","","","","","","","","null","","3388.0999999996275","","2","1","null","null","arrowup","[0.675,0.325,0.85,0.15]","","",""
"sailing-trial","121","1096895","0.0-11.0-80.0","","","","false","","","","","","","","","","883.8000000002794","","110","","3","1","arrowright","1","arrowright","[0.675,0.325,0.85,0.15]","","",""
"sailing-trial","122","1099794","0.0-11.0-81.0","","","","false","","","","","","","","","","null","","700.9000000003725","","3","0","null","null","arrowup","[0.675,0.325,0.85,0.15]","","",""
"sailing-trial","123","1107194","0.0-11.0-82.0","","","","false","","","","","","","","","","2051.100000000093","","77.59999999962747","","1","1","arrowleft","0","arrowright","[0.675,0.325,0.85,0.15]","","",""
"sailing-trial","124","1111777","0.0-11.0-83.0","","","","false","","","","","","","","","","null","","2565.600000000093","","2","1","null","null","arrowup","[0.675,0.325,0.85,0.15]","","",""
"sailing-trial","125","1118077","0.0-11.0-84.0","","","","false","","","","","","","","","","606.3999999999069","","1640.5","","2","0","arrowright","1","arrowleft","[0.675,0.325,0.85,0.15]","","",""
"sailing-trial","126","1121926","0.0-11.0-85.0","","","","false","","","","","","","","","","null","","844.1000000000931","","0","0","null","null","arrowup","[0.675,0.325,0.85,0.15]","","",""
"sailing-trial","127","1127709","0.0-11.0-86.0","","","","false","","","","","","","","","","1592.8000000002794","","537.2999999998137","","0","1","arrowleft","0","arrowleft","[0.675,0.325,0.85,0.15]","","",""
"sailing-trial","128","1131276","0.0-11.0-87.0","","","","false","","","","","","","","","","null","","552.2000000001863","","2","0","null","null","arrowup","[0.675,0.325,0.85,0.15]","","",""
"sailing-trial","129","1135975","0.0-11.0-88.0","","","","false","","","","","","","","","","561.1999999997206","","294.10000000009313","","2","1","arrowright","1","arrowleft","[0.675,0.325,0.85,0.15]","","",""
"sailing-trial","130","1139594","0.0-11.0-89.0","","","","false","","","","","","","","","","null","","893.8999999999069","","0","1","null","null","arrowup","[0.675,0.325,0.85,0.15]","","",""
"sailing-trial","131","1145558","0.0-11.0-90.0","","","","false","","","","","","","","","","1280.7000000001863","","445.10000000009313","","3","0","arrowright","1","arrowright","[0.675,0.325,0.85,0.15]","","",""
"sailing-trial","132","1148274","0.0-11.0-91.0","","","","false","","","","","","","","","","null","","649.8000000002794","","2","1","null","null","arrowup","[0.675,0.325,0.85,0.15]","","",""
"sailing-trial","133","1152925","0.0-11.0-92.0","","","","false","","","","","","","","","","669","","817.7000000001863","","0","1","arrowleft","0","arrowleft","[0.675,0.325,0.85,0.15]","","",""
"sailing-trial","134","1157891","0.0-11.0-93.0","","","","false","","","","","","","","","","null","","1963.8000000002794","","2","0","null","null","arrowup","[0.675,0.325,0.85,0.15]","","",""
"sailing-trial","135","1165725","0.0-11.0-94.0","","","","false","","","","","","","","","","1276.5","","311.10000000009313","","3","1","arrowright","1","arrowright","[0.325,0.675,0.15,0.85]","","",""
"sailing-trial","136","1168874","0.0-11.0-95.0","","","","false","","","","","","","","","","null","","1323.3000000002794","","1","1","null","null","arrowup","[0.325,0.675,0.15,0.85]","","",""
"sailing-trial","137","1173856","0.0-11.0-96.0","","","","false","","","","","","","","","","568.5","","187.39999999990687","","2","0","arrowright","1","arrowleft","[0.325,0.675,0.15,0.85]","","",""
"sailing-trial","138","1179224","0.0-11.0-97.0","","","","false","","","","","","","","","","null","","1916.3999999999069","","3","1","null","null","arrowup","[0.325,0.675,0.15,0.85]","","",""
"sailing-trial","139","1183657","0.0-11.0-98.0","","","","false","","","","","","","","","","706.0999999996275","","730.1000000000931","","3","1","arrowright","1","arrowright","[0.325,0.675,0.15,0.85]","","",""
"sailing-trial","140","1190073","0.0-11.0-99.0","","","","false","","","","","","","","","","null","","3455.100000000093","","3","1","null","null","arrowup","[0.325,0.675,0.15,0.85]","","",""
"sailing-trial","141","1197724","0.0-11.0-100.0","","","","false","","","","","","","","","","2276.7000000001863","","423.70000000018626","","1","1","arrowleft","0","arrowright","[0.325,0.675,0.15,0.85]","","",""
"sailing-trial","142","1201441","0.0-11.0-101.0","","","","false","","","","","","","","","","null","","1233.7000000001863","","0","1","null","null","arrowup","[0.325,0.675,0.15,0.85]","","",""
"sailing-trial","143","1206722","0.0-11.0-102.0","","","","false","","","","","","","","","","772.2000000001863","","1034.6000000000931","","3","1","arrowright","1","arrowright","[0.325,0.675,0.15,0.85]","","",""
"sailing-trial","144","1211089","0.0-11.0-103.0","","","","false","","","","","","","","","","null","","2422.2999999998137","","0","1","null","null","arrowup","[0.325,0.675,0.15,0.85]","","",""
"sailing-trial","145","1215505","0.0-11.0-104.0","","","","false","","","","","","","","","","789.1000000000931","","428.3000000002794","","1","1","arrowleft","0","arrowright","[0.325,0.675,0.15,0.85]","","",""
"sailing-trial","146","1220506","0.0-11.0-105.0","","","","false","","","","","","","","","","null","","2060.5","","3","1","null","null","arrowup","[0.325,0.675,0.15,0.85]","","",""
"sailing-trial","147","1226221","0.0-11.0-106.0","","","","false","","","","","","","","","","1164.8000000002794","","659.1999999997206","","1","1","arrowleft","0","arrowright","[0.325,0.675,0.15,0.85]","","",""
"sailing-trial","148","1234070","0.0-11.0-107.0","","","","false","","","","","","","","","","null","","4043.399999999907","","3","1","null","null","arrowup","[0.325,0.675,0.15,0.85]","","",""
"sailing-trial","149","1240305","0.0-11.0-108.0","","","","false","","","","","","","","","","1639","","529.3000000002794","","1","1","arrowleft","0","arrowright","[0.325,0.675,0.15,0.85]","","",""
"sailing-trial","150","1244437","0.0-11.0-109.0","","","","false","","","","","","","","","","null","","1261.8999999999069","","1","1","null","null","arrowup","[0.325,0.675,0.15,0.85]","","",""
"sailing-trial","151","1250019","0.0-11.0-110.0","","","","false","","","","","","","","","","652.1000000000931","","605.1999999997206","","2","0","arrowright","1","arrowleft","[0.325,0.675,0.15,0.85]","","",""
"sailing-trial","152","1252853","0.0-11.0-111.0","","","","false","","","","","","","","","","null","","793","","2","1","null","null","arrowup","[0.325,0.675,0.15,0.85]","","",""
"sailing-trial","153","1258236","0.0-11.0-112.0","","","","false","","","","","","","","","","622.5","","285.39999999990687","","3","0","arrowright","1","arrowright","[0.675,0.325,0.85,0.15]","","",""
"sailing-trial","154","1262218","0.0-11.0-113.0","","","","false","","","","","","","","","","null","","972.2000000001863","","3","0","null","null","arrowup","[0.675,0.325,0.85,0.15]","","",""
"sailing-trial","155","1270570","0.0-11.0-114.0","","","","false","","","","","","","","","","2022.8000000002794","","398.09999999962747","","1","1","arrowleft","0","arrowright","[0.675,0.325,0.85,0.15]","","",""
"sailing-trial","156","1274419","0.0-11.0-115.0","","","","false","","","","","","","","","","null","","1920.1000000000931","","0","1","null","null","arrowup","[0.675,0.325,0.85,0.15]","","",""
"sailing-trial","157","1279369","0.0-11.0-116.0","","","","false","","","","","","","","","","1370.8999999999069","","588.3999999999069","","2","1","arrowright","1","arrowleft","[0.675,0.325,0.85,0.15]","","",""
"sailing-trial","158","1286535","0.0-11.0-117.0","","","","false","","","","","","","","","","null","","1348.8999999999069","","0","1","null","null","arrowup","[0.675,0.325,0.85,0.15]","","",""
"sailing-trial","159","1294100","0.0-11.0-118.0","","","","false","","","","","","","","","","2458.399999999907","","783.9000000003725","","2","0","arrowright","1","arrowleft","[0.675,0.325,0.85,0.15]","","",""
"sailing-trial","160","1298867","0.0-11.0-119.0","","","","false","","","","","","","","","","null","","1760.2000000001863","","3","0","null","null","arrowup","[0.675,0.325,0.85,0.15]","","",""
"sailing-trial","161","1305316","0.0-11.0-120.0","","","","false","","","","","","","","","","1351.5","","1098.1999999997206","","3","0","arrowright","1","arrowright","[0.675,0.325,0.85,0.15]","","",""
"sailing-trial","162","1308835","0.0-11.0-121.0","","","","false","","","","","","","","","","null","","1054.3000000002794","","0","1","null","null","arrowup","[0.675,0.325,0.85,0.15]","","",""
"sailing-trial","163","1315532","0.0-11.0-122.0","","","","false","","","","","","","","","","1696.1000000000931","","922.2999999998137","","1","0","arrowleft","0","arrowright","[0.675,0.325,0.85,0.15]","","",""
"sailing-trial","164","1319065","0.0-11.0-123.0","","","","false","","","","","","","","","","null","","518.6000000000931","","3","0","null","null","arrowup","[0.675,0.325,0.85,0.15]","","",""
"sailing-trial","165","1326133","0.0-11.0-124.0","","","","false","","","","","","","","","","1520.5999999996275","","1279","","1","0","arrowleft","0","arrowright","[0.675,0.325,0.85,0.15]","","",""
"sailing-trial","166","1329548","0.0-11.0-125.0","","","","false","","","","","","","","","","null","","403.6999999997206","","1","0","null","null","arrowup","[0.675,0.325,0.85,0.15]","","",""
"sailing-trial","167","1335416","0.0-11.0-126.0","","","","false","","","","","","","","","","1305.3999999999069","","310.5","","1","0","arrowleft","0","arrowright","[0.675,0.325,0.85,0.15]","","",""
"sailing-trial","168","1338497","0.0-11.0-127.0","","","","false","","","","","","","","","","null","","17.300000000279397","","3","0","null","null","arrowup","[0.675,0.325,0.85,0.15]","","",""
"sailing-trial","169","1344447","0.0-11.0-128.0","","","","false","","","","","","","","","","912.2000000001863","","808.2000000001863","","0","0","arrowleft","0","arrowleft","[0.675,0.325,0.85,0.15]","","",""
"sailing-trial","170","1353182","0.0-11.0-129.0","","","","false","","","","","","","","","","null","","3090.3000000002794","","1","1","null","null","arrowup","[0.675,0.325,0.85,0.15]","","",""
"sailing-trial","171","1359515","0.0-11.0-130.0","","","","false","","","","","","","","","","561","","147.60000000009313","","3","1","arrowright","1","arrowright","[0.85,0.15,0.675,0.325]","","",""
"sailing-trial","172","1364263","0.0-11.0-131.0","","","","false","","","","","","","","","","null","","1741","","0","0","null","null","arrowup","[0.85,0.15,0.675,0.325]","","",""
"sailing-trial","173","1377831","0.0-11.0-132.0","","","","false","","","","","","","","","","1622.7999999998137","","3876.399999999907","","1","1","arrowleft","0","arrowright","[0.85,0.15,0.675,0.325]","","",""
"sailing-trial","174","1382879","0.0-11.0-133.0","","","","false","","","","","","","","","","null","","2050","","0","0","null","null","arrowup","[0.85,0.15,0.675,0.325]","","",""
"sailing-trial","175","1389629","0.0-11.0-134.0","","","","false","","","","","","","","","","1540.5999999996275","","286","","3","1","arrowright","1","arrowright","[0.85,0.15,0.675,0.325]","","",""
"sailing-trial","176","1396512","0.0-11.0-135.0","","","","false","","","","","","","","","","null","","2005.6000000000931","","1","1","null","null","arrowup","[0.85,0.15,0.675,0.325]","","",""
"sailing-trial","177","1401928","0.0-11.0-136.0","","","","false","","","","","","","","","","1101.7999999998137","","320.6999999997206","","3","1","arrowright","1","arrowright","[0.85,0.15,0.675,0.325]","","",""
"sailing-trial","178","1406861","0.0-11.0-137.0","","","","false","","","","","","","","","","null","","1920.6999999997206","","1","0","null","null","arrowup","[0.85,0.15,0.675,0.325]","","",""
"sailing-trial","179","1413144","0.0-11.0-138.0","","","","false","","","","","","","","","","1777.8000000002794","","193.60000000009313","","3","0","arrowright","1","arrowright","[0.85,0.15,0.675,0.325]","","",""
"sailing-trial","180","1418511","0.0-11.0-139.0","","","","false","","","","","","","","","","null","","2363.2999999998137","","3","0","null","null","arrowup","[0.85,0.15,0.675,0.325]","","",""
"sailing-trial","181","1426576","0.0-11.0-140.0","","","","false","","","","","","","","","","2680.8000000002794","","1082.8000000002794","","1","0","arrowleft","0","arrowright","[0.85,0.15,0.675,0.325]","","",""
"sailing-trial","182","1436093","0.0-11.0-141.0","","","","false","","","","","","","","","","null","","6719.5","","0","1","null","null","arrowup","[0.85,0.15,0.675,0.325]","","",""
"sailing-trial","183","1441825","0.0-11.0-142.0","","","","false","","","","","","","","","","741.5","","708.5999999996275","","2","0","arrowright","1","arrowleft","[0.85,0.15,0.675,0.325]","","",""
"sailing-trial","184","1446825","0.0-11.0-143.0","","","","false","","","","","","","","","","null","","1994.3999999999069","","1","0","null","null","arrowup","[0.85,0.15,0.675,0.325]","","",""
"sailing-trial","185","1455326","0.0-11.0-144.0","","","","false","","","","","","","","","","1439.1000000000931","","352.10000000009313","","1","1","arrowleft","0","arrowright","[0.85,0.15,0.675,0.325]","","",""
"sailing-trial","186","1460842","0.0-11.0-145.0","","","","false","","","","","","","","","","null","","3174.100000000093","","3","1","null","null","arrowup","[0.85,0.15,0.675,0.325]","","",""
"sailing-trial","187","1465991","0.0-11.0-146.0","","","","false","","","","","","","","","","511.5","","345.10000000009313","","2","0","arrowright","1","arrowleft","[0.325,0.675,0.15,0.85]","","",""
"sailing-trial","188","1470857","0.0-11.0-147.0","","","","false","","","","","","","","","","null","","1862.2999999998137","","3","0","null","null","arrowup","[0.325,0.675,0.15,0.85]","","",""
"sailing-trial","189","1476475","0.0-11.0-148.0","","","","false","","","","","","","","","","806.6000000000931","","439.60000000009313","","1","1","arrowleft","0","arrowright","[0.325,0.675,0.15,0.85]","","",""
"sailing-trial","190","1480690","0.0-11.0-149.0","","","","false","","","","","","","","","","null","","796.1000000000931","","0","1","null","null","arrowup","[0.325,0.675,0.15,0.85]","","",""
"sailing-trial","191","1485840","0.0-11.0-150.0","","","","false","","","","","","","","","","1136.9000000003725","","6.600000000093132","","1","0","arrowleft","0","arrowright","[0.325,0.675,0.15,0.85]","","",""
"sailing-trial","192","1489307","0.0-11.0-151.0","","","","false","","","","","","","","","","null","","424.90000000037253","","2","0","null","null","arrowup","[0.325,0.675,0.15,0.85]","","",""
"sailing-trial","193","1495106","0.0-11.0-152.0","","","","false","","","","","","","","","","1129","","618.1000000000931","","0","0","arrowleft","0","arrowleft","[0.325,0.675,0.15,0.85]","","",""
"sailing-trial","194","1499090","0.0-11.0-153.0","","","","false","","","","","","","","","","null","","1426.7000000001863","","2","1","null","null","arrowup","[0.325,0.675,0.15,0.85]","","",""
"sailing-trial","195","1504090","0.0-11.0-154.0","","","","false","","","","","","","","","","487.20000000018626","","527.2999999998137","","3","1","arrowright","1","arrowright","[0.325,0.675,0.15,0.85]","","",""
"sailing-trial","196","1510988","0.0-11.0-155.0","","","","false","","","","","","","","","","null","","3893","","1","0","null","null","arrowup","[0.325,0.675,0.15,0.85]","","",""
"sailing-trial","197","1516455","0.0-11.0-156.0","","","","false","","","","","","","","","","1067.6999999997206","","152","","2","0","arrowright","1","arrowleft","[0.325,0.675,0.15,0.85]","","",""
"sailing-trial","198","1519589","0.0-11.0-157.0","","","","false","","","","","","","","","","null","","115.39999999990687","","2","0","null","null","arrowup","[0.325,0.675,0.15,0.85]","","",""
"sailing-trial","199","1524221","0.0-11.0-158.0","","","","false","","","","","","","","","","466.60000000009313","","437.5","","1","1","arrowleft","0","arrowright","[0.325,0.675,0.15,0.85]","","",""
"sailing-trial","200","1528689","0.0-11.0-159.0","","","","false","","","","","","","","","","null","","1153.7000000001863","","2","1","null","null","arrowup","[0.325,0.675,0.15,0.85]","","",""
"sailing-trial","201","1534787","0.0-11.0-160.0","","","","false","","","","","","","","","","499.70000000018626","","2139.399999999907","","3","1","arrowright","1","arrowright","[0.325,0.675,0.15,0.85]","","",""
"sailing-trial","202","1539437","0.0-11.0-161.0","","","","false","","","","","","","","","","null","","1642.3000000002794","","0","0","null","null","arrowup","[0.325,0.675,0.15,0.85]","","",""
"sailing-trial","203","1544227","0.0-11.0-162.0","","","","false","","","","","","","","","","1104","","1142.3000000002794","","0","0","arrowleft","0","arrowleft","[0.15,0.85,0.325,0.675]","","",""
"sailing-trial","204","1549838","0.0-11.0-163.0","","","","false","","","","","","","","","","null","","3083.7999999998137","","1","1","null","null","arrowup","[0.15,0.85,0.325,0.675]","","",""
"sailing-trial","205","1556153","0.0-11.0-164.0","","","","false","","","","","","","","","","1032.6000000000931","","1156.2999999998137","","2","0","arrowright","1","arrowleft","[0.15,0.85,0.325,0.675]","","",""
"sailing-trial","206","1559619","0.0-11.0-165.0","","","","false","","","","","","","","","","null","","441.70000000018626","","2","0","null","null","arrowup","[0.15,0.85,0.325,0.675]","","",""
"sailing-trial","207","1565521","0.0-11.0-166.0","","","","false","","","","","","","","","","1364.5","","429.8000000002794","","3","1","arrowright","1","arrowright","[0.15,0.85,0.325,0.675]","","",""
"sailing-trial","208","1572818","0.0-11.0-167.0","","","","false","","","","","","","","","","null","","4285.600000000093","","3","0","null","null","arrowup","[0.15,0.85,0.325,0.675]","","",""
"sailing-trial","209","1580619","0.0-11.0-168.0","","","","false","","","","","","","","","","1879.8999999999069","","538.1999999997206","","1","1","arrowleft","0","arrowright","[0.15,0.85,0.325,0.675]","","",""
"sailing-trial","210","1587634","0.0-11.0-169.0","","","","false","","","","","","","","","","null","","3529.3000000002794","","1","1","null","null","arrowup","[0.15,0.85,0.325,0.675]","","",""
"sailing-trial","211","1593702","0.0-11.0-170.0","","","","false","","","","","","","","","","746","","237.60000000009313","","3","1","arrowright","1","arrowright","[0.15,0.85,0.325,0.675]","","",""
"sailing-trial","212","1600450","0.0-11.0-171.0","","","","false","","","","","","","","","","null","","3735.5","","1","0","null","null","arrowup","[0.15,0.85,0.325,0.675]","","",""
"sailing-trial","213","1610751","0.0-11.0-172.0","","","","false","","","","","","","","","","3638.399999999907","","395.70000000018626","","3","1","arrowright","1","arrowright","[0.15,0.85,0.325,0.675]","","",""
"sailing-trial","214","1615699","0.0-11.0-173.0","","","","false","","","","","","","","","","null","","1941.8999999999069","","0","0","null","null","arrowup","[0.15,0.85,0.325,0.675]","","",""
"sailing-trial","215","1621016","0.0-11.0-174.0","","","","false","","","","","","","","","","944.4000000003725","","173.10000000009313","","1","1","arrowleft","0","arrowright","[0.15,0.85,0.325,0.675]","","",""
"sailing-trial","216","1627584","0.0-11.0-175.0","","","","false","","","","","","","","","","null","","2391.0999999996275","","1","1","null","null","arrowup","[0.15,0.85,0.325,0.675]","","",""
"sailing-trial","217","1633234","0.0-11.0-176.0","","","","false","","","","","","","","","","1045.2000000001863","","1320.7999999998137","","3","1","arrowright","1","arrowright","[0.15,0.85,0.325,0.675]","","",""
"sailing-trial","218","1638733","0.0-11.0-177.0","","","","false","","","","","","","","","","null","","2498.399999999907","","0","0","null","null","arrowup","[0.15,0.85,0.325,0.675]","","",""
"sailing-trial","219","1646081","0.0-11.0-178.0","","","","false","","","","","","","","","","2814.1999999997206","","257.29999999981374","","3","0","arrowright","1","arrowright","[0.15,0.85,0.325,0.675]","","",""
"sailing-trial","220","1650849","0.0-11.0-179.0","","","","false","","","","","","","","","","null","","860.2000000001863","","1","1","null","null","arrowup","[0.15,0.85,0.325,0.675]","","",""
"sailing-trial","221","1658865","0.0-11.0-180.0","","","","false","","","","","","","","","","2873.5","","872","","3","1","arrowright","1","arrowright","[0.15,0.85,0.325,0.675]","","",""
"sailing-trial","222","1662346","0.0-11.0-181.0","","","","false","","","","","","","","","","null","","456.1999999997206","","0","0","null","null","arrowup","[0.15,0.85,0.325,0.675]","","",""
"sailing-trial","223","1668513","0.0-11.0-182.0","","","","false","","","","","","","","","","1415.8999999999069","","706.1000000000931","","0","0","arrowleft","0","arrowleft","[0.15,0.85,0.325,0.675]","","",""
"sailing-trial","224","1676931","0.0-11.0-183.0","","","","false","","","","","","","","","","null","","3656.100000000093","","1","1","null","null","arrowup","[0.15,0.85,0.325,0.675]","","",""
"sailing-trial","225","1683079","0.0-11.0-184.0","","","","false","","","","","","","","","","844.3999999999069","","1010","","2","0","arrowright","1","arrowleft","[0.15,0.85,0.325,0.675]","","",""
"sailing-trial","226","1687563","0.0-11.0-185.0","","","","false","","","","","","","","","","null","","811.3999999999069","","1","1","null","null","arrowup","[0.15,0.85,0.325,0.675]","","",""
"sailing-trial","227","1696713","0.0-11.0-186.0","","","","false","","","","","","","","","","3647.100000000093","","1209.8000000002794","","2","0","arrowright","1","arrowleft","[0.325,0.675,0.15,0.85]","","",""
"sailing-trial","228","1704379","0.0-11.0-187.0","","","","false","","","","","","","","","","null","","4660.799999999814","","3","0","null","null","arrowup","[0.325,0.675,0.15,0.85]","","",""
"sailing-trial","229","1710762","0.0-11.0-188.0","","","","false","","","","","","","","","","1626.7999999998137","","478.1999999997206","","3","1","arrowright","1","arrowright","[0.325,0.675,0.15,0.85]","","",""
"sailing-trial","230","1714094","0.0-11.0-189.0","","","","false","","","","","","","","","","null","","1574.2000000001863","","1","1","null","null","arrowup","[0.325,0.675,0.15,0.85]","","",""
"sailing-trial","231","1720312","0.0-11.0-190.0","","","","false","","","","","","","","","","408.6999999997206","","129.79999999981374","","3","1","arrowright","1","arrowright","[0.325,0.675,0.15,0.85]","","",""
"sailing-trial","232","1726627","0.0-11.0-191.0","","","","false","","","","","","","","","","null","","3819.7000000001863","","3","1","null","null","arrowup","[0.325,0.675,0.15,0.85]","","",""
"sailing-trial","233","1733093","0.0-11.0-192.0","","","","false","","","","","","","","","","936.7000000001863","","1293.4000000003725","","3","0","arrowright","1","arrowright","[0.325,0.675,0.15,0.85]","","",""
"sailing-trial","234","1741411","0.0-11.0-193.0","","","","false","","","","","","","","","","null","","2867","","1","1","null","null","arrowup","[0.325,0.675,0.15,0.85]","","",""
"sailing-trial","235","1749975","0.0-11.0-194.0","","","","false","","","","","","","","","","1855.8999999999069","","2217.100000000093","","2","0","arrowright","1","arrowleft","[0.325,0.675,0.15,0.85]","","",""
"sailing-trial","236","1752425","0.0-11.0-195.0","","","","false","","","","","","","","","","null","","129.79999999981374","","1","1","null","null","arrowup","[0.325,0.675,0.15,0.85]","","",""
"sailing-trial","237","1760810","0.0-11.0-196.0","","","","false","","","","","","","","","","1673.1999999997206","","2373.5999999996275","","1","1","arrowleft","0","arrowright","[0.325,0.675,0.15,0.85]","","",""
"sailing-trial","238","1765144","0.0-11.0-197.0","","","","false","","","","","","","","","","null","","1902.3999999999069","","3","1","null","null","arrowup","[0.325,0.675,0.15,0.85]","","",""
"sailing-trial","239","1771808","0.0-11.0-198.0","","","","false","","","","","","","","","","1304","","1111.2000000001863","","1","0","arrowleft","0","arrowright","[0.325,0.675,0.15,0.85]","","",""
"sailing-trial","240","1776340","0.0-11.0-199.0","","","","false","","","","","","","","","","null","","1528.8000000002794","","2","0","null","null","arrowup","[0.325,0.675,0.15,0.85]","","",""
"sailing-trial","241","1785574","0.0-11.0-200.0","","","","false","","","","","","","","","","4367.300000000279","","375.20000000018626","","2","0","arrowright","1","arrowleft","[0.325,0.675,0.15,0.85]","","",""
"sailing-trial","242","1791190","0.0-11.0-201.0","","","","false","","","","","","","","","","null","","2202","","2","0","null","null","arrowup","[0.325,0.675,0.15,0.85]","","",""
"sailing-trial","243","1797274","0.0-11.0-202.0","","","","false","","","","","","","","","","1810.2999999998137","","329.3000000002794","","1","1","arrowleft","0","arrowright","[0.325,0.675,0.15,0.85]","","",""
"sailing-trial","244","1800802","0.0-11.0-203.0","","","","false","","","","","","","","","","null","","1792","","2","0","null","null","arrowup","[0.325,0.675,0.15,0.85]","","",""
"sailing-trial","245","1807606","0.0-11.0-204.0","","","","false","","","","","","","","","","1561.8999999999069","","1007.5","","2","0","arrowright","1","arrowleft","[0.15,0.85,0.325,0.675]","","",""
"sailing-trial","246","1815105","0.0-11.0-205.0","","","","false","","","","","","","","","","null","","4494.100000000093","","3","0","null","null","arrowup","[0.15,0.85,0.325,0.675]","","",""
"sailing-trial","247","1820657","0.0-11.0-206.0","","","","false","","","","","","","","","","1523.1000000000931","","388.89999999990687","","1","1","arrowleft","0","arrowright","[0.15,0.85,0.325,0.675]","","",""
"sailing-trial","248","1823772","0.0-11.0-207.0","","","","false","","","","","","","","","","null","","270","","1","1","null","null","arrowup","[0.15,0.85,0.325,0.675]","","",""
"sailing-trial","249","1829123","0.0-11.0-208.0","","","","false","","","","","","","","","","1056.4000000003725","","578.3999999999069","","3","1","arrowright","1","arrowright","[0.15,0.85,0.325,0.675]","","",""
"sailing-trial","250","1832122","0.0-11.0-209.0","","","","false","","","","","","","","","","null","","825","","2","1","null","null","arrowup","[0.15,0.85,0.325,0.675]","","",""
"sailing-trial","251","1837456","0.0-11.0-210.0","","","","false","","","","","","","","","","1663.3999999999069","","426.8000000002794","","1","1","arrowleft","0","arrowright","[0.15,0.85,0.325,0.675]","","",""
"sailing-trial","252","1842021","0.0-11.0-211.0","","","","false","","","","","","","","","","null","","1223.5999999996275","","0","1","null","null","arrowup","[0.15,0.85,0.325,0.675]","","",""
"sailing-trial","253","1846371","0.0-11.0-212.0","","","","false","","","","","","","","","","454.10000000009313","","110","","3","1","arrowright","1","arrowright","[0.15,0.85,0.325,0.675]","","",""
"sailing-trial","254","1850004","0.0-11.0-213.0","","","","false","","","","","","","","","","null","","1264.5","","1","1","null","null","arrowup","[0.15,0.85,0.325,0.675]","","",""
"sailing-trial","255","1855205","0.0-11.0-214.0","","","","false","","","","","","","","","","347.6999999997206","","294.70000000018626","","1","1","arrowleft","0","arrowright","[0.15,0.85,0.325,0.675]","","",""
"sailing-trial","256","1858953","0.0-11.0-215.0","","","","false","","","","","","","","","","null","","1297.4000000003725","","2","1","null","null","arrowup","[0.15,0.85,0.325,0.675]","","",""
"sailing-trial","257","1865153","0.0-11.0-216.0","","","","false","","","","","","","","","","1069","","979.3999999999069","","3","1","arrowright","1","arrowright","[0.15,0.85,0.325,0.675]","","",""
"sailing-trial","258","1871236","0.0-11.0-217.0","","","","false","","","","","","","","","","null","","2606.100000000093","","0","0","null","null","arrowup","[0.15,0.85,0.325,0.675]","","",""
"sailing-trial","259","1876502","0.0-11.0-218.0","","","","false","","","","","","","","","","866.6000000000931","","149.79999999981374","","1","0","arrowleft","0","arrowright","[0.15,0.85,0.325,0.675]","","",""
"sailing-trial","260","1881252","0.0-11.0-219.0","","","","false","","","","","","","","","","null","","1741","","2","0","null","null","arrowup","[0.15,0.85,0.325,0.675]","","",""
"sailing-trial","261","1891102","0.0-11.0-220.0","","","","false","","","","","","","","","","4076.100000000093","","526.1000000000931","","1","1","arrowleft","0","arrowright","[0.15,0.85,0.325,0.675]","","",""
"sailing-trial","262","1900334","0.0-11.0-221.0","","","","false","","","","","","","","","","null","","6220.600000000093","","3","0","null","null","arrowup","[0.15,0.85,0.325,0.675]","","",""
"sailing-trial","263","1910202","0.0-11.0-222.0","","","","false","","","","","","","","","","1365.8999999999069","","1310","","3","1","arrowright","1","arrowright","[0.325,0.675,0.15,0.85]","","",""
"sailing-trial","264","1911920","0.0-11.0-223.0","","","","false","","","","","","","","","","null","","532.2000000001863","","1","0","null","null","arrowup","[0.325,0.675,0.15,0.85]","","",""
"sailing-trial","265","1920518","0.0-11.0-224.0","","","","false","","","","","","","","","","1042.8000000002794","","919.1999999997206","","3","1","arrowright","1","arrowright","[0.325,0.675,0.15,0.85]","","",""
"sailing-trial","266","1925216","0.0-11.0-225.0","","","","false","","","","","","","","","","null","","1908.5","","0","1","null","null","arrowup","[0.325,0.675,0.15,0.85]","","",""
"sailing-trial","267","1935599","0.0-11.0-226.0","","","","false","","","","","","","","","","1918.3999999999069","","2712.2999999998137","","3","1","arrowright","1","arrowright","[0.325,0.675,0.15,0.85]","","",""
"sailing-trial","268","1941199","0.0-11.0-227.0","","","","false","","","","","","","","","","null","","3043.2999999998137","","3","1","null","null","arrowup","[0.325,0.675,0.15,0.85]","","",""
"sailing-trial","269","1952632","0.0-11.0-228.0","","","","false","","","","","","","","","","3717.7999999998137","","931.2000000001863","","0","1","arrowleft","0","arrowleft","[0.325,0.675,0.15,0.85]","","",""
"sailing-trial","270","1958981","0.0-11.0-229.0","","","","false","","","","","","","","","","null","","3341.7999999998137","","0","0","null","null","arrowup","[0.325,0.675,0.15,0.85]","","",""
"sailing-trial","271","1965282","0.0-11.0-230.0","","","","false","","","","","","","","","","1418.2000000001863","","1003.3000000002794","","3","1","arrowright","1","arrowright","[0.325,0.675,0.15,0.85]","","",""
"sailing-trial","272","1969698","0.0-11.0-231.0","","","","false","","","","","","","","","","null","","2375.7999999998137","","3","1","null","null","arrowup","[0.325,0.675,0.15,0.85]","","",""
"sailing-trial","273","1976597","0.0-11.0-232.0","","","","false","","","","","","","","","","470.89999999990687","","2421.399999999907","","2","0","arrowright","1","arrowleft","[0.325,0.675,0.15,0.85]","","",""
"sailing-trial","274","1980096","0.0-11.0-233.0","","","","false","","","","","","","","","","null","","463.20000000018626","","1","0","null","null","arrowup","[0.325,0.675,0.15,0.85]","","",""
"sailing-trial","275","1988646","0.0-11.0-234.0","","","","false","","","","","","","","","","2105.5999999996275","","2439.8000000002794","","0","0","arrowleft","0","arrowleft","[0.325,0.675,0.15,0.85]","","",""
"sailing-trial","276","1992445","0.0-11.0-235.0","","","","false","","","","","","","","","","null","","794.6999999997206","","2","0","null","null","arrowup","[0.325,0.675,0.15,0.85]","","",""
"sailing-trial","277","2000896","0.0-11.0-236.0","","","","false","","","","","","","","","","1178.6999999997206","","1967.4000000003725","","3","1","arrowright","1","arrowright","[0.325,0.675,0.15,0.85]","","",""
"sailing-trial","278","2005645","0.0-11.0-237.0","","","","false","","","","","","","","","","null","","1738","","2","0","null","null","arrowup","[0.325,0.675,0.15,0.85]","","",""
"sailing-trial","279","2011762","0.0-11.0-238.0","","","","false","","","","","","","","","","1012.8000000002794","","1098.5","","2","0","arrowright","1","arrowleft","[0.325,0.675,0.15,0.85]","","",""
"sailing-trial","280","2022361","0.0-11.0-239.0","","","","false","","","","","","","","","","null","","7589.300000000279","","0","0","null","null","arrowup","[0.325,0.675,0.15,0.85]","","",""
"sailing-trial","281","2027410","0.0-11.0-240.0","","","","false","","","","","","","","","","1299.7000000001863","","224.8000000002794","","3","1","arrowright","1","arrowright","[0.325,0.675,0.15,0.85]","","",""
"sailing-trial","282","2032178","0.0-11.0-241.0","","","","false","","","","","","","","","","null","","2416.9000000003725","","3","1","null","null","arrowup","[0.325,0.675,0.15,0.85]","","",""
"sailing-trial","283","2038893","0.0-11.0-242.0","","","","false","","","","","","","","","","435.1999999997206","","444.5","","3","1","arrowright","1","arrowright","[0.325,0.675,0.15,0.85]","","",""
"sailing-trial","284","2042877","0.0-11.0-243.0","","","","false","","","","","","","","","","null","","2016.5","","3","1","null","null","arrowup","[0.325,0.675,0.15,0.85]","","",""
"sailing-trial","285","2047293","0.0-11.0-244.0","","","","false","","","","","","","","","","269.60000000009313","","206.20000000018626","","3","1","arrowright","1","arrowright","[0.15,0.85,0.325,0.675]","","",""
"sailing-trial","286","2053277","0.0-11.0-245.0","","","","false","","","","","","","","","","null","","2046.1000000000931","","3","1","null","null","arrowup","[0.15,0.85,0.325,0.675]","","",""
"sailing-trial","287","2062476","0.0-11.0-246.0","","","","false","","","","","","","","","","1342.2999999998137","","4084.1999999997206","","1","1","arrowleft","0","arrowright","[0.15,0.85,0.325,0.675]","","",""
"sailing-trial","288","2071176","0.0-11.0-247.0","","","","false","","","","","","","","","","null","","1583","","1","1","null","null","arrowup","[0.15,0.85,0.325,0.675]","","",""
"sailing-trial","289","2077975","0.0-11.0-248.0","","","","false","","","","","","","","","","2412.5999999996275","","282","","3","0","arrowright","1","arrowright","[0.15,0.85,0.325,0.675]","","",""
"sailing-trial","290","2081009","0.0-11.0-249.0","","","","false","","","","","","","","","","null","","489.6999999997206","","1","1","null","null","arrowup","[0.15,0.85,0.325,0.675]","","",""
"sailing-trial","291","2087741","0.0-11.0-250.0","","","","false","","","","","","","","","","2322.9000000003725","","141.89999999990687","","3","0","arrowright","1","arrowright","[0.15,0.85,0.325,0.675]","","",""
"sailing-trial","292","2091459","0.0-11.0-251.0","","","","false","","","","","","","","","","null","","708.4000000003725","","0","0","null","null","arrowup","[0.15,0.85,0.325,0.675]","","",""
"sailing-trial","293","2114113","0.0-11.0-252.0","","","","true","","","","","","","","","","3381.8000000002794","","3222.7999999998137","","1","1","arrowleft","0","arrowright","[0.15,0.85,0.325,0.675]","","",""
"sailing-trial","294","2129119","0.0-11.0-253.0","","","","true","","","","","","","","","","null","","null","","null","null","null","null","null","[0.15,0.85,0.325,0.675]","","",""
"sailing-trial","295","2135822","0.0-11.0-254.0","","","","false","","","","","","","","","","1282.1000000000931","","286.29999999981374","","3","1","arrowright","1","arrowright","[0.15,0.85,0.325,0.675]","","",""
"sailing-trial","296","2141771","0.0-11.0-255.0","","","","false","","","","","","","","","","null","","2878.600000000093","","3","1","null","null","arrowup","[0.15,0.85,0.325,0.675]","","",""
"sailing-trial","297","2146921","0.0-11.0-256.0","","","","false","","","","","","","","","","314.29999999981374","","573.6000000000931","","2","0","arrowright","1","arrowleft","[0.15,0.85,0.325,0.675]","","",""
"sailing-trial","298","2150887","0.0-11.0-257.0","","","","false","","","","","","","","","","null","","967.5","","2","0","null","null","arrowup","[0.15,0.85,0.325,0.675]","","",""
"sailing-trial","299","2156987","0.0-11.0-258.0","","","","false","","","","","","","","","","1428.6000000000931","","288.3000000002794","","0","0","arrowleft","0","arrowleft","[0.15,0.85,0.325,0.675]","","",""
"sailing-trial","300","2161620","0.0-11.0-259.0","","","","false","","","","","","","","","","null","","1621.7000000001863","","2","0","null","null","arrowup","[0.15,0.85,0.325,0.675]","","",""
"sailing-trial","301","2168820","0.0-11.0-260.0","","","","false","","","","","","","","","","829.5","","2307.5","","3","1","arrowright","1","arrowright","[0.15,0.85,0.325,0.675]","","",""
"sailing-trial","302","2175904","0.0-11.0-261.0","","","","false","","","","","","","","","","null","","4069.8000000002794","","1","0","null","null","arrowup","[0.15,0.85,0.325,0.675]","","",""
"sailing-trial","303","2182503","0.0-11.0-262.0","","","","false","","","","","","","","","","1598.7999999998137","","310.5","","1","1","arrowleft","0","arrowright","[0.15,0.85,0.325,0.675]","","",""
"sailing-trial","304","2186752","0.0-11.0-263.0","","","","false","","","","","","","","","","null","","1251.1999999997206","","0","0","null","null","arrowup","[0.15,0.85,0.325,0.675]","","",""
"sailing-trial","305","2194552","0.0-11.0-264.0","","","","false","","","","","","","","","","3520","","362.5","","1","1","arrowleft","0","arrowright","[0.325,0.675,0.15,0.85]","","",""
"sailing-trial","306","2200535","0.0-11.0-265.0","","","","false","","","","","","","","","","null","","2933.7999999998137","","3","1","null","null","arrowup","[0.325,0.675,0.15,0.85]","","",""
"sailing-trial","307","2207802","0.0-11.0-266.0","","","","false","","","","","","","","","","1005.3000000002794","","337","","3","1","arrowright","1","arrowright","[0.325,0.675,0.15,0.85]","","",""
"sailing-trial","308","2216133","0.0-11.0-267.0","","","","false","","","","","","","","","","null","","5329.600000000093","","2","0","null","null","arrowup","[0.325,0.675,0.15,0.85]","","",""
"sailing-trial","309","2223501","0.0-11.0-268.0","","","","false","","","","","","","","","","1608.0999999996275","","852.8999999999069","","3","1","arrowright","1","arrowright","[0.325,0.675,0.15,0.85]","","",""
"sailing-trial","310","2227349","0.0-11.0-269.0","","","","false","","","","","","","","","","null","","843","","3","0","null","null","arrowup","[0.325,0.675,0.15,0.85]","","",""
"sailing-trial","311","2232484","0.0-11.0-270.0","","","","false","","","","","","","","","","1005.5999999996275","","206.60000000009313","","3","1","arrowright","1","arrowright","[0.325,0.675,0.15,0.85]","","",""
"sailing-trial","312","2238632","0.0-11.0-271.0","","","","false","","","","","","","","","","null","","2436.5","","0","1","null","null","arrowup","[0.325,0.675,0.15,0.85]","","",""
"sailing-trial","313","2245682","0.0-11.0-272.0","","","","false","","","","","","","","","","1440.6999999997206","","864.6999999997206","","2","1","arrowright","1","arrowleft","[0.325,0.675,0.15,0.85]","","",""
"sailing-trial","314","2250364","0.0-11.0-273.0","","","","false","","","","","","","","","","null","","1673.5","","2","0","null","null","arrowup","[0.325,0.675,0.15,0.85]","","",""
"sailing-trial","315","2256282","0.0-11.0-274.0","","","","false","","","","","","","","","","1276.7999999998137","","959.3000000002794","","1","1","arrowleft","0","arrowright","[0.325,0.675,0.15,0.85]","","",""
"sailing-trial","316","2260014","0.0-11.0-275.0","","","","false","","","","","","","","","","null","","1644.6000000000931","","1","1","null","null","arrowup","[0.325,0.675,0.15,0.85]","","",""
"sailing-trial","317","2267832","0.0-11.0-276.0","","","","false","","","","","","","","","","2204.399999999907","","85.89999999990687","","3","1","arrowright","1","arrowright","[0.325,0.675,0.15,0.85]","","",""
"sailing-trial","318","2274999","0.0-11.0-277.0","","","","false","","","","","","","","","","null","","3586.600000000093","","1","1","null","null","arrowup","[0.325,0.675,0.15,0.85]","","",""
"sailing-trial","319","2283648","0.0-11.0-278.0","","","","false","","","","","","","","","","1735.5","","696.8000000002794","","1","1","arrowleft","0","arrowright","[0.325,0.675,0.15,0.85]","","",""
"sailing-trial","320","2289213","0.0-11.0-279.0","","","","false","","","","","","","","","","null","","2562.1999999997206","","0","0","null","null","arrowup","[0.325,0.675,0.15,0.85]","","",""
"sailing-trial","321","2295563","0.0-11.0-280.0","","","","false","","","","","","","","","","1695.5","","756.3999999999069","","3","1","arrowright","1","arrowright","[0.15,0.85,0.325,0.675]","","",""
"sailing-trial","322","2300563","0.0-11.0-281.0","","","","false","","","","","","","","","","null","","2002.6999999997206","","0","0","null","null","arrowup","[0.15,0.85,0.325,0.675]","","",""
"sailing-trial","323","2307545","0.0-11.0-282.0","","","","false","","","","","","","","","","1777.1000000000931","","903.5","","2","0","arrowright","1","arrowleft","[0.15,0.85,0.325,0.675]","","",""
"sailing-trial","324","2310195","0.0-11.0-283.0","","","","false","","","","","","","","","","null","","162","","1","1","null","null","arrowup","[0.15,0.85,0.325,0.675]","","",""
"sailing-trial","325","2315073","0.0-11.0-284.0","","","","false","","","","","","","","","","1584.1999999997206","","864.7999999998137","","0","0","arrowleft","0","arrowleft","[0.15,0.85,0.325,0.675]","","",""
"sailing-trial","326","2319079","0.0-11.0-285.0","","","","false","","","","","","","","","","null","","1830.8000000002794","","3","1","null","null","arrowup","[0.15,0.85,0.325,0.675]","","",""
"sailing-trial","327","2323762","0.0-11.0-286.0","","","","false","","","","","","","","","","907.8999999999069","","380.5","","3","1","arrowright","1","arrowright","[0.15,0.85,0.325,0.675]","","",""
"sailing-trial","328","2331646","0.0-11.0-287.0","","","","false","","","","","","","","","","null","","4479.5","","2","0","null","null","arrowup","[0.15,0.85,0.325,0.675]","","",""
"sailing-trial","329","2341560","0.0-11.0-288.0","","","","false","","","","","","","","","","2735.7000000001863","","1177.8999999999069","","3","1","arrowright","1","arrowright","[0.15,0.85,0.325,0.675]","","",""
"sailing-trial","330","2345943","0.0-11.0-289.0","","","","false","","","","","","","","","","null","","1377.8000000002794","","0","0","null","null","arrowup","[0.15,0.85,0.325,0.675]","","",""
"sailing-trial","331","2354294","0.0-11.0-290.0","","","","false","","","","","","","","","","1873.8000000002794","","1769.7999999998137","","1","1","arrowleft","0","arrowright","[0.15,0.85,0.325,0.675]","","",""
"sailing-trial","332","2360577","0.0-11.0-291.0","","","","false","","","","","","","","","","null","","2638.8000000002794","","1","1","null","null","arrowup","[0.15,0.85,0.325,0.675]","","",""
"sailing-trial","333","2368976","0.0-11.0-292.0","","","","false","","","","","","","","","","1725.2000000001863","","1002.6999999997206","","3","1","arrowright","1","arrowright","[0.15,0.85,0.325,0.675]","","",""
"sailing-trial","334","2374278","0.0-11.0-293.0","","","","false","","","","","","","","","","null","","2891.600000000093","","2","0","null","null","arrowup","[0.15,0.85,0.325,0.675]","","",""
"sailing-trial","335","2381009","0.0-11.0-294.0","","","","false","","","","","","","","","","1621.5","","51.6999999997206","","1","1","arrowleft","0","arrowright","[0.15,0.85,0.325,0.675]","","",""
"sailing-trial","336","2386176","0.0-11.0-295.0","","","","false","","","","","","","","","","null","","1867.1999999997206","","3","1","null","null","arrowup","[0.15,0.85,0.325,0.675]","","",""
"sailing-trial","337","2393008","0.0-11.0-296.0","","","","false","","","","","","","","","","2086.2999999998137","","337.5","","1","0","arrowleft","0","arrowright","[0.675,0.325,0.85,0.15]","","",""
"sailing-trial","338","2403442","0.0-11.0-297.0","","","","false","","","","","","","","","","null","","5335.0999999996275","","3","1","null","null","arrowup","[0.675,0.325,0.85,0.15]","","",""
"sailing-trial","339","2410907","0.0-11.0-298.0","","","","false","","","","","","","","","","2433.5","","251.39999999990687","","3","0","arrowright","1","arrowright","[0.675,0.325,0.85,0.15]","","",""
"sailing-trial","340","2413406","0.0-11.0-299.0","","","","false","","","","","","","","","","null","","24.899999999906868","","0","1","null","null","arrowup","[0.675,0.325,0.85,0.15]","","",""
"sailing-trial","341","2420540","0.0-11.0-300.0","","","","false","","","","","","","","","","2563.6999999997206","","281.60000000009313","","0","1","arrowleft","0","arrowleft","[0.675,0.325,0.85,0.15]","","",""
"sailing-trial","342","2423892","0.0-11.0-301.0","","","","false","","","","","","","","","","null","","2348.899999999907","","1","0","null","null","arrowup","[0.675,0.325,0.85,0.15]","","",""
"sailing-trial","343","2428990","0.0-11.0-302.0","","","","false","","","","","","","","","","1494.3999999999069","","316.39999999990687","","2","1","arrowright","1","arrowleft","[0.675,0.325,0.85,0.15]","","",""
"sailing-trial","344","2432573","0.0-11.0-303.0","","","","false","","","","","","","","","","null","","353.5","","2","1","null","null","arrowup","[0.675,0.325,0.85,0.15]","","",""
"sailing-trial","345","2436806","0.0-11.0-304.0","","","","false","","","","","","","","","","262.09999999962747","","1336.7999999998137","","2","1","arrowright","1","arrowleft","[0.675,0.325,0.85,0.15]","","",""
"sailing-trial","346","2439266","0.0-11.0-305.0","","","","false","","","","","","","","","","null","","1078.5","","2","0","null","null","arrowup","[0.675,0.325,0.85,0.15]","","",""
"sailing-trial","347","2445939","0.0-11.0-306.0","","","","false","","","","","","","","","","1081.2000000001863","","553.2999999998137","","2","1","arrowright","1","arrowleft","[0.675,0.325,0.85,0.15]","","",""
"sailing-trial","348","2448330","0.0-11.0-307.0","","","","false","","","","","","","","","","null","","852.1000000000931","","3","0","null","null","arrowup","[0.675,0.325,0.85,0.15]","","",""
"sailing-trial","349","2458104","0.0-11.0-308.0","","","","false","","","","","","","","","","4439.799999999814","","118.79999999981374","","0","1","arrowleft","0","arrowleft","[0.675,0.325,0.85,0.15]","","",""
"sailing-trial","350","2465670","0.0-11.0-309.0","","","","false","","","","","","","","","","null","","4558.300000000279","","1","0","null","null","arrowup","[0.675,0.325,0.85,0.15]","","",""
"sailing-trial","351","2477404","0.0-11.0-310.0","","","","false","","","","","","","","","","5642.300000000279","","481.90000000037253","","1","1","arrowleft","0","arrowright","[0.675,0.325,0.85,0.15]","","",""
"sailing-trial","352","2482487","0.0-11.0-311.0","","","","false","","","","","","","","","","null","","2086","","1","1","null","null","arrowup","[0.675,0.325,0.85,0.15]","","",""
"sailing-trial","353","2488552","0.0-11.0-312.0","","","","false","","","","","","","","","","978.7999999998137","","784.9000000003725","","3","0","arrowright","1","arrowright","[0.675,0.325,0.85,0.15]","","",""
"sailing-trial","354","2493968","0.0-11.0-313.0","","","","false","","","","","","","","","","null","","2403.7999999998137","","3","0","null","null","arrowup","[0.675,0.325,0.85,0.15]","","",""
"sailing-trial","355","2500954","0.0-11.0-314.0","","","","false","","","","","","","","","","1811.7999999998137","","857.6000000000931","","1","0","arrowleft","0","arrowright","[0.675,0.325,0.85,0.15]","","",""
"sailing-trial","356","2505335","0.0-11.0-315.0","","","","false","","","","","","","","","","null","","1372.1999999997206","","2","0","null","null","arrowup","[0.675,0.325,0.85,0.15]","","",""
"sailing-trial","357","2509918","0.0-11.0-316.0","","","","false","","","","","","","","","","780.1000000000931","","206.1999999997206","","2","1","arrowright","1","arrowleft","[0.675,0.325,0.85,0.15]","","",""
"sailing-trial","358","2514717","0.0-11.0-317.0","","","","false","","","","","","","","","","null","","1794.3000000002794","","1","0","null","null","arrowup","[0.675,0.325,0.85,0.15]","","",""
"sailing-trial","359","2520519","0.0-11.0-318.0","","","","false","","","","","","","","","","1391.8000000002794","","953.7000000001863","","2","1","arrowright","1","arrowleft","[0.85,0.15,0.675,0.325]","","",""
"sailing-trial","360","2523273","0.0-11.0-319.0","","","","false","","","","","","","","","","null","","162.20000000018626","","2","0","null","null","arrowup","[0.85,0.15,0.675,0.325]","","",""
"sailing-trial","361","2529084","0.0-11.0-320.0","","","","false","","","","","","","","","","1166.5999999996275","","657.5","","3","0","arrowright","1","arrowright","[0.85,0.15,0.675,0.325]","","",""
"sailing-trial","362","2536267","0.0-11.0-321.0","","","","false","","","","","","","","","","null","","4411.699999999721","","2","1","null","null","arrowup","[0.85,0.15,0.675,0.325]","","",""
"sailing-trial","363","2542466","0.0-11.0-322.0","","","","false","","","","","","","","","","1549","","175.59999999962747","","3","0","arrowright","1","arrowright","[0.85,0.15,0.675,0.325]","","",""
"sailing-trial","364","2547384","0.0-11.0-323.0","","","","false","","","","","","","","","","null","","935.5","","1","1","null","null","arrowup","[0.85,0.15,0.675,0.325]","","",""
"sailing-trial","365","2553149","0.0-11.0-324.0","","","","false","","","","","","","","","","1079.3999999999069","","378.40000000037253","","3","0","arrowright","1","arrowright","[0.85,0.15,0.675,0.325]","","",""
"sailing-trial","366","2560381","0.0-11.0-325.0","","","","false","","","","","","","","","","null","","2359.8000000002794","","1","1","null","null","arrowup","[0.85,0.15,0.675,0.325]","","",""
"sailing-trial","367","2567216","0.0-11.0-326.0","","","","false","","","","","","","","","","2525.899999999907","","1.6000000000931323","","1","0","arrowleft","0","arrowright","[0.85,0.15,0.675,0.325]","","",""
"sailing-trial","368","2572315","0.0-11.0-327.0","","","","false","","","","","","","","","","null","","2090.399999999907","","2","0","null","null","arrowup","[0.85,0.15,0.675,0.325]","","",""
"sailing-trial","369","2579299","0.0-11.0-328.0","","","","false","","","","","","","","","","1625.6000000000931","","740.7000000001863","","2","1","arrowright","1","arrowleft","[0.85,0.15,0.675,0.325]","","",""
"sailing-trial","370","2583444","0.0-11.0-329.0","","","","false","","","","","","","","","","null","","1883.9000000003725","","3","0","null","null","arrowup","[0.85,0.15,0.675,0.325]","","",""
"sailing-trial","371","2589349","0.0-11.0-330.0","","","","false","","","","","","","","","","1417.1999999997206","","479.59999999962747","","3","0","arrowright","1","arrowright","[0.85,0.15,0.675,0.325]","","",""
"sailing-trial","372","2594215","0.0-11.0-331.0","","","","false","","","","","","","","","","null","","2796","","0","1","null","null","arrowup","[0.85,0.15,0.675,0.325]","","",""
"sailing-trial","373","2599864","0.0-11.0-332.0","","","","false","","","","","","","","","","614.8999999999069","","988.8000000002794","","3","0","arrowright","1","arrowright","[0.85,0.15,0.675,0.325]","","",""
"sailing-trial","374","2602796","0.0-11.0-333.0","","","","false","","","","","","","","","","null","","210.5","","0","1","null","null","arrowup","[0.85,0.15,0.675,0.325]","","",""
"sailing-trial","375","2607698","0.0-11.0-334.0","","","","false","","","","","","","","","","609.0999999996275","","517.1999999997206","","2","1","arrowright","1","arrowleft","[0.675,0.325,0.85,0.15]","","",""
"sailing-trial","376","2614208","0.0-11.0-335.0","","","","false","","","","","","","","","","null","","4333.200000000186","","3","0","null","null","arrowup","[0.675,0.325,0.85,0.15]","","",""
"sailing-trial","377","2622963","0.0-11.0-336.0","","","","false","","","","","","","","","","2906.399999999907","","876","","1","1","arrowleft","0","arrowright","[0.675,0.325,0.85,0.15]","","",""
"sailing-trial","378","2628013","0.0-11.0-337.0","","","","false","","","","","","","","","","null","","2786.8000000002794","","1","1","null","null","arrowup","[0.675,0.325,0.85,0.15]","","",""
"sailing-trial","379","2632445","0.0-11.0-338.0","","","","false","","","","","","","","","","510.79999999981374","","834.1000000000931","","2","1","arrowright","1","arrowleft","[0.675,0.325,0.85,0.15]","","",""
"sailing-trial","380","2634845","0.0-11.0-339.0","","","","false","","","","","","","","","","null","","178.60000000009313","","2","1","null","null","arrowup","[0.675,0.325,0.85,0.15]","","",""
"sailing-trial","381","2641212","0.0-11.0-340.0","","","","false","","","","","","","","","","424.10000000009313","","1827","","2","1","arrowright","1","arrowleft","[0.675,0.325,0.85,0.15]","","",""
"sailing-trial","382","2645928","0.0-11.0-341.0","","","","false","","","","","","","","","","null","","1553.0999999996275","","2","1","null","null","arrowup","[0.675,0.325,0.85,0.15]","","",""
"sailing-trial","383","2651860","0.0-11.0-342.0","","","","false","","","","","","","","","","1294.8000000002794","","162.39999999990687","","3","0","arrowright","1","arrowright","[0.675,0.325,0.85,0.15]","","",""
"sailing-trial","384","2653701","0.0-11.0-343.0","","","","false","","","","","","","","","","null","","535.1999999997206","","3","0","null","null","arrowup","[0.675,0.325,0.85,0.15]","","",""
"sailing-trial","385","2663277","0.0-11.0-344.0","","","","false","","","","","","","","","","651.8999999999069","","1876.5","","2","1","arrowright","1","arrowleft","[0.675,0.325,0.85,0.15]","","",""
"sailing-trial","386","2669594","0.0-11.0-345.0","","","","false","","","","","","","","","","null","","3306.1999999997206","","3","0","null","null","arrowup","[0.675,0.325,0.85,0.15]","","",""
"sailing-trial","387","2675475","0.0-11.0-346.0","","","","false","","","","","","","","","","1185.7999999998137","","356.20000000018626","","1","0","arrowleft","0","arrowright","[0.675,0.325,0.85,0.15]","","",""
"sailing-trial","388","2678792","0.0-11.0-347.0","","","","false","","","","","","","","","","null","","309.40000000037253","","0","0","null","null","arrowup","[0.675,0.325,0.85,0.15]","","",""
"sailing-trial","389","2685710","0.0-11.0-348.0","","","","false","","","","","","","","","","1518.2000000001863","","126","","3","1","arrowright","1","arrowright","[0.675,0.325,0.85,0.15]","","",""
"sailing-trial","390","2693625","0.0-11.0-349.0","","","","false","","","","","","","","","","null","","4903.200000000186","","2","0","null","null","arrowup","[0.675,0.325,0.85,0.15]","","",""
"sailing-trial","391","2699458","0.0-11.0-350.0","","","","false","","","","","","","","","","1441.7000000001863","","105.8000000002794","","1","0","arrowleft","0","arrowright","[0.85,0.15,0.675,0.325]","","",""
"sailing-trial","392","2706126","0.0-11.0-351.0","","","","false","","","","","","","","","","null","","3512.5","","2","1","null","null","arrowup","[0.85,0.15,0.675,0.325]","","",""
"sailing-trial","393","2711424","0.0-11.0-352.0","","","","false","","","","","","","","","","1212","","123.5","","3","1","arrowright","1","arrowright","[0.85,0.15,0.675,0.325]","","",""
"sailing-trial","394","2719341","0.0-11.0-353.0","","","","false","","","","","","","","","","null","","3972.2000000001863","","0","1","null","null","arrowup","[0.85,0.15,0.675,0.325]","","",""
"sailing-trial","395","2726623","0.0-11.0-354.0","","","","false","","","","","","","","","","2423.7999999998137","","592.3999999999069","","1","0","arrowleft","0","arrowright","[0.85,0.15,0.675,0.325]","","",""
"sailing-trial","396","2733206","0.0-11.0-355.0","","","","false","","","","","","","","","","null","","3572.1999999997206","","3","0","null","null","arrowup","[0.85,0.15,0.675,0.325]","","",""
"sailing-trial","397","2741223","0.0-11.0-356.0","","","","false","","","","","","","","","","2914.899999999907","","188.3000000002794","","1","0","arrowleft","0","arrowright","[0.85,0.15,0.675,0.325]","","",""
"sailing-trial","398","2746872","0.0-11.0-357.0","","","","false","","","","","","","","","","null","","2640.100000000093","","1","0","null","null","arrowup","[0.85,0.15,0.675,0.325]","","",""
"sailing-trial","399","2752923","0.0-11.0-358.0","","","","false","","","","","","","","","","1356.1000000000931","","299.39999999990687","","3","1","arrowright","1","arrowright","[0.85,0.15,0.675,0.325]","","",""
"sailing-trial","400","2758372","0.0-11.0-359.0","","","","false","","","","","","","","","","null","","3597.5","","0","1","null","null","arrowup","[0.85,0.15,0.675,0.325]","","",""
"sailing-trial","401","2765238","0.0-11.0-360.0","","","","false","","","","","","","","","","482.10000000009313","","711.2000000001863","","3","1","arrowright","1","arrowright","[0.85,0.15,0.675,0.325]","","",""
"sailing-trial","402","2770771","0.0-11.0-361.0","","","","false","","","","","","","","","","null","","1873.5","","0","1","null","null","arrowup","[0.85,0.15,0.675,0.325]","","",""
"sailing-trial","403","2775687","0.0-11.0-362.0","","","","false","","","","","","","","","","612.3999999999069","","959.7000000001863","","2","1","arrowright","1","arrowleft","[0.85,0.15,0.675,0.325]","","",""
"sailing-trial","404","2780869","0.0-11.0-363.0","","","","false","","","","","","","","","","null","","2769.8000000002794","","2","1","null","null","arrowup","[0.85,0.15,0.675,0.325]","","",""
"sailing-trial","405","2785853","0.0-11.0-364.0","","","","false","","","","","","","","","","834.3999999999069","","29.600000000093132","","3","1","arrowright","1","arrowright","[0.85,0.15,0.675,0.325]","","",""
"sailing-trial","406","2790385","0.0-11.0-365.0","","","","false","","","","[{""event"":""fullscreenenter"",""trial"":3,""time"":7080},{""event"":""blur"",""trial"":407,""time"":2795444},{""event"":""focus"",""trial"":407,""time"":2795449},{""event"":""fullscreenexit"",""trial"":407,""time"":2795457}]","false","","","","","null","","2622.399999999907","","2","1","null","null","arrowup","[0.85,0.15,0.675,0.325]","","",""
"sailing-trial","407","2803070","0.0-11.0-366.0","","","","false","","","","","","","","","","371.40000000037253","","1755.0999999996275","","3","1","arrowright","1","arrowright","[0.325,0.675,0.15,0.85]","","",""
"sailing-trial","408","2807505","0.0-11.0-367.0","","","","false","","","","","","","","","","null","","2153","","2","0","null","null","arrowup","[0.325,0.675,0.15,0.85]","","",""
"sailing-trial","409","2813135","0.0-11.0-368.0","","","","false","","","","","","","","","","847.8000000002794","","559.6000000000931","","2","0","arrowright","1","arrowleft","[0.325,0.675,0.15,0.85]","","",""
"sailing-trial","410","2815296","0.0-11.0-369.0","","","","false","","","","","","","","","","null","","214.89999999990687","","0","0","null","null","arrowup","[0.325,0.675,0.15,0.85]","","",""
"sailing-trial","411","2820918","0.0-11.0-370.0","","","","false","","","","","","","","","","1152.6000000000931","","470","","2","0","arrowright","1","arrowleft","[0.325,0.675,0.15,0.85]","","",""
"sailing-trial","412","2828000","0.0-11.0-371.0","","","","false","","","","","","","","","","null","","4071.7000000001863","","1","0","null","null","arrowup","[0.325,0.675,0.15,0.85]","","",""
"sailing-trial","413","2835051","0.0-11.0-372.0","","","","false","","","","","","","","","","1006.5","","369.5","","3","1","arrowright","1","arrowright","[0.325,0.675,0.15,0.85]","","",""
"sailing-trial","414","2841984","0.0-11.0-373.0","","","","false","","","","","","","","","","null","","3528.3000000002794","","0","0","null","null","arrowup","[0.325,0.675,0.15,0.85]","","",""
"sailing-trial","415","2848483","0.0-11.0-374.0","","","","false","","","","","","","","","","919","","1289.7000000001863","","2","0","arrowright","1","arrowleft","[0.325,0.675,0.15,0.85]","","",""
"sailing-trial","416","2853616","0.0-11.0-375.0","","","","false","","","","","","","","","","null","","2124.100000000093","","2","0","null","null","arrowup","[0.325,0.675,0.15,0.85]","","",""
"sailing-trial","417","2858583","0.0-11.0-376.0","","","","false","","","","","","","","","","616.8000000002794","","330.70000000018626","","3","1","arrowright","1","arrowright","[0.325,0.675,0.15,0.85]","","",""
"sailing-trial","418","2864081","0.0-11.0-377.0","","","","false","","","","","","","","","","null","","2478.1999999997206","","3","0","null","null","arrowup","[0.325,0.675,0.15,0.85]","","",""
"sailing-trial","419","2872050","0.0-11.0-378.0","","","","false","","","","","","","","","","3250.5999999996275","","706.1000000000931","","3","1","arrowright","1","arrowright","[0.325,0.675,0.15,0.85]","","",""
"sailing-trial","420","2879432","0.0-11.0-379.0","","","","false","","","","","","","","","","null","","1913.3999999999069","","0","1","null","null","arrowup","[0.325,0.675,0.15,0.85]","","",""
"sailing-trial","421","2888748","0.0-11.0-380.0","","","","false","","","","","","","","","","2790","","2223.2000000001863","","3","1","arrowright","1","arrowright","[0.325,0.675,0.15,0.85]","","",""
"sailing-trial","422","2897480","0.0-11.0-381.0","","","","false","","","","","","","","","","null","","6046","","3","1","null","null","arrowup","[0.325,0.675,0.15,0.85]","","",""
"sailing-trial","423","2903083","0.0-11.0-382.0","","","","false","","","","","","","","","","1289.8999999999069","","218.60000000009313","","3","1","arrowright","1","arrowright","[0.15,0.85,0.325,0.675]","","",""
"sailing-trial","424","2907048","0.0-11.0-383.0","","","","false","","","","","","","","","","null","","1643.1000000000931","","1","1","null","null","arrowup","[0.15,0.85,0.325,0.675]","","",""
"sailing-trial","425","2910698","0.0-11.0-384.0","","","","false","","","","","","","","","","197.1999999997206","","225.89999999990687","","2","1","arrowright","1","arrowleft","[0.15,0.85,0.325,0.675]","","",""
"sailing-trial","426","2912830","0.0-11.0-385.0","","","","false","","","","","","","","","","null","","518.4000000003725","","1","1","null","null","arrowup","[0.15,0.85,0.325,0.675]","","",""
"sailing-trial","427","2917712","0.0-11.0-386.0","","","","false","","","","","","","","","","62.5","","811","","2","1","arrowright","1","arrowleft","[0.15,0.85,0.325,0.675]","","",""
"sailing-trial","428","2922430","0.0-11.0-387.0","","","","false","","","","","","","","","","null","","1950.5","","3","1","null","null","arrowup","[0.15,0.85,0.325,0.675]","","",""
"sailing-trial","429","2933330","0.0-11.0-388.0","","","","false","","","","","","","","","","3819.4000000003725","","1963","","3","1","arrowright","1","arrowright","[0.15,0.85,0.325,0.675]","","",""
"sailing-trial","430","2937813","0.0-11.0-389.0","","","","false","","","","","","","","","","null","","1728.6999999997206","","1","1","null","null","arrowup","[0.15,0.85,0.325,0.675]","","",""
"sailing-trial","431","2945249","0.0-11.0-390.0","","","","false","","","","","","","","","","1138.8000000002794","","2733.100000000093","","2","0","arrowright","1","arrowleft","[0.15,0.85,0.325,0.675]","","",""
"sailing-trial","432","2949728","0.0-11.0-391.0","","","","false","","","","","","","","","","null","","1473.2999999998137","","2","0","null","null","arrowup","[0.15,0.85,0.325,0.675]","","",""
"sailing-trial","433","2956829","0.0-11.0-392.0","","","","false","","","","","","","","","","2530.2999999998137","","686.3999999999069","","2","1","arrowright","1","arrowleft","[0.15,0.85,0.325,0.675]","","",""
"sailing-trial","434","2963312","0.0-11.0-393.0","","","","false","","","","","","","","","","null","","3191.4000000003725","","0","1","null","null","arrowup","[0.15,0.85,0.325,0.675]","","",""
"sailing-trial","435","2972310","0.0-11.0-394.0","","","","false","","","","","","","","","","2654.399999999907","","2263","","2","1","arrowright","1","arrowleft","[0.15,0.85,0.325,0.675]","","",""
"sailing-trial","436","2978960","0.0-11.0-395.0","","","","false","","","","","","","","","","null","","3004.899999999907","","1","1","null","null","arrowup","[0.15,0.85,0.325,0.675]","","",""
"sailing-trial","437","2984876","0.0-11.0-396.0","","","","false","","","","","","","","","","1453.8999999999069","","438.79999999981374","","1","1","arrowleft","0","arrowright","[0.15,0.85,0.325,0.675]","","",""
"sailing-trial","438","2991109","0.0-11.0-397.0","","","","false","","","","","","","","","","null","","2612.9000000003725","","2","1","null","null","arrowup","[0.15,0.85,0.325,0.675]","","",""
"sailing-trial","439","2996576","0.0-11.0-398.0","","","","false","","","","","","","","","","1472.6000000000931","","204.1999999997206","","2","1","arrowright","1","arrowleft","[0.15,0.85,0.325,0.675]","","",""
"sailing-trial","440","3001941","0.0-11.0-399.0","","","","false","","","","","","","","","","null","","2779.7000000001863","","3","1","null","null","arrowup","[0.15,0.85,0.325,0.675]","","",""
"instructions","441","3010682","0.0-12.0","","","","","","","","","","8738.799999999814","","","","","","","","","","","","","","","","[{""page_index"":0,""viewing_time"":8735.5}]"
"survey-debrief","442","3118708","0.0-13.0","","","","","","","","","","108020.19999999972","","","","","","","","","","","","","","{""difficulty"":""5"",""fun"":""1"",""clarity"":""5"",""strategy"":""i kept my fingers on the correct keys"",""feedback"":""""}","",""
