"trial_type","trial_index","time_elapsed","internal_node_id","value","metadata","success","timeout","failed_images","failed_audio","failed_video","browser_interaction","low_quality","rt","stimulus","response","button_pressed","island_rt","island_response","boat_rt","boat_response","boat","reward","island_key","island","boat_key","reward_probabilities","responses","num_errors","view_history"
"pavlovia","0","2","0.0-0.0","","","","","","","","","","","","","","","","","","","","","","","","","",""
"call-function","1","3","0.0-1.0","","{""task_version"":""sailing_part1_v1"",""task_condition"":""good"",""boats"":[""D"",""C"",""A"",""B""],""boats_demo"":[""E"",""G"",""F"",""H""],""islands"":[""B"",""A""],""subject_id"":""14584"",""age"":""12"",""gender"":""Female""}","","","","","","","","","","","","","","","","","","","","","","","",""
"preload","2","1332","0.0-2.0","","","true","false","[]","[]","[]","[{""event"":""fullscreenenter"",""trial"":3,""time"":3034}]","false","","","","","","","","","","","","","","","","",""
"fullscreen","3","4021","0.0-3.0","","","true","","","","","","","","","","","","","","","","","","","","","","",""
"audio-keyboard-response","4","6032","0.0-4.0-0.0","","","","","","","","","","2010.6666666666672","audio/beep_loop.wav","audiovolumeup","","","","","","","","","","","","","",""
"audio-test","5","9113","0.0-4.0-1.0","","","","","","","","","","null","audio/turtle.mp3","","3","","","","","","","","","","","","",""
"audio-test","6","11323","0.0-4.0-2.0","","","","","","","","","","null","audio/shark.mp3","","2","","","","","","","","","","","","",""
"sailing-instructions","7","42605","0.0-5.0-0.0-0.0","","","","","","","","","","","","","","null","null","null","null","null","null","","","","","","",""
"sailing-trial","8","46056","0.0-5.0-0.0-1.0-0.0","","","","false","","","","","","","","","","2343.7000000476837","","null","","null","null","arrowleft","0","null","null","","",""
"sailing-trial","9","49023","0.0-5.0-0.0-1.0-1.0","","","","false","","","","","","","","","","1846.2999999523163","","null","","null","null","arrowright","1","null","null","","",""
"sailing-trial","10","51257","0.0-5.0-0.0-1.0-2.0","","","","false","","","","","","","","","","1111.3000001907349","","null","","null","null","arrowleft","0","null","null","","",""
"sailing-instructions","11","94213","0.0-5.0-0.0-2.0","","","","","","","","","","","","","","null","null","null","null","0","null","","","","","","",""
"sailing-trial","12","99740","0.0-5.0-0.0-3.0-0.0","","","","false","","","","","","","","","","null","","2322.7000000476837","","2","1","null","null","arrowleft","[1,1,1,1]","","",""
"sailing-trial","13","102941","0.0-5.0-0.0-3.0-1.0","","","","false","","","","","","","","","","null","","599.5","","3","1","null","null","arrowright","[1,1,1,1]","","",""
"sailing-trial","14","106524","0.0-5.0-0.0-3.0-2.0","","","","false","","","","","","","","","","null","","294.2000000476837","","2","0","null","null","arrowleft","[0,0,0,0]","","",""
"sailing-instructions","15","113993","0.0-5.0-0.0-4.0","","","","","","","","","","","","","","null","null","null","null","null","null","","","","","","",""
"sailing-comprehension","16","131073","0.0-5.0-0.0-5.0","","","","","","","","","","10383.299999952316","","","","","","","","","","","","","","[""true"",""true"",""false"",""true""]","0",""
"sailing-instructions","17","191621","0.0-6.0-0.0-0.0","","","","","","","","","","","","","","null","null","null","null","null","null","","","","","","",""
"sailing-comprehension","18","205111","0.0-6.0-0.0-1.0","","","","","","","","","","10243.5","","","","","","","","","","","","","","[""true"",""false"",""true""]","0",""
"sailing-instructions","19","219386","0.0-7.0-0.0-0.0","","","","","","","","","","","","","","null","null","null","null","null","null","","","","","","",""
"sailing-trial","20","225173","0.0-7.0-0.0-1.0-0.0","","","","false","","","","","","","","","","null","","3068.399999856949","","0","0","null","null","arrowup","[0.2,0.8,0.2,0.8]","","",""
"sailing-trial","21","228074","0.0-7.0-0.0-1.0-1.0","","","","false","","","","","","","","","","null","","872.7999999523163","","1","1","null","null","arrowup","[0.2,0.8,0.2,0.8]","","",""
"sailing-trial","22","231008","0.0-7.0-0.0-1.0-2.0","","","","false","","","","","","","","","","null","","844.3000001907349","","2","1","null","null","arrowup","[0.2,0.8,0.2,0.8]","","",""
"sailing-trial","23","234057","0.0-7.0-0.0-1.0-3.0","","","","false","","","","","","","","","","null","","1078.1000001430511","","3","1","null","null","arrowup","[0.2,0.8,0.2,0.8]","","",""
"sailing-comprehension","24","242927","0.0-7.0-0.0-2.0","","","","","","","","","","5509.5","","","","","","","","","","","","","","[""true""]","1",""
"sailing-instructions","25","258677","0.0-7.0-0.1-0.1","","","","","","","","","","","","","","null","null","null","null","null","null","","","","","","",""
"sailing-trial","26","262174","0.0-7.0-0.1-1.1-0.1","","","","false","","","","","","","","","","null","","1584.3999998569489","","0","1","null","null","arrowup","[0.2,0.8,0.2,0.8]","","",""
"sailing-trial","27","264674","0.0-7.0-0.1-1.1-1.1","","","","false","","","","","","","","","","null","","471.7000000476837","","1","1","null","null","arrowup","[0.2,0.8,0.2,0.8]","","",""
"sailing-trial","28","267188","0.0-7.0-0.1-1.1-2.1","","","","false","","","","","","","","","","null","","466.7999999523163","","2","0","null","null","arrowup","[0.2,0.8,0.2,0.8]","","",""
"sailing-trial","29","270973","0.0-7.0-0.1-1.1-3.1","","","","false","","","","","","","","","","null","","752.9000000953674","","3","0","null","null","arrowup","[0.2,0.8,0.2,0.8]","","",""
"sailing-comprehension","30","277503","0.0-7.0-0.1-2.1","","","","","","","","","","3106.2999999523163","","","","","","","","","","","","","","[""false""]","0",""
"sailing-instructions","31","288037","0.0-8.0-0.0-0.0","","","","","","","","","","","","","","null","null","null","null","null","null","","","","","","",""
"sailing-comprehension","32","292736","0.0-8.0-0.0-1.0","","","","","","","","","","2035.9000000953674","","","","","","","","","","","","","","[""true""]","0",""
"sailing-instructions","33","314263","0.0-9.0-0.0-0.0","","","","","","","","","","","","","","null","null","null","null","null","null","","","","","","",""
"sailing-trial","34","318658","0.0-9.0-0.0-1.0-0.0","","","","false","","","","","","","","","","1231.5","","138.19999980926514","","1","1","arrowleft","0","arrowright","[0.2,0.8,0.2,0.8]","","",""
"sailing-trial","35","323273","0.0-9.0-0.0-1.0-1.0","","","","false","","","","","","","","","","676.7000000476837","","945.9000000953674","","3","1","arrowright","1","arrowright","[0.2,0.8,0.2,0.8]","","",""
"sailing-trial","36","326797","0.0-9.0-0.0-1.0-2.0","","","","false","","","","","","","","","","null","","1580.4000000953674","","0","0","null","null","arrowup","[0.2,0.8,0.2,0.8]","","",""
"sailing-trial","37","331406","0.0-9.0-0.0-1.0-3.0","","","","false","","","","","","","","","","1008.3000001907349","","568.1999998092651","","0","1","arrowleft","0","arrowleft","[0.2,0.8,0.2,0.8]","","",""
"sailing-trial","38","334441","0.0-9.0-0.0-1.0-4.0","","","","false","","","","","","","","","","null","","1054.9000000953674","","3","1","null","null","arrowup","[0.2,0.8,0.2,0.8]","","",""
"sailing-trial","39","338124","0.0-9.0-0.0-1.0-5.0","","","","false","","","","","","","","","","565.5999999046326","","48.299999952316284","","2","0","arrowright","1","arrowleft","[0.2,0.8,0.2,0.8]","","",""
"sailing-instructions","40","373543","0.0-10.0","","","","","","","","","","","","","","null","null","null","null","null","null","","","","","","",""
"sailing-trial","41","378648","0.0-11.0-0.0","","","","false","","","","","","","","","","1614.7999999523163","","126","","1","1","arrowleft","0","arrowright","[0.15,0.85,0.325,0.675]","","",""
"sailing-trial","42","382040","0.0-11.0-1.0","","","","false","","","","","","","","","","null","","1309.3000001907349","","3","0","null","null","arrowup","[0.15,0.85,0.325,0.675]","","",""
"sailing-trial","43","386356","0.0-11.0-2.0","","","","false","","","","","","","","","","669.5","","12.700000047683716","","0","1","arrowleft","0","arrowleft","[0.15,0.85,0.325,0.675]","","",""
"sailing-trial","44","389256","0.0-11.0-3.0","","","","false","","","","","","","","","","null","","1234.5","","3","0","null","null","arrowup","[0.15,0.85,0.325,0.675]","","",""
"sailing-trial","45","393364","0.0-11.0-4.0","","","","false","","","","","","","","","","709.5","","145.79999995231628","","3","0","arrowright","1","arrowright","[0.15,0.85,0.325,0.675]","","",""
"sailing-trial","46","395756","0.0-11.0-5.0","","","","false","","","","","","","","","","null","","984.7000000476837","","2","0","null","null","arrowup","[0.15,0.85,0.325,0.675]","","",""
"sailing-trial","47","399724","0.0-11.0-6.0","","","","false","","","","","","","","","","713.4000000953674","","236.59999990463257","","0","0","arrowleft","0","arrowleft","[0.15,0.85,0.325,0.675]","","",""
"sailing-trial","48","402742","0.0-11.0-7.0","","","","false","","","","","","","","","","null","","1145.5","","1","1","null","null","arrowup","[0.15,0.85,0.325,0.675]","","",""
"sailing-trial","49","408132","0.0-11.0-8.0","","","","false","","","","","","","","","","735.6000001430511","","1285.1000001430511","","2","0","arrowright","1","arrowleft","[0.15,0.85,0.325,0.675]","","",""
"sailing-trial","50","411042","0.0-11.0-9.0","","","","false","","","","","","","","","","null","","1058.1000001430511","","1","1","null","null","arrowup","[0.15,0.85,0.325,0.675]","","",""
"sailing-trial","51","415041","0.0-11.0-10.0","","","","false","","","","","","","","","","1090.2999999523163","","27.09999990463257","","1","1","arrowleft","0","arrowright","[0.15,0.85,0.325,0.675]","","",""
"sailing-trial","52","417809","0.0-11.0-11.0","","","","false","","","","","","","","","","null","","949.9000000953674","","2","1","null","null","arrowup","[0.15,0.85,0.325,0.675]","","",""
"sailing-trial","53","422708","0.0-11.0-12.0","","","","false","","","","","","","","","","925.7999999523163","","1043","","1","1","arrowleft","0","arrowright","[0.15,0.85,0.325,0.675]","","",""
"sailing-trial","54","425877","0.0-11.0-13.0","","","","false","","","","","","","","","","null","","1130.6000001430511","","2","0","null","null","arrowup","[0.15,0.85,0.325,0.675]","","",""
"sailing-trial","55","429541","0.0-11.0-14.0","","","","false","","","","","","","","","","546.2000000476837","","72","","1","1","arrowleft","0","arrowright","[0.15,0.85,0.325,0.675]","","",""
"sailing-trial","56","432276","0.0-11.0-15.0","","","","false","","","","","","","","","","null","","960.3000001907349","","3","0","null","null","arrowup","[0.15,0.85,0.325,0.675]","","",""
"sailing-trial","57","436220","0.0-11.0-16.0","","","","false","","","","","","","","","","657.7999999523163","","722.5","","1","0","arrowleft","0","arrowright","[0.675,0.325,0.85,0.15]","","",""
"sailing-trial","58","438629","0.0-11.0-17.0","","","","false","","","","","","","","","","null","","1050.1000001430511","","3","0","null","null","arrowup","[0.675,0.325,0.85,0.15]","","",""
"sailing-trial","59","442524","0.0-11.0-18.0","","","","false","","","","","","","","","","808.8000001907349","","118.89999985694885","","1","1","arrowleft","0","arrowright","[0.675,0.325,0.85,0.15]","","",""
"sailing-trial","60","444844","0.0-11.0-19.0","","","","false","","","","","","","","","","null","","993.9000000953674","","3","0","null","null","arrowup","[0.675,0.325,0.85,0.15]","","",""
"sailing-trial","61","448926","0.0-11.0-20.0","","","","false","","","","","","","","","","698.2999999523163","","586.3999998569489","","2","1","arrowright","1","arrowleft","[0.675,0.325,0.85,0.15]","","",""
"sailing-trial","62","451840","0.0-11.0-21.0","","","","false","","","","","","","","","","null","","1112.0999999046326","","1","1","null","null","arrowup","[0.675,0.325,0.85,0.15]","","",""
"sailing-trial","63","456591","0.0-11.0-22.0","","","","false","","","","","","","","","","1381.0999999046326","","5.5","","2","1","arrowright","1","arrowleft","[0.675,0.325,0.85,0.15]","","",""
"sailing-trial","64","459390","0.0-11.0-23.0","","","","false","","","","","","","","","","null","","822.2000000476837","","0","1","null","null","arrowup","[0.675,0.325,0.85,0.15]","","",""
"sailing-trial","65","463341","0.0-11.0-24.0","","","","false","","","","","","","","","","519.5","","972.7000000476837","","1","0","arrowleft","0","arrowright","[0.675,0.325,0.85,0.15]","","",""
"sailing-trial","66","466025","0.0-11.0-25.0","","","","false","","","","","","","","","","null","","993.4000000953674","","3","1","null","null","arrowup","[0.675,0.325,0.85,0.15]","","",""
"sailing-trial","67","469958","0.0-11.0-26.0","","","","false","","","","","","","","","","740.9000000953674","","33.799999952316284","","2","1","arrowright","1","arrowleft","[0.675,0.325,0.85,0.15]","","",""
"sailing-trial","68","472941","0.0-11.0-27.0","","","","false","","","","","","","","","","null","","1175.3999998569489","","2","1","null","null","arrowup","[0.675,0.325,0.85,0.15]","","",""
"sailing-trial","69","476604","0.0-11.0-28.0","","","","false","","","","","","","","","","969.3000001907349","","123.79999995231628","","2","0","arrowright","1","arrowleft","[0.675,0.325,0.85,0.15]","","",""
"sailing-trial","70","479542","0.0-11.0-29.0","","","","false","","","","","","","","","","null","","1089.7000000476837","","3","1","null","null","arrowup","[0.675,0.325,0.85,0.15]","","",""
"sailing-trial","71","483358","0.0-11.0-30.0","","","","false","","","","","","","","","","727.5","","92.89999985694885","","0","1","arrowleft","0","arrowleft","[0.675,0.325,0.85,0.15]","","",""
"sailing-trial","72","486475","0.0-11.0-31.0","","","","false","","","","","","","","","","null","","1183.5999999046326","","0","1","null","null","arrowup","[0.675,0.325,0.85,0.15]","","",""
"sailing-trial","73","490372","0.0-11.0-32.0","","","","false","","","","","","","","","","569.8000001907349","","591.4000000953674","","0","0","arrowleft","0","arrowleft","[0.675,0.325,0.85,0.15]","","",""
"sailing-trial","74","493125","0.0-11.0-33.0","","","","false","","","","","","","","","","null","","937.9000000953674","","2","1","null","null","arrowup","[0.675,0.325,0.85,0.15]","","",""
"sailing-trial","75","497004","0.0-11.0-34.0","","","","false","","","","","","","","","","497.2000000476837","","503.89999985694885","","2","0","arrowright","1","arrowleft","[0.325,0.675,0.15,0.85]","","",""
"sailing-trial","76","500025","0.0-11.0-35.0","","","","false","","","","","","","","","","null","","1225.2000000476837","","3","1","null","null","arrowup","[0.325,0.675,0.15,0.85]","","",""
"sailing-trial","77","503507","0.0-11.0-36.0","","","","false","","","","","","","","","","636.0999999046326","","30.399999856948853","","3","1","arrowright","1","arrowright","[0.325,0.675,0.15,0.85]","","",""
"sailing-trial","78","505932","0.0-11.0-37.0","","","","false","","","","","","","","","","null","","1075.2000000476837","","2","0","null","null","arrowup","[0.325,0.675,0.15,0.85]","","",""
"sailing-trial","79","510191","0.0-11.0-38.0","","","","false","","","","","","","","","","746","","693.0999999046326","","3","1","arrowright","1","arrowright","[0.325,0.675,0.15,0.85]","","",""
"sailing-trial","80","513041","0.0-11.0-39.0","","","","false","","","","","","","","","","null","","1040","","2","1","null","null","arrowup","[0.325,0.675,0.15,0.85]","","",""
"sailing-trial","81","517241","0.0-11.0-40.0","","","","false","","","","","","","","","","500.89999985694885","","818.5999999046326","","3","1","arrowright","1","arrowright","[0.325,0.675,0.15,0.85]","","",""
"sailing-trial","82","520292","0.0-11.0-41.0","","","","false","","","","","","","","","","null","","1196.7999999523163","","1","1","null","null","arrowup","[0.325,0.675,0.15,0.85]","","",""
"sailing-trial","83","525594","0.0-11.0-42.0","","","","false","","","","","","","","","","914.5999999046326","","360.7999999523163","","0","0","arrowleft","0","arrowleft","[0.325,0.675,0.15,0.85]","","",""
"sailing-trial","84","528359","0.0-11.0-43.0","","","","false","","","","","","","","","","null","","1059.8000001907349","","3","1","null","null","arrowup","[0.325,0.675,0.15,0.85]","","",""
"sailing-trial","85","532843","0.0-11.0-44.0","","","","false","","","","","","","","","","727.7999999523163","","507.5","","3","1","arrowright","1","arrowright","[0.325,0.675,0.15,0.85]","","",""
"sailing-trial","86","535308","0.0-11.0-45.0","","","","false","","","","","","","","","","null","","883.7000000476837","","2","0","null","null","arrowup","[0.325,0.675,0.15,0.85]","","",""
"sailing-trial","87","539757","0.0-11.0-46.0","","","","false","","","","","","","","","","1001","","540.6000001430511","","3","1","arrowright","1","arrowright","[0.325,0.675,0.15,0.85]","","",""
"sailing-trial","88","542604","0.0-11.0-47.0","","","","false","","","","","","","","","","null","","1304.5999999046326","","2","0","null","null","arrowup","[0.325,0.675,0.15,0.85]","","",""
"sailing-trial","89","547991","0.0-11.0-48.0","","","","false","","","","","","","","","","1744.5","","747.5","","3","1","arrowright","1","arrowright","[0.325,0.675,0.15,0.85]","","",""
"sailing-trial","90","551224","0.0-11.0-49.0","","","","false","","","","","","","","","","null","","1143.2000000476837","","1","1","null","null","arrowup","[0.325,0.675,0.15,0.85]","","",""
"sailing-trial","91","554958","0.0-11.0-50.0","","","","false","","","","","","","","","","597.8999998569489","","144.09999990463257","","3","1","arrowright","1","arrowright","[0.325,0.675,0.15,0.85]","","",""
"sailing-trial","92","559107","0.0-11.0-51.0","","","","false","","","","","","","","","","null","","2248","","3","1","null","null","arrowup","[0.325,0.675,0.15,0.85]","","",""
"sailing-trial","93","565991","0.0-11.0-52.0","","","","false","","","","","","","","","","1482.7000000476837","","2324.2000000476837","","0","1","arrowleft","0","arrowleft","[0.325,0.675,0.15,0.85]","","",""
"sailing-trial","94","569008","0.0-11.0-53.0","","","","false","","","","","","","","","","null","","1110.3999998569489","","3","1","null","null","arrowup","[0.325,0.675,0.15,0.85]","","",""
"sailing-trial","95","573424","0.0-11.0-54.0","","","","false","","","","","","","","","","1069.2000000476837","","341.2999999523163","","3","1","arrowright","1","arrowright","[0.15,0.85,0.325,0.675]","","",""
"sailing-trial","96","576205","0.0-11.0-55.0","","","","false","","","","","","","","","","null","","1150.0999999046326","","2","0","null","null","arrowup","[0.15,0.85,0.325,0.675]","","",""
"sailing-trial","97","580956","0.0-11.0-56.0","","","","false","","","","","","","","","","1329.2000000476837","","636.1000001430511","","3","0","arrowright","1","arrowright","[0.15,0.85,0.325,0.675]","","",""
"sailing-trial","98","583484","0.0-11.0-57.0","","","","false","","","","","","","","","","null","","961.7000000476837","","2","0","null","null","arrowup","[0.15,0.85,0.325,0.675]","","",""
"sailing-trial","99","586957","0.0-11.0-58.0","","","","false","","","","","","","","","","561.9000000953674","","574","","0","0","arrowleft","0","arrowleft","[0.15,0.85,0.325,0.675]","","",""
"sailing-trial","100","590642","0.0-11.0-59.0","","","","false","","","","","","","","","","null","","1569.7000000476837","","3","1","null","null","arrowup","[0.15,0.85,0.325,0.675]","","",""
"sailing-trial","101","595191","0.0-11.0-60.0","","","","false","","","","","","","","","","1732.3000001907349","","0.6000001430511475","","1","1","arrowleft","0","arrowright","[0.15,0.85,0.325,0.675]","","",""
"sailing-trial","102","597694","0.0-11.0-61.0","","","","false","","","","","","","","","","null","","1111.2000000476837","","0","0","null","null","arrowup","[0.15,0.85,0.325,0.675]","","",""
"sailing-trial","103","602076","0.0-11.0-62.0","","","","false","","","","","","","","","","616.5999999046326","","796.2000000476837","","3","1","arrowright","1","arrowright","[0.15,0.85,0.325,0.675]","","",""
"sailing-trial","104","605007","0.0-11.0-63.0","","","","false","","","","","","","","","","null","","1089.3999998569489","","0","1","null","null","arrowup","[0.15,0.85,0.325,0.675]","","",""
"sailing-trial","105","608076","0.0-11.0-64.0","","","","false","","","","","","","","","","542.7999999523163","","186.39999985694885","","3","0","arrowright","1","arrowright","[0.15,0.85,0.325,0.675]","","",""
"sailing-trial","106","611124","0.0-11.0-65.0","","","","false","","","","","","","","","","null","","1145.5999999046326","","2","1","null","null","arrowup","[0.15,0.85,0.325,0.675]","","",""
"sailing-trial","107","614717","0.0-11.0-66.0","","","","false","","","","","","","","","","794.2000000476837","","75.69999980926514","","0","0","arrowleft","0","arrowleft","[0.15,0.85,0.325,0.675]","","",""
"sailing-trial","108","618574","0.0-11.0-67.0","","","","false","","","","","","","","","","null","","2049","","1","1","null","null","arrowup","[0.15,0.85,0.325,0.675]","","",""
"sailing-trial","109","622657","0.0-11.0-68.0","","","","false","","","","","","","","","","672.2000000476837","","550.9000000953674","","1","1","arrowleft","0","arrowright","[0.15,0.85,0.325,0.675]","","",""
"sailing-trial","110","625391","0.0-11.0-69.0","","","","false","","","","","","","","","","null","","1052.7000000476837","","1","1","null","null","arrowup","[0.15,0.85,0.325,0.675]","","",""
"sailing-trial","111","628134","0.0-11.0-70.0","","","","false","","","","","","","","","","550.4000000953674","","18.100000143051147","","3","0","arrowright","1","arrowright","[0.15,0.85,0.325,0.675]","","",""
"sailing-trial","112","630909","0.0-11.0-71.0","","","","false","","","","","","","","","","null","","1006","","1","1","null","null","arrowup","[0.15,0.85,0.325,0.675]","","",""
"sailing-trial","113","634624","0.0-11.0-72.0","","","","false","","","","","","","","","","792.5999999046326","","3.5","","1","1","arrowleft","0","arrowright","[0.15,0.85,0.325,0.675]","","",""
"sailing-trial","114","637340","0.0-11.0-73.0","","","","false","","","","","","","","","","null","","1078.0999999046326","","3","0","null","null","arrowup","[0.15,0.85,0.325,0.675]","","",""
"sailing-trial","115","641207","0.0-11.0-74.0","","","","false","","","","","","","","","","642.2000000476837","","48.59999990463257","","2","1","arrowright","1","arrowleft","[0.675,0.325,0.85,0.15]","","",""
"sailing-trial","116","644283","0.0-11.0-75.0","","","","false","","","","","","","","","","null","","1694.7999999523163","","3","0","null","null","arrowup","[0.675,0.325,0.85,0.15]","","",""
"sailing-trial","117","648706","0.0-11.0-76.0","","","","false","","","","","","","","","","801.6000001430511","","451.7999999523163","","2","1","arrowright","1","arrowleft","[0.675,0.325,0.85,0.15]","","",""
"sailing-trial","118","651348","0.0-11.0-77.0","","","","false","","","","","","","","","","null","","1002.8999998569489","","1","0","null","null","arrowup","[0.675,0.325,0.85,0.15]","","",""
"sailing-trial","119","656927","0.0-11.0-78.0","","","","false","","","","","","","","","","841.8000001907349","","728.7000000476837","","1","0","arrowleft","0","arrowright","[0.675,0.325,0.85,0.15]","","",""
"sailing-trial","120","659706","0.0-11.0-79.0","","","","false","","","","","","","","","","null","","910.9000000953674","","0","1","null","null","arrowup","[0.675,0.325,0.85,0.15]","","",""
"sailing-trial","121","663440","0.0-11.0-80.0","","","","false","","","","","","","","","","306.2999999523163","","446.2999999523163","","2","1","arrowright","1","arrowleft","[0.675,0.325,0.85,0.15]","","",""
"sailing-trial","122","666147","0.0-11.0-81.0","","","","false","","","","","","","","","","null","","1323.7999999523163","","3","0","null","null","arrowup","[0.675,0.325,0.85,0.15]","","",""
"sailing-trial","123","670907","0.0-11.0-82.0","","","","false","","","","","","","","","","1050.2999999523163","","8.799999952316284","","2","1","arrowright","1","arrowleft","[0.675,0.325,0.85,0.15]","","",""
"sailing-trial","124","673563","0.0-11.0-83.0","","","","false","","","","","","","","","","null","","1057.1999998092651","","0","0","null","null","arrowup","[0.675,0.325,0.85,0.15]","","",""
"sailing-trial","125","677525","0.0-11.0-84.0","","","","false","","","","","","","","","","609.8000001907349","","217.40000009536743","","2","1","arrowright","1","arrowleft","[0.675,0.325,0.85,0.15]","","",""
"sailing-trial","126","679859","0.0-11.0-85.0","","","","false","","","","","","","","","","null","","1024.2999999523163","","1","0","null","null","arrowup","[0.675,0.325,0.85,0.15]","","",""
"sailing-trial","127","685299","0.0-11.0-86.0","","","","false","","","","","","","","","","635.2999999523163","","1269.5","","2","0","arrowright","1","arrowleft","[0.675,0.325,0.85,0.15]","","",""
"sailing-trial","128","687452","0.0-11.0-87.0","","","","false","","","","","","","","","","null","","937.7000000476837","","3","0","null","null","arrowup","[0.675,0.325,0.85,0.15]","","",""
"sailing-trial","129","691757","0.0-11.0-88.0","","","","false","","","","","","","","","","649","","556.1000001430511","","0","1","arrowleft","0","arrowleft","[0.675,0.325,0.85,0.15]","","",""
"sailing-trial","130","695140","0.0-11.0-89.0","","","","false","","","","","","","","","","null","","983.5999999046326","","2","1","null","null","arrowup","[0.675,0.325,0.85,0.15]","","",""
"sailing-trial","131","700091","0.0-11.0-90.0","","","","false","","","","","","","","","","585.8999998569489","","1019.1999998092651","","0","1","arrowleft","0","arrowleft","[0.675,0.325,0.85,0.15]","","",""
"sailing-trial","132","702824","0.0-11.0-91.0","","","","false","","","","","","","","","","null","","954.6000001430511","","2","1","null","null","arrowup","[0.675,0.325,0.85,0.15]","","",""
"sailing-trial","133","706340","0.0-11.0-92.0","","","","false","","","","","","","","","","694.1000001430511","","10.899999856948853","","0","1","arrowleft","0","arrowleft","[0.85,0.15,0.675,0.325]","","",""
"sailing-trial","134","709723","0.0-11.0-93.0","","","","false","","","","","","","","","","null","","1841.5999999046326","","0","1","null","null","arrowup","[0.85,0.15,0.675,0.325]","","",""
"sailing-trial","135","713740","0.0-11.0-94.0","","","","false","","","","","","","","","","681.8999998569489","","416.7999999523163","","0","1","arrowleft","0","arrowleft","[0.85,0.15,0.675,0.325]","","",""
"sailing-trial","136","717190","0.0-11.0-95.0","","","","false","","","","","","","","","","null","","1681.2000000476837","","0","1","null","null","arrowup","[0.85,0.15,0.675,0.325]","","",""
"sailing-trial","137","722556","0.0-11.0-96.0","","","","false","","","","","","","","","","1535.2999999523163","","147.79999995231628","","0","1","arrowleft","0","arrowleft","[0.85,0.15,0.675,0.325]","","",""
"sailing-trial","138","725592","0.0-11.0-97.0","","","","false","","","","","","","","","","null","","1264.7000000476837","","3","1","null","null","arrowup","[0.85,0.15,0.675,0.325]","","",""
"sailing-trial","139","731673","0.0-11.0-98.0","","","","false","","","","","","","","","","748.6999998092651","","514.6000001430511","","0","1","arrowleft","0","arrowleft","[0.85,0.15,0.675,0.325]","","",""
"sailing-trial","140","735004","0.0-11.0-99.0","","","","false","","","","","","","","","","null","","1427.8000001907349","","3","0","null","null","arrowup","[0.85,0.15,0.675,0.325]","","",""
"sailing-trial","141","739725","0.0-11.0-100.0","","","","false","","","","","","","","","","817.6000001430511","","286.69999980926514","","2","1","arrowright","1","arrowleft","[0.85,0.15,0.675,0.325]","","",""
"sailing-trial","142","742340","0.0-11.0-101.0","","","","false","","","","","","","","","","null","","1143.7000000476837","","3","0","null","null","arrowup","[0.85,0.15,0.675,0.325]","","",""
"sailing-trial","143","746724","0.0-11.0-102.0","","","","false","","","","","","","","","","761.3000001907349","","197.40000009536743","","0","1","arrowleft","0","arrowleft","[0.85,0.15,0.675,0.325]","","",""
"sailing-trial","144","749741","0.0-11.0-103.0","","","","false","","","","","","","","","","null","","1353.2999999523163","","0","1","null","null","arrowup","[0.85,0.15,0.675,0.325]","","",""
"sailing-trial","145","755607","0.0-11.0-104.0","","","","false","","","","","","","","","","1264","","959.4000000953674","","0","1","arrowleft","0","arrowleft","[0.85,0.15,0.675,0.325]","","",""
"sailing-trial","146","759359","0.0-11.0-105.0","","","","false","","","","","","","","","","null","","1893.7999999523163","","2","1","null","null","arrowup","[0.85,0.15,0.675,0.325]","","",""
"sailing-trial","147","764108","0.0-11.0-106.0","","","","false","","","","","","","","","","1238.5","","192.40000009536743","","0","1","arrowleft","0","arrowleft","[0.85,0.15,0.675,0.325]","","",""
"sailing-trial","148","767140","0.0-11.0-107.0","","","","false","","","","","","","","","","null","","993.7999999523163","","0","1","null","null","arrowup","[0.85,0.15,0.675,0.325]","","",""
"sailing-trial","149","771141","0.0-11.0-108.0","","","","false","","","","","","","","","","513.4000000953674","","510.7000000476837","","0","1","arrowleft","0","arrowleft","[0.85,0.15,0.675,0.325]","","",""
"sailing-trial","150","773804","0.0-11.0-109.0","","","","false","","","","","","","","","","null","","985.1999998092651","","1","0","null","null","arrowup","[0.85,0.15,0.675,0.325]","","",""
"sailing-trial","151","777975","0.0-11.0-110.0","","","","false","","","","","","","","","","777.7000000476837","","457.7999999523163","","0","1","arrowleft","0","arrowleft","[0.85,0.15,0.675,0.325]","","",""
"sailing-trial","152","781057","0.0-11.0-111.0","","","","false","","","","","","","","","","null","","1174.7999999523163","","3","1","null","null","arrowup","[0.85,0.15,0.675,0.325]","","",""
"sailing-trial","153","784740","0.0-11.0-112.0","","","","false","","","","","","","","","","653","","484.2999999523163","","3","0","arrowright","1","arrowright","[0.675,0.325,0.85,0.15]","","",""
"sailing-trial","154","787857","0.0-11.0-113.0","","","","false","","","","","","","","","","null","","1313.7000000476837","","0","1","null","null","arrowup","[0.675,0.325,0.85,0.15]","","",""
"sailing-trial","155","791509","0.0-11.0-114.0","","","","false","","","","","","","","","","483.5","","411.7999999523163","","2","1","arrowright","1","arrowleft","[0.675,0.325,0.85,0.15]","","",""
"sailing-trial","156","794274","0.0-11.0-115.0","","","","false","","","","","","","","","","null","","904","","2","1","null","null","arrowup","[0.675,0.325,0.85,0.15]","","",""
"sailing-trial","157","798804","0.0-11.0-116.0","","","","false","","","","","","","","","","1164.1000001430511","","399.60000014305115","","2","0","arrowright","1","arrowleft","[0.675,0.325,0.85,0.15]","","",""
"sailing-trial","158","800828","0.0-11.0-117.0","","","","false","","","","","","","","","","null","","921.2999999523163","","2","0","null","null","arrowup","[0.675,0.325,0.85,0.15]","","",""
"sailing-trial","159","803997","0.0-11.0-118.0","","","","false","","","","","","","","","","626.1999998092651","","76.39999985694885","","0","0","arrowleft","0","arrowleft","[0.675,0.325,0.85,0.15]","","",""
"sailing-trial","160","807125","0.0-11.0-119.0","","","","false","","","","","","","","","","null","","984.7999999523163","","3","1","null","null","arrowup","[0.675,0.325,0.85,0.15]","","",""
"sailing-trial","161","810763","0.0-11.0-120.0","","","","false","","","","","","","","","","769.2999999523163","","563.7999999523163","","1","0","arrowleft","0","arrowright","[0.675,0.325,0.85,0.15]","","",""
"sailing-trial","162","813707","0.0-11.0-121.0","","","","false","","","","","","","","","","null","","1169.7000000476837","","2","1","null","null","arrowup","[0.675,0.325,0.85,0.15]","","",""
"sailing-trial","163","817573","0.0-11.0-122.0","","","","false","","","","","","","","","","882.7000000476837","","7.900000095367432","","3","1","arrowright","1","arrowright","[0.675,0.325,0.85,0.15]","","",""
"sailing-trial","164","819764","0.0-11.0-123.0","","","","false","","","","","","","","","","null","","1009.5","","1","0","null","null","arrowup","[0.675,0.325,0.85,0.15]","","",""
"sailing-trial","165","823757","0.0-11.0-124.0","","","","false","","","","","","","","","","801.6000001430511","","105.39999985694885","","3","1","arrowright","1","arrowright","[0.675,0.325,0.85,0.15]","","",""
"sailing-trial","166","826390","0.0-11.0-125.0","","","","false","","","","","","","","","","null","","968.9000000953674","","0","1","null","null","arrowup","[0.675,0.325,0.85,0.15]","","",""
"sailing-trial","167","829806","0.0-11.0-126.0","","","","false","","","","","","","","","","895","","60.5","","3","0","arrowright","1","arrowright","[0.675,0.325,0.85,0.15]","","",""
"sailing-trial","168","832461","0.0-11.0-127.0","","","","false","","","","","","","","","","null","","1191.4000000953674","","3","0","null","null","arrowup","[0.675,0.325,0.85,0.15]","","",""
"sailing-trial","169","836090","0.0-11.0-128.0","","","","false","","","","","","","","","","624.6999998092651","","2.3999998569488525","","0","1","arrowleft","0","arrowleft","[0.675,0.325,0.85,0.15]","","",""
"sailing-trial","170","838347","0.0-11.0-129.0","","","","false","","","","","","","","","","null","","938.5999999046326","","1","0","null","null","arrowup","[0.675,0.325,0.85,0.15]","","",""
"sailing-trial","171","841955","0.0-11.0-130.0","","","","false","","","","","","","","","","563.1999998092651","","300.5","","0","0","arrowleft","0","arrowleft","[0.325,0.675,0.15,0.85]","","",""
"sailing-trial","172","844823","0.0-11.0-131.0","","","","false","","","","","","","","","","null","","938.0999999046326","","3","1","null","null","arrowup","[0.325,0.675,0.15,0.85]","","",""
"sailing-trial","173","849623","0.0-11.0-132.0","","","","false","","","","","","","","","","1423","","510.2999999523163","","1","1","arrowleft","0","arrowright","[0.325,0.675,0.15,0.85]","","",""
"sailing-trial","174","851893","0.0-11.0-133.0","","","","false","","","","","","","","","","null","","806.5999999046326","","0","0","null","null","arrowup","[0.325,0.675,0.15,0.85]","","",""
"sailing-trial","175","856558","0.0-11.0-134.0","","","","false","","","","","","","","","","952.5","","847.2000000476837","","3","1","arrowright","1","arrowright","[0.325,0.675,0.15,0.85]","","",""
"sailing-trial","176","858852","0.0-11.0-135.0","","","","false","","","","","","","","","","null","","902.7999999523163","","1","0","null","null","arrowup","[0.325,0.675,0.15,0.85]","","",""
"sailing-trial","177","862690","0.0-11.0-136.0","","","","false","","","","","","","","","","681.3999998569489","","244.59999990463257","","1","1","arrowleft","0","arrowright","[0.325,0.675,0.15,0.85]","","",""
"sailing-trial","178","864956","0.0-11.0-137.0","","","","false","","","","","","","","","","null","","914.1999998092651","","2","0","null","null","arrowup","[0.325,0.675,0.15,0.85]","","",""
"sailing-trial","179","868790","0.0-11.0-138.0","","","","false","","","","","","","","","","753.7999999523163","","155.40000009536743","","3","1","arrowright","1","arrowright","[0.325,0.675,0.15,0.85]","","",""
"sailing-trial","180","871857","0.0-11.0-139.0","","","","false","","","","","","","","","","null","","1222.9000000953674","","1","1","null","null","arrowup","[0.325,0.675,0.15,0.85]","","",""
"sailing-trial","181","876391","0.0-11.0-140.0","","","","false","","","","","","","","","","1132.0999999046326","","120","","1","1","arrowleft","0","arrowright","[0.325,0.675,0.15,0.85]","","",""
"sailing-trial","182","878763","0.0-11.0-141.0","","","","false","","","","","","","","","","null","","1061.6999998092651","","2","0","null","null","arrowup","[0.325,0.675,0.15,0.85]","","",""
"sailing-trial","183","883840","0.0-11.0-142.0","","","","false","","","","","","","","","","1449.5999999046326","","744.2999999523163","","1","1","arrowleft","0","arrowright","[0.325,0.675,0.15,0.85]","","",""
"sailing-trial","184","886243","0.0-11.0-143.0","","","","false","","","","","","","","","","null","","1069.1999998092651","","2","0","null","null","arrowup","[0.325,0.675,0.15,0.85]","","",""
"sailing-trial","185","891141","0.0-11.0-144.0","","","","false","","","","","","","","","","897.8999998569489","","33.89999985694885","","1","1","arrowleft","0","arrowright","[0.325,0.675,0.15,0.85]","","",""
"sailing-trial","186","893555","0.0-11.0-145.0","","","","false","","","","","","","","","","null","","960.8999998569489","","0","0","null","null","arrowup","[0.325,0.675,0.15,0.85]","","",""
"sailing-trial","187","899073","0.0-11.0-146.0","","","","false","","","","","","","","","","1130","","659.1000001430511","","1","1","arrowleft","0","arrowright","[0.15,0.85,0.325,0.675]","","",""
"sailing-trial","188","901890","0.0-11.0-147.0","","","","false","","","","","","","","","","null","","899.5999999046326","","1","1","null","null","arrowup","[0.15,0.85,0.325,0.675]","","",""
"sailing-trial","189","906840","0.0-11.0-148.0","","","","false","","","","","","","","","","1771","","54","","1","1","arrowleft","0","arrowright","[0.15,0.85,0.325,0.675]","","",""
"sailing-trial","190","910373","0.0-11.0-149.0","","","","false","","","","","","","","","","null","","1684.0999999046326","","1","1","null","null","arrowup","[0.15,0.85,0.325,0.675]","","",""
"sailing-trial","191","914023","0.0-11.0-150.0","","","","false","","","","","","","","","","567.5","","283.10000014305115","","1","1","arrowleft","0","arrowright","[0.15,0.85,0.325,0.675]","","",""
"sailing-trial","192","916315","0.0-11.0-151.0","","","","false","","","","","","","","","","null","","990.0999999046326","","0","0","null","null","arrowup","[0.15,0.85,0.325,0.675]","","",""
"sailing-trial","193","922257","0.0-11.0-152.0","","","","false","","","","","","","","","","762.7999999523163","","629.7999999523163","","1","1","arrowleft","0","arrowright","[0.15,0.85,0.325,0.675]","","",""
"sailing-trial","194","924940","0.0-11.0-153.0","","","","false","","","","","","","","","","null","","1115.7000000476837","","3","1","null","null","arrowup","[0.15,0.85,0.325,0.675]","","",""
"sailing-trial","195","928741","0.0-11.0-154.0","","","","false","","","","","","","","","","560.5999999046326","","509.2999999523163","","1","1","arrowleft","0","arrowright","[0.15,0.85,0.325,0.675]","","",""
"sailing-trial","196","931196","0.0-11.0-155.0","","","","false","","","","","","","","","","null","","1095.1000001430511","","2","0","null","null","arrowup","[0.15,0.85,0.325,0.675]","","",""
"sailing-trial","197","934554","0.0-11.0-156.0","","","","false","","","","","","","","","","777.3999998569489","","128.39999985694885","","1","0","arrowleft","0","arrowright","[0.15,0.85,0.325,0.675]","","",""
"sailing-trial","198","937227","0.0-11.0-157.0","","","","false","","","","","","","","","","null","","1186.7999999523163","","0","0","null","null","arrowup","[0.15,0.85,0.325,0.675]","","",""
"sailing-trial","199","942358","0.0-11.0-158.0","","","","false","","","","","","","","","","650.3000001907349","","1630.2999999523163","","3","1","arrowright","1","arrowright","[0.15,0.85,0.325,0.675]","","",""
"sailing-trial","200","944700","0.0-11.0-159.0","","","","false","","","","","","","","","","null","","1007.9000000953674","","0","0","null","null","arrowup","[0.15,0.85,0.325,0.675]","","",""
"sailing-trial","201","949025","0.0-11.0-160.0","","","","false","","","","","","","","","","592.5","","475.89999985694885","","3","1","arrowright","1","arrowright","[0.15,0.85,0.325,0.675]","","",""
"sailing-trial","202","952709","0.0-11.0-161.0","","","","false","","","","","","","","","","null","","1372.5999999046326","","0","1","null","null","arrowup","[0.15,0.85,0.325,0.675]","","",""
"sailing-trial","203","956068","0.0-11.0-162.0","","","","false","","","","","","","","","","623.5999999046326","","371.40000009536743","","3","0","arrowright","1","arrowright","[0.15,0.85,0.325,0.675]","","",""
"sailing-trial","204","959124","0.0-11.0-163.0","","","","false","","","","","","","","","","null","","1009.7999999523163","","2","1","null","null","arrowup","[0.15,0.85,0.325,0.675]","","",""
"sailing-trial","205","963060","0.0-11.0-164.0","","","","false","","","","","","","","","","761.7000000476837","","404.40000009536743","","0","0","arrowleft","0","arrowleft","[0.325,0.675,0.15,0.85]","","",""
"sailing-trial","206","966354","0.0-11.0-165.0","","","","false","","","","","","","","","","null","","1402.1000001430511","","3","1","null","null","arrowup","[0.325,0.675,0.15,0.85]","","",""
"sailing-trial","207","971395","0.0-11.0-166.0","","","","false","","","","","","","","","","570.6000001430511","","1755.7999999523163","","2","0","arrowright","1","arrowleft","[0.325,0.675,0.15,0.85]","","",""
"sailing-trial","208","974157","0.0-11.0-167.0","","","","false","","","","","","","","","","null","","913.8000001907349","","1","1","null","null","arrowup","[0.325,0.675,0.15,0.85]","","",""
"sailing-trial","209","977707","0.0-11.0-168.0","","","","false","","","","","","","","","","488.7000000476837","","351.10000014305115","","3","1","arrowright","1","arrowright","[0.325,0.675,0.15,0.85]","","",""
"sailing-trial","210","980388","0.0-11.0-169.0","","","","false","","","","","","","","","","null","","1338","","3","0","null","null","arrowup","[0.325,0.675,0.15,0.85]","","",""
"sailing-trial","211","984791","0.0-11.0-170.0","","","","false","","","","","","","","","","961.7000000476837","","434.7999999523163","","3","1","arrowright","1","arrowright","[0.325,0.675,0.15,0.85]","","",""
"sailing-trial","212","987840","0.0-11.0-171.0","","","","false","","","","","","","","","","null","","1309.9000000953674","","3","1","null","null","arrowup","[0.325,0.675,0.15,0.85]","","",""
"sailing-trial","213","991821","0.0-11.0-172.0","","","","false","","","","","","","","","","1181.7000000476837","","495.59999990463257","","3","0","arrowright","1","arrowright","[0.325,0.675,0.15,0.85]","","",""
"sailing-trial","214","995241","0.0-11.0-173.0","","","","false","","","","","","","","","","null","","1679.7999999523163","","3","1","null","null","arrowup","[0.325,0.675,0.15,0.85]","","",""
"sailing-trial","215","999040","0.0-11.0-174.0","","","","false","","","","","","","","","","525.3999998569489","","392.89999985694885","","1","1","arrowleft","0","arrowright","[0.325,0.675,0.15,0.85]","","",""
"sailing-trial","216","1001909","0.0-11.0-175.0","","","","false","","","","","","","","","","null","","1100.5","","2","0","null","null","arrowup","[0.325,0.675,0.15,0.85]","","",""
"sailing-trial","217","1005732","0.0-11.0-176.0","","","","false","","","","","","","","","","831.1000001430511","","345.80000019073486","","1","0","arrowleft","0","arrowright","[0.325,0.675,0.15,0.85]","","",""
"sailing-trial","218","1008213","0.0-11.0-177.0","","","","false","","","","","","","","","","null","","1042.5999999046326","","1","0","null","null","arrowup","[0.325,0.675,0.15,0.85]","","",""
"sailing-trial","219","1012509","0.0-11.0-178.0","","","","false","","","","","","","","","","624.9000000953674","","742.7999999523163","","3","1","arrowright","1","arrowright","[0.325,0.675,0.15,0.85]","","",""
"sailing-trial","220","1014859","0.0-11.0-179.0","","","","false","","","","","","","","","","null","","976.5999999046326","","2","0","null","null","arrowup","[0.325,0.675,0.15,0.85]","","",""
"sailing-trial","221","1019229","0.0-11.0-180.0","","","","false","","","","","","","","","","626.2000000476837","","1251.5999999046326","","3","0","arrowright","1","arrowright","[0.15,0.85,0.325,0.675]","","",""
"sailing-trial","222","1022492","0.0-11.0-181.0","","","","false","","","","","","","","","","null","","1472.1000001430511","","3","1","null","null","arrowup","[0.15,0.85,0.325,0.675]","","",""
"sailing-trial","223","1026011","0.0-11.0-182.0","","","","false","","","","","","","","","","594.2999999523163","","356","","0","0","arrowleft","0","arrowleft","[0.15,0.85,0.325,0.675]","","",""
"sailing-trial","224","1028773","0.0-11.0-183.0","","","","false","","","","","","","","","","null","","1603.2000000476837","","0","0","null","null","arrowup","[0.15,0.85,0.325,0.675]","","",""
"sailing-trial","225","1032823","0.0-11.0-184.0","","","","false","","","","","","","","","","792.7000000476837","","466.10000014305115","","3","1","arrowright","1","arrowright","[0.15,0.85,0.325,0.675]","","",""
"sailing-trial","226","1035974","0.0-11.0-185.0","","","","false","","","","","","","","","","null","","1101.7999999523163","","2","1","null","null","arrowup","[0.15,0.85,0.325,0.675]","","",""
"sailing-trial","227","1040476","0.0-11.0-186.0","","","","false","","","","","","","","","","1087.7999999523163","","389.7000000476837","","3","1","arrowright","1","arrowright","[0.15,0.85,0.325,0.675]","","",""
"sailing-trial","228","1043694","0.0-11.0-187.0","","","","false","","","","","","","","","","null","","1185.5","","3","1","null","null","arrowup","[0.15,0.85,0.325,0.675]","","",""
"sailing-trial","229","1048108","0.0-11.0-188.0","","","","false","","","","","","","","","","846.9000000953674","","410.5","","3","1","arrowright","1","arrowright","[0.15,0.85,0.325,0.675]","","",""
"sailing-trial","230","1050868","0.0-11.0-189.0","","","","false","","","","","","","","","","null","","1145.1000001430511","","1","0","null","null","arrowup","[0.15,0.85,0.325,0.675]","","",""
"sailing-trial","231","1054221","0.0-11.0-190.0","","","","false","","","","","","","","","","689.5","","33.700000047683716","","3","0","arrowright","1","arrowright","[0.15,0.85,0.325,0.675]","","",""
"sailing-trial","232","1057174","0.0-11.0-191.0","","","","false","","","","","","","","","","null","","935.9000000953674","","3","1","null","null","arrowup","[0.15,0.85,0.325,0.675]","","",""
"sailing-trial","233","1060724","0.0-11.0-192.0","","","","false","","","","","","","","","","479.7000000476837","","358.2000000476837","","1","1","arrowleft","0","arrowright","[0.15,0.85,0.325,0.675]","","",""
"sailing-trial","234","1063357","0.0-11.0-193.0","","","","false","","","","","","","","","","null","","1056.9000000953674","","1","1","null","null","arrowup","[0.15,0.85,0.325,0.675]","","",""
"sailing-trial","235","1066667","0.0-11.0-194.0","","","","false","","","","","","","","","","769","","347.7000000476837","","2","0","arrowright","1","arrowleft","[0.15,0.85,0.325,0.675]","","",""
"sailing-trial","236","1069508","0.0-11.0-195.0","","","","false","","","","","","","","","","null","","1081.7999999523163","","3","1","null","null","arrowup","[0.15,0.85,0.325,0.675]","","",""
"sailing-trial","237","1072874","0.0-11.0-196.0","","","","false","","","","","","","","","","545.7000000476837","","78","","1","1","arrowleft","0","arrowright","[0.15,0.85,0.325,0.675]","","",""
"sailing-trial","238","1075204","0.0-11.0-197.0","","","","false","","","","","","","","","","null","","986.1000001430511","","2","0","null","null","arrowup","[0.15,0.85,0.325,0.675]","","",""
"sailing-trial","239","1079390","0.0-11.0-198.0","","","","false","","","","","","","","","","624.5","","407.2000000476837","","1","1","arrowleft","0","arrowright","[0.15,0.85,0.325,0.675]","","",""
"sailing-trial","240","1082525","0.0-11.0-199.0","","","","false","","","","","","","","","","null","","1040.2000000476837","","1","1","null","null","arrowup","[0.15,0.85,0.325,0.675]","","",""
"sailing-trial","241","1086307","0.0-11.0-200.0","","","","false","","","","","","","","","","535.7999999523163","","86","","1","1","arrowleft","0","arrowright","[0.15,0.85,0.325,0.675]","","",""
"sailing-trial","242","1088988","0.0-11.0-201.0","","","","false","","","","","","","","","","null","","832.3999998569489","","0","0","null","null","arrowup","[0.15,0.85,0.325,0.675]","","",""
"sailing-trial","243","1093590","0.0-11.0-202.0","","","","false","","","","","","","","","","1169.2000000476837","","123","","1","1","arrowleft","0","arrowright","[0.15,0.85,0.325,0.675]","","",""
"sailing-trial","244","1096807","0.0-11.0-203.0","","","","false","","","","","","","","","","null","","1007.5999999046326","","1","1","null","null","arrowup","[0.15,0.85,0.325,0.675]","","",""
"sailing-trial","245","1101240","0.0-11.0-204.0","","","","false","","","","","","","","","","1023.2000000476837","","127.29999995231628","","1","1","arrowleft","0","arrowright","[0.325,0.675,0.15,0.85]","","",""
"sailing-trial","246","1103909","0.0-11.0-205.0","","","","false","","","","","","","","","","null","","910.1000001430511","","1","0","null","null","arrowup","[0.325,0.675,0.15,0.85]","","",""
"sailing-trial","247","1108257","0.0-11.0-206.0","","","","false","","","","","","","","","","928.7000000476837","","470.90000009536743","","1","1","arrowleft","0","arrowright","[0.325,0.675,0.15,0.85]","","",""
"sailing-trial","248","1110605","0.0-11.0-207.0","","","","false","","","","","","","","","","null","","956.7999999523163","","2","0","null","null","arrowup","[0.325,0.675,0.15,0.85]","","",""
"sailing-trial","249","1114690","0.0-11.0-208.0","","","","false","","","","","","","","","","703.7999999523163","","531.3999998569489","","1","1","arrowleft","0","arrowright","[0.325,0.675,0.15,0.85]","","",""
"sailing-trial","250","1116803","0.0-11.0-209.0","","","","false","","","","","","","","","","null","","971.2999999523163","","0","0","null","null","arrowup","[0.325,0.675,0.15,0.85]","","",""
"sailing-trial","251","1120289","0.0-11.0-210.0","","","","false","","","","","","","","","","513.4000000953674","","11.899999856948853","","1","1","arrowleft","0","arrowright","[0.325,0.675,0.15,0.85]","","",""
"sailing-trial","252","1122163","0.0-11.0-211.0","","","","false","","","","","","","","","","null","","755.7000000476837","","0","0","null","null","arrowup","[0.325,0.675,0.15,0.85]","","",""
"sailing-trial","253","1125476","0.0-11.0-212.0","","","","false","","","","","","","","","","578","","17.5","","1","0","arrowleft","0","arrowright","[0.325,0.675,0.15,0.85]","","",""
"sailing-trial","254","1128606","0.0-11.0-213.0","","","","false","","","","","","","","","","null","","1272","","0","1","null","null","arrowup","[0.325,0.675,0.15,0.85]","","",""
"sailing-trial","255","1132707","0.0-11.0-214.0","","","","false","","","","","","","","","","958.9000000953674","","257.90000009536743","","0","1","arrowleft","0","arrowleft","[0.325,0.675,0.15,0.85]","","",""
"sailing-trial","256","1135020","0.0-11.0-215.0","","","","false","","","","","","","","","","null","","992.8999998569489","","0","0","null","null","arrowup","[0.325,0.675,0.15,0.85]","","",""
"sailing-trial","257","1138739","0.0-11.0-216.0","","","","false","","","","","","","","","","552.7000000476837","","481.2999999523163","","0","0","arrowleft","0","arrowleft","[0.325,0.675,0.15,0.85]","","",""
"sailing-trial","258","1141739","0.0-11.0-217.0","","","","false","","","","","","","","","","null","","969","","1","1","null","null","arrowup","[0.325,0.675,0.15,0.85]","","",""
"sailing-trial","259","1145273","0.0-11.0-218.0","","","","false","","","","","","","","","","681.6999998092651","","6.799999952316284","","1","1","arrowleft","0","arrowright","[0.325,0.675,0.15,0.85]","","",""
"sailing-trial","260","1147790","0.0-11.0-219.0","","","","false","","","","","","","","","","null","","868","","2","1","null","null","arrowup","[0.325,0.675,0.15,0.85]","","",""
"sailing-trial","261","1151158","0.0-11.0-220.0","","","","false","","","","","","","","","","295.10000014305115","","212.29999995231628","","3","1","arrowright","1","arrowright","[0.675,0.325,0.85,0.15]","","",""
"sailing-trial","262","1153763","0.0-11.0-221.0","","","","false","","","","","","","","","","null","","1263.2999999523163","","1","0","null","null","arrowup","[0.675,0.325,0.85,0.15]","","",""
"sailing-trial","263","1156732","0.0-11.0-222.0","","","","false","","","","","","","","","","561.1000001430511","","242.70000004768372","","3","0","arrowright","1","arrowright","[0.675,0.325,0.85,0.15]","","",""
"sailing-trial","264","1159019","0.0-11.0-223.0","","","","false","","","","","","","","","","null","","937.2999999523163","","0","0","null","null","arrowup","[0.675,0.325,0.85,0.15]","","",""
"sailing-trial","265","1163489","0.0-11.0-224.0","","","","false","","","","","","","","","","1513.5999999046326","","123","","2","1","arrowright","1","arrowleft","[0.675,0.325,0.85,0.15]","","",""
"sailing-trial","266","1166456","0.0-11.0-225.0","","","","false","","","","","","","","","","null","","915.1000001430511","","2","1","null","null","arrowup","[0.675,0.325,0.85,0.15]","","",""
"sailing-trial","267","1170075","0.0-11.0-226.0","","","","false","","","","","","","","","","556","","384.2000000476837","","2","0","arrowright","1","arrowleft","[0.675,0.325,0.85,0.15]","","",""
"sailing-trial","268","1172556","0.0-11.0-227.0","","","","false","","","","","","","","","","null","","1104.3000001907349","","1","0","null","null","arrowup","[0.675,0.325,0.85,0.15]","","",""
"sailing-trial","269","1176180","0.0-11.0-228.0","","","","false","","","","","","","","","","1089.5","","125.70000004768372","","2","0","arrowright","1","arrowleft","[0.675,0.325,0.85,0.15]","","",""
"sailing-trial","270","1179873","0.0-11.0-229.0","","","","false","","","","","","","","","","null","","1128.1000001430511","","0","1","null","null","arrowup","[0.675,0.325,0.85,0.15]","","",""
"sailing-trial","271","1185891","0.0-11.0-230.0","","","","false","","","","","","","","","","2619.199999809265","","971.9000000953674","","1","0","arrowleft","0","arrowright","[0.675,0.325,0.85,0.15]","","",""
"sailing-trial","272","1188715","0.0-11.0-231.0","","","","false","","","","","","","","","","null","","1447.9000000953674","","1","0","null","null","arrowup","[0.675,0.325,0.85,0.15]","","",""
"sailing-trial","273","1192251","0.0-11.0-232.0","","","","false","","","","","","","","","","681.2999999523163","","273","","3","0","arrowright","1","arrowright","[0.675,0.325,0.85,0.15]","","",""
"sailing-trial","274","1195203","0.0-11.0-233.0","","","","false","","","","","","","","","","null","","1737.2999999523163","","1","0","null","null","arrowup","[0.675,0.325,0.85,0.15]","","",""
"sailing-trial","275","1199390","0.0-11.0-234.0","","","","false","","","","","","","","","","873.6000001430511","","390.40000009536743","","2","1","arrowright","1","arrowleft","[0.675,0.325,0.85,0.15]","","",""
"sailing-trial","276","1202402","0.0-11.0-235.0","","","","false","","","","","","","","","","null","","1702.3999998569489","","1","0","null","null","arrowup","[0.675,0.325,0.85,0.15]","","",""
"sailing-trial","277","1206323","0.0-11.0-236.0","","","","false","","","","","","","","","","793.3999998569489","","248.59999990463257","","2","1","arrowright","1","arrowleft","[0.85,0.15,0.675,0.325]","","",""
"sailing-trial","278","1208883","0.0-11.0-237.0","","","","false","","","","","","","","","","null","","1266.5999999046326","","1","0","null","null","arrowup","[0.85,0.15,0.675,0.325]","","",""
"sailing-trial","279","1212531","0.0-11.0-238.0","","","","false","","","","","","","","","","769.6000001430511","","429.2000000476837","","2","0","arrowright","1","arrowleft","[0.85,0.15,0.675,0.325]","","",""
"sailing-trial","280","1215623","0.0-11.0-239.0","","","","false","","","","","","","","","","null","","888.7999999523163","","0","1","null","null","arrowup","[0.85,0.15,0.675,0.325]","","",""
"sailing-trial","281","1218868","0.0-11.0-240.0","","","","false","","","","","","","","","","541.7000000476837","","289.09999990463257","","0","0","arrowleft","0","arrowleft","[0.85,0.15,0.675,0.325]","","",""
"sailing-trial","282","1221876","0.0-11.0-241.0","","","","false","","","","","","","","","","null","","1527.6999998092651","","0","0","null","null","arrowup","[0.85,0.15,0.675,0.325]","","",""
"sailing-trial","283","1224931","0.0-11.0-242.0","","","","false","","","","","","","","","","616.6000001430511","","68.39999985694885","","3","0","arrowright","1","arrowright","[0.85,0.15,0.675,0.325]","","",""
"sailing-trial","284","1228806","0.0-11.0-243.0","","","","false","","","","","","","","","","null","","1953.7999999523163","","1","1","null","null","arrowup","[0.85,0.15,0.675,0.325]","","",""
"sailing-trial","285","1232052","0.0-11.0-244.0","","","","false","","","","","","","","","","519.8999998569489","","131.80000019073486","","1","0","arrowleft","0","arrowright","[0.85,0.15,0.675,0.325]","","",""
"sailing-trial","286","1235157","0.0-11.0-245.0","","","","false","","","","","","","","","","null","","1257.4000000953674","","0","1","null","null","arrowup","[0.85,0.15,0.675,0.325]","","",""
"sailing-trial","287","1238941","0.0-11.0-246.0","","","","false","","","","","","","","","","648.5","","255.70000004768372","","0","1","arrowleft","0","arrowleft","[0.85,0.15,0.675,0.325]","","",""
"sailing-trial","288","1241564","0.0-11.0-247.0","","","","false","","","","","","","","","","null","","1216.9000000953674","","0","0","null","null","arrowup","[0.85,0.15,0.675,0.325]","","",""
"sailing-trial","289","1246008","0.0-11.0-248.0","","","","false","","","","","","","","","","897.6000001430511","","157.19999980926514","","0","1","arrowleft","0","arrowleft","[0.85,0.15,0.675,0.325]","","",""
"sailing-trial","290","1248772","0.0-11.0-249.0","","","","false","","","","","","","","","","null","","1461.5","","1","0","null","null","arrowup","[0.85,0.15,0.675,0.325]","","",""
"sailing-trial","291","1252240","0.0-11.0-250.0","","","","false","","","","","","","","","","568.7999999523163","","274.5","","0","1","arrowleft","0","arrowleft","[0.85,0.15,0.675,0.325]","","",""
"sailing-trial","292","1254796","0.0-11.0-251.0","","","","false","","","","","","","","","","null","","1156.7999999523163","","3","0","null","null","arrowup","[0.85,0.15,0.675,0.325]","","",""
"sailing-trial","293","1258426","0.0-11.0-252.0","","","","false","","","","","","","","","","649.2000000476837","","126.80000019073486","","0","1","arrowleft","0","arrowleft","[0.85,0.15,0.675,0.325]","","",""
"sailing-trial","294","1260844","0.0-11.0-253.0","","","","false","","","","","","","","","","null","","1051.5","","2","0","null","null","arrowup","[0.85,0.15,0.675,0.325]","","",""
"sailing-trial","295","1264540","0.0-11.0-254.0","","","","false","","","","","","","","","","488.5","","340","","0","1","arrowleft","0","arrowleft","[0.85,0.15,0.675,0.325]","","",""
"sailing-trial","296","1267940","0.0-11.0-255.0","","","","false","","","","","","","","","","null","","1424.2999999523163","","0","1","null","null","arrowup","[0.85,0.15,0.675,0.325]","","",""
"sailing-trial","297","1271740","0.0-11.0-256.0","","","","false","","","","","","","","","","441","","576.6000001430511","","0","1","arrowleft","0","arrowleft","[0.85,0.15,0.675,0.325]","","",""
"sailing-trial","298","1274195","0.0-11.0-257.0","","","","false","","","","","","","","","","null","","1033.7999999523163","","2","0","null","null","arrowup","[0.85,0.15,0.675,0.325]","","",""
"sailing-trial","299","1277364","0.0-11.0-258.0","","","","false","","","","","","","","","","571","","41.89999985694885","","0","0","arrowleft","0","arrowleft","[0.325,0.675,0.15,0.85]","","",""
"sailing-trial","300","1280004","0.0-11.0-259.0","","","","false","","","","","","","","","","null","","1233.9000000953674","","2","0","null","null","arrowup","[0.325,0.675,0.15,0.85]","","",""
"sailing-trial","301","1283690","0.0-11.0-260.0","","","","false","","","","","","","","","","664.8999998569489","","110.09999990463257","","3","1","arrowright","1","arrowright","[0.325,0.675,0.15,0.85]","","",""
"sailing-trial","302","1286674","0.0-11.0-261.0","","","","false","","","","","","","","","","null","","1171.1999998092651","","3","1","null","null","arrowup","[0.325,0.675,0.15,0.85]","","",""
"sailing-trial","303","1290656","0.0-11.0-262.0","","","","false","","","","","","","","","","738.7000000476837","","232.5","","3","1","arrowright","1","arrowright","[0.325,0.675,0.15,0.85]","","",""
"sailing-trial","304","1293872","0.0-11.0-263.0","","","","false","","","","","","","","","","null","","1348.7999999523163","","1","1","null","null","arrowup","[0.325,0.675,0.15,0.85]","","",""
"sailing-trial","305","1297974","0.0-11.0-264.0","","","","false","","","","","","","","","","596.4000000953674","","485.2000000476837","","3","1","arrowright","1","arrowright","[0.325,0.675,0.15,0.85]","","",""
"sailing-trial","306","1301723","0.0-11.0-265.0","","","","false","","","","","","","","","","null","","1446.5","","1","1","null","null","arrowup","[0.325,0.675,0.15,0.85]","","",""
"sailing-trial","307","1305162","0.0-11.0-266.0","","","","false","","","","","","","","","","889.1999998092651","","7.700000047683716","","3","0","arrowright","1","arrowright","[0.325,0.675,0.15,0.85]","","",""
"sailing-trial","308","1307715","0.0-11.0-267.0","","","","false","","","","","","","","","","null","","1010","","2","0","null","null","arrowup","[0.325,0.675,0.15,0.85]","","",""
"sailing-trial","309","1311372","0.0-11.0-268.0","","","","false","","","","","","","","","","673.3999998569489","","136.20000004768372","","1","1","arrowleft","0","arrowright","[0.325,0.675,0.15,0.85]","","",""
"sailing-trial","310","1315006","0.0-11.0-269.0","","","","false","","","","","","","","","","null","","1785.7000000476837","","1","1","null","null","arrowup","[0.325,0.675,0.15,0.85]","","",""
"sailing-trial","311","1318707","0.0-11.0-270.0","","","","false","","","","","","","","","","526.2000000476837","","363.40000009536743","","3","1","arrowright","1","arrowright","[0.325,0.675,0.15,0.85]","","",""
"sailing-trial","312","1321452","0.0-11.0-271.0","","","","false","","","","","","","","","","null","","1121.5","","2","0","null","null","arrowup","[0.325,0.675,0.15,0.85]","","",""
"sailing-trial","313","1325456","0.0-11.0-272.0","","","","false","","","","","","","","","","816.5999999046326","","334.09999990463257","","1","1","arrowleft","0","arrowright","[0.325,0.675,0.15,0.85]","","",""
"sailing-trial","314","1327842","0.0-11.0-273.0","","","","false","","","","","","","","","","null","","1060.5999999046326","","0","0","null","null","arrowup","[0.325,0.675,0.15,0.85]","","",""
"sailing-trial","315","1331390","0.0-11.0-274.0","","","","false","","","","","","","","","","657.9000000953674","","35.60000014305115","","1","1","arrowleft","0","arrowright","[0.15,0.85,0.325,0.675]","","",""
"sailing-trial","316","1333979","0.0-11.0-275.0","","","","false","","","","","","","","","","null","","1126.5999999046326","","3","0","null","null","arrowup","[0.15,0.85,0.325,0.675]","","",""
"sailing-trial","317","1337957","0.0-11.0-276.0","","","","false","","","","","","","","","","568.0999999046326","","506.69999980926514","","1","1","arrowleft","0","arrowright","[0.15,0.85,0.325,0.675]","","",""
"sailing-trial","318","1340507","0.0-11.0-277.0","","","","false","","","","","","","","","","null","","1175.8999998569489","","0","0","null","null","arrowup","[0.15,0.85,0.325,0.675]","","",""
"sailing-trial","319","1343972","0.0-11.0-278.0","","","","false","","","","","","","","","","513.7999999523163","","78.5","","1","1","arrowleft","0","arrowright","[0.15,0.85,0.325,0.675]","","",""
"sailing-trial","320","1347073","0.0-11.0-279.0","","","","false","","","","","","","","","","null","","1224.7000000476837","","1","1","null","null","arrowup","[0.15,0.85,0.325,0.675]","","",""
"sailing-trial","321","1351574","0.0-11.0-280.0","","","","false","","","","","","","","","","1660.0999999046326","","91.70000004768372","","1","1","arrowleft","0","arrowright","[0.15,0.85,0.325,0.675]","","",""
"sailing-trial","322","1354539","0.0-11.0-281.0","","","","false","","","","","","","","","","null","","1671.2999999523163","","0","0","null","null","arrowup","[0.15,0.85,0.325,0.675]","","",""
"sailing-trial","323","1358140","0.0-11.0-282.0","","","","false","","","","","","","","","","626","","139","","1","1","arrowleft","0","arrowright","[0.15,0.85,0.325,0.675]","","",""
"sailing-trial","324","1360915","0.0-11.0-283.0","","","","false","","","","","","","","","","null","","1456.0999999046326","","0","0","null","null","arrowup","[0.15,0.85,0.325,0.675]","","",""
"sailing-trial","325","1364299","0.0-11.0-284.0","","","","false","","","","","","","","","","1041","","34.10000014305115","","1","0","arrowleft","0","arrowright","[0.15,0.85,0.325,0.675]","","",""
"sailing-trial","326","1367023","0.0-11.0-285.0","","","","false","","","","","","","","","","null","","1146.3999998569489","","2","1","null","null","arrowup","[0.15,0.85,0.325,0.675]","","",""
"sailing-trial","327","1370331","0.0-11.0-286.0","","","","false","","","","","","","","","","567.1000001430511","","417.60000014305115","","2","0","arrowright","1","arrowleft","[0.15,0.85,0.325,0.675]","","",""
"sailing-trial","328","1372499","0.0-11.0-287.0","","","","false","","","","","","","","","","null","","961.9000000953674","","2","0","null","null","arrowup","[0.15,0.85,0.325,0.675]","","",""
"sailing-trial","329","1376374","0.0-11.0-288.0","","","","false","","","","","","","","","","832.0999999046326","","242.70000004768372","","3","1","arrowright","1","arrowright","[0.15,0.85,0.325,0.675]","","",""
"sailing-trial","330","1378716","0.0-11.0-289.0","","","","false","","","","","","","","","","null","","959.2999999523163","","2","0","null","null","arrowup","[0.15,0.85,0.325,0.675]","","",""
"sailing-trial","331","1381594","0.0-11.0-290.0","","","","false","","","","","","","","","","553.5999999046326","","4.6000001430511475","","3","0","arrowright","1","arrowright","[0.15,0.85,0.325,0.675]","","",""
"sailing-trial","332","1384441","0.0-11.0-291.0","","","","false","","","","","","","","","","null","","979.2000000476837","","3","1","null","null","arrowup","[0.15,0.85,0.325,0.675]","","",""
"sailing-trial","333","1388356","0.0-11.0-292.0","","","","false","","","","","","","","","","536.2000000476837","","513.9000000953674","","3","1","arrowright","1","arrowright","[0.15,0.85,0.325,0.675]","","",""
"sailing-trial","334","1391440","0.0-11.0-293.0","","","","false","","","","","","","","","","null","","1233.1000001430511","","3","1","null","null","arrowup","[0.15,0.85,0.325,0.675]","","",""
"sailing-trial","335","1395156","0.0-11.0-294.0","","","","false","","","","","","","","","","493.2999999523163","","315.7000000476837","","3","1","arrowright","1","arrowright","[0.325,0.675,0.15,0.85]","","",""
"sailing-trial","336","1399373","0.0-11.0-295.0","","","","false","","","","","","","","","","null","","2416.7999999523163","","1","1","null","null","arrowup","[0.325,0.675,0.15,0.85]","","",""
"sailing-trial","337","1403124","0.0-11.0-296.0","","","","false","","","","","","","","","","608.6999998092651","","345","","3","1","arrowright","1","arrowright","[0.325,0.675,0.15,0.85]","","",""
"sailing-trial","338","1405820","0.0-11.0-297.0","","","","false","","","","","","","","","","null","","1024.3999998569489","","0","0","null","null","arrowup","[0.325,0.675,0.15,0.85]","","",""
"sailing-trial","339","1409541","0.0-11.0-298.0","","","","false","","","","","","","","","","497.09999990463257","","411.2999999523163","","3","1","arrowright","1","arrowright","[0.325,0.675,0.15,0.85]","","",""
"sailing-trial","340","1413490","0.0-11.0-299.0","","","","false","","","","","","","","","","null","","1871.6000001430511","","1","1","null","null","arrowup","[0.325,0.675,0.15,0.85]","","",""
"sailing-trial","341","1417223","0.0-11.0-300.0","","","","false","","","","","","","","","","491.5","","409.7999999523163","","3","1","arrowright","1","arrowright","[0.325,0.675,0.15,0.85]","","",""
"sailing-trial","342","1419515","0.0-11.0-301.0","","","","false","","","","","","","","","","null","","942.3999998569489","","2","0","null","null","arrowup","[0.325,0.675,0.15,0.85]","","",""
"sailing-trial","343","1423390","0.0-11.0-302.0","","","","false","","","","","","","","","","657.9000000953674","","426.7000000476837","","3","1","arrowright","1","arrowright","[0.325,0.675,0.15,0.85]","","",""
"sailing-trial","344","1425930","0.0-11.0-303.0","","","","false","","","","","","","","","","null","","1014.7000000476837","","1","0","null","null","arrowup","[0.325,0.675,0.15,0.85]","","",""
"sailing-trial","345","1429724","0.0-11.0-304.0","","","","false","","","","","","","","","","697.8999998569489","","272.2999999523163","","3","1","arrowright","1","arrowright","[0.325,0.675,0.15,0.85]","","",""
"sailing-trial","346","1432148","0.0-11.0-305.0","","","","false","","","","","","","","","","null","","968.5","","2","0","null","null","arrowup","[0.325,0.675,0.15,0.85]","","",""
"sailing-trial","347","1436024","0.0-11.0-306.0","","","","false","","","","","","","","","","553.0999999046326","","381","","3","1","arrowright","1","arrowright","[0.325,0.675,0.15,0.85]","","",""
"sailing-trial","348","1438840","0.0-11.0-307.0","","","","false","","","","","","","","","","null","","948.3000001907349","","1","1","null","null","arrowup","[0.325,0.675,0.15,0.85]","","",""
"sailing-trial","349","1442275","0.0-11.0-308.0","","","","false","","","","","","","","","","757.4000000953674","","208.20000004768372","","1","0","arrowleft","0","arrowright","[0.325,0.675,0.15,0.85]","","",""
"sailing-trial","350","1444755","0.0-11.0-309.0","","","","false","","","","","","","","","","null","","1088.7000000476837","","1","0","null","null","arrowup","[0.325,0.675,0.15,0.85]","","",""
"sailing-trial","351","1448990","0.0-11.0-310.0","","","","false","","","","","","","","","","1090","","463.2999999523163","","3","1","arrowright","1","arrowright","[0.15,0.85,0.325,0.675]","","",""
"sailing-trial","352","1451299","0.0-11.0-311.0","","","","false","","","","","","","","","","null","","1126.9000000953674","","3","0","null","null","arrowup","[0.15,0.85,0.325,0.675]","","",""
"sailing-trial","353","1454899","0.0-11.0-312.0","","","","false","","","","","","","","","","776.2999999523163","","389.7999999523163","","3","0","arrowright","1","arrowright","[0.15,0.85,0.325,0.675]","","",""
"sailing-trial","354","1458099","0.0-11.0-313.0","","","","false","","","","","","","","","","null","","1784","","0","0","null","null","arrowup","[0.15,0.85,0.325,0.675]","","",""
"sailing-trial","355","1461195","0.0-11.0-314.0","","","","false","","","","","","","","","","672.2999999523163","","113.20000004768372","","2","0","arrowright","1","arrowleft","[0.15,0.85,0.325,0.675]","","",""
"sailing-trial","356","1463571","0.0-11.0-315.0","","","","false","","","","","","","","","","null","","1049.9000000953674","","2","0","null","null","arrowup","[0.15,0.85,0.325,0.675]","","",""
"sailing-trial","357","1466700","0.0-11.0-316.0","","","","false","","","","","","","","","","817.9000000953674","","72.5","","1","0","arrowleft","0","arrowright","[0.15,0.85,0.325,0.675]","","",""
"sailing-trial","358","1469116","0.0-11.0-317.0","","","","false","","","","","","","","","","null","","1120.1999998092651","","2","0","null","null","arrowup","[0.15,0.85,0.325,0.675]","","",""
"sailing-trial","359","1472722","0.0-11.0-318.0","","","","false","","","","","","","","","","640.0999999046326","","602.7999999523163","","0","0","arrowleft","0","arrowleft","[0.15,0.85,0.325,0.675]","","",""
"sailing-trial","360","1475773","0.0-11.0-319.0","","","","false","","","","","","","","","","null","","906.7000000476837","","1","1","null","null","arrowup","[0.15,0.85,0.325,0.675]","","",""
"sailing-trial","361","1479372","0.0-11.0-320.0","","","","false","","","","","","","","","","511.7999999523163","","228.39999985694885","","1","1","arrowleft","0","arrowright","[0.15,0.85,0.325,0.675]","","",""
"sailing-trial","362","1482223","0.0-11.0-321.0","","","","false","","","","","","","","","","null","","919.7000000476837","","3","1","null","null","arrowup","[0.15,0.85,0.325,0.675]","","",""
"sailing-trial","363","1485940","0.0-11.0-322.0","","","","false","","","","","","","","","","421.59999990463257","","438.60000014305115","","1","1","arrowleft","0","arrowright","[0.15,0.85,0.325,0.675]","","",""
"sailing-trial","364","1488775","0.0-11.0-323.0","","","","false","","","","","","","","","","null","","1161.0999999046326","","3","1","null","null","arrowup","[0.15,0.85,0.325,0.675]","","",""
"sailing-trial","365","1492107","0.0-11.0-324.0","","","","false","","","","","","","","","","469.2999999523163","","86.5","","1","1","arrowleft","0","arrowright","[0.15,0.85,0.325,0.675]","","",""
"sailing-trial","366","1494546","0.0-11.0-325.0","","","","false","","","","","","","","","","null","","1153.5","","0","0","null","null","arrowup","[0.15,0.85,0.325,0.675]","","",""
"sailing-trial","367","1498455","0.0-11.0-326.0","","","","false","","","","","","","","","","784.7999999523163","","299.60000014305115","","1","1","arrowleft","0","arrowright","[0.325,0.675,0.15,0.85]","","",""
"sailing-trial","368","1500826","0.0-11.0-327.0","","","","false","","","","","","","","","","null","","1060.5","","2","0","null","null","arrowup","[0.325,0.675,0.15,0.85]","","",""
"sailing-trial","369","1504723","0.0-11.0-328.0","","","","false","","","","","","","","","","769.6000001430511","","160.5","","1","1","arrowleft","0","arrowright","[0.325,0.675,0.15,0.85]","","",""
"sailing-trial","370","1507707","0.0-11.0-329.0","","","","false","","","","","","","","","","null","","1000","","0","1","null","null","arrowup","[0.325,0.675,0.15,0.85]","","",""
"sailing-trial","371","1511272","0.0-11.0-330.0","","","","false","","","","","","","","","","512.0999999046326","","159.79999995231628","","1","1","arrowleft","0","arrowright","[0.325,0.675,0.15,0.85]","","",""
"sailing-trial","372","1514606","0.0-11.0-331.0","","","","false","","","","","","","","","","null","","964.2000000476837","","3","1","null","null","arrowup","[0.325,0.675,0.15,0.85]","","",""
"sailing-trial","373","1518489","0.0-11.0-332.0","","","","false","","","","","","","","","","725.8999998569489","","219.5","","1","1","arrowleft","0","arrowright","[0.325,0.675,0.15,0.85]","","",""
"sailing-trial","374","1521406","0.0-11.0-333.0","","","","false","","","","","","","","","","null","","1034.1000001430511","","3","1","null","null","arrowup","[0.325,0.675,0.15,0.85]","","",""
"sailing-trial","375","1526973","0.0-11.0-334.0","","","","false","","","","","","","","","","2479","","187.79999995231628","","3","1","arrowright","1","arrowright","[0.325,0.675,0.15,0.85]","","",""
"sailing-trial","376","1529905","0.0-11.0-335.0","","","","false","","","","","","","","","","null","","1055.9000000953674","","3","1","null","null","arrowup","[0.325,0.675,0.15,0.85]","","",""
"sailing-trial","377","1533507","0.0-11.0-336.0","","","","false","","","","","","","","","","466.2999999523163","","193.70000004768372","","3","1","arrowright","1","arrowright","[0.325,0.675,0.15,0.85]","","",""
"sailing-trial","378","1536163","0.0-11.0-337.0","","","","false","","","","","","","","","","null","","1018.5","","2","0","null","null","arrowup","[0.325,0.675,0.15,0.85]","","",""
"sailing-trial","379","1540890","0.0-11.0-338.0","","","","false","","","","","","","","","","1041.3999998569489","","615.7999999523163","","1","1","arrowleft","0","arrowright","[0.325,0.675,0.15,0.85]","","",""
"sailing-trial","380","1543581","0.0-11.0-339.0","","","","false","","","","","","","","","","null","","1067.2000000476837","","0","0","null","null","arrowup","[0.325,0.675,0.15,0.85]","","",""
"sailing-trial","381","1547507","0.0-11.0-340.0","","","","false","","","","","","","","","","783.2999999523163","","145.5","","3","1","arrowright","1","arrowright","[0.325,0.675,0.15,0.85]","","",""
"sailing-trial","382","1550131","0.0-11.0-341.0","","","","false","","","","","","","","","","null","","1018.5","","3","0","null","null","arrowup","[0.325,0.675,0.15,0.85]","","",""
"sailing-trial","383","1554357","0.0-11.0-342.0","","","","false","","","","","","","","","","1026.1999998092651","","218.09999990463257","","1","1","arrowleft","0","arrowright","[0.325,0.675,0.15,0.85]","","",""
"sailing-trial","384","1557639","0.0-11.0-343.0","","","","false","","","","","","","","","","null","","1497.0999999046326","","3","1","null","null","arrowup","[0.325,0.675,0.15,0.85]","","",""
"sailing-trial","385","1561457","0.0-11.0-344.0","","","","false","","","","","","","","","","740.5","","41.299999952316284","","1","1","arrowleft","0","arrowright","[0.15,0.85,0.325,0.675]","","",""
"sailing-trial","386","1563842","0.0-11.0-345.0","","","","false","","","","","","","","","","null","","964.3000001907349","","0","0","null","null","arrowup","[0.15,0.85,0.325,0.675]","","",""
"sailing-trial","387","1568125","0.0-11.0-346.0","","","","false","","","","","","","","","","1346.2000000476837","","72.70000004768372","","1","1","arrowleft","0","arrowright","[0.15,0.85,0.325,0.675]","","",""
"sailing-trial","388","1570890","0.0-11.0-347.0","","","","false","","","","","","","","","","null","","1023.2000000476837","","1","1","null","null","arrowup","[0.15,0.85,0.325,0.675]","","",""
"sailing-trial","389","1575240","0.0-11.0-348.0","","","","false","","","","","","","","","","794.6000001430511","","891.7999999523163","","1","1","arrowleft","0","arrowright","[0.15,0.85,0.325,0.675]","","",""
"sailing-trial","390","1577925","0.0-11.0-349.0","","","","false","","","","","","","","","","null","","877.2999999523163","","2","1","null","null","arrowup","[0.15,0.85,0.325,0.675]","","",""
"sailing-trial","391","1581540","0.0-11.0-350.0","","","","false","","","","","","","","","","503.7999999523163","","263.5","","2","1","arrowright","1","arrowleft","[0.15,0.85,0.325,0.675]","","",""
"sailing-trial","392","1585106","0.0-11.0-351.0","","","","false","","","","","","","","","","null","","1057.7999999523163","","3","1","null","null","arrowup","[0.15,0.85,0.325,0.675]","","",""
"sailing-trial","393","1588379","0.0-11.0-352.0","","","","false","","","","","","","","","","723.2000000476837","","240","","1","0","arrowleft","0","arrowright","[0.15,0.85,0.325,0.675]","","",""
"sailing-trial","394","1590651","0.0-11.0-353.0","","","","false","","","","","","","","","","null","","906.2000000476837","","2","0","null","null","arrowup","[0.15,0.85,0.325,0.675]","","",""
"sailing-trial","395","1594139","0.0-11.0-354.0","","","","false","","","","","","","","","","633.7000000476837","","196.09999990463257","","2","0","arrowright","1","arrowleft","[0.15,0.85,0.325,0.675]","","",""
"sailing-trial","396","1597323","0.0-11.0-355.0","","","","false","","","","","","","","","","null","","985.5","","2","1","null","null","arrowup","[0.15,0.85,0.325,0.675]","","",""
"sailing-trial","397","1600923","0.0-11.0-356.0","","","","false","","","","","","","","","","1058.6999998092651","","63.90000009536743","","2","0","arrowright","1","arrowleft","[0.15,0.85,0.325,0.675]","","",""
"sailing-trial","398","1603707","0.0-11.0-357.0","","","","false","","","","","","","","","","null","","881.5","","1","1","null","null","arrowup","[0.15,0.85,0.325,0.675]","","",""
"sailing-trial","399","1606779","0.0-11.0-358.0","","","","false","","","","","","","","","","456.5","","202.40000009536743","","1","0","arrowleft","0","arrowright","[0.15,0.85,0.325,0.675]","","",""
"sailing-trial","400","1609100","0.0-11.0-359.0","","","","false","","","","","","","","","","null","","863.5999999046326","","2","0","null","null","arrowup","[0.15,0.85,0.325,0.675]","","",""
"sailing-trial","401","1612339","0.0-11.0-360.0","","","","false","","","","","","","","","","784.7000000476837","","91.5","","0","0","arrowleft","0","arrowleft","[0.325,0.675,0.15,0.85]","","",""
"sailing-trial","402","1614668","0.0-11.0-361.0","","","","false","","","","","","","","","","null","","953.0999999046326","","1","0","null","null","arrowup","[0.325,0.675,0.15,0.85]","","",""
"sailing-trial","403","1618188","0.0-11.0-362.0","","","","false","","","","","","","","","","663.9000000953674","","579.5","","3","0","arrowright","1","arrowright","[0.325,0.675,0.15,0.85]","","",""
"sailing-trial","404","1620907","0.0-11.0-363.0","","","","false","","","","","","","","","","null","","857.3999998569489","","3","1","null","null","arrowup","[0.325,0.675,0.15,0.85]","","",""
"sailing-trial","405","1624058","0.0-11.0-364.0","","","","false","","","","","","","","","","209","","123.70000004768372","","3","1","arrowright","1","arrowright","[0.325,0.675,0.15,0.85]","","",""
"sailing-trial","406","1626791","0.0-11.0-365.0","","","","false","","","","","","","","","","null","","898.2999999523163","","0","1","null","null","arrowup","[0.325,0.675,0.15,0.85]","","",""
"sailing-trial","407","1630757","0.0-11.0-366.0","","","","false","","","","","","","","","","622","","440","","0","1","arrowleft","0","arrowleft","[0.325,0.675,0.15,0.85]","","",""
"sailing-trial","408","1632779","0.0-11.0-367.0","","","","false","","","","","","","","","","null","","727.7000000476837","","1","0","null","null","arrowup","[0.325,0.675,0.15,0.85]","","",""
"sailing-trial","409","1636424","0.0-11.0-368.0","","","","false","","","","","","","","","","489","","275.7999999523163","","0","1","arrowleft","0","arrowleft","[0.325,0.675,0.15,0.85]","","",""
"sailing-trial","410","1639257","0.0-11.0-369.0","","","","false","","","","","","","","","","null","","1188.5","","0","1","null","null","arrowup","[0.325,0.675,0.15,0.85]","","",""
"sailing-trial","411","1642892","0.0-11.0-370.0","","","","false","","","","","","","","","","491.5","","211.70000004768372","","0","0","arrowleft","0","arrowleft","[0.325,0.675,0.15,0.85]","","",""
"sailing-trial","412","1645500","0.0-11.0-371.0","","","","false","","","","","","","","","","null","","1264.3000001907349","","0","0","null","null","arrowup","[0.325,0.675,0.15,0.85]","","",""
"sailing-trial","413","1648923","0.0-11.0-372.0","","","","false","","","","","","","","","","528.9000000953674","","86.20000004768372","","3","1","arrowright","1","arrowright","[0.325,0.675,0.15,0.85]","","",""
"sailing-trial","414","1651555","0.0-11.0-373.0","","","","false","","","","","","","","","","null","","1329.3999998569489","","0","0","null","null","arrowup","[0.325,0.675,0.15,0.85]","","",""
"sailing-trial","415","1655307","0.0-11.0-374.0","","","","false","","","","","","","","","","585.7999999523163","","354","","3","1","arrowright","1","arrowright","[0.325,0.675,0.15,0.85]","","",""
"sailing-trial","416","1657689","0.0-11.0-375.0","","","","false","","","","","","","","","","null","","1104.7000000476837","","3","0","null","null","arrowup","[0.325,0.675,0.15,0.85]","","",""
"sailing-trial","417","1661640","0.0-11.0-376.0","","","","false","","","","","","","","","","1036.1000001430511","","140.10000014305115","","3","1","arrowright","1","arrowright","[0.325,0.675,0.15,0.85]","","",""
"sailing-trial","418","1664807","0.0-11.0-377.0","","","","false","","","","","","","","","","null","","1196.2000000476837","","0","1","null","null","arrowup","[0.325,0.675,0.15,0.85]","","",""
"sailing-trial","419","1668355","0.0-11.0-378.0","","","","false","","","","","","","","","","1245.7999999523163","","134.79999995231628","","0","0","arrowleft","0","arrowleft","[0.15,0.85,0.325,0.675]","","",""
"sailing-trial","420","1670763","0.0-11.0-379.0","","","","false","","","","","","","","","","null","","1033.6000001430511","","0","0","null","null","arrowup","[0.15,0.85,0.325,0.675]","","",""
"sailing-trial","421","1674706","0.0-11.0-380.0","","","","false","","","","","","","","","","681.7000000476837","","478.40000009536743","","3","1","arrowright","1","arrowright","[0.15,0.85,0.325,0.675]","","",""
"sailing-trial","422","1677130","0.0-11.0-381.0","","","","false","","","","","","","","","","null","","1073.2000000476837","","2","0","null","null","arrowup","[0.15,0.85,0.325,0.675]","","",""
"sailing-trial","423","1681051","0.0-11.0-382.0","","","","false","","","","","","","","","","1002.9000000953674","","442.89999985694885","","3","0","arrowright","1","arrowright","[0.15,0.85,0.325,0.675]","","",""
"sailing-trial","424","1683956","0.0-11.0-383.0","","","","false","","","","","","","","","","null","","1160.2999999523163","","1","1","null","null","arrowup","[0.15,0.85,0.325,0.675]","","",""
"sailing-trial","425","1687790","0.0-11.0-384.0","","","","false","","","","","","","","","","544.8999998569489","","436","","1","1","arrowleft","0","arrowright","[0.15,0.85,0.325,0.675]","","",""
"sailing-trial","426","1690227","0.0-11.0-385.0","","","","false","","","","","","","","","","null","","1135.1000001430511","","0","0","null","null","arrowup","[0.15,0.85,0.325,0.675]","","",""
"sailing-trial","427","1694073","0.0-11.0-386.0","","","","false","","","","","","","","","","626.2999999523163","","310","","1","1","arrowleft","0","arrowright","[0.15,0.85,0.325,0.675]","","",""
"sailing-trial","428","1696683","0.0-11.0-387.0","","","","false","","","","","","","","","","null","","1228.1000001430511","","3","0","null","null","arrowup","[0.15,0.85,0.325,0.675]","","",""
"sailing-trial","429","1700489","0.0-11.0-388.0","","","","false","","","","","","","","","","841.5","","154.89999985694885","","1","1","arrowleft","0","arrowright","[0.15,0.85,0.325,0.675]","","",""
"sailing-trial","430","1703523","0.0-11.0-389.0","","","","false","","","","","","","","","","null","","1227.5","","1","1","null","null","arrowup","[0.15,0.85,0.325,0.675]","","",""
"sailing-trial","431","1708173","0.0-11.0-390.0","","","","false","","","","","","","","","","747.0999999046326","","566.2999999523163","","1","1","arrowleft","0","arrowright","[0.15,0.85,0.325,0.675]","","",""
"sailing-trial","432","1709947","0.0-11.0-391.0","","","","false","","","","","","","","","","null","","607.3000001907349","","2","0","null","null","arrowup","[0.15,0.85,0.325,0.675]","","",""
"sailing-trial","433","1713673","0.0-11.0-392.0","","","","false","","","","","","","","","","569.2000000476837","","220.40000009536743","","1","1","arrowleft","0","arrowright","[0.15,0.85,0.325,0.675]","","",""
"sailing-trial","434","1715867","0.0-11.0-393.0","","","","false","","","","","","","","","","null","","860.5999999046326","","3","0","null","null","arrowup","[0.15,0.85,0.325,0.675]","","",""
"sailing-trial","435","1719441","0.0-11.0-394.0","","","","false","","","","","","","","","","545","","352","","1","1","arrowleft","0","arrowright","[0.15,0.85,0.325,0.675]","","",""
"sailing-trial","436","1721635","0.0-11.0-395.0","","","","false","","","","","","","","","","null","","883.3999998569489","","0","0","null","null","arrowup","[0.15,0.85,0.325,0.675]","","",""
"sailing-trial","437","1725522","0.0-11.0-396.0","","","","false","","","","","","","","","","1025.9000000953674","","69.20000004768372","","1","1","arrowleft","0","arrowright","[0.15,0.85,0.325,0.675]","","",""
"sailing-trial","438","1727483","0.0-11.0-397.0","","","","false","","","","","","","","","","null","","626.1000001430511","","0","0","null","null","arrowup","[0.15,0.85,0.325,0.675]","","",""
"sailing-trial","439","1731089","0.0-11.0-398.0","","","","false","","","","","","","","","","848.7999999523163","","114.59999990463257","","1","1","arrowleft","0","arrowright","[0.15,0.85,0.325,0.675]","","",""
"sailing-trial","440","1733706","0.0-11.0-399.0","","","","false","","","","","","","","","","null","","802.9000000953674","","1","1","null","null","arrowup","[0.15,0.85,0.325,0.675]","","",""
"instructions","441","1738066","0.0-12.0","","","","","","","","","","4359.299999952316","","","","","","","","","","","","","","","","[{""page_index"":0,""viewing_time"":4358.799999952316}]"
"survey-debrief","442","1753913","0.0-13.0","","","","","","","","","","15846.099999904633","","","","","","","","","","","","","","{""difficulty"":""5"",""fun"":""2"",""clarity"":""5"",""strategy"":""no"",""feedback"":""no""}","",""
