"trial_type","trial_index","time_elapsed","internal_node_id","value","metadata","success","timeout","failed_images","failed_audio","failed_video","browser_interaction","low_quality","rt","stimulus","response","button_pressed","island_rt","island_response","boat_rt","boat_response","boat","reward","island_key","island","boat_key","reward_probabilities","responses","num_errors","view_history"
"pavlovia","0","4","0.0-0.0","","","","","","","","","","","","","","","","","","","","","","","","","",""
"call-function","1","4","0.0-1.0","","{""task_version"":""sailing_part1_v1"",""task_condition"":""good"",""boats"":[""A"",""B"",""D"",""C""],""boats_demo"":[""G"",""E"",""F"",""H""],""islands"":[""B"",""A""],""subject_id"":""14038"",""age"":""12"",""gender"":""Female""}","","","","","","","","","","","","","","","","","","","","","","","",""
"preload","2","2421","0.0-2.0","","","true","false","[]","[]","[]","[{""event"":""fullscreenenter"",""trial"":3,""time"":8696}]","false","","","","","","","","","","","","","","","","",""
"fullscreen","3","9677","0.0-3.0","","","true","","","","","","","","","","","","","","","","","","","","","","",""
"audio-keyboard-response","4","11904","0.0-4.0-0.0","","","","","","","","","","2160","audio/beep_loop.wav"," ","","","","","","","","","","","","","",""
"audio-test","5","13418","0.0-4.0-1.0","","","","","","","","","","null","audio/turtle.mp3","","3","","","","","","","","","","","","",""
"audio-test","6","15946","0.0-4.0-2.0","","","","","","","","","","null","audio/shark.mp3","","2","","","","","","","","","","","","",""
"sailing-instructions","7","45279","0.0-5.0-0.0-0.0","","","","","","","","","","","","","","null","null","null","null","null","null","","","","","","",""
"sailing-trial","8","49123","0.0-5.0-0.0-1.0-0.0","","","","false","","","","","","","","","","2741.600000023842","","null","","null","null","arrowleft","0","null","null","","",""
"sailing-trial","9","51221","0.0-5.0-0.0-1.0-1.0","","","","false","","","","","","","","","","986.4000000059605","","null","","null","null","arrowright","1","null","null","","",""
"sailing-trial","10","55402","0.0-5.0-0.0-1.0-2.0","","","","false","","","","","","","","","","3080.7999999821186","","null","","null","null","arrowright","1","null","null","","",""
"sailing-instructions","11","96507","0.0-5.0-0.0-2.0","","","","","","","","","","","","","","null","null","null","null","0","null","","","","","","",""
"sailing-trial","12","103201","0.0-5.0-0.0-3.0-0.0","","","","false","","","","","","","","","","null","","2184.300000011921","","2","1","null","null","arrowleft","[1,1,1,1]","","",""
"sailing-trial","13","106451","0.0-5.0-0.0-3.0-1.0","","","","false","","","","","","","","","","null","","446.5","","3","1","null","null","arrowright","[1,1,1,1]","","",""
"sailing-trial","14","110497","0.0-5.0-0.0-3.0-2.0","","","","false","","","","","","","","","","null","","1398.2999999821186","","2","0","null","null","arrowleft","[0,0,0,0]","","",""
"sailing-instructions","15","118002","0.0-5.0-0.0-4.0","","","","","","","","","","","","","","null","null","null","null","null","null","","","","","","",""
"sailing-comprehension","16","142925","0.0-5.0-0.0-5.0","","","","","","","","","","17903.600000023842","","","","","","","","","","","","","","[""true"",""false"",""false"",""true""]","1",""
"sailing-instructions","17","172069","0.0-5.0-0.1-0.1","","","","","","","","","","","","","","null","null","null","null","null","null","","","","","","",""
"sailing-trial","18","176554","0.0-5.0-0.1-1.1-0.1","","","","false","","","","","","","","","","3363.699999988079","","null","","null","null","arrowleft","0","null","null","","",""
"sailing-trial","19","177885","0.0-5.0-0.1-1.1-1.1","","","","false","","","","","","","","","","195.19999998807907","","null","","null","null","arrowright","1","null","null","","",""
"sailing-trial","20","179502","0.0-5.0-0.1-1.1-2.1","","","","false","","","","","","","","","","501","","null","","null","null","arrowleft","0","null","null","","",""
"sailing-instructions","21","218218","0.0-5.0-0.1-2.1","","","","","","","","","","","","","","null","null","null","null","0","null","","","","","","",""
"sailing-trial","22","222008","0.0-5.0-0.1-3.1-0.1","","","","false","","","","","","","","","","null","","1438.199999988079","","2","1","null","null","arrowleft","[1,1,1,1]","","",""
"sailing-trial","23","225590","0.0-5.0-0.1-3.1-1.1","","","","false","","","","","","","","","","null","","130.69999998807907","","3","1","null","null","arrowright","[1,1,1,1]","","",""
"sailing-trial","24","228058","0.0-5.0-0.1-3.1-2.1","","","","false","","","","","","","","","","null","","87.69999998807907","","3","0","null","null","arrowright","[0,0,0,0]","","",""
"sailing-instructions","25","235361","0.0-5.0-0.1-4.1","","","","","","","","","","","","","","null","null","null","null","null","null","","","","","","",""
"sailing-comprehension","26","247230","0.0-5.0-0.1-5.1","","","","","","","","","","7749.5999999940395","","","","","","","","","","","","","","[""true"",""true"",""false"",""true""]","0",""
"sailing-instructions","27","307069","0.0-6.0-0.0-0.0","","","","","","","","","","","","","","null","null","null","null","null","null","","","","","","",""
"sailing-comprehension","28","320842","0.0-6.0-0.0-1.0","","","","","","","","","","11886.199999988079","","","","","","","","","","","","","","[""true"",""false"",""true""]","0",""
"sailing-instructions","29","333739","0.0-7.0-0.0-0.0","","","","","","","","","","","","","","null","null","null","null","null","null","","","","","","",""
"sailing-trial","30","338861","0.0-7.0-0.0-1.0-0.0","","","","false","","","","","","","","","","null","","2155.0999999940395","","0","1","null","null","arrowup","[0.2,0.8,0.2,0.8]","","",""
"sailing-trial","31","342159","0.0-7.0-0.0-1.0-1.0","","","","false","","","","","","","","","","null","","1312.699999988079","","1","1","null","null","arrowup","[0.2,0.8,0.2,0.8]","","",""
"sailing-trial","32","345340","0.0-7.0-0.0-1.0-2.0","","","","false","","","","","","","","","","null","","936.5","","2","0","null","null","arrowup","[0.2,0.8,0.2,0.8]","","",""
"sailing-trial","33","347651","0.0-7.0-0.0-1.0-3.0","","","","false","","","","","","","","","","null","","911.4000000059605","","3","0","null","null","arrowup","[0.2,0.8,0.2,0.8]","","",""
"sailing-comprehension","34","353764","0.0-7.0-0.0-2.0","","","","","","","","","","4242.299999982119","","","","","","","","","","","","","","[""false""]","0",""
"sailing-instructions","35","363888","0.0-8.0-0.0-0.0","","","","","","","","","","","","","","null","null","null","null","null","null","","","","","","",""
"sailing-comprehension","36","368086","0.0-8.0-0.0-1.0","","","","","","","","","","3018.800000011921","","","","","","","","","","","","","","[""true""]","0",""
"sailing-instructions","37","398352","0.0-9.0-0.0-0.0","","","","","","","","","","","","","","null","null","null","null","null","null","","","","","","",""
"sailing-trial","38","404668","0.0-9.0-0.0-1.0-0.0","","","","false","","","","","","","","","","1853.5","","909.6999999880791","","3","0","arrowright","1","arrowright","[0.2,0.8,0.2,0.8]","","",""
"sailing-trial","39","409414","0.0-9.0-0.0-1.0-1.0","","","","false","","","","","","","","","","1075.7000000178814","","21.19999998807907","","1","1","arrowleft","0","arrowright","[0.2,0.8,0.2,0.8]","","",""
"sailing-trial","40","413660","0.0-9.0-0.0-1.0-2.0","","","","false","","","","","","","","","","null","","1764.8999999761581","","0","1","null","null","arrowup","[0.2,0.8,0.2,0.8]","","",""
"sailing-trial","41","418954","0.0-9.0-0.0-1.0-3.0","","","","false","","","","","","","","","","1268.4000000059605","","643.9000000059605","","2","0","arrowright","1","arrowleft","[0.2,0.8,0.2,0.8]","","",""
"sailing-trial","42","422737","0.0-9.0-0.0-1.0-4.0","","","","false","","","","","","","","","","null","","1354.5999999940395","","3","1","null","null","arrowup","[0.2,0.8,0.2,0.8]","","",""
"sailing-trial","43","430699","0.0-9.0-0.0-1.0-5.0","","","","false","","","","","","","","","","1581.5","","670.9000000059605","","3","1","arrowright","1","arrowright","[0.2,0.8,0.2,0.8]","","",""
"sailing-instructions","44","523756","0.0-10.0","","","","","","","","","","","","","","null","null","null","null","null","null","","","","","","",""
"sailing-trial","45","530038","0.0-11.0-0.0","","","","false","","","","","","","","","","1930.9000000059605","","11.599999994039536","","3","0","arrowright","1","arrowright","[0.325,0.675,0.15,0.85]","","",""
"sailing-trial","46","533897","0.0-11.0-1.0","","","","false","","","","","","","","","","null","","1459","","3","1","null","null","arrowup","[0.325,0.675,0.15,0.85]","","",""
"sailing-trial","47","538661","0.0-11.0-2.0","","","","false","","","","","","","","","","970.6999999880791","","512.8000000119209","","1","1","arrowleft","0","arrowright","[0.325,0.675,0.15,0.85]","","",""
"sailing-trial","48","541757","0.0-11.0-3.0","","","","false","","","","","","","","","","null","","1087.9000000059605","","3","1","null","null","arrowup","[0.325,0.675,0.15,0.85]","","",""
"sailing-trial","49","545465","0.0-11.0-4.0","","","","false","","","","","","","","","","862.4000000059605","","788","","2","0","arrowright","1","arrowleft","[0.325,0.675,0.15,0.85]","","",""
"sailing-trial","50","547773","0.0-11.0-5.0","","","","false","","","","","","","","","","null","","1115.3999999761581","","1","0","null","null","arrowup","[0.325,0.675,0.15,0.85]","","",""
"sailing-trial","51","551785","0.0-11.0-6.0","","","","false","","","","","","","","","","535.8000000119209","","570.0999999940395","","3","1","arrowright","1","arrowright","[0.325,0.675,0.15,0.85]","","",""
"sailing-trial","52","555115","0.0-11.0-7.0","","","","false","","","","","","","","","","null","","1220.0999999940395","","0","1","null","null","arrowup","[0.325,0.675,0.15,0.85]","","",""
"sailing-trial","53","559578","0.0-11.0-8.0","","","","false","","","","","","","","","","585.1999999880791","","806","","3","1","arrowright","1","arrowright","[0.325,0.675,0.15,0.85]","","",""
"sailing-trial","54","562559","0.0-11.0-9.0","","","","false","","","","","","","","","","null","","1069.7000000178814","","1","1","null","null","arrowup","[0.325,0.675,0.15,0.85]","","",""
"sailing-trial","55","567091","0.0-11.0-10.0","","","","false","","","","","","","","","","1110","","513.3000000119209","","3","1","arrowright","1","arrowright","[0.325,0.675,0.15,0.85]","","",""
"sailing-trial","56","570938","0.0-11.0-11.0","","","","false","","","","","","","","","","null","","1310.9000000059605","","3","1","null","null","arrowup","[0.325,0.675,0.15,0.85]","","",""
"sailing-trial","57","577189","0.0-11.0-12.0","","","","false","","","","","","","","","","1559","","619.1999999880791","","3","0","arrowright","1","arrowright","[0.325,0.675,0.15,0.85]","","",""
"sailing-trial","58","581404","0.0-11.0-13.0","","","","false","","","","","","","","","","null","","1190","","1","0","null","null","arrowup","[0.325,0.675,0.15,0.85]","","",""
"sailing-trial","59","586605","0.0-11.0-14.0","","","","false","","","","","","","","","","1021.7000000178814","","433","","0","0","arrowleft","0","arrowleft","[0.325,0.675,0.15,0.85]","","",""
"sailing-trial","60","590543","0.0-11.0-15.0","","","","false","","","","","","","","","","null","","922.6999999880791","","0","0","null","null","arrowup","[0.325,0.675,0.15,0.85]","","",""
"sailing-trial","61","596376","0.0-11.0-16.0","","","","false","","","","","","","","","","1566.2000000178814","","243","","3","0","arrowright","1","arrowright","[0.15,0.85,0.325,0.675]","","",""
"sailing-trial","62","602235","0.0-11.0-17.0","","","","false","","","","","","","","","","null","","982.3000000119209","","1","1","null","null","arrowup","[0.15,0.85,0.325,0.675]","","",""
"sailing-trial","63","606432","0.0-11.0-18.0","","","","false","","","","","","","","","","463.40000000596046","","389.80000001192093","","1","1","arrowleft","0","arrowright","[0.15,0.85,0.325,0.675]","","",""
"sailing-trial","64","610567","0.0-11.0-19.0","","","","false","","","","","","","","","","null","","1112.4000000059605","","2","0","null","null","arrowup","[0.15,0.85,0.325,0.675]","","",""
"sailing-trial","65","617958","0.0-11.0-20.0","","","","false","","","","","","","","","","728.0999999940395","","721","","1","1","arrowleft","0","arrowright","[0.15,0.85,0.325,0.675]","","",""
"sailing-trial","66","622326","0.0-11.0-21.0","","","","false","","","","","","","","","","null","","1322.9000000059605","","3","0","null","null","arrowup","[0.15,0.85,0.325,0.675]","","",""
"sailing-trial","67","627754","0.0-11.0-22.0","","","","false","","","","","","","","","","1349.0999999940395","","54.900000005960464","","2","0","arrowright","1","arrowleft","[0.15,0.85,0.325,0.675]","","",""
"sailing-trial","68","631565","0.0-11.0-23.0","","","","false","","","","","","","","","","null","","1304","","2","0","null","null","arrowup","[0.15,0.85,0.325,0.675]","","",""
"sailing-trial","69","636445","0.0-11.0-24.0","","","","false","","","","","","","","","","1070.9000000059605","","430.7000000178814","","1","1","arrowleft","0","arrowright","[0.15,0.85,0.325,0.675]","","",""
"sailing-trial","70","640714","0.0-11.0-25.0","","","","false","","","","","","","","","","null","","1268.5","","2","0","null","null","arrowup","[0.15,0.85,0.325,0.675]","","",""
"sailing-trial","71","645523","0.0-11.0-26.0","","","","false","","","","","","","","","","675","","1238.4000000059605","","1","1","arrowleft","0","arrowright","[0.15,0.85,0.325,0.675]","","",""
"sailing-trial","72","648634","0.0-11.0-27.0","","","","false","","","","","","","","","","null","","1200.5999999940395","","1","1","null","null","arrowup","[0.15,0.85,0.325,0.675]","","",""
"sailing-trial","73","653200","0.0-11.0-28.0","","","","false","","","","","","","","","","806.5999999940395","","1425.4000000059605","","1","0","arrowleft","0","arrowright","[0.15,0.85,0.325,0.675]","","",""
"sailing-trial","74","656643","0.0-11.0-29.0","","","","false","","","","","","","","","","null","","1262.7999999821186","","2","0","null","null","arrowup","[0.15,0.85,0.325,0.675]","","",""
"sailing-trial","75","660722","0.0-11.0-30.0","","","","false","","","","","","","","","","893.6999999880791","","579.0999999940395","","3","0","arrowright","1","arrowright","[0.15,0.85,0.325,0.675]","","",""
"sailing-trial","76","664376","0.0-11.0-31.0","","","","false","","","","","","","","","","null","","1545.4000000059605","","1","1","null","null","arrowup","[0.15,0.85,0.325,0.675]","","",""
"sailing-trial","77","668773","0.0-11.0-32.0","","","","false","","","","","","","","","","1020.0999999940395","","451.59999999403954","","1","1","arrowleft","0","arrowright","[0.325,0.675,0.15,0.85]","","",""
"sailing-trial","78","673520","0.0-11.0-33.0","","","","false","","","","","","","","","","null","","2435.4000000059605","","3","1","null","null","arrowup","[0.325,0.675,0.15,0.85]","","",""
"sailing-trial","79","678349","0.0-11.0-34.0","","","","false","","","","","","","","","","922.8000000119209","","411.10000002384186","","1","1","arrowleft","0","arrowright","[0.325,0.675,0.15,0.85]","","",""
"sailing-trial","80","681974","0.0-11.0-35.0","","","","false","","","","","","","","","","null","","1573.699999988079","","2","0","null","null","arrowup","[0.325,0.675,0.15,0.85]","","",""
"sailing-trial","81","686260","0.0-11.0-36.0","","","","false","","","","","","","","","","759.0999999940395","","548.2999999821186","","1","1","arrowleft","0","arrowright","[0.325,0.675,0.15,0.85]","","",""
"sailing-trial","82","690628","0.0-11.0-37.0","","","","false","","","","","","","","","","null","","2609.2000000178814","","1","0","null","null","arrowup","[0.325,0.675,0.15,0.85]","","",""
"sailing-trial","83","695588","0.0-11.0-38.0","","","","false","","","","","","","","","","1521.9000000059605","","366","","3","1","arrowright","1","arrowright","[0.325,0.675,0.15,0.85]","","",""
"sailing-trial","84","699807","0.0-11.0-39.0","","","","false","","","","","","","","","","null","","1208.5","","0","0","null","null","arrowup","[0.325,0.675,0.15,0.85]","","",""
"sailing-trial","85","705017","0.0-11.0-40.0","","","","false","","","","","","","","","","1082.4000000059605","","762.7999999821186","","3","1","arrowright","1","arrowright","[0.325,0.675,0.15,0.85]","","",""
"sailing-trial","86","708105","0.0-11.0-41.0","","","","false","","","","","","","","","","null","","1267.7999999821186","","1","0","null","null","arrowup","[0.325,0.675,0.15,0.85]","","",""
"sailing-trial","87","712543","0.0-11.0-42.0","","","","false","","","","","","","","","","1135.2000000178814","","83.69999998807907","","3","1","arrowright","1","arrowright","[0.325,0.675,0.15,0.85]","","",""
"sailing-trial","88","716490","0.0-11.0-43.0","","","","false","","","","","","","","","","null","","1711.300000011921","","1","1","null","null","arrowup","[0.325,0.675,0.15,0.85]","","",""
"sailing-trial","89","722926","0.0-11.0-44.0","","","","false","","","","","","","","","","986.2000000178814","","1418.9000000059605","","3","0","arrowright","1","arrowright","[0.325,0.675,0.15,0.85]","","",""
"sailing-trial","90","726436","0.0-11.0-45.0","","","","false","","","","","","","","","","null","","1550.0999999940395","","3","1","null","null","arrowup","[0.325,0.675,0.15,0.85]","","",""
"sailing-trial","91","730566","0.0-11.0-46.0","","","","false","","","","","","","","","","813.5999999940395","","436.5","","3","1","arrowright","1","arrowright","[0.325,0.675,0.15,0.85]","","",""
"sailing-trial","92","734487","0.0-11.0-47.0","","","","false","","","","","","","","","","null","","1738","","0","0","null","null","arrowup","[0.325,0.675,0.15,0.85]","","",""
"sailing-trial","93","738644","0.0-11.0-48.0","","","","false","","","","","","","","","","621.9000000059605","","231.59999999403954","","1","1","arrowleft","0","arrowright","[0.325,0.675,0.15,0.85]","","",""
"sailing-trial","94","742090","0.0-11.0-49.0","","","","false","","","","","","","","","","null","","1019","","1","1","null","null","arrowup","[0.325,0.675,0.15,0.85]","","",""
"sailing-trial","95","746420","0.0-11.0-50.0","","","","false","","","","","","","","","","1048.7999999821186","","235.59999999403954","","1","1","arrowleft","0","arrowright","[0.325,0.675,0.15,0.85]","","",""
"sailing-trial","96","749453","0.0-11.0-51.0","","","","false","","","","","","","","","","null","","585.3999999761581","","3","1","null","null","arrowup","[0.325,0.675,0.15,0.85]","","",""
"sailing-trial","97","753134","0.0-11.0-52.0","","","","false","","","","","","","","","","574.7999999821186","","148.2999999821186","","3","1","arrowright","1","arrowright","[0.15,0.85,0.325,0.675]","","",""
"sailing-trial","98","756312","0.0-11.0-53.0","","","","false","","","","","","","","","","null","","1016.6000000238419","","0","1","null","null","arrowup","[0.15,0.85,0.325,0.675]","","",""
"sailing-trial","99","760795","0.0-11.0-54.0","","","","false","","","","","","","","","","581.8000000119209","","605.7999999821186","","1","1","arrowleft","0","arrowright","[0.15,0.85,0.325,0.675]","","",""
"sailing-trial","100","767707","0.0-11.0-55.0","","","","false","","","","","","","","","","null","","4330.199999988079","","1","1","null","null","arrowup","[0.15,0.85,0.325,0.675]","","",""
"sailing-trial","101","773666","0.0-11.0-56.0","","","","false","","","","","","","","","","1376.4000000059605","","995.2000000178814","","2","0","arrowright","1","arrowleft","[0.15,0.85,0.325,0.675]","","",""
"sailing-trial","102","778344","0.0-11.0-57.0","","","","false","","","","","","","","","","null","","1885.0999999940395","","0","0","null","null","arrowup","[0.15,0.85,0.325,0.675]","","",""
"sailing-trial","103","783013","0.0-11.0-58.0","","","","false","","","","","","","","","","1064.3999999761581","","697.1999999880791","","3","1","arrowright","1","arrowright","[0.15,0.85,0.325,0.675]","","",""
"sailing-trial","104","785704","0.0-11.0-59.0","","","","false","","","","","","","","","","null","","1142.300000011921","","0","0","null","null","arrowup","[0.15,0.85,0.325,0.675]","","",""
"sailing-trial","105","790280","0.0-11.0-60.0","","","","false","","","","","","","","","","942","","401","","1","0","arrowleft","0","arrowright","[0.15,0.85,0.325,0.675]","","",""
"sailing-trial","106","793103","0.0-11.0-61.0","","","","false","","","","","","","","","","null","","1170.5","","2","0","null","null","arrowup","[0.15,0.85,0.325,0.675]","","",""
"sailing-trial","107","798070","0.0-11.0-62.0","","","","false","","","","","","","","","","1715.5","","383.09999999403954","","3","1","arrowright","1","arrowright","[0.15,0.85,0.325,0.675]","","",""
"sailing-trial","108","802089","0.0-11.0-63.0","","","","false","","","","","","","","","","null","","1004.1000000238419","","2","0","null","null","arrowup","[0.15,0.85,0.325,0.675]","","",""
"sailing-trial","109","806465","0.0-11.0-64.0","","","","false","","","","","","","","","","913.7000000178814","","551.2999999821186","","1","1","arrowleft","0","arrowright","[0.15,0.85,0.325,0.675]","","",""
"sailing-trial","110","809713","0.0-11.0-65.0","","","","false","","","","","","","","","","null","","1175.300000011921","","3","1","null","null","arrowup","[0.15,0.85,0.325,0.675]","","",""
"sailing-trial","111","814014","0.0-11.0-66.0","","","","false","","","","","","","","","","1255.800000011921","","161.40000000596046","","0","0","arrowleft","0","arrowleft","[0.15,0.85,0.325,0.675]","","",""
"sailing-trial","112","817474","0.0-11.0-67.0","","","","false","","","","","","","","","","null","","1520.9000000059605","","1","1","null","null","arrowup","[0.15,0.85,0.325,0.675]","","",""
"sailing-trial","113","823006","0.0-11.0-68.0","","","","false","","","","","","","","","","1033.5999999940395","","474.90000000596046","","3","0","arrowright","1","arrowright","[0.15,0.85,0.325,0.675]","","",""
"sailing-trial","114","827202","0.0-11.0-69.0","","","","false","","","","","","","","","","null","","2001.8999999761581","","3","1","null","null","arrowup","[0.15,0.85,0.325,0.675]","","",""
"sailing-trial","115","832931","0.0-11.0-70.0","","","","false","","","","","","","","","","2803.199999988079","","29.400000005960464","","1","1","arrowleft","0","arrowright","[0.325,0.675,0.15,0.85]","","",""
"sailing-trial","116","835727","0.0-11.0-71.0","","","","false","","","","","","","","","","null","","1020.6999999880791","","3","1","null","null","arrowup","[0.325,0.675,0.15,0.85]","","",""
"sailing-trial","117","839993","0.0-11.0-72.0","","","","false","","","","","","","","","","886.5999999940395","","299.39999997615814","","1","1","arrowleft","0","arrowright","[0.325,0.675,0.15,0.85]","","",""
"sailing-trial","118","842724","0.0-11.0-73.0","","","","false","","","","","","","","","","null","","1034","","1","1","null","null","arrowup","[0.325,0.675,0.15,0.85]","","",""
"sailing-trial","119","848602","0.0-11.0-74.0","","","","false","","","","","","","","","","1635.5999999940395","","382.89999997615814","","1","1","arrowleft","0","arrowright","[0.325,0.675,0.15,0.85]","","",""
"sailing-trial","120","851995","0.0-11.0-75.0","","","","false","","","","","","","","","","null","","1452.800000011921","","2","0","null","null","arrowup","[0.325,0.675,0.15,0.85]","","",""
"sailing-trial","121","856632","0.0-11.0-76.0","","","","false","","","","","","","","","","784.1000000238419","","678.6000000238419","","1","1","arrowleft","0","arrowright","[0.325,0.675,0.15,0.85]","","",""
"sailing-trial","122","860495","0.0-11.0-77.0","","","","false","","","","","","","","","","null","","1651.7000000178814","","1","1","null","null","arrowup","[0.325,0.675,0.15,0.85]","","",""
"sailing-trial","123","864941","0.0-11.0-78.0","","","","false","","","","","","","","","","667.9000000059605","","295.7999999821186","","1","0","arrowleft","0","arrowright","[0.325,0.675,0.15,0.85]","","",""
"sailing-trial","124","867646","0.0-11.0-79.0","","","","false","","","","","","","","","","null","","1313","","2","0","null","null","arrowup","[0.325,0.675,0.15,0.85]","","",""
"sailing-trial","125","872120","0.0-11.0-80.0","","","","false","","","","","","","","","","621.3999999761581","","676.2000000178814","","3","1","arrowright","1","arrowright","[0.325,0.675,0.15,0.85]","","",""
"sailing-trial","126","874887","0.0-11.0-81.0","","","","false","","","","","","","","","","null","","1133.4000000059605","","1","0","null","null","arrowup","[0.325,0.675,0.15,0.85]","","",""
"sailing-trial","127","879016","0.0-11.0-82.0","","","","false","","","","","","","","","","736.6999999880791","","434.5","","3","1","arrowright","1","arrowright","[0.325,0.675,0.15,0.85]","","",""
"sailing-trial","128","882348","0.0-11.0-83.0","","","","false","","","","","","","","","","null","","1315.300000011921","","3","1","null","null","arrowup","[0.325,0.675,0.15,0.85]","","",""
"sailing-trial","129","885861","0.0-11.0-84.0","","","","false","","","","","","","","","","563.7999999821186","","146.69999998807907","","3","1","arrowright","1","arrowright","[0.325,0.675,0.15,0.85]","","",""
"sailing-trial","130","888007","0.0-11.0-85.0","","","","false","","","","","","","","","","null","","532.6999999880791","","3","0","null","null","arrowup","[0.325,0.675,0.15,0.85]","","",""
"sailing-trial","131","892607","0.0-11.0-86.0","","","","false","","","","","","","","","","776.6000000238419","","877.5999999940395","","3","1","arrowright","1","arrowright","[0.325,0.675,0.15,0.85]","","",""
"sailing-trial","132","895472","0.0-11.0-87.0","","","","false","","","","","","","","","","null","","1015","","3","1","null","null","arrowup","[0.325,0.675,0.15,0.85]","","",""
"sailing-trial","133","899818","0.0-11.0-88.0","","","","false","","","","","","","","","","965.6999999880791","","22.299999982118607","","3","1","arrowright","1","arrowright","[0.325,0.675,0.15,0.85]","","",""
"sailing-trial","134","902998","0.0-11.0-89.0","","","","false","","","","","","","","","","null","","1480.7999999821186","","0","0","null","null","arrowup","[0.325,0.675,0.15,0.85]","","",""
"sailing-trial","135","907963","0.0-11.0-90.0","","","","false","","","","","","","","","","1320.800000011921","","458.39999997615814","","1","1","arrowleft","0","arrowright","[0.15,0.85,0.325,0.675]","","",""
"sailing-trial","136","910654","0.0-11.0-91.0","","","","false","","","","","","","","","","null","","1049.2000000178814","","1","0","null","null","arrowup","[0.15,0.85,0.325,0.675]","","",""
"sailing-trial","137","915808","0.0-11.0-92.0","","","","false","","","","","","","","","","832.7000000178814","","819.2999999821186","","3","0","arrowright","1","arrowright","[0.15,0.85,0.325,0.675]","","",""
"sailing-trial","138","918172","0.0-11.0-93.0","","","","false","","","","","","","","","","null","","1146.5","","0","0","null","null","arrowup","[0.15,0.85,0.325,0.675]","","",""
"sailing-trial","139","923338","0.0-11.0-94.0","","","","false","","","","","","","","","","1243.4000000059605","","764.1999999880791","","3","0","arrowright","1","arrowright","[0.15,0.85,0.325,0.675]","","",""
"sailing-trial","140","926169","0.0-11.0-95.0","","","","false","","","","","","","","","","null","","1128.699999988079","","1","1","null","null","arrowup","[0.15,0.85,0.325,0.675]","","",""
"sailing-trial","141","930216","0.0-11.0-96.0","","","","false","","","","","","","","","","482.90000000596046","","872.2000000178814","","3","1","arrowright","1","arrowright","[0.15,0.85,0.325,0.675]","","",""
"sailing-trial","142","933525","0.0-11.0-97.0","","","","false","","","","","","","","","","null","","1057.9000000059605","","0","0","null","null","arrowup","[0.15,0.85,0.325,0.675]","","",""
"sailing-trial","143","938543","0.0-11.0-98.0","","","","false","","","","","","","","","","1037.0999999940395","","765","","1","1","arrowleft","0","arrowright","[0.15,0.85,0.325,0.675]","","",""
"sailing-trial","144","941958","0.0-11.0-99.0","","","","false","","","","","","","","","","null","","1689.1000000238419","","1","1","null","null","arrowup","[0.15,0.85,0.325,0.675]","","",""
"sailing-trial","145","946488","0.0-11.0-100.0","","","","false","","","","","","","","","","1064.7000000178814","","719.3000000119209","","3","1","arrowright","1","arrowright","[0.15,0.85,0.325,0.675]","","",""
"sailing-trial","146","949420","0.0-11.0-101.0","","","","false","","","","","","","","","","null","","1350.6000000238419","","3","1","null","null","arrowup","[0.15,0.85,0.325,0.675]","","",""
"sailing-trial","147","954015","0.0-11.0-102.0","","","","false","","","","","","","","","","1185.800000011921","","345.90000000596046","","3","1","arrowright","1","arrowright","[0.15,0.85,0.325,0.675]","","",""
"sailing-trial","148","958497","0.0-11.0-103.0","","","","false","","","","","","","","","","null","","2321.899999976158","","1","1","null","null","arrowup","[0.15,0.85,0.325,0.675]","","",""
"sailing-trial","149","963160","0.0-11.0-104.0","","","","false","","","","","","","","","","732.5","","589.8000000119209","","3","1","arrowright","1","arrowright","[0.15,0.85,0.325,0.675]","","",""
"sailing-trial","150","966526","0.0-11.0-105.0","","","","false","","","","","","","","","","null","","1519.699999988079","","1","0","null","null","arrowup","[0.15,0.85,0.325,0.675]","","",""
"sailing-trial","151","971495","0.0-11.0-106.0","","","","false","","","","","","","","","","872.7999999821186","","790.9000000059605","","3","0","arrowright","1","arrowright","[0.15,0.85,0.325,0.675]","","",""
"sailing-trial","152","975268","0.0-11.0-107.0","","","","false","","","","","","","","","","null","","1939.800000011921","","3","1","null","null","arrowup","[0.15,0.85,0.325,0.675]","","",""
"sailing-trial","153","979482","0.0-11.0-108.0","","","","false","","","","","","","","","","868.0999999940395","","193.40000000596046","","1","1","arrowleft","0","arrowright","[0.15,0.85,0.325,0.675]","","",""
"sailing-trial","154","983952","0.0-11.0-109.0","","","","false","","","","","","","","","","null","","1889","","2","0","null","null","arrowup","[0.15,0.85,0.325,0.675]","","",""
"sailing-trial","155","989348","0.0-11.0-110.0","","","","false","","","","","","","","","","1065.9000000059605","","326.5","","3","0","arrowright","1","arrowright","[0.15,0.85,0.325,0.675]","","",""
"sailing-trial","156","994405","0.0-11.0-111.0","","","","false","","","","","","","","","","null","","1480","","1","1","null","null","arrowup","[0.15,0.85,0.325,0.675]","","",""
"sailing-trial","157","1000217","0.0-11.0-112.0","","","","false","","","","","","","","","","1672.5","","837.9000000059605","","3","1","arrowright","1","arrowright","[0.675,0.325,0.85,0.15]","","",""
"sailing-trial","158","1004198","0.0-11.0-113.0","","","","false","","","","","","","","","","null","","1872.2999999821186","","2","1","null","null","arrowup","[0.675,0.325,0.85,0.15]","","",""
"sailing-trial","159","1011292","0.0-11.0-114.0","","","","false","","","","","","","","","","2780","","507.59999999403954","","3","0","arrowright","1","arrowright","[0.675,0.325,0.85,0.15]","","",""
"sailing-trial","160","1016658","0.0-11.0-115.0","","","","false","","","","","","","","","","null","","3143.0999999940395","","2","1","null","null","arrowup","[0.675,0.325,0.85,0.15]","","",""
"sailing-trial","161","1022388","0.0-11.0-116.0","","","","false","","","","","","","","","","2079.9000000059605","","452.19999998807907","","1","0","arrowleft","0","arrowright","[0.675,0.325,0.85,0.15]","","",""
"sailing-trial","162","1025305","0.0-11.0-117.0","","","","false","","","","","","","","","","null","","1239.3999999761581","","3","0","null","null","arrowup","[0.675,0.325,0.85,0.15]","","",""
"sailing-trial","163","1029348","0.0-11.0-118.0","","","","false","","","","","","","","","","824","","452.09999999403954","","2","1","arrowright","1","arrowleft","[0.675,0.325,0.85,0.15]","","",""
"sailing-trial","164","1032196","0.0-11.0-119.0","","","","false","","","","","","","","","","null","","1065.2000000178814","","2","1","null","null","arrowup","[0.675,0.325,0.85,0.15]","","",""
"sailing-trial","165","1037304","0.0-11.0-120.0","","","","false","","","","","","","","","","1593.199999988079","","550.8000000119209","","0","0","arrowleft","0","arrowleft","[0.675,0.325,0.85,0.15]","","",""
"sailing-trial","166","1040037","0.0-11.0-121.0","","","","false","","","","","","","","","","null","","1273.699999988079","","1","0","null","null","arrowup","[0.675,0.325,0.85,0.15]","","",""
"sailing-trial","167","1044672","0.0-11.0-122.0","","","","false","","","","","","","","","","864.5","","573.9000000059605","","2","1","arrowright","1","arrowleft","[0.675,0.325,0.85,0.15]","","",""
"sailing-trial","168","1047184","0.0-11.0-123.0","","","","false","","","","","","","","","","null","","1041.5","","1","0","null","null","arrowup","[0.675,0.325,0.85,0.15]","","",""
"sailing-trial","169","1050919","0.0-11.0-124.0","","","","false","","","","","","","","","","601.1999999880791","","252.19999998807907","","2","1","arrowright","1","arrowleft","[0.675,0.325,0.85,0.15]","","",""
"sailing-trial","170","1053831","0.0-11.0-125.0","","","","false","","","","","","","","","","null","","1076.5","","1","0","null","null","arrowup","[0.675,0.325,0.85,0.15]","","",""
"sailing-trial","171","1058729","0.0-11.0-126.0","","","","false","","","","","","","","","","607.1999999880791","","128.09999999403954","","2","1","arrowright","1","arrowleft","[0.675,0.325,0.85,0.15]","","",""
"sailing-trial","172","1062077","0.0-11.0-127.0","","","","false","","","","","","","","","","null","","1058.2999999821186","","1","1","null","null","arrowup","[0.675,0.325,0.85,0.15]","","",""
"sailing-trial","173","1066241","0.0-11.0-128.0","","","","false","","","","","","","","","","680.4000000059605","","82.39999997615814","","2","1","arrowright","1","arrowleft","[0.85,0.15,0.675,0.325]","","",""
"sailing-trial","174","1069357","0.0-11.0-129.0","","","","false","","","","","","","","","","null","","1216.7999999821186","","0","1","null","null","arrowup","[0.85,0.15,0.675,0.325]","","",""
"sailing-trial","175","1072904","0.0-11.0-130.0","","","","false","","","","","","","","","","628.9000000059605","","215.59999999403954","","2","1","arrowright","1","arrowleft","[0.85,0.15,0.675,0.325]","","",""
"sailing-trial","176","1076282","0.0-11.0-131.0","","","","false","","","","","","","","","","null","","1099.5","","2","1","null","null","arrowup","[0.85,0.15,0.675,0.325]","","",""
"sailing-trial","177","1079565","0.0-11.0-132.0","","","","false","","","","","","","","","","690.7999999821186","","265.7000000178814","","2","0","arrowright","1","arrowleft","[0.85,0.15,0.675,0.325]","","",""
"sailing-trial","178","1083447","0.0-11.0-133.0","","","","false","","","","","","","","","","null","","1109.5999999940395","","2","1","null","null","arrowup","[0.85,0.15,0.675,0.325]","","",""
"sailing-trial","179","1087492","0.0-11.0-134.0","","","","false","","","","","","","","","","801.7999999821186","","311.19999998807907","","2","1","arrowright","1","arrowleft","[0.85,0.15,0.675,0.325]","","",""
"sailing-trial","180","1090784","0.0-11.0-135.0","","","","false","","","","","","","","","","null","","1336.0999999940395","","1","0","null","null","arrowup","[0.85,0.15,0.675,0.325]","","",""
"sailing-trial","181","1096771","0.0-11.0-136.0","","","","false","","","","","","","","","","1930.2999999821186","","264.80000001192093","","2","1","arrowright","1","arrowleft","[0.85,0.15,0.675,0.325]","","",""
"sailing-trial","182","1100884","0.0-11.0-137.0","","","","false","","","","","","","","","","null","","1644.4000000059605","","3","1","null","null","arrowup","[0.85,0.15,0.675,0.325]","","",""
"sailing-trial","183","1105668","0.0-11.0-138.0","","","","false","","","","","","","","","","1225.2000000178814","","485.69999998807907","","2","0","arrowright","1","arrowleft","[0.85,0.15,0.675,0.325]","","",""
"sailing-trial","184","1108829","0.0-11.0-139.0","","","","false","","","","","","","","","","null","","1332.7999999821186","","3","1","null","null","arrowup","[0.85,0.15,0.675,0.325]","","",""
"sailing-trial","185","1113426","0.0-11.0-140.0","","","","false","","","","","","","","","","877.0999999940395","","435.39999997615814","","2","1","arrowright","1","arrowleft","[0.85,0.15,0.675,0.325]","","",""
"sailing-trial","186","1116323","0.0-11.0-141.0","","","","false","","","","","","","","","","null","","1026","","0","1","null","null","arrowup","[0.85,0.15,0.675,0.325]","","",""
"sailing-trial","187","1120106","0.0-11.0-142.0","","","","false","","","","","","","","","","369.40000000596046","","740.1999999880791","","0","1","arrowleft","0","arrowleft","[0.85,0.15,0.675,0.325]","","",""
"sailing-trial","188","1123648","0.0-11.0-143.0","","","","false","","","","","","","","","","null","","1499","","3","0","null","null","arrowup","[0.85,0.15,0.675,0.325]","","",""
"sailing-trial","189","1127666","0.0-11.0-144.0","","","","false","","","","","","","","","","800.9000000059605","","377","","0","1","arrowleft","0","arrowleft","[0.85,0.15,0.675,0.325]","","",""
"sailing-trial","190","1130292","0.0-11.0-145.0","","","","false","","","","","","","","","","null","","1273","","2","0","null","null","arrowup","[0.85,0.15,0.675,0.325]","","",""
"sailing-trial","191","1134496","0.0-11.0-146.0","","","","false","","","","","","","","","","821.3000000119209","","527.9000000059605","","0","1","arrowleft","0","arrowleft","[0.85,0.15,0.675,0.325]","","",""
"sailing-trial","192","1137895","0.0-11.0-147.0","","","","false","","","","","","","","","","null","","1582.9000000059605","","3","1","null","null","arrowup","[0.85,0.15,0.675,0.325]","","",""
"sailing-trial","193","1140939","0.0-11.0-148.0","","","","false","","","","","","","","","","568.3000000119209","","163","","0","0","arrowleft","0","arrowleft","[0.85,0.15,0.675,0.325]","","",""
"sailing-trial","194","1144556","0.0-11.0-149.0","","","","false","","","","","","","","","","null","","1550.5","","0","1","null","null","arrowup","[0.85,0.15,0.675,0.325]","","",""
"sailing-trial","195","1149160","0.0-11.0-150.0","","","","false","","","","","","","","","","480.7999999821186","","723.7000000178814","","0","0","arrowleft","0","arrowleft","[0.15,0.85,0.325,0.675]","","",""
"sailing-trial","196","1151607","0.0-11.0-151.0","","","","false","","","","","","","","","","null","","952.3000000119209","","2","0","null","null","arrowup","[0.15,0.85,0.325,0.675]","","",""
"sailing-trial","197","1155821","0.0-11.0-152.0","","","","false","","","","","","","","","","1207.5999999940395","","198.30000001192093","","3","0","arrowright","1","arrowright","[0.15,0.85,0.325,0.675]","","",""
"sailing-trial","198","1159878","0.0-11.0-153.0","","","","false","","","","","","","","","","null","","2335.9000000059605","","3","1","null","null","arrowup","[0.15,0.85,0.325,0.675]","","",""
"sailing-trial","199","1165610","0.0-11.0-154.0","","","","false","","","","","","","","","","893.2000000178814","","1679.5","","3","1","arrowright","1","arrowright","[0.15,0.85,0.325,0.675]","","",""
"sailing-trial","200","1169556","0.0-11.0-155.0","","","","false","","","","","","","","","","null","","1888.2999999821186","","3","1","null","null","arrowup","[0.15,0.85,0.325,0.675]","","",""
"sailing-trial","201","1174284","0.0-11.0-156.0","","","","false","","","","","","","","","","1690.300000011921","","396.40000000596046","","3","1","arrowright","1","arrowright","[0.15,0.85,0.325,0.675]","","",""
"sailing-trial","202","1177817","0.0-11.0-157.0","","","","false","","","","","","","","","","null","","1599.1000000238419","","3","1","null","null","arrowup","[0.15,0.85,0.325,0.675]","","",""
"sailing-trial","203","1186012","0.0-11.0-158.0","","","","false","","","","","","","","","","1197.300000011921","","4265.4000000059605","","3","1","arrowright","1","arrowright","[0.15,0.85,0.325,0.675]","","",""
"sailing-trial","204","1190379","0.0-11.0-159.0","","","","false","","","","","","","","","","null","","1347.7999999821186","","3","0","null","null","arrowup","[0.15,0.85,0.325,0.675]","","",""
"sailing-trial","205","1195372","0.0-11.0-160.0","","","","false","","","","","","","","","","854","","12.5","","3","1","arrowright","1","arrowright","[0.15,0.85,0.325,0.675]","","",""
"sailing-trial","206","1198287","0.0-11.0-161.0","","","","false","","","","","","","","","","null","","1205","","2","1","null","null","arrowup","[0.15,0.85,0.325,0.675]","","",""
"sailing-trial","207","1203116","0.0-11.0-162.0","","","","false","","","","","","","","","","832.6999999880791","","405.59999999403954","","3","1","arrowright","1","arrowright","[0.15,0.85,0.325,0.675]","","",""
"sailing-trial","208","1206216","0.0-11.0-163.0","","","","false","","","","","","","","","","null","","1767","","0","0","null","null","arrowup","[0.15,0.85,0.325,0.675]","","",""
"sailing-trial","209","1210777","0.0-11.0-164.0","","","","false","","","","","","","","","","942.5999999940395","","619.3000000119209","","1","1","arrowleft","0","arrowright","[0.15,0.85,0.325,0.675]","","",""
"sailing-trial","210","1218287","0.0-11.0-165.0","","","","false","","","","","","","","","","null","","6213","","3","0","null","null","arrowup","[0.15,0.85,0.325,0.675]","","",""
"sailing-trial","211","1223652","0.0-11.0-166.0","","","","false","","","","","","","","","","1376.5","","226.69999998807907","","3","0","arrowright","1","arrowright","[0.325,0.675,0.15,0.85]","","",""
"sailing-trial","212","1227089","0.0-11.0-167.0","","","","false","","","","","","","","","","null","","2113.300000011921","","2","0","null","null","arrowup","[0.325,0.675,0.15,0.85]","","",""
"sailing-trial","213","1232648","0.0-11.0-168.0","","","","false","","","","","","","","","","1753.7999999821186","","285.30000001192093","","3","1","arrowright","1","arrowright","[0.325,0.675,0.15,0.85]","","",""
"sailing-trial","214","1238615","0.0-11.0-169.0","","","","false","","","","","","","","","","null","","2955.800000011921","","2","0","null","null","arrowup","[0.325,0.675,0.15,0.85]","","",""
"sailing-trial","215","1242807","0.0-11.0-170.0","","","","false","","","","","","","","","","984.8000000119209","","3.5","","3","1","arrowright","1","arrowright","[0.325,0.675,0.15,0.85]","","",""
"sailing-trial","216","1245726","0.0-11.0-171.0","","","","false","","","","","","","","","","null","","1602.9000000059605","","1","0","null","null","arrowup","[0.325,0.675,0.15,0.85]","","",""
"sailing-trial","217","1251618","0.0-11.0-172.0","","","","false","","","","","","","","","","987.7999999821186","","298.30000001192093","","3","1","arrowright","1","arrowright","[0.325,0.675,0.15,0.85]","","",""
"sailing-trial","218","1255233","0.0-11.0-173.0","","","","false","","","","","","","","","","null","","1752.3999999761581","","3","1","null","null","arrowup","[0.325,0.675,0.15,0.85]","","",""
"sailing-trial","219","1259678","0.0-11.0-174.0","","","","false","","","","","","","","","","1237.7000000178814","","314.10000002384186","","3","1","arrowright","1","arrowright","[0.325,0.675,0.15,0.85]","","",""
"sailing-trial","220","1264142","0.0-11.0-175.0","","","","false","","","","","","","","","","null","","2138.4000000059605","","3","1","null","null","arrowup","[0.325,0.675,0.15,0.85]","","",""
"sailing-trial","221","1268297","0.0-11.0-176.0","","","","false","","","","","","","","","","702.1999999880791","","383.80000001192093","","3","0","arrowright","1","arrowright","[0.325,0.675,0.15,0.85]","","",""
"sailing-trial","222","1271748","0.0-11.0-177.0","","","","false","","","","","","","","","","null","","1314.5999999940395","","2","0","null","null","arrowup","[0.325,0.675,0.15,0.85]","","",""
"sailing-trial","223","1276801","0.0-11.0-178.0","","","","false","","","","","","","","","","929.3999999761581","","355.69999998807907","","3","1","arrowright","1","arrowright","[0.325,0.675,0.15,0.85]","","",""
"sailing-trial","224","1281714","0.0-11.0-179.0","","","","false","","","","","","","","","","null","","2843.4000000059605","","1","1","null","null","arrowup","[0.325,0.675,0.15,0.85]","","",""
"sailing-trial","225","1288576","0.0-11.0-180.0","","","","false","","","","","","","","","","2668.4000000059605","","570.5","","3","1","arrowright","1","arrowright","[0.325,0.675,0.15,0.85]","","",""
"sailing-trial","226","1291995","0.0-11.0-181.0","","","","false","","","","","","","","","","null","","1526.0999999940395","","2","0","null","null","arrowup","[0.325,0.675,0.15,0.85]","","",""
"sailing-trial","227","1295866","0.0-11.0-182.0","","","","false","","","","","","","","","","837.2999999821186","","644.1999999880791","","3","0","arrowright","1","arrowright","[0.85,0.15,0.675,0.325]","","",""
"sailing-trial","228","1299386","0.0-11.0-183.0","","","","false","","","","","","","","","","null","","1472","","2","1","null","null","arrowup","[0.85,0.15,0.675,0.325]","","",""
"sailing-trial","229","1303820","0.0-11.0-184.0","","","","false","","","","","","","","","","1040.0999999940395","","689.7000000178814","","1","0","arrowleft","0","arrowright","[0.85,0.15,0.675,0.325]","","",""
"sailing-trial","230","1306765","0.0-11.0-185.0","","","","false","","","","","","","","","","null","","1405.800000011921","","0","1","null","null","arrowup","[0.85,0.15,0.675,0.325]","","",""
"sailing-trial","231","1311162","0.0-11.0-186.0","","","","false","","","","","","","","","","1001.9000000059605","","237.30000001192093","","3","1","arrowright","1","arrowright","[0.85,0.15,0.675,0.325]","","",""
"sailing-trial","232","1315093","0.0-11.0-187.0","","","","false","","","","","","","","","","null","","2226.0999999940395","","2","0","null","null","arrowup","[0.85,0.15,0.675,0.325]","","",""
"sailing-trial","233","1318976","0.0-11.0-188.0","","","","false","","","","","","","","","","1403.5999999940395","","455.19999998807907","","3","0","arrowright","1","arrowright","[0.85,0.15,0.675,0.325]","","",""
"sailing-trial","234","1322394","0.0-11.0-189.0","","","","false","","","","","","","","","","null","","2317.9000000059605","","2","0","null","null","arrowup","[0.85,0.15,0.675,0.325]","","",""
"sailing-trial","235","1327634","0.0-11.0-190.0","","","","false","","","","","","","","","","1970.300000011921","","171.19999998807907","","3","1","arrowright","1","arrowright","[0.85,0.15,0.675,0.325]","","",""
"sailing-trial","236","1330681","0.0-11.0-191.0","","","","false","","","","","","","","","","null","","1354","","0","1","null","null","arrowup","[0.85,0.15,0.675,0.325]","","",""
"sailing-trial","237","1333793","0.0-11.0-192.0","","","","false","","","","","","","","","","598.5999999940395","","234.80000001192093","","3","0","arrowright","1","arrowright","[0.85,0.15,0.675,0.325]","","",""
"sailing-trial","238","1339006","0.0-11.0-193.0","","","","false","","","","","","","","","","null","","3780.199999988079","","2","0","null","null","arrowup","[0.85,0.15,0.675,0.325]","","",""
"sailing-trial","239","1343233","0.0-11.0-194.0","","","","false","","","","","","","","","","803.3999999761581","","419.09999999403954","","1","0","arrowleft","0","arrowright","[0.85,0.15,0.675,0.325]","","",""
"sailing-trial","240","1346805","0.0-11.0-195.0","","","","false","","","","","","","","","","null","","1748.5","","0","1","null","null","arrowup","[0.85,0.15,0.675,0.325]","","",""
"sailing-trial","241","1350276","0.0-11.0-196.0","","","","false","","","","","","","","","","1025.8999999761581","","121.19999998807907","","3","0","arrowright","1","arrowright","[0.85,0.15,0.675,0.325]","","",""
"sailing-trial","242","1353448","0.0-11.0-197.0","","","","false","","","","","","","","","","null","","1197.0999999940395","","2","1","null","null","arrowup","[0.85,0.15,0.675,0.325]","","",""
"sailing-trial","243","1360610","0.0-11.0-198.0","","","","false","","","","","","","","","","3962.899999976158","","268.5","","2","1","arrowright","1","arrowleft","[0.675,0.325,0.85,0.15]","","",""
"sailing-trial","244","1363118","0.0-11.0-199.0","","","","false","","","","","","","","","","null","","1250.300000011921","","3","0","null","null","arrowup","[0.675,0.325,0.85,0.15]","","",""
"sailing-trial","245","1368724","0.0-11.0-200.0","","","","false","","","","","","","","","","1955.4000000059605","","361.2000000178814","","2","1","arrowright","1","arrowleft","[0.675,0.325,0.85,0.15]","","",""
"sailing-trial","246","1371433","0.0-11.0-201.0","","","","false","","","","","","","","","","null","","1371.2000000178814","","0","0","null","null","arrowup","[0.675,0.325,0.85,0.15]","","",""
"sailing-trial","247","1376739","0.0-11.0-202.0","","","","false","","","","","","","","","","981.5","","276.40000000596046","","0","0","arrowleft","0","arrowleft","[0.675,0.325,0.85,0.15]","","",""
"sailing-trial","248","1379516","0.0-11.0-203.0","","","","false","","","","","","","","","","null","","939","","2","1","null","null","arrowup","[0.675,0.325,0.85,0.15]","","",""
"sailing-trial","249","1387761","0.0-11.0-204.0","","","","false","","","","","","","","","","3206.5","","1708.7999999821186","","2","1","arrowright","1","arrowleft","[0.675,0.325,0.85,0.15]","","",""
"sailing-trial","250","1392025","0.0-11.0-205.0","","","","false","","","","","","","","","","null","","2490.300000011921","","3","0","null","null","arrowup","[0.675,0.325,0.85,0.15]","","",""
"sailing-trial","251","1397904","0.0-11.0-206.0","","","","false","","","","","","","","","","1215.5","","1772.5","","0","1","arrowleft","0","arrowleft","[0.675,0.325,0.85,0.15]","","",""
"sailing-trial","252","1402848","0.0-11.0-207.0","","","","false","","","","","","","","","","null","","2365.5999999940395","","2","1","null","null","arrowup","[0.675,0.325,0.85,0.15]","","",""
"sailing-trial","253","1408046","0.0-11.0-208.0","","","","false","","","","","","","","","","932.3000000119209","","1033.800000011921","","2","1","arrowright","1","arrowleft","[0.675,0.325,0.85,0.15]","","",""
"sailing-trial","254","1412023","0.0-11.0-209.0","","","","false","","","","","","","","","","null","","1759","","0","0","null","null","arrowup","[0.675,0.325,0.85,0.15]","","",""
"sailing-trial","255","1416839","0.0-11.0-210.0","","","","false","","","","","","","","","","1475.5999999940395","","313.69999998807907","","2","1","arrowright","1","arrowleft","[0.675,0.325,0.85,0.15]","","",""
"sailing-trial","256","1421971","0.0-11.0-211.0","","","","false","","","","","","","","","","null","","2773.9000000059605","","3","1","null","null","arrowup","[0.675,0.325,0.85,0.15]","","",""
"sailing-trial","257","1427216","0.0-11.0-212.0","","","","false","","","","","","","","","","1343.6000000238419","","1059.300000011921","","2","1","arrowright","1","arrowleft","[0.675,0.325,0.85,0.15]","","",""
"sailing-trial","258","1430006","0.0-11.0-213.0","","","","false","","","","","","","","","","null","","1373.0999999940395","","1","0","null","null","arrowup","[0.675,0.325,0.85,0.15]","","",""
"sailing-trial","259","1434039","0.0-11.0-214.0","","","","false","","","","","","","","","","897.5999999940395","","180.80000001192093","","2","0","arrowright","1","arrowleft","[0.15,0.85,0.325,0.675]","","",""
"sailing-trial","260","1437793","0.0-11.0-215.0","","","","false","","","","","","","","","","null","","1858.7999999821186","","1","1","null","null","arrowup","[0.15,0.85,0.325,0.675]","","",""
"sailing-trial","261","1442106","0.0-11.0-216.0","","","","false","","","","","","","","","","1401.4000000059605","","444.7999999821186","","2","0","arrowright","1","arrowleft","[0.15,0.85,0.325,0.675]","","",""
"sailing-trial","262","1445703","0.0-11.0-217.0","","","","false","","","","","","","","","","null","","1697.9000000059605","","1","1","null","null","arrowup","[0.15,0.85,0.325,0.675]","","",""
"sailing-trial","263","1450550","0.0-11.0-218.0","","","","false","","","","","","","","","","901.1999999880791","","491.19999998807907","","1","1","arrowleft","0","arrowright","[0.15,0.85,0.325,0.675]","","",""
"sailing-trial","264","1455330","0.0-11.0-219.0","","","","false","","","","","","","","","","null","","2341.800000011921","","3","1","null","null","arrowup","[0.15,0.85,0.325,0.675]","","",""
"sailing-trial","265","1459729","0.0-11.0-220.0","","","","false","","","","","","","","","","1043.5999999940395","","603.0999999940395","","1","1","arrowleft","0","arrowright","[0.15,0.85,0.325,0.675]","","",""
"sailing-trial","266","1463341","0.0-11.0-221.0","","","","false","","","","","","","","","","null","","1752.7999999821186","","1","1","null","null","arrowup","[0.15,0.85,0.325,0.675]","","",""
"sailing-trial","267","1468206","0.0-11.0-222.0","","","","false","","","","","","","","","","1447.4000000059605","","313.19999998807907","","1","1","arrowleft","0","arrowright","[0.15,0.85,0.325,0.675]","","",""
"sailing-trial","268","1470983","0.0-11.0-223.0","","","","false","","","","","","","","","","null","","1391.2999999821186","","3","0","null","null","arrowup","[0.15,0.85,0.325,0.675]","","",""
"sailing-trial","269","1476267","0.0-11.0-224.0","","","","false","","","","","","","","","","1277.5999999940395","","1010.3000000119209","","1","1","arrowleft","0","arrowright","[0.15,0.85,0.325,0.675]","","",""
"sailing-trial","270","1479875","0.0-11.0-225.0","","","","false","","","","","","","","","","null","","1999.699999988079","","0","0","null","null","arrowup","[0.15,0.85,0.325,0.675]","","",""
"sailing-trial","271","1486428","0.0-11.0-226.0","","","","false","","","","","","","","","","2224.7000000178814","","490.59999999403954","","1","1","arrowleft","0","arrowright","[0.15,0.85,0.325,0.675]","","",""
"sailing-trial","272","1490864","0.0-11.0-227.0","","","","false","","","","","","","","","","null","","2019.2999999821186","","0","0","null","null","arrowup","[0.15,0.85,0.325,0.675]","","",""
"sailing-trial","273","1496537","0.0-11.0-228.0","","","","false","","","","","","","","","","2626.7999999821186","","194.90000000596046","","1","1","arrowleft","0","arrowright","[0.15,0.85,0.325,0.675]","","",""
"sailing-trial","274","1499687","0.0-11.0-229.0","","","","false","","","","","","","","","","null","","1231.7999999821186","","1","1","null","null","arrowup","[0.15,0.85,0.325,0.675]","","",""
"sailing-trial","275","1504250","0.0-11.0-230.0","","","","false","","","","","","","","","","1185.4000000059605","","169.40000000596046","","1","1","arrowleft","0","arrowright","[0.15,0.85,0.325,0.675]","","",""
"sailing-trial","276","1506874","0.0-11.0-231.0","","","","false","","","","","","","","","","null","","1224.5999999940395","","2","0","null","null","arrowup","[0.15,0.85,0.325,0.675]","","",""
"sailing-trial","277","1510511","0.0-11.0-232.0","","","","false","","","","","","","","","","733.9000000059605","","75.5","","3","1","arrowright","1","arrowright","[0.325,0.675,0.15,0.85]","","",""
"sailing-trial","278","1513025","0.0-11.0-233.0","","","","false","","","","","","","","","","null","","1222.9000000059605","","0","0","null","null","arrowup","[0.325,0.675,0.15,0.85]","","",""
"sailing-trial","279","1517026","0.0-11.0-234.0","","","","false","","","","","","","","","","823.9000000059605","","366.2000000178814","","1","1","arrowleft","0","arrowright","[0.325,0.675,0.15,0.85]","","",""
"sailing-trial","280","1520422","0.0-11.0-235.0","","","","false","","","","","","","","","","null","","1475.7000000178814","","3","1","null","null","arrowup","[0.325,0.675,0.15,0.85]","","",""
"sailing-trial","281","1524335","0.0-11.0-236.0","","","","false","","","","","","","","","","1084","","12.5","","3","1","arrowright","1","arrowright","[0.325,0.675,0.15,0.85]","","",""
"sailing-trial","282","1529781","0.0-11.0-237.0","","","","false","","","","","","","","","","null","","3193","","1","1","null","null","arrowup","[0.325,0.675,0.15,0.85]","","",""
"sailing-trial","283","1535628","0.0-11.0-238.0","","","","false","","","","","","","","","","1638.1000000238419","","1378.5","","3","1","arrowright","1","arrowright","[0.325,0.675,0.15,0.85]","","",""
"sailing-trial","284","1540996","0.0-11.0-239.0","","","","false","","","","","","","","","","null","","2369.9000000059605","","1","0","null","null","arrowup","[0.325,0.675,0.15,0.85]","","",""
"sailing-trial","285","1544904","0.0-11.0-240.0","","","","false","","","","","","","","","","622","","84.5","","3","1","arrowright","1","arrowright","[0.325,0.675,0.15,0.85]","","",""
"sailing-trial","286","1548889","0.0-11.0-241.0","","","","false","","","","","","","","","","null","","2271.399999976158","","0","0","null","null","arrowup","[0.325,0.675,0.15,0.85]","","",""
"sailing-trial","287","1553718","0.0-11.0-242.0","","","","false","","","","","","","","","","1593.9000000059605","","448.19999998807907","","3","0","arrowright","1","arrowright","[0.325,0.675,0.15,0.85]","","",""
"sailing-trial","288","1558612","0.0-11.0-243.0","","","","false","","","","","","","","","","null","","3101.300000011921","","0","1","null","null","arrowup","[0.325,0.675,0.15,0.85]","","",""
"sailing-trial","289","1562899","0.0-11.0-244.0","","","","false","","","","","","","","","","962","","254.5","","1","0","arrowleft","0","arrowright","[0.325,0.675,0.15,0.85]","","",""
"sailing-trial","290","1571355","0.0-11.0-245.0","","","","false","","","","","","","","","","null","","6558.0999999940395","","3","1","null","null","arrowup","[0.325,0.675,0.15,0.85]","","",""
"sailing-trial","291","1575239","0.0-11.0-246.0","","","","false","","","","","","","","","","970.6000000238419","","74.30000001192093","","3","0","arrowright","1","arrowright","[0.325,0.675,0.15,0.85]","","",""
"sailing-trial","292","1580580","0.0-11.0-247.0","","","","false","","","","","","","","","","null","","3153.300000011921","","3","1","null","null","arrowup","[0.325,0.675,0.15,0.85]","","",""
"sailing-trial","293","1584812","0.0-11.0-248.0","","","","false","","","","","","","","","","669.9000000059605","","39.69999998807907","","3","1","arrowright","1","arrowright","[0.325,0.675,0.15,0.85]","","",""
"sailing-trial","294","1587977","0.0-11.0-249.0","","","","false","","","","","","","","","","null","","1247.9000000059605","","2","1","null","null","arrowup","[0.325,0.675,0.15,0.85]","","",""
"sailing-trial","295","1593262","0.0-11.0-250.0","","","","false","","","","","","","","","","1518.199999988079","","830.5999999940395","","3","0","arrowright","1","arrowright","[0.15,0.85,0.325,0.675]","","",""
"sailing-trial","296","1596305","0.0-11.0-251.0","","","","false","","","","","","","","","","null","","1257.699999988079","","2","0","null","null","arrowup","[0.15,0.85,0.325,0.675]","","",""
"sailing-trial","297","1600386","0.0-11.0-252.0","","","","false","","","","","","","","","","1099","","89.2999999821186","","1","1","arrowleft","0","arrowright","[0.15,0.85,0.325,0.675]","","",""
"sailing-trial","298","1603789","0.0-11.0-253.0","","","","false","","","","","","","","","","null","","2119.699999988079","","0","0","null","null","arrowup","[0.15,0.85,0.325,0.675]","","",""
"sailing-trial","299","1607795","0.0-11.0-254.0","","","","false","","","","","","","","","","1116.5999999940395","","61.69999998807907","","3","1","arrowright","1","arrowright","[0.15,0.85,0.325,0.675]","","",""
"sailing-trial","300","1610918","0.0-11.0-255.0","","","","false","","","","","","","","","","null","","1279.4000000059605","","0","0","null","null","arrowup","[0.15,0.85,0.325,0.675]","","",""
"sailing-trial","301","1615074","0.0-11.0-256.0","","","","false","","","","","","","","","","802.1000000238419","","98.90000000596046","","3","1","arrowright","1","arrowright","[0.15,0.85,0.325,0.675]","","",""
"sailing-trial","302","1618606","0.0-11.0-257.0","","","","false","","","","","","","","","","null","","1315.800000011921","","1","1","null","null","arrowup","[0.15,0.85,0.325,0.675]","","",""
"sailing-trial","303","1623170","0.0-11.0-258.0","","","","false","","","","","","","","","","970.5","","323.69999998807907","","3","1","arrowright","1","arrowright","[0.15,0.85,0.325,0.675]","","",""
"sailing-trial","304","1626048","0.0-11.0-259.0","","","","false","","","","","","","","","","null","","1610.699999988079","","0","0","null","null","arrowup","[0.15,0.85,0.325,0.675]","","",""
"sailing-trial","305","1639409","0.0-11.0-260.0","","","","false","","","","","","","","","","1495.5","","548.4000000059605","","3","1","arrowright","1","arrowright","[0.15,0.85,0.325,0.675]","","",""
"sailing-trial","306","1643391","0.0-11.0-261.0","","","","false","","","","","","","","","","null","","2521.699999988079","","1","0","null","null","arrowup","[0.15,0.85,0.325,0.675]","","",""
"sailing-trial","307","1649369","0.0-11.0-262.0","","","","false","","","","","","","","","","2396.300000011921","","173.10000002384186","","0","1","arrowleft","0","arrowleft","[0.15,0.85,0.325,0.675]","","",""
"sailing-trial","308","1652433","0.0-11.0-263.0","","","","false","","","","","","","","","","null","","1156.7999999821186","","1","1","null","null","arrowup","[0.15,0.85,0.325,0.675]","","",""
"sailing-trial","309","1658736","0.0-11.0-264.0","","","","false","","","","","","","","","","1182.2000000178814","","2606.2999999821186","","3","0","arrowright","1","arrowright","[0.15,0.85,0.325,0.675]","","",""
"sailing-trial","310","1662776","0.0-11.0-265.0","","","","false","","","","","","","","","","null","","1546.5999999940395","","2","1","null","null","arrowup","[0.15,0.85,0.325,0.675]","","",""
"sailing-trial","311","1668257","0.0-11.0-266.0","","","","false","","","","","","","","","","1438","","637.9000000059605","","3","1","arrowright","1","arrowright","[0.325,0.675,0.15,0.85]","","",""
"sailing-trial","312","1675261","0.0-11.0-267.0","","","","false","","","","","","","","","","null","","5321.5999999940395","","2","0","null","null","arrowup","[0.325,0.675,0.15,0.85]","","",""
"sailing-trial","313","1680398","0.0-11.0-268.0","","","","false","","","","","","","","","","1154.7999999821186","","781.8999999761581","","3","1","arrowright","1","arrowright","[0.325,0.675,0.15,0.85]","","",""
"sailing-trial","314","1683829","0.0-11.0-269.0","","","","false","","","","","","","","","","null","","1188.9000000059605","","1","1","null","null","arrowup","[0.325,0.675,0.15,0.85]","","",""
"sailing-trial","315","1690774","0.0-11.0-270.0","","","","false","","","","","","","","","","2425.4000000059605","","882.5","","3","1","arrowright","1","arrowright","[0.325,0.675,0.15,0.85]","","",""
"sailing-trial","316","1693967","0.0-11.0-271.0","","","","false","","","","","","","","","","null","","1557.4000000059605","","2","0","null","null","arrowup","[0.325,0.675,0.15,0.85]","","",""
"sailing-trial","317","1698803","0.0-11.0-272.0","","","","false","","","","","","","","","","1830","","76.30000001192093","","3","1","arrowright","1","arrowright","[0.325,0.675,0.15,0.85]","","",""
"sailing-trial","318","1702339","0.0-11.0-273.0","","","","false","","","","","","","","","","null","","1894.2000000178814","","2","0","null","null","arrowup","[0.325,0.675,0.15,0.85]","","",""
"sailing-trial","319","1707111","0.0-11.0-274.0","","","","false","","","","","","","","","","1954.800000011921","","94.89999997615814","","3","0","arrowright","1","arrowright","[0.325,0.675,0.15,0.85]","","",""
"sailing-trial","320","1710309","0.0-11.0-275.0","","","","false","","","","","","","","","","null","","1356.9000000059605","","3","1","null","null","arrowup","[0.325,0.675,0.15,0.85]","","",""
"sailing-trial","321","1715141","0.0-11.0-276.0","","","","false","","","","","","","","","","1086.6000000238419","","437.90000000596046","","3","1","arrowright","1","arrowright","[0.325,0.675,0.15,0.85]","","",""
"sailing-trial","322","1722287","0.0-11.0-277.0","","","","false","","","","","","","","","","null","","4587.800000011921","","3","1","null","null","arrowup","[0.325,0.675,0.15,0.85]","","",""
"sailing-trial","323","1727650","0.0-11.0-278.0","","","","false","","","","","","","","","","1329.699999988079","","575.6000000238419","","1","1","arrowleft","0","arrowright","[0.325,0.675,0.15,0.85]","","",""
"sailing-trial","324","1732263","0.0-11.0-279.0","","","","false","","","","","","","","","","null","","2470.9000000059605","","0","1","null","null","arrowup","[0.325,0.675,0.15,0.85]","","",""
"sailing-trial","325","1744904","0.0-11.0-280.0","","","","false","","","","","","","","","","1458.5999999940395","","2838.300000011921","","3","1","arrowright","1","arrowright","[0.325,0.675,0.15,0.85]","","",""
"sailing-trial","326","1756981","0.0-11.0-281.0","","","","false","","","","","","","","","","null","","9791.300000011921","","0","1","null","null","arrowup","[0.325,0.675,0.15,0.85]","","",""
"sailing-trial","327","1762594","0.0-11.0-282.0","","","","false","","","","","","","","","","1595.800000011921","","743.3999999761581","","1","1","arrowleft","0","arrowright","[0.325,0.675,0.15,0.85]","","",""
"sailing-trial","328","1777602","0.0-11.0-283.0","","","","true","","","","","","","","","","null","","null","","null","null","null","null","null","[0.325,0.675,0.15,0.85]","","",""
"sailing-trial","329","1782735","0.0-11.0-284.0","","","","false","","","","","","","","","","1294.5","","99.19999998807907","","3","0","arrowright","1","arrowright","[0.675,0.325,0.85,0.15]","","",""
"sailing-trial","330","1786845","0.0-11.0-285.0","","","","false","","","","","","","","","","null","","2436.5","","3","0","null","null","arrowup","[0.675,0.325,0.85,0.15]","","",""
"sailing-trial","331","1792340","0.0-11.0-286.0","","","","false","","","","","","","","","","1724","","317.5","","2","1","arrowright","1","arrowleft","[0.675,0.325,0.85,0.15]","","",""
"sailing-trial","332","1795804","0.0-11.0-287.0","","","","false","","","","","","","","","","null","","1781.5999999940395","","2","1","null","null","arrowup","[0.675,0.325,0.85,0.15]","","",""
"sailing-trial","333","1800519","0.0-11.0-288.0","","","","false","","","","","","","","","","983.5","","261.40000000596046","","2","1","arrowright","1","arrowleft","[0.675,0.325,0.85,0.15]","","",""
"sailing-trial","334","1806049","0.0-11.0-289.0","","","","false","","","","","","","","","","null","","1917.9000000059605","","0","1","null","null","arrowup","[0.675,0.325,0.85,0.15]","","",""
"sailing-trial","335","1810510","0.0-11.0-290.0","","","","false","","","","","","","","","","1307.9000000059605","","339.90000000596046","","2","0","arrowright","1","arrowleft","[0.675,0.325,0.85,0.15]","","",""
"sailing-trial","336","1814725","0.0-11.0-291.0","","","","false","","","","","","","","","","null","","2056.4000000059605","","0","1","null","null","arrowup","[0.675,0.325,0.85,0.15]","","",""
"sailing-trial","337","1821688","0.0-11.0-292.0","","","","false","","","","","","","","","","2599.699999988079","","1164.5999999940395","","0","1","arrowleft","0","arrowleft","[0.675,0.325,0.85,0.15]","","",""
"sailing-trial","338","1827873","0.0-11.0-293.0","","","","false","","","","","","","","","","null","","4826.800000011921","","1","0","null","null","arrowup","[0.675,0.325,0.85,0.15]","","",""
"sailing-trial","339","1837144","0.0-11.0-294.0","","","","false","","","","","","","","","","4873","","1114.9000000059605","","1","1","arrowleft","0","arrowright","[0.675,0.325,0.85,0.15]","","",""
"sailing-trial","340","1843857","0.0-11.0-295.0","","","","false","","","","","","","","","","null","","4394.199999988079","","0","1","null","null","arrowup","[0.675,0.325,0.85,0.15]","","",""
"sailing-trial","341","1847817","0.0-11.0-296.0","","","","false","","","","","","","","","","1113.0999999940395","","103","","3","0","arrowright","1","arrowright","[0.675,0.325,0.85,0.15]","","",""
"sailing-trial","342","1850711","0.0-11.0-297.0","","","","false","","","","","","","","","","null","","1373.699999988079","","3","0","null","null","arrowup","[0.675,0.325,0.85,0.15]","","",""
"sailing-trial","343","1856162","0.0-11.0-298.0","","","","false","","","","","","","","","","1162.2000000178814","","656.5999999940395","","2","1","arrowright","1","arrowleft","[0.675,0.325,0.85,0.15]","","",""
"sailing-trial","344","1859486","0.0-11.0-299.0","","","","false","","","","","","","","","","null","","1602.9000000059605","","1","0","null","null","arrowup","[0.675,0.325,0.85,0.15]","","",""
"sailing-trial","345","1865058","0.0-11.0-300.0","","","","false","","","","","","","","","","948.4000000059605","","1459.800000011921","","0","1","arrowleft","0","arrowleft","[0.675,0.325,0.85,0.15]","","",""
"sailing-trial","346","1868112","0.0-11.0-301.0","","","","false","","","","","","","","","","null","","1356.9000000059605","","1","0","null","null","arrowup","[0.675,0.325,0.85,0.15]","","",""
"sailing-trial","347","1872970","0.0-11.0-302.0","","","","false","","","","","","","","","","1194.0999999940395","","219.80000001192093","","0","1","arrowleft","0","arrowleft","[0.85,0.15,0.675,0.325]","","",""
"sailing-trial","348","1876898","0.0-11.0-303.0","","","","false","","","","","","","","","","null","","1810.0999999940395","","3","0","null","null","arrowup","[0.85,0.15,0.675,0.325]","","",""
"sailing-trial","349","1882880","0.0-11.0-304.0","","","","false","","","","","","","","","","2218.699999988079","","511.30000001192093","","2","1","arrowright","1","arrowleft","[0.85,0.15,0.675,0.325]","","",""
"sailing-trial","350","1886193","0.0-11.0-305.0","","","","false","","","","","","","","","","null","","1168.5999999940395","","0","1","null","null","arrowup","[0.85,0.15,0.675,0.325]","","",""
"sailing-trial","351","1890972","0.0-11.0-306.0","","","","false","","","","","","","","","","1249.5999999940395","","934.7999999821186","","0","0","arrowleft","0","arrowleft","[0.85,0.15,0.675,0.325]","","",""
"sailing-trial","352","1896035","0.0-11.0-307.0","","","","false","","","","","","","","","","null","","2338.9000000059605","","2","1","null","null","arrowup","[0.85,0.15,0.675,0.325]","","",""
"sailing-trial","353","1900706","0.0-11.0-308.0","","","","false","","","","","","","","","","1740.0999999940395","","274.5","","1","0","arrowleft","0","arrowright","[0.85,0.15,0.675,0.325]","","",""
"sailing-trial","354","1903836","0.0-11.0-309.0","","","","false","","","","","","","","","","null","","1419.5999999940395","","3","0","null","null","arrowup","[0.85,0.15,0.675,0.325]","","",""
"sailing-trial","355","1908894","0.0-11.0-310.0","","","","false","","","","","","","","","","899.7999999821186","","1584.2000000178814","","0","1","arrowleft","0","arrowleft","[0.85,0.15,0.675,0.325]","","",""
"sailing-trial","356","1911448","0.0-11.0-311.0","","","","false","","","","","","","","","","null","","995.0999999940395","","1","0","null","null","arrowup","[0.85,0.15,0.675,0.325]","","",""
"sailing-trial","357","1918159","0.0-11.0-312.0","","","","false","","","","","","","","","","1845.699999988079","","844.3000000119209","","0","0","arrowleft","0","arrowleft","[0.85,0.15,0.675,0.325]","","",""
"sailing-trial","358","1921587","0.0-11.0-313.0","","","","false","","","","","","","","","","null","","1294.9000000059605","","3","1","null","null","arrowup","[0.85,0.15,0.675,0.325]","","",""
"sailing-trial","359","1928049","0.0-11.0-314.0","","","","false","","","","","","","","","","1123.2000000178814","","2394.300000011921","","3","1","arrowright","1","arrowright","[0.85,0.15,0.675,0.325]","","",""
"sailing-trial","360","1935211","0.0-11.0-315.0","","","","false","","","","","","","","","","null","","4987.199999988079","","2","1","null","null","arrowup","[0.85,0.15,0.675,0.325]","","",""
"sailing-trial","361","1941455","0.0-11.0-316.0","","","","false","","","","","","","","","","2452.399999976158","","786.4000000059605","","3","0","arrowright","1","arrowright","[0.85,0.15,0.675,0.325]","","",""
"sailing-trial","362","1944338","0.0-11.0-317.0","","","","false","","","","","","","","","","null","","1092.2999999821186","","2","1","null","null","arrowup","[0.85,0.15,0.675,0.325]","","",""
"sailing-trial","363","1948905","0.0-11.0-318.0","","","","false","","","","","","","","","","1389.4000000059605","","433.40000000596046","","2","0","arrowright","1","arrowleft","[0.85,0.15,0.675,0.325]","","",""
"sailing-trial","364","1954116","0.0-11.0-319.0","","","","false","","","","","","","","","","null","","2884.5","","2","1","null","null","arrowup","[0.85,0.15,0.675,0.325]","","",""
"sailing-trial","365","1960095","0.0-11.0-320.0","","","","false","","","","","","","","","","2405","","875.5","","2","1","arrowright","1","arrowleft","[0.85,0.15,0.675,0.325]","","",""
"sailing-trial","366","1965474","0.0-11.0-321.0","","","","false","","","","","","","","","","null","","3081.7000000178814","","0","1","null","null","arrowup","[0.85,0.15,0.675,0.325]","","",""
"sailing-trial","367","1970021","0.0-11.0-322.0","","","","false","","","","","","","","","","1253.0999999940395","","312.09999999403954","","2","1","arrowright","1","arrowleft","[0.15,0.85,0.325,0.675]","","",""
"sailing-trial","368","1973984","0.0-11.0-323.0","","","","false","","","","","","","","","","null","","2213.5","","0","1","null","null","arrowup","[0.15,0.85,0.325,0.675]","","",""
"sailing-trial","369","1978549","0.0-11.0-324.0","","","","false","","","","","","","","","","1106.2999999821186","","316.7999999821186","","2","1","arrowright","1","arrowleft","[0.15,0.85,0.325,0.675]","","",""
"sailing-trial","370","1982711","0.0-11.0-325.0","","","","false","","","","","","","","","","null","","2181.9000000059605","","0","0","null","null","arrowup","[0.15,0.85,0.325,0.675]","","",""
"sailing-trial","371","1986657","0.0-11.0-326.0","","","","false","","","","","","","","","","1490","","119.90000000596046","","2","0","arrowright","1","arrowleft","[0.15,0.85,0.325,0.675]","","",""
"sailing-trial","372","1990333","0.0-11.0-327.0","","","","false","","","","","","","","","","null","","1979.9000000059605","","0","0","null","null","arrowup","[0.15,0.85,0.325,0.675]","","",""
"sailing-trial","373","1994303","0.0-11.0-328.0","","","","false","","","","","","","","","","1088.7999999821186","","303.40000000596046","","2","0","arrowright","1","arrowleft","[0.15,0.85,0.325,0.675]","","",""
"sailing-trial","374","1996869","0.0-11.0-329.0","","","","false","","","","","","","","","","null","","996.9000000059605","","3","0","null","null","arrowup","[0.15,0.85,0.325,0.675]","","",""
"sailing-trial","375","2001767","0.0-11.0-330.0","","","","false","","","","","","","","","","889","","1039.0999999940395","","0","1","arrowleft","0","arrowleft","[0.15,0.85,0.325,0.675]","","",""
"sailing-trial","376","2005298","0.0-11.0-331.0","","","","false","","","","","","","","","","null","","1541.800000011921","","1","1","null","null","arrowup","[0.15,0.85,0.325,0.675]","","",""
"sailing-trial","377","2009363","0.0-11.0-332.0","","","","false","","","","","","","","","","332.10000002384186","","950.5999999940395","","0","0","arrowleft","0","arrowleft","[0.15,0.85,0.325,0.675]","","",""
"sailing-trial","378","2012709","0.0-11.0-333.0","","","","false","","","","","","","","","","null","","1437.4000000059605","","3","1","null","null","arrowup","[0.15,0.85,0.325,0.675]","","",""
"sailing-trial","379","2017556","0.0-11.0-334.0","","","","false","","","","","","","","","","1273.0999999940395","","463.09999999403954","","3","1","arrowright","1","arrowright","[0.15,0.85,0.325,0.675]","","",""
"sailing-trial","380","2022137","0.0-11.0-335.0","","","","false","","","","","","","","","","null","","2598.2999999821186","","2","1","null","null","arrowup","[0.15,0.85,0.325,0.675]","","",""
"sailing-trial","381","2026800","0.0-11.0-336.0","","","","false","","","","","","","","","","1594.5","","102.2999999821186","","3","1","arrowright","1","arrowright","[0.15,0.85,0.325,0.675]","","",""
"sailing-trial","382","2030114","0.0-11.0-337.0","","","","false","","","","","","","","","","null","","1377.5","","3","1","null","null","arrowup","[0.15,0.85,0.325,0.675]","","",""
"sailing-trial","383","2033944","0.0-11.0-338.0","","","","false","","","","","","","","","","313.90000000596046","","421","","3","1","arrowright","1","arrowright","[0.15,0.85,0.325,0.675]","","",""
"sailing-trial","384","2037409","0.0-11.0-339.0","","","","false","","","","","","","","","","null","","1490.199999988079","","1","1","null","null","arrowup","[0.15,0.85,0.325,0.675]","","",""
"sailing-trial","385","2041874","0.0-11.0-340.0","","","","false","","","","","","","","","","837.0999999940395","","107.19999998807907","","3","1","arrowright","1","arrowright","[0.325,0.675,0.15,0.85]","","",""
"sailing-trial","386","2046579","0.0-11.0-341.0","","","","false","","","","","","","","","","null","","1848.5","","0","0","null","null","arrowup","[0.325,0.675,0.15,0.85]","","",""
"sailing-trial","387","2054297","0.0-11.0-342.0","","","","false","","","","","","","","","","3691.5","","456.90000000596046","","3","1","arrowright","1","arrowright","[0.325,0.675,0.15,0.85]","","",""
"sailing-trial","388","2057710","0.0-11.0-343.0","","","","false","","","","","","","","","","null","","1817.0999999940395","","0","0","null","null","arrowup","[0.325,0.675,0.15,0.85]","","",""
"sailing-trial","389","2065090","0.0-11.0-344.0","","","","false","","","","","","","","","","1570.7000000178814","","2414.0999999940395","","3","1","arrowright","1","arrowright","[0.325,0.675,0.15,0.85]","","",""
"sailing-trial","390","2071004","0.0-11.0-345.0","","","","false","","","","","","","","","","null","","4155.700000017881","","0","1","null","null","arrowup","[0.325,0.675,0.15,0.85]","","",""
"sailing-trial","391","2076148","0.0-11.0-346.0","","","","false","","","","","","","","","","1261.5999999940395","","157.7000000178814","","0","1","arrowleft","0","arrowleft","[0.325,0.675,0.15,0.85]","","",""
"sailing-trial","392","2079433","0.0-11.0-347.0","","","","false","","","","","","","","","","null","","1313.5","","1","1","null","null","arrowup","[0.325,0.675,0.15,0.85]","","",""
"sailing-trial","393","2083650","0.0-11.0-348.0","","","","false","","","","","","","","","","1090.8999999761581","","774.3000000119209","","1","0","arrowleft","0","arrowright","[0.325,0.675,0.15,0.85]","","",""
"sailing-trial","394","2087409","0.0-11.0-349.0","","","","false","","","","","","","","","","null","","2174","","2","0","null","null","arrowup","[0.325,0.675,0.15,0.85]","","",""
"sailing-trial","395","2090662","0.0-11.0-350.0","","","","false","","","","","","","","","","718.8000000119209","","225.40000000596046","","0","0","arrowleft","0","arrowleft","[0.325,0.675,0.15,0.85]","","",""
"sailing-trial","396","2094889","0.0-11.0-351.0","","","","false","","","","","","","","","","null","","2130.5999999940395","","3","1","null","null","arrowup","[0.325,0.675,0.15,0.85]","","",""
"sailing-trial","397","2100066","0.0-11.0-352.0","","","","false","","","","","","","","","","644.7999999821186","","1448.0999999940395","","0","1","arrowleft","0","arrowleft","[0.325,0.675,0.15,0.85]","","",""
"sailing-trial","398","2104426","0.0-11.0-353.0","","","","false","","","","","","","","","","null","","2022.199999988079","","0","0","null","null","arrowup","[0.325,0.675,0.15,0.85]","","",""
"sailing-trial","399","2109194","0.0-11.0-354.0","","","","false","","","","","","","","","","956.1999999880791","","694.1999999880791","","3","1","arrowright","1","arrowright","[0.325,0.675,0.15,0.85]","","",""
"sailing-trial","400","2112751","0.0-11.0-355.0","","","","false","","","","","","","","","","null","","1426.7999999821186","","2","0","null","null","arrowup","[0.325,0.675,0.15,0.85]","","",""
"sailing-trial","401","2119221","0.0-11.0-356.0","","","","false","","","","","","","","","","2201.0999999940395","","671.5999999940395","","3","1","arrowright","1","arrowright","[0.325,0.675,0.15,0.85]","","",""
"sailing-trial","402","2124734","0.0-11.0-357.0","","","","false","","","","","","","","","","null","","3439.9000000059605","","3","1","null","null","arrowup","[0.325,0.675,0.15,0.85]","","",""
"sailing-trial","403","2129104","0.0-11.0-358.0","","","","false","","","","","","","","","","853.3000000119209","","158.10000002384186","","2","0","arrowright","1","arrowleft","[0.325,0.675,0.15,0.85]","","",""
"sailing-trial","404","2134677","0.0-11.0-359.0","","","","false","","","","","","","","","","null","","2392.7999999821186","","0","1","null","null","arrowup","[0.325,0.675,0.15,0.85]","","",""
"sailing-trial","405","2143373","0.0-11.0-360.0","","","","false","","","","","","","","","","1448.1000000238419","","1255.7000000178814","","1","1","arrowleft","0","arrowright","[0.325,0.675,0.15,0.85]","","",""
"sailing-trial","406","2148353","0.0-11.0-361.0","","","","false","","","","","","","","","","null","","2562.5999999940395","","2","1","null","null","arrowup","[0.325,0.675,0.15,0.85]","","",""
"sailing-trial","407","2154736","0.0-11.0-362.0","","","","false","","","","","","","","","","1934.300000011921","","424.09999999403954","","2","0","arrowright","1","arrowleft","[0.325,0.675,0.15,0.85]","","",""
"sailing-trial","408","2162002","0.0-11.0-363.0","","","","false","","","","","","","","","","null","","6226.4000000059605","","1","0","null","null","arrowup","[0.325,0.675,0.15,0.85]","","",""
"sailing-trial","409","2166290","0.0-11.0-364.0","","","","false","","","","","","","","","","976.1000000238419","","210.09999999403954","","3","1","arrowright","1","arrowright","[0.15,0.85,0.325,0.675]","","",""
"sailing-trial","410","2169811","0.0-11.0-365.0","","","","false","","","","","","","","","","null","","1854.800000011921","","2","0","null","null","arrowup","[0.15,0.85,0.325,0.675]","","",""
"sailing-trial","411","2173968","0.0-11.0-366.0","","","","false","","","","","","","","","","565.2000000178814","","818","","0","1","arrowleft","0","arrowleft","[0.15,0.85,0.325,0.675]","","",""
"sailing-trial","412","2180467","0.0-11.0-367.0","","","","false","","","","","","","","","","null","","4650.299999982119","","0","0","null","null","arrowup","[0.15,0.85,0.325,0.675]","","",""
"sailing-trial","413","2185606","0.0-11.0-368.0","","","","false","","","","","","","","","","1495.4000000059605","","669.6999999880791","","3","0","arrowright","1","arrowright","[0.15,0.85,0.325,0.675]","","",""
"sailing-trial","414","2188216","0.0-11.0-369.0","","","","false","","","","","","","","","","null","","1432.199999988079","","2","0","null","null","arrowup","[0.15,0.85,0.325,0.675]","","",""
"sailing-trial","415","2195587","0.0-11.0-370.0","","","","false","","","","","","","","","","1453.5999999940395","","636.1999999880791","","2","1","arrowright","1","arrowleft","[0.15,0.85,0.325,0.675]","","",""
"sailing-trial","416","2200299","0.0-11.0-371.0","","","","false","","","","","","","","","","null","","1923.5","","1","1","null","null","arrowup","[0.15,0.85,0.325,0.675]","","",""
"sailing-trial","417","2206280","0.0-11.0-372.0","","","","false","","","","","","","","","","2741.0999999940395","","227.30000001192093","","1","1","arrowleft","0","arrowright","[0.15,0.85,0.325,0.675]","","",""
"sailing-trial","418","2208932","0.0-11.0-373.0","","","","false","","","","","","","","","","null","","1046.300000011921","","2","0","null","null","arrowup","[0.15,0.85,0.325,0.675]","","",""
"sailing-trial","419","2212860","0.0-11.0-374.0","","","","false","","","","","","","","","","690.7000000178814","","229","","1","1","arrowleft","0","arrowright","[0.15,0.85,0.325,0.675]","","",""
"sailing-trial","420","2215551","0.0-11.0-375.0","","","","false","","","","","","","","","","null","","1600.4000000059605","","1","0","null","null","arrowup","[0.15,0.85,0.325,0.675]","","",""
"sailing-trial","421","2219551","0.0-11.0-376.0","","","","false","","","","","","","","","","1220.300000011921","","188.19999998807907","","1","0","arrowleft","0","arrowright","[0.15,0.85,0.325,0.675]","","",""
"sailing-trial","422","2221798","0.0-11.0-377.0","","","","false","","","","","","","","","","null","","1148.300000011921","","0","0","null","null","arrowup","[0.15,0.85,0.325,0.675]","","",""
"sailing-trial","423","2225131","0.0-11.0-378.0","","","","false","","","","","","","","","","604.5","","576","","3","0","arrowright","1","arrowright","[0.15,0.85,0.325,0.675]","","",""
"sailing-trial","424","2228646","0.0-11.0-379.0","","","","false","","","","","","","","","","null","","1217.2999999821186","","2","0","null","null","arrowup","[0.15,0.85,0.325,0.675]","","",""
"sailing-trial","425","2233062","0.0-11.0-380.0","","","","false","","","","","","","","","","1521.0999999940395","","74.69999998807907","","3","1","arrowright","1","arrowright","[0.15,0.85,0.325,0.675]","","",""
"sailing-trial","426","2235778","0.0-11.0-381.0","","","","false","","","","","","","","","","null","","986","","1","1","null","null","arrowup","[0.15,0.85,0.325,0.675]","","",""
"sailing-trial","427","2240024","0.0-11.0-382.0","","","","false","","","","","","","","","","945.7000000178814","","314.5","","3","1","arrowright","1","arrowright","[0.15,0.85,0.325,0.675]","","",""
"sailing-trial","428","2242068","0.0-11.0-383.0","","","","false","","","","","","","","","","null","","863.5","","0","0","null","null","arrowup","[0.15,0.85,0.325,0.675]","","",""
"sailing-trial","429","2246688","0.0-11.0-384.0","","","","false","","","","","","","","","","1424.300000011921","","293.59999999403954","","3","1","arrowright","1","arrowright","[0.325,0.675,0.15,0.85]","","",""
"sailing-trial","430","2249802","0.0-11.0-385.0","","","","false","","","","","","","","","","null","","1306","","3","1","null","null","arrowup","[0.325,0.675,0.15,0.85]","","",""
"sailing-trial","431","2254709","0.0-11.0-386.0","","","","false","","","","","","","","","","1470","","868.5","","1","0","arrowleft","0","arrowright","[0.325,0.675,0.15,0.85]","","",""
"sailing-trial","432","2257501","0.0-11.0-387.0","","","","false","","","","","","","","","","null","","1255.2999999821186","","0","0","null","null","arrowup","[0.325,0.675,0.15,0.85]","","",""
"sailing-trial","433","2262326","0.0-11.0-388.0","","","","false","","","","","","","","","","1739.800000011921","","278.40000000596046","","1","1","arrowleft","0","arrowright","[0.325,0.675,0.15,0.85]","","",""
"sailing-trial","434","2264430","0.0-11.0-389.0","","","","false","","","","","","","","","","null","","436.5","","0","0","null","null","arrowup","[0.325,0.675,0.15,0.85]","","",""
"sailing-trial","435","2267973","0.0-11.0-390.0","","","","false","","","","","","","","","","453.7999999821186","","476.80000001192093","","1","1","arrowleft","0","arrowright","[0.325,0.675,0.15,0.85]","","",""
"sailing-trial","436","2271305","0.0-11.0-391.0","","","","false","","","","","","","","","","null","","1261.2999999821186","","0","1","null","null","arrowup","[0.325,0.675,0.15,0.85]","","",""
"sailing-trial","437","2275300","0.0-11.0-392.0","","","","false","","","","","","","","","","638.4000000059605","","648.8000000119209","","1","1","arrowleft","0","arrowright","[0.325,0.675,0.15,0.85]","","",""
"sailing-trial","438","2277766","0.0-11.0-393.0","","","","false","","","","","","","","","","null","","561.7999999821186","","3","1","null","null","arrowup","[0.325,0.675,0.15,0.85]","","",""
"sailing-trial","439","2281161","0.0-11.0-394.0","","","","false","","","","","","","","","","418.2000000178814","","223.09999999403954","","2","0","arrowright","1","arrowleft","[0.325,0.675,0.15,0.85]","","",""
"sailing-trial","440","2283580","0.0-11.0-395.0","","","","false","","","","","","","","","","null","","662.8999999761581","","0","1","null","null","arrowup","[0.325,0.675,0.15,0.85]","","",""
"sailing-trial","441","2288129","0.0-11.0-396.0","","","","false","","","","","","","","","","158.59999999403954","","523.3000000119209","","0","0","arrowleft","0","arrowleft","[0.325,0.675,0.15,0.85]","","",""
"sailing-trial","442","2291123","0.0-11.0-397.0","","","","false","","","","","","","","","","null","","960.4000000059605","","0","1","null","null","arrowup","[0.325,0.675,0.15,0.85]","","",""
"sailing-trial","443","2295770","0.0-11.0-398.0","","","","false","","","","","","","","","","528.6999999880791","","1238.7000000178814","","0","1","arrowleft","0","arrowleft","[0.325,0.675,0.15,0.85]","","",""
"sailing-trial","444","2297110","0.0-11.0-399.0","","","","false","","","","","","","","","","null","","85","","2","0","null","null","arrowup","[0.325,0.675,0.15,0.85]","","",""
"instructions","445","2300535","0.0-12.0","","","","","","","","","","3423.5","","","","","","","","","","","","","","","","[{""page_index"":0,""viewing_time"":3422.9000000059605}]"
"survey-debrief","446","2374521","0.0-13.0","","","","","","","","","","74054.90000000596","","","","","","","","","","","","","","{""difficulty"":""5"",""fun"":""1"",""clarity"":""4"",""strategy"":""I used my brain"",""feedback"":""can you add some kind of music so its not boring?""}","",""
