"trial_type","trial_index","time_elapsed","internal_node_id","value","metadata","success","timeout","failed_images","failed_audio","failed_video","browser_interaction","low_quality","rt","stimulus","response","button_pressed","island_rt","island_response","boat_rt","boat_response","boat","reward","island_key","island","boat_key","reward_probabilities","responses","num_errors","view_history"
"pavlovia","0","2","0.0-0.0","","","","","","","","","","","","","","","","","","","","","","","","","",""
"call-function","1","2","0.0-1.0","","{""task_version"":""sailing_part1_v1"",""task_condition"":""good"",""boats"":[""B"",""D"",""A"",""C""],""boats_demo"":[""G"",""E"",""F"",""H""],""islands"":[""B"",""A""],""subject_id"":""14051"",""age"":""9"",""gender"":""Male""}","","","","","","","","","","","","","","","","","","","","","","","",""
"preload","2","1214","0.0-2.0","","","true","false","[]","[]","[]","[{""event"":""fullscreenenter"",""trial"":3,""time"":6614}]","false","","","","","","","","","","","","","","","","",""
"fullscreen","3","7608","0.0-3.0","","","true","","","","","","","","","","","","","","","","","","","","","","",""
"audio-keyboard-response","4","9364","0.0-4.0-0.0","","","","","","","","","","1730.6666666666665","audio/beep_loop.wav"," ","","","","","","","","","","","","","",""
"audio-test","5","15418","0.0-4.0-1.0","","","","","","","","","","null","audio/turtle.mp3","","3","","","","","","","","","","","","",""
"audio-test","6","17433","0.0-4.0-2.0","","","","","","","","","","null","audio/shark.mp3","","2","","","","","","","","","","","","",""
"sailing-instructions","7","49053","0.0-5.0-0.0-0.0","","","","","","","","","","","","","","null","null","null","null","null","null","","","","","","",""
"sailing-trial","8","53947","0.0-5.0-0.0-1.0-0.0","","","","false","","","","","","","","","","3758.399999976158","","null","","null","null","arrowleft","0","null","null","","",""
"sailing-trial","9","58964","0.0-5.0-0.0-1.0-1.0","","","","false","","","","","","","","","","3883.100000023842","","null","","null","null","arrowright","1","null","null","","",""
"sailing-trial","10","64731","0.0-5.0-0.0-1.0-2.0","","","","false","","","","","","","","","","4640.200000047684","","null","","null","null","arrowright","1","null","null","","",""
"sailing-instructions","11","115356","0.0-5.0-0.0-2.0","","","","","","","","","","","","","","null","null","null","null","0","null","","","","","","",""
"sailing-trial","12","127156","0.0-5.0-0.0-3.0-0.0","","","","false","","","","","","","","","","null","","7150.299999952316","","2","1","null","null","arrowleft","[1,1,1,1]","","",""
"sailing-trial","13","132507","0.0-5.0-0.0-3.0-1.0","","","","false","","","","","","","","","","null","","2099.1999999284744","","3","1","null","null","arrowright","[1,1,1,1]","","",""
"sailing-trial","14","139621","0.0-5.0-0.0-3.0-2.0","","","","false","","","","","","","","","","null","","3582.399999976158","","2","0","null","null","arrowleft","[0,0,0,0]","","",""
"sailing-instructions","15","147006","0.0-5.0-0.0-4.0","","","","","","","","","","","","","","null","null","null","null","null","null","","","","","","",""
"sailing-comprehension","16","171435","0.0-5.0-0.0-5.0","","","","","","","","","","20567","","","","","","","","","","","","","","[""true"",""true"",""false"",""true""]","0",""
"sailing-instructions","17","235776","0.0-6.0-0.0-0.0","","","","","","","","","","","","","","null","null","null","null","null","null","","","","","","",""
"sailing-comprehension","18","254826","0.0-6.0-0.0-1.0","","","","","","","","","","17229.399999976158","","","","","","","","","","","","","","[""true"",""false"",""true""]","0",""
"sailing-instructions","19","268754","0.0-7.0-0.0-0.0","","","","","","","","","","","","","","null","null","null","null","null","null","","","","","","",""
"sailing-trial","20","275284","0.0-7.0-0.0-1.0-0.0","","","","false","","","","","","","","","","null","","3506.2000000476837","","0","0","null","null","arrowup","[0.2,0.8,0.2,0.8]","","",""
"sailing-trial","21","282504","0.0-7.0-0.0-1.0-1.0","","","","false","","","","","","","","","","null","","4195","","1","0","null","null","arrowup","[0.2,0.8,0.2,0.8]","","",""
"sailing-trial","22","287371","0.0-7.0-0.0-1.0-2.0","","","","false","","","","","","","","","","null","","1847.8000000715256","","2","0","null","null","arrowup","[0.2,0.8,0.2,0.8]","","",""
"sailing-trial","23","293423","0.0-7.0-0.0-1.0-3.0","","","","false","","","","","","","","","","null","","2800.5","","3","1","null","null","arrowup","[0.2,0.8,0.2,0.8]","","",""
"sailing-comprehension","24","302390","0.0-7.0-0.0-2.0","","","","","","","","","","7009.100000023842","","","","","","","","","","","","","","[""false""]","0",""
"sailing-instructions","25","313065","0.0-8.0-0.0-0.0","","","","","","","","","","","","","","null","null","null","null","null","null","","","","","","",""
"sailing-comprehension","26","320215","0.0-8.0-0.0-1.0","","","","","","","","","","5363.800000071526","","","","","","","","","","","","","","[""true""]","0",""
"sailing-instructions","27","352465","0.0-9.0-0.0-0.0","","","","","","","","","","","","","","null","null","null","null","null","null","","","","","","",""
"sailing-trial","28","358101","0.0-9.0-0.0-1.0-0.0","","","","false","","","","","","","","","","1611.3999999761581","","540.7000000476837","","2","0","arrowright","1","arrowleft","[0.2,0.8,0.2,0.8]","","",""
"sailing-trial","29","362052","0.0-9.0-0.0-1.0-1.0","","","","false","","","","","","","","","","476","","86.10000002384186","","3","1","arrowright","1","arrowright","[0.2,0.8,0.2,0.8]","","",""
"sailing-trial","30","364401","0.0-9.0-0.0-1.0-2.0","","","","false","","","","","","","","","","null","","1223","","0","0","null","null","arrowup","[0.2,0.8,0.2,0.8]","","",""
"sailing-trial","31","369168","0.0-9.0-0.0-1.0-3.0","","","","false","","","","","","","","","","997.8999999761581","","455.89999997615814","","0","0","arrowleft","0","arrowleft","[0.2,0.8,0.2,0.8]","","",""
"sailing-trial","32","372618","0.0-9.0-0.0-1.0-4.0","","","","false","","","","","","","","","","null","","1325.6000000238419","","3","1","null","null","arrowup","[0.2,0.8,0.2,0.8]","","",""
"sailing-trial","33","376241","0.0-9.0-0.0-1.0-5.0","","","","false","","","","","","","","","","672.2000000476837","","122.20000004768372","","3","1","arrowright","1","arrowright","[0.2,0.8,0.2,0.8]","","",""
"sailing-instructions","34","404138","0.0-10.0","","","","","","","","","","","","","","null","null","null","null","null","null","","","","","","",""
"sailing-trial","35","408891","0.0-11.0-0.0","","","","false","","","","","","","","","","1518.3999999761581","","7.399999976158142","","2","1","arrowright","1","arrowleft","[0.325,0.675,0.85,0.15]","","",""
"sailing-trial","36","411669","0.0-11.0-1.0","","","","false","","","","","","","","","","null","","1029.5999999046326","","1","1","null","null","arrowup","[0.325,0.675,0.85,0.15]","","",""
"sailing-trial","37","417068","0.0-11.0-2.0","","","","false","","","","","","","","","","786.3999999761581","","541.8999999761581","","0","0","arrowleft","0","arrowleft","[0.325,0.675,0.85,0.15]","","",""
"sailing-trial","38","419585","0.0-11.0-3.0","","","","false","","","","","","","","","","null","","1241","","3","0","null","null","arrowup","[0.325,0.675,0.85,0.15]","","",""
"sailing-trial","39","424718","0.0-11.0-4.0","","","","false","","","","","","","","","","979.7999999523163","","102.5","","3","0","arrowright","1","arrowright","[0.325,0.675,0.85,0.15]","","",""
"sailing-trial","40","427568","0.0-11.0-5.0","","","","false","","","","","","","","","","null","","1053.2000000476837","","0","1","null","null","arrowup","[0.325,0.675,0.85,0.15]","","",""
"sailing-trial","41","432572","0.0-11.0-6.0","","","","false","","","","","","","","","","896.3999999761581","","83.39999997615814","","0","0","arrowleft","0","arrowleft","[0.325,0.675,0.85,0.15]","","",""
"sailing-trial","42","436862","0.0-11.0-7.0","","","","false","","","","","","","","","","null","","1291.7999999523163","","0","0","null","null","arrowup","[0.325,0.675,0.85,0.15]","","",""
"sailing-trial","43","442109","0.0-11.0-8.0","","","","false","","","","","","","","","","692.5","","547.1000000238419","","1","0","arrowleft","0","arrowright","[0.325,0.675,0.85,0.15]","","",""
"sailing-trial","44","444986","0.0-11.0-9.0","","","","false","","","","","","","","","","null","","1095.3000000715256","","2","1","null","null","arrowup","[0.325,0.675,0.85,0.15]","","",""
"sailing-trial","45","451259","0.0-11.0-10.0","","","","false","","","","","","","","","","738.9000000953674","","551.6999999284744","","2","1","arrowright","1","arrowleft","[0.325,0.675,0.85,0.15]","","",""
"sailing-trial","46","453323","0.0-11.0-11.0","","","","false","","","","","","","","","","null","","1062.3999999761581","","3","0","null","null","arrowup","[0.325,0.675,0.85,0.15]","","",""
"sailing-trial","47","459331","0.0-11.0-12.0","","","","false","","","","","","","","","","994.2999999523163","","995.7000000476837","","3","0","arrowright","1","arrowright","[0.325,0.675,0.85,0.15]","","",""
"sailing-trial","48","463338","0.0-11.0-13.0","","","","false","","","","","","","","","","null","","996.8999999761581","","1","0","null","null","arrowup","[0.325,0.675,0.85,0.15]","","",""
"sailing-trial","49","466837","0.0-11.0-14.0","","","","false","","","","","","","","","","955.8999999761581","","270.90000009536743","","0","0","arrowleft","0","arrowleft","[0.325,0.675,0.85,0.15]","","",""
"sailing-trial","50","470846","0.0-11.0-15.0","","","","false","","","","","","","","","","null","","1011.7999999523163","","3","0","null","null","arrowup","[0.325,0.675,0.85,0.15]","","",""
"sailing-trial","51","476231","0.0-11.0-16.0","","","","false","","","","","","","","","","792","","593.7000000476837","","2","0","arrowright","1","arrowleft","[0.675,0.325,0.15,0.85]","","",""
"sailing-trial","52","478942","0.0-11.0-17.0","","","","false","","","","","","","","","","null","","1111","","2","0","null","null","arrowup","[0.675,0.325,0.15,0.85]","","",""
"sailing-trial","53","484228","0.0-11.0-18.0","","","","false","","","","","","","","","","918.7999999523163","","356.09999990463257","","1","0","arrowleft","0","arrowright","[0.675,0.325,0.15,0.85]","","",""
"sailing-trial","54","486962","0.0-11.0-19.0","","","","false","","","","","","","","","","null","","1142.3000000715256","","3","1","null","null","arrowup","[0.675,0.325,0.15,0.85]","","",""
"sailing-trial","55","492811","0.0-11.0-20.0","","","","false","","","","","","","","","","1214.8999999761581","","778","","0","1","arrowleft","0","arrowleft","[0.675,0.325,0.15,0.85]","","",""
"sailing-trial","56","496804","0.0-11.0-21.0","","","","false","","","","","","","","","","null","","983.5999999046326","","1","0","null","null","arrowup","[0.675,0.325,0.15,0.85]","","",""
"sailing-trial","57","501149","0.0-11.0-22.0","","","","false","","","","","","","","","","660.3000000715256","","418.09999990463257","","2","0","arrowright","1","arrowleft","[0.675,0.325,0.15,0.85]","","",""
"sailing-trial","58","506479","0.0-11.0-23.0","","","","false","","","","","","","","","","null","","938.2000000476837","","3","1","null","null","arrowup","[0.675,0.325,0.15,0.85]","","",""
"sailing-trial","59","514055","0.0-11.0-24.0","","","","false","","","","","","","","","","1291.5","","2277","","0","0","arrowleft","0","arrowleft","[0.675,0.325,0.15,0.85]","","",""
"sailing-trial","60","516369","0.0-11.0-25.0","","","","false","","","","","","","","","","null","","1004.7999999523163","","1","0","null","null","arrowup","[0.675,0.325,0.15,0.85]","","",""
"sailing-trial","61","520686","0.0-11.0-26.0","","","","false","","","","","","","","","","810.7999999523163","","263","","3","1","arrowright","1","arrowright","[0.675,0.325,0.15,0.85]","","",""
"sailing-trial","62","525319","0.0-11.0-27.0","","","","false","","","","","","","","","","null","","719.2999999523163","","3","1","null","null","arrowup","[0.675,0.325,0.15,0.85]","","",""
"sailing-trial","63","529845","0.0-11.0-28.0","","","","false","","","","","","","","","","839.3999999761581","","291.40000009536743","","2","1","arrowright","1","arrowleft","[0.675,0.325,0.15,0.85]","","",""
"sailing-trial","64","535061","0.0-11.0-29.0","","","","false","","","","","","","","","","null","","871.8999999761581","","1","1","null","null","arrowup","[0.675,0.325,0.15,0.85]","","",""
"sailing-trial","65","539772","0.0-11.0-30.0","","","","false","","","","","","","","","","647.6000000238419","","36.699999928474426","","1","0","arrowleft","0","arrowright","[0.675,0.325,0.15,0.85]","","",""
"sailing-trial","66","542163","0.0-11.0-31.0","","","","false","","","","","","","","","","null","","1034","","2","0","null","null","arrowup","[0.675,0.325,0.15,0.85]","","",""
"sailing-trial","67","545920","0.0-11.0-32.0","","","","false","","","","","","","","","","627.1999999284744","","327.5","","0","1","arrowleft","0","arrowleft","[0.85,0.15,0.325,0.675]","","",""
"sailing-trial","68","548739","0.0-11.0-33.0","","","","false","","","","","","","","","","null","","1246.7999999523163","","0","1","null","null","arrowup","[0.85,0.15,0.325,0.675]","","",""
"sailing-trial","69","551634","0.0-11.0-34.0","","","","false","","","","","","","","","","861.7000000476837","","4.200000047683716","","2","0","arrowright","1","arrowleft","[0.85,0.15,0.325,0.675]","","",""
"sailing-trial","70","553789","0.0-11.0-35.0","","","","false","","","","","","","","","","null","","828.8999999761581","","3","0","null","null","arrowup","[0.85,0.15,0.325,0.675]","","",""
"sailing-trial","71","559311","0.0-11.0-36.0","","","","false","","","","","","","","","","1026.1999999284744","","487.10000002384186","","1","0","arrowleft","0","arrowright","[0.85,0.15,0.325,0.675]","","",""
"sailing-trial","72","564662","0.0-11.0-37.0","","","","false","","","","","","","","","","null","","1098.2000000476837","","0","1","null","null","arrowup","[0.85,0.15,0.325,0.675]","","",""
"sailing-trial","73","568270","0.0-11.0-38.0","","","","false","","","","","","","","","","547.1000000238419","","67.79999995231628","","0","1","arrowleft","0","arrowleft","[0.85,0.15,0.325,0.675]","","",""
"sailing-trial","74","573212","0.0-11.0-39.0","","","","false","","","","","","","","","","null","","1213.7999999523163","","0","1","null","null","arrowup","[0.85,0.15,0.325,0.675]","","",""
"sailing-trial","75","577579","0.0-11.0-40.0","","","","false","","","","","","","","","","627.6999999284744","","936","","1","1","arrowleft","0","arrowright","[0.85,0.15,0.325,0.675]","","",""
"sailing-trial","76","581239","0.0-11.0-41.0","","","","false","","","","","","","","","","null","","804.5","","0","1","null","null","arrowup","[0.85,0.15,0.325,0.675]","","",""
"sailing-trial","77","586249","0.0-11.0-42.0","","","","false","","","","","","","","","","610.8000000715256","","372.6999999284744","","3","0","arrowright","1","arrowright","[0.85,0.15,0.325,0.675]","","",""
"sailing-trial","78","589924","0.0-11.0-43.0","","","","false","","","","","","","","","","null","","675.5999999046326","","1","0","null","null","arrowup","[0.85,0.15,0.325,0.675]","","",""
"sailing-trial","79","594579","0.0-11.0-44.0","","","","false","","","","","","","","","","531.8000000715256","","929.7999999523163","","1","1","arrowleft","0","arrowright","[0.85,0.15,0.325,0.675]","","",""
"sailing-trial","80","598608","0.0-11.0-45.0","","","","false","","","","","","","","","","null","","1026.2000000476837","","3","0","null","null","arrowup","[0.85,0.15,0.325,0.675]","","",""
"sailing-trial","81","602654","0.0-11.0-46.0","","","","false","","","","","","","","","","474.39999997615814","","720.5","","0","1","arrowleft","0","arrowleft","[0.85,0.15,0.325,0.675]","","",""
"sailing-trial","82","605338","0.0-11.0-47.0","","","","false","","","","","","","","","","null","","925.9000000953674","","0","1","null","null","arrowup","[0.85,0.15,0.325,0.675]","","",""
"sailing-trial","83","608657","0.0-11.0-48.0","","","","false","","","","","","","","","","519.5","","69.5","","2","1","arrowright","1","arrowleft","[0.85,0.15,0.325,0.675]","","",""
"sailing-trial","84","611146","0.0-11.0-49.0","","","","false","","","","","","","","","","null","","863.2999999523163","","0","1","null","null","arrowup","[0.85,0.15,0.325,0.675]","","",""
"sailing-trial","85","615172","0.0-11.0-50.0","","","","false","","","","","","","","","","469.5","","788.8999999761581","","2","1","arrowright","1","arrowleft","[0.85,0.15,0.325,0.675]","","",""
"sailing-trial","86","618138","0.0-11.0-51.0","","","","false","","","","","","","","","","null","","662.2999999523163","","3","1","null","null","arrowup","[0.85,0.15,0.325,0.675]","","",""
"sailing-trial","87","623090","0.0-11.0-52.0","","","","false","","","","","","","","","","355.40000009536743","","585.1000000238419","","1","0","arrowleft","0","arrowright","[0.675,0.325,0.15,0.85]","","",""
"sailing-trial","88","626330","0.0-11.0-53.0","","","","false","","","","","","","","","","null","","1492.8000000715256","","3","1","null","null","arrowup","[0.675,0.325,0.15,0.85]","","",""
"sailing-trial","89","630440","0.0-11.0-54.0","","","","false","","","","","","","","","","1523.7000000476837","","380.3000000715256","","2","0","arrowright","1","arrowleft","[0.675,0.325,0.15,0.85]","","",""
"sailing-trial","90","633254","0.0-11.0-55.0","","","","false","","","","","","","","","","null","","1029.7000000476837","","1","1","null","null","arrowup","[0.675,0.325,0.15,0.85]","","",""
"sailing-trial","91","636596","0.0-11.0-56.0","","","","false","","","","","","","","","","396.10000002384186","","188.5","","3","1","arrowright","1","arrowright","[0.675,0.325,0.15,0.85]","","",""
"sailing-trial","92","639304","0.0-11.0-57.0","","","","false","","","","","","","","","","null","","688.2999999523163","","3","1","null","null","arrowup","[0.675,0.325,0.15,0.85]","","",""
"sailing-trial","93","643300","0.0-11.0-58.0","","","","false","","","","","","","","","","988.5","","711.6999999284744","","2","0","arrowright","1","arrowleft","[0.675,0.325,0.15,0.85]","","",""
"sailing-trial","94","646205","0.0-11.0-59.0","","","","false","","","","","","","","","","null","","1069","","0","1","null","null","arrowup","[0.675,0.325,0.15,0.85]","","",""
"sailing-trial","95","650771","0.0-11.0-60.0","","","","false","","","","","","","","","","966","","885.1999999284744","","0","1","arrowleft","0","arrowleft","[0.675,0.325,0.15,0.85]","","",""
"sailing-trial","96","653479","0.0-11.0-61.0","","","","false","","","","","","","","","","null","","969.0999999046326","","1","1","null","null","arrowup","[0.675,0.325,0.15,0.85]","","",""
"sailing-trial","97","658263","0.0-11.0-62.0","","","","false","","","","","","","","","","836.1000000238419","","75.59999990463257","","0","0","arrowleft","0","arrowleft","[0.675,0.325,0.15,0.85]","","",""
"sailing-trial","98","660630","0.0-11.0-63.0","","","","false","","","","","","","","","","null","","616.4000000953674","","3","1","null","null","arrowup","[0.675,0.325,0.15,0.85]","","",""
"sailing-trial","99","664518","0.0-11.0-64.0","","","","false","","","","","","","","","","671.6000000238419","","466.60000002384186","","3","1","arrowright","1","arrowright","[0.675,0.325,0.15,0.85]","","",""
"sailing-trial","100","666972","0.0-11.0-65.0","","","","false","","","","","","","","","","null","","908.5","","0","1","null","null","arrowup","[0.675,0.325,0.15,0.85]","","",""
"sailing-trial","101","670651","0.0-11.0-66.0","","","","false","","","","","","","","","","430.8000000715256","","1092.7000000476837","","0","0","arrowleft","0","arrowleft","[0.675,0.325,0.15,0.85]","","",""
"sailing-trial","102","673232","0.0-11.0-67.0","","","","false","","","","","","","","","","null","","819.2999999523163","","3","1","null","null","arrowup","[0.675,0.325,0.15,0.85]","","",""
"sailing-trial","103","678417","0.0-11.0-68.0","","","","false","","","","","","","","","","573.7000000476837","","601.7999999523163","","3","0","arrowright","1","arrowright","[0.675,0.325,0.15,0.85]","","",""
"sailing-trial","104","681306","0.0-11.0-69.0","","","","false","","","","","","","","","","null","","1107.6999999284744","","3","1","null","null","arrowup","[0.675,0.325,0.15,0.85]","","",""
"sailing-trial","105","687091","0.0-11.0-70.0","","","","false","","","","","","","","","","1912","","1126","","3","1","arrowright","1","arrowright","[0.85,0.15,0.325,0.675]","","",""
"sailing-trial","106","689875","0.0-11.0-71.0","","","","false","","","","","","","","","","null","","1046.5","","0","1","null","null","arrowup","[0.85,0.15,0.325,0.675]","","",""
"sailing-trial","107","693114","0.0-11.0-72.0","","","","false","","","","","","","","","","372.39999997615814","","287.2000000476837","","0","1","arrowleft","0","arrowleft","[0.85,0.15,0.325,0.675]","","",""
"sailing-trial","108","695732","0.0-11.0-73.0","","","","false","","","","","","","","","","null","","899","","3","1","null","null","arrowup","[0.85,0.15,0.325,0.675]","","",""
"sailing-trial","109","699920","0.0-11.0-74.0","","","","false","","","","","","","","","","538.2999999523163","","899.6999999284744","","3","1","arrowright","1","arrowright","[0.85,0.15,0.325,0.675]","","",""
"sailing-trial","110","702307","0.0-11.0-75.0","","","","false","","","","","","","","","","null","","812.6000000238419","","0","1","null","null","arrowup","[0.85,0.15,0.325,0.675]","","",""
"sailing-trial","111","706180","0.0-11.0-76.0","","","","false","","","","","","","","","","353.2000000476837","","419","","0","1","arrowleft","0","arrowleft","[0.85,0.15,0.325,0.675]","","",""
"sailing-trial","112","708377","0.0-11.0-77.0","","","","false","","","","","","","","","","null","","928.2000000476837","","1","0","null","null","arrowup","[0.85,0.15,0.325,0.675]","","",""
"sailing-trial","113","711438","0.0-11.0-78.0","","","","false","","","","","","","","","","656.9000000953674","","338.10000002384186","","2","0","arrowright","1","arrowleft","[0.85,0.15,0.325,0.675]","","",""
"sailing-trial","114","714839","0.0-11.0-79.0","","","","false","","","","","","","","","","null","","1643.6000000238419","","1","1","null","null","arrowup","[0.85,0.15,0.325,0.675]","","",""
"sailing-trial","115","718393","0.0-11.0-80.0","","","","false","","","","","","","","","","855.3999999761581","","442.2000000476837","","2","0","arrowright","1","arrowleft","[0.85,0.15,0.325,0.675]","","",""
"sailing-trial","116","720416","0.0-11.0-81.0","","","","false","","","","","","","","","","null","","762.5999999046326","","1","0","null","null","arrowup","[0.85,0.15,0.325,0.675]","","",""
"sailing-trial","117","724106","0.0-11.0-82.0","","","","false","","","","","","","","","","524.6999999284744","","396.5","","0","1","arrowleft","0","arrowleft","[0.85,0.15,0.325,0.675]","","",""
"sailing-trial","118","726224","0.0-11.0-83.0","","","","false","","","","","","","","","","null","","840.2000000476837","","2","0","null","null","arrowup","[0.85,0.15,0.325,0.675]","","",""
"sailing-trial","119","729514","0.0-11.0-84.0","","","","false","","","","","","","","","","530.5999999046326","","24.600000023841858","","0","1","arrowleft","0","arrowleft","[0.85,0.15,0.325,0.675]","","",""
"sailing-trial","120","731891","0.0-11.0-85.0","","","","false","","","","","","","","","","null","","801.7000000476837","","3","1","null","null","arrowup","[0.85,0.15,0.325,0.675]","","",""
"sailing-trial","121","735146","0.0-11.0-86.0","","","","false","","","","","","","","","","569.5","","553.9000000953674","","1","0","arrowleft","0","arrowright","[0.85,0.15,0.325,0.675]","","",""
"sailing-trial","122","737715","0.0-11.0-87.0","","","","false","","","","","","","","","","null","","889.2000000476837","","0","1","null","null","arrowup","[0.85,0.15,0.325,0.675]","","",""
"sailing-trial","123","741751","0.0-11.0-88.0","","","","false","","","","","","","","","","1051.1000000238419","","214.60000002384186","","2","1","arrowright","1","arrowleft","[0.15,0.85,0.675,0.325]","","",""
"sailing-trial","124","743733","0.0-11.0-89.0","","","","false","","","","","","","","","","null","","863.5","","0","0","null","null","arrowup","[0.15,0.85,0.675,0.325]","","",""
"sailing-trial","125","747673","0.0-11.0-90.0","","","","false","","","","","","","","","","623.1999999284744","","653.1000000238419","","1","1","arrowleft","0","arrowright","[0.15,0.85,0.675,0.325]","","",""
"sailing-trial","126","750306","0.0-11.0-91.0","","","","false","","","","","","","","","","null","","848.6000000238419","","2","1","null","null","arrowup","[0.15,0.85,0.675,0.325]","","",""
"sailing-trial","127","753922","0.0-11.0-92.0","","","","false","","","","","","","","","","761.7000000476837","","140.29999995231628","","2","1","arrowright","1","arrowleft","[0.15,0.85,0.675,0.325]","","",""
"sailing-trial","128","756450","0.0-11.0-93.0","","","","false","","","","","","","","","","null","","1192.8999999761581","","3","0","null","null","arrowup","[0.15,0.85,0.675,0.325]","","",""
"sailing-trial","129","759655","0.0-11.0-94.0","","","","false","","","","","","","","","","961.0999999046326","","203.5","","0","0","arrowleft","0","arrowleft","[0.15,0.85,0.675,0.325]","","",""
"sailing-trial","130","762282","0.0-11.0-95.0","","","","false","","","","","","","","","","null","","893.7000000476837","","2","1","null","null","arrowup","[0.15,0.85,0.675,0.325]","","",""
"sailing-trial","131","766465","0.0-11.0-96.0","","","","false","","","","","","","","","","486.2999999523163","","594.7000000476837","","3","1","arrowright","1","arrowright","[0.15,0.85,0.675,0.325]","","",""
"sailing-trial","132","768941","0.0-11.0-97.0","","","","false","","","","","","","","","","null","","750.5","","2","1","null","null","arrowup","[0.15,0.85,0.675,0.325]","","",""
"sailing-trial","133","772374","0.0-11.0-98.0","","","","false","","","","","","","","","","659.1999999284744","","747.6000000238419","","1","0","arrowleft","0","arrowright","[0.15,0.85,0.675,0.325]","","",""
"sailing-trial","134","774748","0.0-11.0-99.0","","","","false","","","","","","","","","","null","","625.7999999523163","","2","1","null","null","arrowup","[0.15,0.85,0.675,0.325]","","",""
"sailing-trial","135","779573","0.0-11.0-100.0","","","","false","","","","","","","","","","522.8999999761581","","862.6999999284744","","3","0","arrowright","1","arrowright","[0.15,0.85,0.675,0.325]","","",""
"sailing-trial","136","781925","0.0-11.0-101.0","","","","false","","","","","","","","","","null","","789.1000000238419","","1","1","null","null","arrowup","[0.15,0.85,0.675,0.325]","","",""
"sailing-trial","137","785103","0.0-11.0-102.0","","","","false","","","","","","","","","","372.10000002384186","","738.5","","0","0","arrowleft","0","arrowleft","[0.15,0.85,0.675,0.325]","","",""
"sailing-trial","138","787674","0.0-11.0-103.0","","","","false","","","","","","","","","","null","","792.6000000238419","","1","1","null","null","arrowup","[0.15,0.85,0.675,0.325]","","",""
"sailing-trial","139","790848","0.0-11.0-104.0","","","","false","","","","","","","","","","441.1999999284744","","53.39999997615814","","2","1","arrowright","1","arrowleft","[0.15,0.85,0.675,0.325]","","",""
"sailing-trial","140","793457","0.0-11.0-105.0","","","","false","","","","","","","","","","null","","862.1000000238419","","2","1","null","null","arrowup","[0.15,0.85,0.675,0.325]","","",""
"sailing-trial","141","797536","0.0-11.0-106.0","","","","false","","","","","","","","","","723.1000000238419","","1158.5","","2","0","arrowright","1","arrowleft","[0.675,0.325,0.15,0.85]","","",""
"sailing-trial","142","802218","0.0-11.0-107.0","","","","false","","","","","","","","","","null","","1659.3999999761581","","2","0","null","null","arrowup","[0.675,0.325,0.15,0.85]","","",""
"sailing-trial","143","805816","0.0-11.0-108.0","","","","false","","","","","","","","","","535.6999999284744","","768.8999999761581","","2","0","arrowright","1","arrowleft","[0.675,0.325,0.15,0.85]","","",""
"sailing-trial","144","807439","0.0-11.0-109.0","","","","false","","","","","","","","","","null","","500.1999999284744","","1","0","null","null","arrowup","[0.675,0.325,0.15,0.85]","","",""
"sailing-trial","145","811282","0.0-11.0-110.0","","","","false","","","","","","","","","","414","","764.7000000476837","","3","1","arrowright","1","arrowright","[0.675,0.325,0.15,0.85]","","",""
"sailing-trial","146","813277","0.0-11.0-111.0","","","","false","","","","","","","","","","null","","715.1999999284744","","2","0","null","null","arrowup","[0.675,0.325,0.15,0.85]","","",""
"sailing-trial","147","816881","0.0-11.0-112.0","","","","false","","","","","","","","","","336.89999997615814","","642.7999999523163","","0","1","arrowleft","0","arrowleft","[0.675,0.325,0.15,0.85]","","",""
"sailing-trial","148","820708","0.0-11.0-113.0","","","","false","","","","","","","","","","null","","1008.5999999046326","","2","0","null","null","arrowup","[0.675,0.325,0.15,0.85]","","",""
"sailing-trial","149","824372","0.0-11.0-114.0","","","","false","","","","","","","","","","920.8999999761581","","450.3000000715256","","0","0","arrowleft","0","arrowleft","[0.675,0.325,0.15,0.85]","","",""
"sailing-trial","150","827174","0.0-11.0-115.0","","","","false","","","","","","","","","","null","","689.1000000238419","","0","1","null","null","arrowup","[0.675,0.325,0.15,0.85]","","",""
"sailing-trial","151","831182","0.0-11.0-116.0","","","","false","","","","","","","","","","492.40000009536743","","939.3999999761581","","3","1","arrowright","1","arrowright","[0.675,0.325,0.15,0.85]","","",""
"sailing-trial","152","835159","0.0-11.0-117.0","","","","false","","","","","","","","","","null","","2211.6999999284744","","0","1","null","null","arrowup","[0.675,0.325,0.15,0.85]","","",""
"sailing-trial","153","837984","0.0-11.0-118.0","","","","false","","","","","","","","","","451.39999997615814","","273.90000009536743","","0","0","arrowleft","0","arrowleft","[0.675,0.325,0.15,0.85]","","",""
"sailing-trial","154","840925","0.0-11.0-119.0","","","","false","","","","","","","","","","null","","1143.8000000715256","","3","1","null","null","arrowup","[0.675,0.325,0.15,0.85]","","",""
"sailing-trial","155","844354","0.0-11.0-120.0","","","","false","","","","","","","","","","773.5999999046326","","219.30000007152557","","1","0","arrowleft","0","arrowright","[0.675,0.325,0.15,0.85]","","",""
"sailing-trial","156","847565","0.0-11.0-121.0","","","","false","","","","","","","","","","null","","1096.2000000476837","","0","1","null","null","arrowup","[0.675,0.325,0.15,0.85]","","",""
"sailing-trial","157","850948","0.0-11.0-122.0","","","","false","","","","","","","","","","567.3999999761581","","562.2000000476837","","2","0","arrowright","1","arrowleft","[0.675,0.325,0.15,0.85]","","",""
"sailing-trial","158","853282","0.0-11.0-123.0","","","","false","","","","","","","","","","null","","524.1999999284744","","3","1","null","null","arrowup","[0.675,0.325,0.15,0.85]","","",""
"sailing-trial","159","858186","0.0-11.0-124.0","","","","false","","","","","","","","","","701","","190.80000007152557","","2","0","arrowright","1","arrowleft","[0.675,0.325,0.15,0.85]","","",""
"sailing-trial","160","862102","0.0-11.0-125.0","","","","false","","","","","","","","","","null","","899.3000000715256","","1","0","null","null","arrowup","[0.675,0.325,0.15,0.85]","","",""
"sailing-trial","161","867327","0.0-11.0-126.0","","","","false","","","","","","","","","","313.10000002384186","","880.5","","1","0","arrowleft","0","arrowright","[0.675,0.325,0.15,0.85]","","",""
"sailing-trial","162","869373","0.0-11.0-127.0","","","","false","","","","","","","","","","null","","629.7999999523163","","1","0","null","null","arrowup","[0.675,0.325,0.15,0.85]","","",""
"sailing-trial","163","873466","0.0-11.0-128.0","","","","false","","","","","","","","","","746.6000000238419","","540.5","","0","1","arrowleft","0","arrowleft","[0.85,0.15,0.325,0.675]","","",""
"sailing-trial","164","875924","0.0-11.0-129.0","","","","false","","","","","","","","","","null","","890.5","","0","1","null","null","arrowup","[0.85,0.15,0.325,0.675]","","",""
"sailing-trial","165","881058","0.0-11.0-130.0","","","","false","","","","","","","","","","704.4000000953674","","1778","","2","1","arrowright","1","arrowleft","[0.85,0.15,0.325,0.675]","","",""
"sailing-trial","166","883344","0.0-11.0-131.0","","","","false","","","","","","","","","","null","","1041.5999999046326","","3","0","null","null","arrowup","[0.85,0.15,0.325,0.675]","","",""
"sailing-trial","167","888153","0.0-11.0-132.0","","","","false","","","","","","","","","","1220.5999999046326","","1323.3000000715256","","1","0","arrowleft","0","arrowright","[0.85,0.15,0.325,0.675]","","",""
"sailing-trial","168","890321","0.0-11.0-133.0","","","","false","","","","","","","","","","null","","945.3999999761581","","1","0","null","null","arrowup","[0.85,0.15,0.325,0.675]","","",""
"sailing-trial","169","893666","0.0-11.0-134.0","","","","false","","","","","","","","","","492.2999999523163","","49.299999952316284","","0","1","arrowleft","0","arrowleft","[0.85,0.15,0.325,0.675]","","",""
"sailing-trial","170","896318","0.0-11.0-135.0","","","","false","","","","","","","","","","null","","918.1000000238419","","3","1","null","null","arrowup","[0.85,0.15,0.325,0.675]","","",""
"sailing-trial","171","900457","0.0-11.0-136.0","","","","false","","","","","","","","","","931.8999999761581","","1089","","2","0","arrowright","1","arrowleft","[0.85,0.15,0.325,0.675]","","",""
"sailing-trial","172","902624","0.0-11.0-137.0","","","","false","","","","","","","","","","null","","901.2999999523163","","3","0","null","null","arrowup","[0.85,0.15,0.325,0.675]","","",""
"sailing-trial","173","907091","0.0-11.0-138.0","","","","false","","","","","","","","","","454.3000000715256","","1392.6000000238419","","0","1","arrowleft","0","arrowleft","[0.85,0.15,0.325,0.675]","","",""
"sailing-trial","174","909321","0.0-11.0-139.0","","","","false","","","","","","","","","","null","","986.7000000476837","","1","0","null","null","arrowup","[0.85,0.15,0.325,0.675]","","",""
"sailing-trial","175","913954","0.0-11.0-140.0","","","","false","","","","","","","","","","706.2000000476837","","1662.6000000238419","","2","0","arrowright","1","arrowleft","[0.85,0.15,0.325,0.675]","","",""
"sailing-trial","176","916010","0.0-11.0-141.0","","","","false","","","","","","","","","","null","","924.2000000476837","","2","0","null","null","arrowup","[0.85,0.15,0.325,0.675]","","",""
"sailing-trial","177","919617","0.0-11.0-142.0","","","","false","","","","","","","","","","556.2000000476837","","492.7000000476837","","0","1","arrowleft","0","arrowleft","[0.85,0.15,0.325,0.675]","","",""
"sailing-trial","178","922084","0.0-11.0-143.0","","","","false","","","","","","","","","","null","","816.1000000238419","","3","1","null","null","arrowup","[0.85,0.15,0.325,0.675]","","",""
"sailing-trial","179","928901","0.0-11.0-144.0","","","","false","","","","","","","","","","495.39999997615814","","2301.600000023842","","3","0","arrowright","1","arrowright","[0.85,0.15,0.325,0.675]","","",""
"sailing-trial","180","931517","0.0-11.0-145.0","","","","false","","","","","","","","","","null","","822.9000000953674","","2","1","null","null","arrowup","[0.85,0.15,0.325,0.675]","","",""
"sailing-trial","181","935965","0.0-11.0-146.0","","","","false","","","","","","","","","","2101.7000000476837","","190.79999995231628","","1","0","arrowleft","0","arrowright","[0.85,0.15,0.325,0.675]","","",""
"sailing-trial","182","938203","0.0-11.0-147.0","","","","false","","","","","","","","","","null","","695.5","","0","1","null","null","arrowup","[0.85,0.15,0.325,0.675]","","",""
"sailing-trial","183","941362","0.0-11.0-148.0","","","","false","","","","","","","","","","364.5","","588","","0","0","arrowleft","0","arrowleft","[0.325,0.675,0.85,0.15]","","",""
"sailing-trial","184","944191","0.0-11.0-149.0","","","","false","","","","","","","","","","null","","836.3999999761581","","2","1","null","null","arrowup","[0.325,0.675,0.85,0.15]","","",""
"sailing-trial","185","950225","0.0-11.0-150.0","","","","false","","","","","","","","","","527.1000000238419","","2756.600000023842","","2","1","arrowright","1","arrowleft","[0.325,0.675,0.85,0.15]","","",""
"sailing-trial","186","952151","0.0-11.0-151.0","","","","false","","","","","","","","","","null","","830.3999999761581","","2","0","null","null","arrowup","[0.325,0.675,0.85,0.15]","","",""
"sailing-trial","187","956171","0.0-11.0-152.0","","","","false","","","","","","","","","","1106.2000000476837","","360.60000002384186","","3","0","arrowright","1","arrowright","[0.325,0.675,0.85,0.15]","","",""
"sailing-trial","188","958254","0.0-11.0-153.0","","","","false","","","","","","","","","","null","","755.7999999523163","","1","0","null","null","arrowup","[0.325,0.675,0.85,0.15]","","",""
"sailing-trial","189","961541","0.0-11.0-154.0","","","","false","","","","","","","","","","732.8999999761581","","472.7999999523163","","1","0","arrowleft","0","arrowright","[0.325,0.675,0.85,0.15]","","",""
"sailing-trial","190","963258","0.0-11.0-155.0","","","","false","","","","","","","","","","null","","668","","3","0","null","null","arrowup","[0.325,0.675,0.85,0.15]","","",""
"sailing-trial","191","966822","0.0-11.0-156.0","","","","false","","","","","","","","","","374.7999999523163","","1082.6000000238419","","0","0","arrowleft","0","arrowleft","[0.325,0.675,0.85,0.15]","","",""
"sailing-trial","192","969369","0.0-11.0-157.0","","","","false","","","","","","","","","","null","","843.5","","2","1","null","null","arrowup","[0.325,0.675,0.85,0.15]","","",""
"sailing-trial","193","973542","0.0-11.0-158.0","","","","false","","","","","","","","","","481.2999999523163","","931.3999999761581","","2","1","arrowright","1","arrowleft","[0.325,0.675,0.85,0.15]","","",""
"sailing-trial","194","977843","0.0-11.0-159.0","","","","false","","","","","","","","","","null","","2500.600000023842","","1","1","null","null","arrowup","[0.325,0.675,0.85,0.15]","","",""
"sailing-trial","195","982726","0.0-11.0-160.0","","","","false","","","","","","","","","","519.9000000953674","","905.5","","0","1","arrowleft","0","arrowleft","[0.325,0.675,0.85,0.15]","","",""
"sailing-trial","196","985359","0.0-11.0-161.0","","","","false","","","","","","","","","","null","","826.5999999046326","","1","1","null","null","arrowup","[0.325,0.675,0.85,0.15]","","",""
"sailing-trial","197","990020","0.0-11.0-162.0","","","","false","","","","","","","","","","811.1000000238419","","1068.9000000953674","","1","1","arrowleft","0","arrowright","[0.325,0.675,0.85,0.15]","","",""
"sailing-trial","198","992560","0.0-11.0-163.0","","","","false","","","","","","","","","","null","","751.5","","2","1","null","null","arrowup","[0.325,0.675,0.85,0.15]","","",""
"sailing-trial","199","995834","0.0-11.0-164.0","","","","false","","","","","","","","","","307.89999997615814","","3.799999952316284","","1","1","arrowleft","0","arrowright","[0.325,0.675,0.85,0.15]","","",""
"sailing-trial","200","998126","0.0-11.0-165.0","","","","false","","","","","","","","","","null","","565","","1","1","null","null","arrowup","[0.325,0.675,0.85,0.15]","","",""
"sailing-trial","201","1000952","0.0-11.0-166.0","","","","false","","","","","","","","","","334.2999999523163","","324.7000000476837","","1","0","arrowleft","0","arrowright","[0.325,0.675,0.85,0.15]","","",""
"sailing-trial","202","1003201","0.0-11.0-167.0","","","","false","","","","","","","","","","null","","704.2000000476837","","0","1","null","null","arrowup","[0.325,0.675,0.85,0.15]","","",""
"sailing-trial","203","1006295","0.0-11.0-168.0","","","","false","","","","","","","","","","297","","514.7000000476837","","0","0","arrowleft","0","arrowleft","[0.325,0.675,0.85,0.15]","","",""
"sailing-trial","204","1007958","0.0-11.0-169.0","","","","false","","","","","","","","","","null","","634.3999999761581","","3","0","null","null","arrowup","[0.325,0.675,0.85,0.15]","","",""
"sailing-trial","205","1013901","0.0-11.0-170.0","","","","false","","","","","","","","","","719.8999999761581","","2491.600000023842","","2","1","arrowright","1","arrowleft","[0.325,0.675,0.85,0.15]","","",""
"sailing-trial","206","1016370","0.0-11.0-171.0","","","","false","","","","","","","","","","null","","875","","2","1","null","null","arrowup","[0.325,0.675,0.85,0.15]","","",""
"sailing-trial","207","1021117","0.0-11.0-172.0","","","","false","","","","","","","","","","615.8000000715256","","1402.8999999761581","","2","1","arrowright","1","arrowleft","[0.15,0.85,0.675,0.325]","","",""
"sailing-trial","208","1023075","0.0-11.0-173.0","","","","false","","","","","","","","","","null","","773.1000000238419","","3","0","null","null","arrowup","[0.15,0.85,0.675,0.325]","","",""
"sailing-trial","209","1026579","0.0-11.0-174.0","","","","false","","","","","","","","","","354.60000002384186","","924.3000000715256","","1","0","arrowleft","0","arrowright","[0.15,0.85,0.675,0.325]","","",""
"sailing-trial","210","1029157","0.0-11.0-175.0","","","","false","","","","","","","","","","null","","835.5","","1","1","null","null","arrowup","[0.15,0.85,0.675,0.325]","","",""
"sailing-trial","211","1032408","0.0-11.0-176.0","","","","false","","","","","","","","","","395.89999997615814","","551.8999999761581","","0","0","arrowleft","0","arrowleft","[0.15,0.85,0.675,0.325]","","",""
"sailing-trial","212","1034934","0.0-11.0-177.0","","","","false","","","","","","","","","","null","","799.2000000476837","","2","1","null","null","arrowup","[0.15,0.85,0.675,0.325]","","",""
"sailing-trial","213","1038898","0.0-11.0-178.0","","","","false","","","","","","","","","","474.89999997615814","","700.2000000476837","","2","1","arrowright","1","arrowleft","[0.15,0.85,0.675,0.325]","","",""
"sailing-trial","214","1042597","0.0-11.0-179.0","","","","false","","","","","","","","","","null","","912.8999999761581","","0","0","null","null","arrowup","[0.15,0.85,0.675,0.325]","","",""
"sailing-trial","215","1047519","0.0-11.0-180.0","","","","false","","","","","","","","","","1492.9000000953674","","649","","1","1","arrowleft","0","arrowright","[0.15,0.85,0.675,0.325]","","",""
"sailing-trial","216","1049361","0.0-11.0-181.0","","","","false","","","","","","","","","","null","","798.2000000476837","","3","0","null","null","arrowup","[0.15,0.85,0.675,0.325]","","",""
"sailing-trial","217","1052792","0.0-11.0-182.0","","","","false","","","","","","","","","","443.7000000476837","","393.8000000715256","","2","1","arrowright","1","arrowleft","[0.15,0.85,0.675,0.325]","","",""
"sailing-trial","218","1056537","0.0-11.0-183.0","","","","false","","","","","","","","","","null","","742.8999999761581","","3","0","null","null","arrowup","[0.15,0.85,0.675,0.325]","","",""
"sailing-trial","219","1059583","0.0-11.0-184.0","","","","false","","","","","","","","","","746.3999999761581","","173.5","","0","0","arrowleft","0","arrowleft","[0.15,0.85,0.675,0.325]","","",""
"sailing-trial","220","1062235","0.0-11.0-185.0","","","","false","","","","","","","","","","null","","704","","2","1","null","null","arrowup","[0.15,0.85,0.675,0.325]","","",""
"sailing-trial","221","1066619","0.0-11.0-186.0","","","","false","","","","","","","","","","517.2000000476837","","1320.3999999761581","","2","1","arrowright","1","arrowleft","[0.15,0.85,0.675,0.325]","","",""
"sailing-trial","222","1068394","0.0-11.0-187.0","","","","false","","","","","","","","","","null","","699","","3","0","null","null","arrowup","[0.15,0.85,0.675,0.325]","","",""
"sailing-trial","223","1072440","0.0-11.0-188.0","","","","false","","","","","","","","","","491.2999999523163","","1281.3000000715256","","1","0","arrowleft","0","arrowright","[0.85,0.15,0.325,0.675]","","",""
"sailing-trial","224","1074919","0.0-11.0-189.0","","","","false","","","","","","","","","","null","","830.2000000476837","","0","1","null","null","arrowup","[0.85,0.15,0.325,0.675]","","",""
"sailing-trial","225","1078514","0.0-11.0-190.0","","","","false","","","","","","","","","","940.1000000238419","","356.60000002384186","","2","0","arrowright","1","arrowleft","[0.85,0.15,0.325,0.675]","","",""
"sailing-trial","226","1080717","0.0-11.0-191.0","","","","false","","","","","","","","","","null","","1086.8999999761581","","2","0","null","null","arrowup","[0.85,0.15,0.325,0.675]","","",""
"sailing-trial","227","1084985","0.0-11.0-192.0","","","","false","","","","","","","","","","428.10000002384186","","1169.2000000476837","","3","1","arrowright","1","arrowright","[0.85,0.15,0.325,0.675]","","",""
"sailing-trial","228","1086972","0.0-11.0-193.0","","","","false","","","","","","","","","","null","","923.5","","1","0","null","null","arrowup","[0.85,0.15,0.325,0.675]","","",""
"sailing-trial","229","1091194","0.0-11.0-194.0","","","","false","","","","","","","","","","620.6000000238419","","943","","0","1","arrowleft","0","arrowleft","[0.85,0.15,0.325,0.675]","","",""
"sailing-trial","230","1095161","0.0-11.0-195.0","","","","false","","","","","","","","","","null","","946.2000000476837","","1","0","null","null","arrowup","[0.85,0.15,0.325,0.675]","","",""
"sailing-trial","231","1098443","0.0-11.0-196.0","","","","false","","","","","","","","","","541.1000000238419","","21.199999928474426","","0","1","arrowleft","0","arrowleft","[0.85,0.15,0.325,0.675]","","",""
"sailing-trial","232","1100413","0.0-11.0-197.0","","","","false","","","","","","","","","","null","","658.5","","2","0","null","null","arrowup","[0.85,0.15,0.325,0.675]","","",""
"sailing-trial","233","1103568","0.0-11.0-198.0","","","","false","","","","","","","","","","400.3000000715256","","38.299999952316284","","3","1","arrowright","1","arrowright","[0.85,0.15,0.325,0.675]","","",""
"sailing-trial","234","1105913","0.0-11.0-199.0","","","","false","","","","","","","","","","null","","929.3999999761581","","2","0","null","null","arrowup","[0.85,0.15,0.325,0.675]","","",""
"sailing-trial","235","1109602","0.0-11.0-200.0","","","","false","","","","","","","","","","384.1999999284744","","640","","3","1","arrowright","1","arrowright","[0.85,0.15,0.325,0.675]","","",""
"sailing-trial","236","1112161","0.0-11.0-201.0","","","","false","","","","","","","","","","null","","776.6000000238419","","1","1","null","null","arrowup","[0.85,0.15,0.325,0.675]","","",""
"sailing-trial","237","1115718","0.0-11.0-202.0","","","","false","","","","","","","","","","320.89999997615814","","603.6000000238419","","1","1","arrowleft","0","arrowright","[0.85,0.15,0.325,0.675]","","",""
"sailing-trial","238","1118118","0.0-11.0-203.0","","","","false","","","","","","","","","","null","","668.1999999284744","","0","1","null","null","arrowup","[0.85,0.15,0.325,0.675]","","",""
"sailing-trial","239","1121935","0.0-11.0-204.0","","","","false","","","","","","","","","","305.2000000476837","","394.2000000476837","","0","1","arrowleft","0","arrowleft","[0.675,0.325,0.15,0.85]","","",""
"sailing-trial","240","1124402","0.0-11.0-205.0","","","","false","","","","","","","","","","null","","696.8000000715256","","1","1","null","null","arrowup","[0.675,0.325,0.15,0.85]","","",""
"sailing-trial","241","1126971","0.0-11.0-206.0","","","","false","","","","","","","","","","312.60000002384186","","228.5","","2","0","arrowright","1","arrowleft","[0.675,0.325,0.15,0.85]","","",""
"sailing-trial","242","1129318","0.0-11.0-207.0","","","","false","","","","","","","","","","null","","808","","3","1","null","null","arrowup","[0.675,0.325,0.15,0.85]","","",""
"sailing-trial","243","1133602","0.0-11.0-208.0","","","","false","","","","","","","","","","713.7000000476837","","541.5","","3","1","arrowright","1","arrowright","[0.675,0.325,0.15,0.85]","","",""
"sailing-trial","244","1136593","0.0-11.0-209.0","","","","false","","","","","","","","","","null","","1066.2000000476837","","0","1","null","null","arrowup","[0.675,0.325,0.15,0.85]","","",""
"sailing-trial","245","1140260","0.0-11.0-210.0","","","","false","","","","","","","","","","366.6999999284744","","576.3000000715256","","0","1","arrowleft","0","arrowleft","[0.675,0.325,0.15,0.85]","","",""
"sailing-trial","246","1143886","0.0-11.0-211.0","","","","false","","","","","","","","","","null","","617.2000000476837","","0","0","null","null","arrowup","[0.675,0.325,0.15,0.85]","","",""
"sailing-trial","247","1147710","0.0-11.0-212.0","","","","false","","","","","","","","","","740.1000000238419","","476.89999997615814","","1","1","arrowleft","0","arrowright","[0.675,0.325,0.15,0.85]","","",""
"sailing-trial","248","1150260","0.0-11.0-213.0","","","","false","","","","","","","","","","null","","811.3999999761581","","3","1","null","null","arrowup","[0.675,0.325,0.15,0.85]","","",""
"sailing-trial","249","1155404","0.0-11.0-214.0","","","","false","","","","","","","","","","450.2000000476837","","674.1000000238419","","3","0","arrowright","1","arrowright","[0.675,0.325,0.15,0.85]","","",""
"sailing-trial","250","1157885","0.0-11.0-215.0","","","","false","","","","","","","","","","null","","736.7000000476837","","0","1","null","null","arrowup","[0.675,0.325,0.15,0.85]","","",""
"sailing-trial","251","1160681","0.0-11.0-216.0","","","","false","","","","","","","","","","283","","386.2000000476837","","0","0","arrowleft","0","arrowleft","[0.675,0.325,0.15,0.85]","","",""
"sailing-trial","252","1163318","0.0-11.0-217.0","","","","false","","","","","","","","","","null","","592.6000000238419","","0","1","null","null","arrowup","[0.675,0.325,0.15,0.85]","","",""
"sailing-trial","253","1166549","0.0-11.0-218.0","","","","false","","","","","","","","","","810.7000000476837","","240.70000004768372","","1","0","arrowleft","0","arrowright","[0.675,0.325,0.15,0.85]","","",""
"sailing-trial","254","1170410","0.0-11.0-219.0","","","","false","","","","","","","","","","null","","2229.5","","3","1","null","null","arrowup","[0.675,0.325,0.15,0.85]","","",""
"sailing-trial","255","1174318","0.0-11.0-220.0","","","","false","","","","","","","","","","522.6000000238419","","612.3999999761581","","3","1","arrowright","1","arrowright","[0.675,0.325,0.15,0.85]","","",""
"sailing-trial","256","1176727","0.0-11.0-221.0","","","","false","","","","","","","","","","null","","755.7999999523163","","0","1","null","null","arrowup","[0.675,0.325,0.15,0.85]","","",""
"sailing-trial","257","1179779","0.0-11.0-222.0","","","","false","","","","","","","","","","418.5","","458.8000000715256","","0","0","arrowleft","0","arrowleft","[0.675,0.325,0.15,0.85]","","",""
"sailing-trial","258","1181640","0.0-11.0-223.0","","","","false","","","","","","","","","","null","","635.5","","1","0","null","null","arrowup","[0.675,0.325,0.15,0.85]","","",""
"sailing-trial","259","1186296","0.0-11.0-224.0","","","","false","","","","","","","","","","441.5","","181.39999997615814","","2","0","arrowright","1","arrowleft","[0.675,0.325,0.15,0.85]","","",""
"sailing-trial","260","1188174","0.0-11.0-225.0","","","","false","","","","","","","","","","null","","562.3999999761581","","2","0","null","null","arrowup","[0.675,0.325,0.15,0.85]","","",""
"sailing-trial","261","1193322","0.0-11.0-226.0","","","","false","","","","","","","","","","2427.3000000715256","","414.39999997615814","","1","0","arrowleft","0","arrowright","[0.85,0.15,0.325,0.675]","","",""
"sailing-trial","262","1197698","0.0-11.0-227.0","","","","false","","","","","","","","","","null","","1373.5","","1","0","null","null","arrowup","[0.85,0.15,0.325,0.675]","","",""
"sailing-trial","263","1200985","0.0-11.0-228.0","","","","false","","","","","","","","","","480.10000002384186","","31.800000071525574","","2","1","arrowright","1","arrowleft","[0.85,0.15,0.325,0.675]","","",""
"sailing-trial","264","1202939","0.0-11.0-229.0","","","","false","","","","","","","","","","null","","916.2999999523163","","0","0","null","null","arrowup","[0.85,0.15,0.325,0.675]","","",""
"sailing-trial","265","1206020","0.0-11.0-230.0","","","","false","","","","","","","","","","702.1999999284744","","258.90000009536743","","2","0","arrowright","1","arrowleft","[0.85,0.15,0.325,0.675]","","",""
"sailing-trial","266","1208679","0.0-11.0-231.0","","","","false","","","","","","","","","","null","","739.1000000238419","","3","1","null","null","arrowup","[0.85,0.15,0.325,0.675]","","",""
"sailing-trial","267","1212328","0.0-11.0-232.0","","","","false","","","","","","","","","","586.2999999523163","","391.5","","3","1","arrowright","1","arrowright","[0.85,0.15,0.325,0.675]","","",""
"sailing-trial","268","1215045","0.0-11.0-233.0","","","","false","","","","","","","","","","null","","993.8999999761581","","3","1","null","null","arrowup","[0.85,0.15,0.325,0.675]","","",""
"sailing-trial","269","1218753","0.0-11.0-234.0","","","","false","","","","","","","","","","476.5","","355.7999999523163","","3","1","arrowright","1","arrowright","[0.85,0.15,0.325,0.675]","","",""
"sailing-trial","270","1221037","0.0-11.0-235.0","","","","false","","","","","","","","","","null","","586.6999999284744","","0","1","null","null","arrowup","[0.85,0.15,0.325,0.675]","","",""
"sailing-trial","271","1224237","0.0-11.0-236.0","","","","false","","","","","","","","","","312.6999999284744","","311.3000000715256","","0","1","arrowleft","0","arrowleft","[0.85,0.15,0.325,0.675]","","",""
"sailing-trial","272","1226636","0.0-11.0-237.0","","","","false","","","","","","","","","","null","","781.9000000953674","","2","1","null","null","arrowup","[0.85,0.15,0.325,0.675]","","",""
"sailing-trial","273","1230088","0.0-11.0-238.0","","","","false","","","","","","","","","","371.2000000476837","","380.3000000715256","","2","1","arrowright","1","arrowleft","[0.85,0.15,0.325,0.675]","","",""
"sailing-trial","274","1232010","0.0-11.0-239.0","","","","false","","","","","","","","","","null","","745.1000000238419","","2","0","null","null","arrowup","[0.85,0.15,0.325,0.675]","","",""
"sailing-trial","275","1235512","0.0-11.0-240.0","","","","false","","","","","","","","","","446.2999999523163","","427.2000000476837","","3","1","arrowright","1","arrowright","[0.85,0.15,0.325,0.675]","","",""
"sailing-trial","276","1237631","0.0-11.0-241.0","","","","false","","","","","","","","","","null","","452.2999999523163","","3","1","null","null","arrowup","[0.85,0.15,0.325,0.675]","","",""
"sailing-trial","277","1241094","0.0-11.0-242.0","","","","false","","","","","","","","","","221.29999995231628","","314.2999999523163","","3","1","arrowright","1","arrowright","[0.675,0.325,0.15,0.85]","","",""
"sailing-trial","278","1242636","0.0-11.0-243.0","","","","false","","","","","","","","","","null","","283.89999997615814","","2","0","null","null","arrowup","[0.675,0.325,0.15,0.85]","","",""
"sailing-trial","279","1246069","0.0-11.0-244.0","","","","false","","","","","","","","","","341","","364.10000002384186","","3","1","arrowright","1","arrowright","[0.675,0.325,0.15,0.85]","","",""
"sailing-trial","280","1247947","0.0-11.0-245.0","","","","false","","","","","","","","","","null","","567.1000000238419","","1","0","null","null","arrowup","[0.675,0.325,0.15,0.85]","","",""
"sailing-trial","281","1251232","0.0-11.0-246.0","","","","false","","","","","","","","","","253.89999997615814","","390.2000000476837","","0","1","arrowleft","0","arrowleft","[0.675,0.325,0.15,0.85]","","",""
"sailing-trial","282","1252991","0.0-11.0-247.0","","","","false","","","","","","","","","","null","","480.7000000476837","","2","0","null","null","arrowup","[0.675,0.325,0.15,0.85]","","",""
"sailing-trial","283","1256998","0.0-11.0-248.0","","","","false","","","","","","","","","","1484.6000000238419","","258.5","","3","0","arrowright","1","arrowright","[0.675,0.325,0.15,0.85]","","",""
"sailing-trial","284","1258651","0.0-11.0-249.0","","","","false","","","","","","","","","","null","","415.7999999523163","","2","0","null","null","arrowup","[0.675,0.325,0.15,0.85]","","",""
"sailing-trial","285","1262051","0.0-11.0-250.0","","","","false","","","","","","","","","","906.8999999761581","","259.09999990463257","","1","0","arrowleft","0","arrowright","[0.675,0.325,0.15,0.85]","","",""
"sailing-trial","286","1264862","0.0-11.0-251.0","","","","false","","","","","","","","","","null","","630.3999999761581","","0","1","null","null","arrowup","[0.675,0.325,0.15,0.85]","","",""
"sailing-trial","287","1267517","0.0-11.0-252.0","","","","false","","","","","","","","","","135","","239.60000002384186","","0","0","arrowleft","0","arrowleft","[0.675,0.325,0.15,0.85]","","",""
"sailing-trial","288","1270898","0.0-11.0-253.0","","","","false","","","","","","","","","","null","","2271.7999999523163","","2","0","null","null","arrowup","[0.675,0.325,0.15,0.85]","","",""
"sailing-trial","289","1273699","0.0-11.0-254.0","","","","false","","","","","","","","","","414.2000000476837","","257.90000009536743","","3","0","arrowright","1","arrowright","[0.675,0.325,0.15,0.85]","","",""
"sailing-trial","290","1275996","0.0-11.0-255.0","","","","false","","","","","","","","","","null","","661.3999999761581","","1","1","null","null","arrowup","[0.675,0.325,0.15,0.85]","","",""
"sailing-trial","291","1279529","0.0-11.0-256.0","","","","false","","","","","","","","","","382.40000009536743","","222.10000002384186","","1","1","arrowleft","0","arrowright","[0.675,0.325,0.15,0.85]","","",""
"sailing-trial","292","1281832","0.0-11.0-257.0","","","","false","","","","","","","","","","null","","1061.1999999284744","","1","0","null","null","arrowup","[0.675,0.325,0.15,0.85]","","",""
"sailing-trial","293","1286439","0.0-11.0-258.0","","","","false","","","","","","","","","","249.89999997615814","","314.7000000476837","","2","0","arrowright","1","arrowleft","[0.85,0.15,0.325,0.675]","","",""
"sailing-trial","294","1288887","0.0-11.0-259.0","","","","false","","","","","","","","","","null","","705.6999999284744","","0","1","null","null","arrowup","[0.85,0.15,0.325,0.675]","","",""
"sailing-trial","295","1293247","0.0-11.0-260.0","","","","false","","","","","","","","","","1265","","394.5","","2","1","arrowright","1","arrowleft","[0.85,0.15,0.325,0.675]","","",""
"sailing-trial","296","1295345","0.0-11.0-261.0","","","","false","","","","","","","","","","null","","422.39999997615814","","0","1","null","null","arrowup","[0.85,0.15,0.325,0.675]","","",""
"sailing-trial","297","1298604","0.0-11.0-262.0","","","","false","","","","","","","","","","469.5","","127.40000009536743","","0","1","arrowleft","0","arrowleft","[0.85,0.15,0.325,0.675]","","",""
"sailing-trial","298","1301079","0.0-11.0-263.0","","","","false","","","","","","","","","","null","","791.7999999523163","","3","1","null","null","arrowup","[0.85,0.15,0.325,0.675]","","",""
"sailing-trial","299","1305839","0.0-11.0-264.0","","","","false","","","","","","","","","","308.90000009536743","","441.3000000715256","","3","0","arrowright","1","arrowright","[0.85,0.15,0.325,0.675]","","",""
"sailing-trial","300","1308042","0.0-11.0-265.0","","","","false","","","","","","","","","","null","","938.3000000715256","","1","0","null","null","arrowup","[0.85,0.15,0.325,0.675]","","",""
"sailing-trial","301","1311438","0.0-11.0-266.0","","","","false","","","","","","","","","","374.60000002384186","","437.60000002384186","","0","1","arrowleft","0","arrowleft","[0.85,0.15,0.325,0.675]","","",""
"sailing-trial","302","1313504","0.0-11.0-267.0","","","","false","","","","","","","","","","null","","402.89999997615814","","3","1","null","null","arrowup","[0.85,0.15,0.325,0.675]","","",""
"sailing-trial","303","1315868","0.0-11.0-268.0","","","","false","","","","","","","","","","155.70000004768372","","44.89999997615814","","3","0","arrowright","1","arrowright","[0.85,0.15,0.325,0.675]","","",""
"sailing-trial","304","1317854","0.0-11.0-269.0","","","","false","","","","","","","","","","null","","444.39999997615814","","3","1","null","null","arrowup","[0.85,0.15,0.325,0.675]","","",""
"sailing-trial","305","1320982","0.0-11.0-270.0","","","","false","","","","","","","","","","604.8999999761581","","397","","1","0","arrowleft","0","arrowright","[0.85,0.15,0.325,0.675]","","",""
"sailing-trial","306","1324212","0.0-11.0-271.0","","","","false","","","","","","","","","","null","","1622.8000000715256","","2","1","null","null","arrowup","[0.85,0.15,0.325,0.675]","","",""
"sailing-trial","307","1327104","0.0-11.0-272.0","","","","false","","","","","","","","","","766.6999999284744","","29.399999976158142","","1","0","arrowleft","0","arrowright","[0.85,0.15,0.325,0.675]","","",""
"sailing-trial","308","1329927","0.0-11.0-273.0","","","","false","","","","","","","","","","null","","729.2999999523163","","2","0","null","null","arrowup","[0.85,0.15,0.325,0.675]","","",""
"sailing-trial","309","1333447","0.0-11.0-274.0","","","","false","","","","","","","","","","325","","148","","0","1","arrowleft","0","arrowleft","[0.675,0.325,0.15,0.85]","","",""
"sailing-trial","310","1336005","0.0-11.0-275.0","","","","false","","","","","","","","","","null","","587.4000000953674","","0","1","null","null","arrowup","[0.675,0.325,0.15,0.85]","","",""
"sailing-trial","311","1338953","0.0-11.0-276.0","","","","false","","","","","","","","","","369.1999999284744","","370.5","","0","0","arrowleft","0","arrowleft","[0.675,0.325,0.15,0.85]","","",""
"sailing-trial","312","1341529","0.0-11.0-277.0","","","","false","","","","","","","","","","null","","790.5","","3","1","null","null","arrowup","[0.675,0.325,0.15,0.85]","","",""
"sailing-trial","313","1346346","0.0-11.0-278.0","","","","false","","","","","","","","","","1438.3000000715256","","651","","2","1","arrowright","1","arrowleft","[0.675,0.325,0.15,0.85]","","",""
"sailing-trial","314","1350072","0.0-11.0-279.0","","","","false","","","","","","","","","","null","","712.2999999523163","","2","0","null","null","arrowup","[0.675,0.325,0.15,0.85]","","",""
"sailing-trial","315","1353497","0.0-11.0-280.0","","","","false","","","","","","","","","","471.3000000715256","","186.89999997615814","","3","1","arrowright","1","arrowright","[0.675,0.325,0.15,0.85]","","",""
"sailing-trial","316","1357106","0.0-11.0-281.0","","","","false","","","","","","","","","","null","","608.6000000238419","","0","0","null","null","arrowup","[0.675,0.325,0.15,0.85]","","",""
"sailing-trial","317","1360324","0.0-11.0-282.0","","","","false","","","","","","","","","","782.6999999284744","","162.60000002384186","","0","0","arrowleft","0","arrowleft","[0.675,0.325,0.15,0.85]","","",""
"sailing-trial","318","1362080","0.0-11.0-283.0","","","","false","","","","","","","","","","null","","518.2999999523163","","2","0","null","null","arrowup","[0.675,0.325,0.15,0.85]","","",""
"sailing-trial","319","1366524","0.0-11.0-284.0","","","","false","","","","","","","","","","315.39999997615814","","116.60000002384186","","2","0","arrowright","1","arrowleft","[0.675,0.325,0.15,0.85]","","",""
"sailing-trial","320","1368711","0.0-11.0-285.0","","","","false","","","","","","","","","","null","","935.1000000238419","","0","0","null","null","arrowup","[0.675,0.325,0.15,0.85]","","",""
"sailing-trial","321","1371742","0.0-11.0-286.0","","","","false","","","","","","","","","","704.6999999284744","","109.89999997615814","","3","0","arrowright","1","arrowright","[0.675,0.325,0.15,0.85]","","",""
"sailing-trial","322","1373900","0.0-11.0-287.0","","","","false","","","","","","","","","","null","","906.1000000238419","","2","0","null","null","arrowup","[0.675,0.325,0.15,0.85]","","",""
"sailing-trial","323","1377329","0.0-11.0-288.0","","","","false","","","","","","","","","","298.40000009536743","","386.6999999284744","","1","1","arrowleft","0","arrowright","[0.675,0.325,0.15,0.85]","","",""
"sailing-trial","324","1379704","0.0-11.0-289.0","","","","false","","","","","","","","","","null","","702.1000000238419","","0","1","null","null","arrowup","[0.675,0.325,0.15,0.85]","","",""
"sailing-trial","325","1382468","0.0-11.0-290.0","","","","false","","","","","","","","","","240.10000002384186","","465.2999999523163","","0","0","arrowleft","0","arrowleft","[0.675,0.325,0.15,0.85]","","",""
"sailing-trial","326","1384579","0.0-11.0-291.0","","","","false","","","","","","","","","","null","","521.6000000238419","","0","1","null","null","arrowup","[0.675,0.325,0.15,0.85]","","",""
"sailing-trial","327","1388541","0.0-11.0-292.0","","","","false","","","","","","","","","","476.7000000476837","","439","","2","1","arrowright","1","arrowleft","[0.85,0.15,0.325,0.675]","","",""
"sailing-trial","328","1390671","0.0-11.0-293.0","","","","false","","","","","","","","","","null","","134.5","","0","1","null","null","arrowup","[0.85,0.15,0.325,0.675]","","",""
"sailing-trial","329","1393970","0.0-11.0-294.0","","","","false","","","","","","","","","","333","","313","","0","1","arrowleft","0","arrowleft","[0.85,0.15,0.325,0.675]","","",""
"sailing-trial","330","1397464","0.0-11.0-295.0","","","","false","","","","","","","","","","null","","477.6999999284744","","1","0","null","null","arrowup","[0.85,0.15,0.325,0.675]","","",""
"sailing-trial","331","1401005","0.0-11.0-296.0","","","","false","","","","","","","","","","737","","88","","2","1","arrowright","1","arrowleft","[0.85,0.15,0.325,0.675]","","",""
"sailing-trial","332","1404993","0.0-11.0-297.0","","","","false","","","","","","","","","","null","","983.8999999761581","","2","0","null","null","arrowup","[0.85,0.15,0.325,0.675]","","",""
"sailing-trial","333","1408588","0.0-11.0-298.0","","","","false","","","","","","","","","","692.3999999761581","","0.6999999284744263","","3","1","arrowright","1","arrowright","[0.85,0.15,0.325,0.675]","","",""
"sailing-trial","334","1411989","0.0-11.0-299.0","","","","false","","","","","","","","","","null","","1252","","0","1","null","null","arrowup","[0.85,0.15,0.325,0.675]","","",""
"sailing-trial","335","1415205","0.0-11.0-300.0","","","","false","","","","","","","","","","457.7999999523163","","233.80000007152557","","0","1","arrowleft","0","arrowleft","[0.85,0.15,0.325,0.675]","","",""
"sailing-trial","336","1417079","0.0-11.0-301.0","","","","false","","","","","","","","","","null","","264.89999997615814","","0","1","null","null","arrowup","[0.85,0.15,0.325,0.675]","","",""
"sailing-trial","337","1420084","0.0-11.0-302.0","","","","false","","","","","","","","","","661.1999999284744","","274.10000002384186","","2","0","arrowright","1","arrowleft","[0.85,0.15,0.325,0.675]","","",""
"sailing-trial","338","1422059","0.0-11.0-303.0","","","","false","","","","","","","","","","null","","748.9000000953674","","3","0","null","null","arrowup","[0.85,0.15,0.325,0.675]","","",""
"sailing-trial","339","1425830","0.0-11.0-304.0","","","","false","","","","","","","","","","870.9000000953674","","201.20000004768372","","0","1","arrowleft","0","arrowleft","[0.85,0.15,0.325,0.675]","","",""
"sailing-trial","340","1427654","0.0-11.0-305.0","","","","false","","","","","","","","","","null","","771.2999999523163","","2","0","null","null","arrowup","[0.85,0.15,0.325,0.675]","","",""
"sailing-trial","341","1430804","0.0-11.0-306.0","","","","false","","","","","","","","","","513.8999999761581","","34.200000047683716","","3","1","arrowright","1","arrowright","[0.85,0.15,0.325,0.675]","","",""
"sailing-trial","342","1434106","0.0-11.0-307.0","","","","false","","","","","","","","","","null","","856.2000000476837","","3","0","null","null","arrowup","[0.85,0.15,0.325,0.675]","","",""
"sailing-trial","343","1438874","0.0-11.0-308.0","","","","false","","","","","","","","","","422.60000002384186","","333.7999999523163","","1","0","arrowleft","0","arrowright","[0.675,0.325,0.15,0.85]","","",""
"sailing-trial","344","1441495","0.0-11.0-309.0","","","","false","","","","","","","","","","null","","910.3999999761581","","3","1","null","null","arrowup","[0.675,0.325,0.15,0.85]","","",""
"sailing-trial","345","1447388","0.0-11.0-310.0","","","","false","","","","","","","","","","363.60000002384186","","268","","1","1","arrowleft","0","arrowright","[0.675,0.325,0.15,0.85]","","",""
"sailing-trial","346","1449865","0.0-11.0-311.0","","","","false","","","","","","","","","","null","","778","","1","1","null","null","arrowup","[0.675,0.325,0.15,0.85]","","",""
"sailing-trial","347","1453390","0.0-11.0-312.0","","","","false","","","","","","","","","","1095.0999999046326","","163.60000002384186","","2","0","arrowright","1","arrowleft","[0.675,0.325,0.15,0.85]","","",""
"sailing-trial","348","1457016","0.0-11.0-313.0","","","","false","","","","","","","","","","null","","621.8999999761581","","1","0","null","null","arrowup","[0.675,0.325,0.15,0.85]","","",""
"sailing-trial","349","1460230","0.0-11.0-314.0","","","","false","","","","","","","","","","125.60000002384186","","276.39999997615814","","0","1","arrowleft","0","arrowleft","[0.675,0.325,0.15,0.85]","","",""
"sailing-trial","350","1462398","0.0-11.0-315.0","","","","false","","","","","","","","","","null","","431.2999999523163","","3","1","null","null","arrowup","[0.675,0.325,0.15,0.85]","","",""
"sailing-trial","351","1466605","0.0-11.0-316.0","","","","false","","","","","","","","","","700.8999999761581","","413.5","","3","1","arrowright","1","arrowright","[0.675,0.325,0.15,0.85]","","",""
"sailing-trial","352","1468376","0.0-11.0-317.0","","","","false","","","","","","","","","","null","","523.7999999523163","","0","0","null","null","arrowup","[0.675,0.325,0.15,0.85]","","",""
"sailing-trial","353","1470976","0.0-11.0-318.0","","","","false","","","","","","","","","","377","","154.19999992847443","","2","0","arrowright","1","arrowleft","[0.675,0.325,0.15,0.85]","","",""
"sailing-trial","354","1472342","0.0-11.0-319.0","","","","false","","","","","","","","","","null","","313.8000000715256","","2","0","null","null","arrowup","[0.675,0.325,0.15,0.85]","","",""
"sailing-trial","355","1475531","0.0-11.0-320.0","","","","false","","","","","","","","","","486.09999990463257","","76.80000007152557","","3","1","arrowright","1","arrowright","[0.675,0.325,0.15,0.85]","","",""
"sailing-trial","356","1477206","0.0-11.0-321.0","","","","false","","","","","","","","","","null","","33.60000002384186","","0","1","null","null","arrowup","[0.675,0.325,0.15,0.85]","","",""
"sailing-trial","357","1479931","0.0-11.0-322.0","","","","false","","","","","","","","","","207.79999995231628","","87","","1","0","arrowleft","0","arrowright","[0.675,0.325,0.15,0.85]","","",""
"sailing-trial","358","1481330","0.0-11.0-323.0","","","","false","","","","","","","","","","null","","339.6999999284744","","1","0","null","null","arrowup","[0.675,0.325,0.15,0.85]","","",""
"sailing-trial","359","1484805","0.0-11.0-324.0","","","","false","","","","","","","","","","363.59999990463257","","337.39999997615814","","0","1","arrowleft","0","arrowleft","[0.675,0.325,0.15,0.85]","","",""
"sailing-trial","360","1486534","0.0-11.0-325.0","","","","false","","","","","","","","","","null","","585","","2","0","null","null","arrowup","[0.675,0.325,0.15,0.85]","","",""
"sailing-trial","361","1489967","0.0-11.0-326.0","","","","false","","","","","","","","","","297.8000000715256","","109.29999995231628","","3","1","arrowright","1","arrowright","[0.675,0.325,0.15,0.85]","","",""
"sailing-trial","362","1493441","0.0-11.0-327.0","","","","false","","","","","","","","","","null","","455.60000002384186","","2","0","null","null","arrowup","[0.675,0.325,0.15,0.85]","","",""
"sailing-trial","363","1496517","0.0-11.0-328.0","","","","false","","","","","","","","","","503","","462.3000000715256","","1","0","arrowleft","0","arrowright","[0.85,0.15,0.325,0.675]","","",""
"sailing-trial","364","1498172","0.0-11.0-329.0","","","","false","","","","","","","","","","null","","535.7000000476837","","1","0","null","null","arrowup","[0.85,0.15,0.325,0.675]","","",""
"sailing-trial","365","1501756","0.0-11.0-330.0","","","","false","","","","","","","","","","577.1000000238419","","239.39999997615814","","0","1","arrowleft","0","arrowleft","[0.85,0.15,0.325,0.675]","","",""
"sailing-trial","366","1503923","0.0-11.0-331.0","","","","false","","","","","","","","","","null","","427.39999997615814","","1","1","null","null","arrowup","[0.85,0.15,0.325,0.675]","","",""
"sailing-trial","367","1507953","0.0-11.0-332.0","","","","false","","","","","","","","","","1362.8000000715256","","459.39999997615814","","1","0","arrowleft","0","arrowright","[0.85,0.15,0.325,0.675]","","",""
"sailing-trial","368","1510001","0.0-11.0-333.0","","","","false","","","","","","","","","","null","","783","","1","0","null","null","arrowup","[0.85,0.15,0.325,0.675]","","",""
"sailing-trial","369","1513181","0.0-11.0-334.0","","","","false","","","","","","","","","","282.7000000476837","","267.3000000715256","","0","1","arrowleft","0","arrowleft","[0.85,0.15,0.325,0.675]","","",""
"sailing-trial","370","1515040","0.0-11.0-335.0","","","","false","","","","","","","","","","null","","588.1999999284744","","2","0","null","null","arrowup","[0.85,0.15,0.325,0.675]","","",""
"sailing-trial","371","1518491","0.0-11.0-336.0","","","","false","","","","","","","","","","496.2999999523163","","58.40000009536743","","3","1","arrowright","1","arrowright","[0.85,0.15,0.325,0.675]","","",""
"sailing-trial","372","1521305","0.0-11.0-337.0","","","","false","","","","","","","","","","null","","607.6000000238419","","2","1","null","null","arrowup","[0.85,0.15,0.325,0.675]","","",""
"sailing-trial","373","1524589","0.0-11.0-338.0","","","","false","","","","","","","","","","321.39999997615814","","2.600000023841858","","2","1","arrowright","1","arrowleft","[0.85,0.15,0.325,0.675]","","",""
"sailing-trial","374","1526206","0.0-11.0-339.0","","","","false","","","","","","","","","","null","","403.7000000476837","","2","0","null","null","arrowup","[0.85,0.15,0.325,0.675]","","",""
"sailing-trial","375","1529691","0.0-11.0-340.0","","","","false","","","","","","","","","","268.5","","285.60000002384186","","1","1","arrowleft","0","arrowright","[0.85,0.15,0.325,0.675]","","",""
"sailing-trial","376","1531326","0.0-11.0-341.0","","","","false","","","","","","","","","","null","","436.89999997615814","","1","0","null","null","arrowup","[0.85,0.15,0.325,0.675]","","",""
"sailing-trial","377","1534756","0.0-11.0-342.0","","","","false","","","","","","","","","","263.60000002384186","","150.70000004768372","","0","1","arrowleft","0","arrowleft","[0.85,0.15,0.325,0.675]","","",""
"sailing-trial","378","1537389","0.0-11.0-343.0","","","","false","","","","","","","","","","null","","1063.6000000238419","","3","1","null","null","arrowup","[0.85,0.15,0.325,0.675]","","",""
"sailing-trial","379","1540266","0.0-11.0-344.0","","","","false","","","","","","","","","","154.39999997615814","","184.89999997615814","","3","1","arrowright","1","arrowright","[0.85,0.15,0.325,0.675]","","",""
"sailing-trial","380","1542772","0.0-11.0-345.0","","","","false","","","","","","","","","","null","","732.2000000476837","","0","1","null","null","arrowup","[0.85,0.15,0.325,0.675]","","",""
"sailing-trial","381","1545899","0.0-11.0-346.0","","","","false","","","","","","","","","","194","","292.7000000476837","","0","1","arrowleft","0","arrowleft","[0.85,0.15,0.325,0.675]","","",""
"sailing-trial","382","1548364","0.0-11.0-347.0","","","","false","","","","","","","","","","null","","714.1999999284744","","1","1","null","null","arrowup","[0.85,0.15,0.325,0.675]","","",""
"sailing-trial","383","1551701","0.0-11.0-348.0","","","","false","","","","","","","","","","905","","319","","1","0","arrowleft","0","arrowright","[0.325,0.675,0.85,0.15]","","",""
"sailing-trial","384","1554181","0.0-11.0-349.0","","","","false","","","","","","","","","","null","","720.3999999761581","","3","1","null","null","arrowup","[0.325,0.675,0.85,0.15]","","",""
"sailing-trial","385","1558014","0.0-11.0-350.0","","","","false","","","","","","","","","","843.9000000953674","","249.60000002384186","","2","1","arrowright","1","arrowleft","[0.325,0.675,0.85,0.15]","","",""
"sailing-trial","386","1559989","0.0-11.0-351.0","","","","false","","","","","","","","","","null","","357.1999999284744","","2","1","null","null","arrowup","[0.325,0.675,0.85,0.15]","","",""
"sailing-trial","387","1563689","0.0-11.0-352.0","","","","false","","","","","","","","","","71.80000007152557","","345.39999997615814","","1","1","arrowleft","0","arrowright","[0.325,0.675,0.85,0.15]","","",""
"sailing-trial","388","1566435","0.0-11.0-353.0","","","","false","","","","","","","","","","null","","1169.2000000476837","","1","1","null","null","arrowup","[0.325,0.675,0.85,0.15]","","",""
"sailing-trial","389","1569149","0.0-11.0-354.0","","","","false","","","","","","","","","","631.7000000476837","","36.89999997615814","","2","0","arrowright","1","arrowleft","[0.325,0.675,0.85,0.15]","","",""
"sailing-trial","390","1571075","0.0-11.0-355.0","","","","false","","","","","","","","","","null","","469.2999999523163","","3","0","null","null","arrowup","[0.325,0.675,0.85,0.15]","","",""
"sailing-trial","391","1574475","0.0-11.0-356.0","","","","false","","","","","","","","","","1011.6000000238419","","259.60000002384186","","1","0","arrowleft","0","arrowright","[0.325,0.675,0.85,0.15]","","",""
"sailing-trial","392","1577115","0.0-11.0-357.0","","","","false","","","","","","","","","","null","","799.2999999523163","","2","1","null","null","arrowup","[0.325,0.675,0.85,0.15]","","",""
"sailing-trial","393","1581216","0.0-11.0-358.0","","","","false","","","","","","","","","","1069.1000000238419","","500.6999999284744","","0","1","arrowleft","0","arrowleft","[0.325,0.675,0.85,0.15]","","",""
"sailing-trial","394","1582981","0.0-11.0-359.0","","","","false","","","","","","","","","","null","","64.19999992847443","","2","1","null","null","arrowup","[0.325,0.675,0.85,0.15]","","",""
"sailing-trial","395","1586810","0.0-11.0-360.0","","","","false","","","","","","","","","","322.2000000476837","","648.5","","2","1","arrowright","1","arrowleft","[0.325,0.675,0.85,0.15]","","",""
"sailing-trial","396","1589082","0.0-11.0-361.0","","","","false","","","","","","","","","","null","","724.8000000715256","","1","1","null","null","arrowup","[0.325,0.675,0.85,0.15]","","",""
"sailing-trial","397","1593984","0.0-11.0-362.0","","","","false","","","","","","","","","","529.6999999284744","","359.7999999523163","","3","0","arrowright","1","arrowright","[0.325,0.675,0.85,0.15]","","",""
"sailing-trial","398","1597942","0.0-11.0-363.0","","","","false","","","","","","","","","","null","","2692.6999999284744","","3","0","null","null","arrowup","[0.325,0.675,0.85,0.15]","","",""
"sailing-trial","399","1601206","0.0-11.0-364.0","","","","false","","","","","","","","","","758.8999999761581","","281.10000002384186","","0","0","arrowleft","0","arrowleft","[0.15,0.85,0.675,0.325]","","",""
"sailing-trial","400","1604174","0.0-11.0-365.0","","","","false","","","","","","","","","","null","","1405.2000000476837","","3","1","null","null","arrowup","[0.15,0.85,0.675,0.325]","","",""
"sailing-trial","401","1608252","0.0-11.0-366.0","","","","false","","","","","","","","","","1141.8000000715256","","471.2999999523163","","0","0","arrowleft","0","arrowleft","[0.15,0.85,0.675,0.325]","","",""
"sailing-trial","402","1610449","0.0-11.0-367.0","","","","false","","","","","","","","","","null","","1117.5","","3","0","null","null","arrowup","[0.15,0.85,0.675,0.325]","","",""
"sailing-trial","403","1617151","0.0-11.0-368.0","","","","false","","","","","","","","","","2607.2999999523163","","89","","2","0","arrowright","1","arrowleft","[0.15,0.85,0.675,0.325]","","",""
"sailing-trial","404","1619514","0.0-11.0-369.0","","","","false","","","","","","","","","","null","","1089","","0","0","null","null","arrowup","[0.15,0.85,0.675,0.325]","","",""
"sailing-trial","405","1627266","0.0-11.0-370.0","","","","false","","","","","","","","","","4812.5","","331.6999999284744","","1","1","arrowleft","0","arrowright","[0.15,0.85,0.675,0.325]","","",""
"sailing-trial","406","1629540","0.0-11.0-371.0","","","","false","","","","","","","","","","null","","540.1000000238419","","0","1","null","null","arrowup","[0.15,0.85,0.675,0.325]","","",""
"sailing-trial","407","1633115","0.0-11.0-372.0","","","","false","","","","","","","","","","460.5","","99.19999992847443","","1","1","arrowleft","0","arrowright","[0.15,0.85,0.675,0.325]","","",""
"sailing-trial","408","1634912","0.0-11.0-373.0","","","","false","","","","","","","","","","null","","745.8999999761581","","2","0","null","null","arrowup","[0.15,0.85,0.675,0.325]","","",""
"sailing-trial","409","1637770","0.0-11.0-374.0","","","","false","","","","","","","","","","446.2999999523163","","59.39999997615814","","2","0","arrowright","1","arrowleft","[0.15,0.85,0.675,0.325]","","",""
"sailing-trial","410","1640942","0.0-11.0-375.0","","","","false","","","","","","","","","","null","","1036.8999999761581","","1","1","null","null","arrowup","[0.15,0.85,0.675,0.325]","","",""
"sailing-trial","411","1649459","0.0-11.0-376.0","","","","false","","","","","","","","","","1066.6000000238419","","3434.5","","1","0","arrowleft","0","arrowright","[0.15,0.85,0.675,0.325]","","",""
"sailing-trial","412","1653777","0.0-11.0-377.0","","","","false","","","","","","","","","","null","","1305.6000000238419","","2","0","null","null","arrowup","[0.15,0.85,0.675,0.325]","","",""
"sailing-trial","413","1658761","0.0-11.0-378.0","","","","false","","","","","","","","","","2002","","657.6000000238419","","2","0","arrowright","1","arrowleft","[0.15,0.85,0.675,0.325]","","",""
"sailing-trial","414","1661723","0.0-11.0-379.0","","","","false","","","","","","","","","","null","","873","","0","1","null","null","arrowup","[0.15,0.85,0.675,0.325]","","",""
"sailing-trial","415","1665427","0.0-11.0-380.0","","","","false","","","","","","","","","","486.7000000476837","","428.09999990463257","","1","1","arrowleft","0","arrowright","[0.15,0.85,0.675,0.325]","","",""
"sailing-trial","416","1667268","0.0-11.0-381.0","","","","false","","","","","","","","","","null","","615.2999999523163","","0","0","null","null","arrowup","[0.15,0.85,0.675,0.325]","","",""
"sailing-trial","417","1670932","0.0-11.0-382.0","","","","false","","","","","","","","","","503.60000002384186","","189.89999997615814","","2","1","arrowright","1","arrowleft","[0.325,0.675,0.85,0.15]","","",""
"sailing-trial","418","1672649","0.0-11.0-383.0","","","","false","","","","","","","","","","null","","411.89999997615814","","1","0","null","null","arrowup","[0.325,0.675,0.85,0.15]","","",""
"sailing-trial","419","1675851","0.0-11.0-384.0","","","","false","","","","","","","","","","342","","719.7999999523163","","3","0","arrowright","1","arrowright","[0.325,0.675,0.85,0.15]","","",""
"sailing-trial","420","1679383","0.0-11.0-385.0","","","","false","","","","","","","","","","null","","520.7000000476837","","1","0","null","null","arrowup","[0.325,0.675,0.85,0.15]","","",""
"sailing-trial","421","1684968","0.0-11.0-386.0","","","","false","","","","","","","","","","2020","","727","","2","1","arrowright","1","arrowleft","[0.325,0.675,0.85,0.15]","","",""
"sailing-trial","422","1688029","0.0-11.0-387.0","","","","false","","","","","","","","","","null","","1715.7999999523163","","1","0","null","null","arrowup","[0.325,0.675,0.85,0.15]","","",""
"sailing-trial","423","1691488","0.0-11.0-388.0","","","","false","","","","","","","","","","925.2999999523163","","237.39999997615814","","0","0","arrowleft","0","arrowleft","[0.325,0.675,0.85,0.15]","","",""
"sailing-trial","424","1696274","0.0-11.0-389.0","","","","false","","","","","","","","","","null","","2892.100000023842","","1","1","null","null","arrowup","[0.325,0.675,0.85,0.15]","","",""
"sailing-trial","425","1701143","0.0-11.0-390.0","","","","false","","","","","","","","","","692.2000000476837","","169.69999992847443","","3","0","arrowright","1","arrowright","[0.325,0.675,0.85,0.15]","","",""
"sailing-trial","426","1706512","0.0-11.0-391.0","","","","false","","","","","","","","","","null","","2360","","0","0","null","null","arrowup","[0.325,0.675,0.85,0.15]","","",""
"sailing-trial","427","1710749","0.0-11.0-392.0","","","","false","","","","","","","","","","1100.2999999523163","","315.1999999284744","","1","1","arrowleft","0","arrowright","[0.325,0.675,0.85,0.15]","","",""
"sailing-trial","428","1715007","0.0-11.0-393.0","","","","false","","","","","","","","","","null","","1306.1000000238419","","3","0","null","null","arrowup","[0.325,0.675,0.85,0.15]","","",""
"sailing-trial","429","1718660","0.0-11.0-394.0","","","","false","","","","","","","","","","636.3000000715256","","54.5","","1","1","arrowleft","0","arrowright","[0.325,0.675,0.85,0.15]","","",""
"sailing-trial","430","1721466","0.0-11.0-395.0","","","","false","","","","","","","","","","null","","944.7000000476837","","1","1","null","null","arrowup","[0.325,0.675,0.85,0.15]","","",""
"sailing-trial","431","1724849","0.0-11.0-396.0","","","","false","","","","","","","","","","607.3000000715256","","7.299999952316284","","1","1","arrowleft","0","arrowright","[0.325,0.675,0.85,0.15]","","",""
"sailing-trial","432","1728107","0.0-11.0-397.0","","","","false","","","","","","","","","","null","","1522.6000000238419","","0","1","null","null","arrowup","[0.325,0.675,0.85,0.15]","","",""
"sailing-trial","433","1732767","0.0-11.0-398.0","","","","false","","","","","","","","","","878.1999999284744","","185.19999992847443","","2","0","arrowright","1","arrowleft","[0.325,0.675,0.85,0.15]","","",""
"sailing-trial","434","1735387","0.0-11.0-399.0","","","","false","","","","","","","","","","null","","735.7999999523163","","2","1","null","null","arrowup","[0.325,0.675,0.85,0.15]","","",""
"instructions","435","1741546","0.0-12.0","","","","","","","","","","6158.600000023842","","","","","","","","","","","","","","","","[{""page_index"":0,""viewing_time"":6158.200000047684}]"
"survey-debrief","436","1916579","0.0-13.0","","","","","","","","","","175032.39999997616","","","","","","","","","","","","","","{""difficulty"":""2"",""fun"":""3"",""clarity"":""4"",""strategy"":""I used the strategie if the hut had no gold up in the cloudes  i would check the hut next to it on the ground. "",""feedback"":""""}","",""
