"trial_type","trial_index","time_elapsed","internal_node_id","value","metadata","success","timeout","failed_images","failed_audio","failed_video","browser_interaction","low_quality","rt","stimulus","response","button_pressed","island_rt","island_response","boat_rt","boat_response","boat","reward","island_key","island","boat_key","reward_probabilities","responses","num_errors","view_history"
"pavlovia","0","1","0.0-0.0","","","","","","","","","","","","","","","","","","","","","","","","","",""
"call-function","1","2","0.0-1.0","","{""task_version"":""sailing_part1_v1"",""task_condition"":""good"",""boats"":[""C"",""D"",""A"",""B""],""boats_demo"":[""E"",""G"",""H"",""F""],""islands"":[""A"",""B""],""subject_id"":""14762"",""age"":""20"",""gender"":""Female""}","","","","","","","","","","","","","","","","","","","","","","","",""
"preload","2","46394","0.0-2.0","","","true","false","[]","[]","[]","[{""event"":""fullscreenenter"",""trial"":3,""time"":49917}]","false","","","","","","","","","","","","","","","","",""
"fullscreen","3","50886","0.0-3.0","","","true","","","","","","","","","","","","","","","","","","","","","","",""
"audio-keyboard-response","4","53049","0.0-4.0-0.0","","","","","","","","","","2128","audio/beep_loop.wav"," ","","","","","","","","","","","","","",""
"audio-test","5","56163","0.0-4.0-1.0","","","","","","","","","","null","audio/turtle.mp3","","3","","","","","","","","","","","","",""
"audio-test","6","58751","0.0-4.0-2.0","","","","","","","","","","null","audio/shark.mp3","","2","","","","","","","","","","","","",""
"sailing-instructions","7","92615","0.0-5.0-0.0-0.0","","","","","","","","","","","","","","null","null","null","null","null","null","","","","","","",""
"sailing-trial","8","95605","0.0-5.0-0.0-1.0-0.0","","","","false","","","","","","","","","","1869.6000000014901","","null","","null","null","arrowleft","0","null","null","","",""
"sailing-trial","9","98168","0.0-5.0-0.0-1.0-1.0","","","","false","","","","","","","","","","1469.2000000029802","","null","","null","null","arrowright","1","null","null","","",""
"sailing-trial","10","101872","0.0-5.0-0.0-1.0-2.0","","","","false","","","","","","","","","","2579","","null","","null","null","arrowleft","0","null","null","","",""
"sailing-instructions","11","145413","0.0-5.0-0.0-2.0","","","","","","","","","","","","","","null","null","null","null","0","null","","","","","","",""
"sailing-trial","12","152051","0.0-5.0-0.0-3.0-0.0","","","","false","","","","","","","","","","null","","1955.199999999255","","2","1","null","null","arrowleft","[1,1,1,1]","","",""
"sailing-trial","13","156150","0.0-5.0-0.0-3.0-1.0","","","","false","","","","","","","","","","null","","1168.1000000014901","","3","1","null","null","arrowright","[1,1,1,1]","","",""
"sailing-trial","14","160135","0.0-5.0-0.0-3.0-2.0","","","","false","","","","","","","","","","null","","1306.1000000014901","","3","0","null","null","arrowright","[0,0,0,0]","","",""
"sailing-instructions","15","167715","0.0-5.0-0.0-4.0","","","","","","","","","","","","","","null","null","null","null","null","null","","","","","","",""
"sailing-comprehension","16","183388","0.0-5.0-0.0-5.0","","","","","","","","","","12026","","","","","","","","","","","","","","[""true"",""true"",""false"",""true""]","0",""
"sailing-instructions","17","246051","0.0-6.0-0.0-0.0","","","","","","","","","","","","","","null","null","null","null","null","null","","","","","","",""
"sailing-comprehension","18","257813","0.0-6.0-0.0-1.0","","","","","","","","","","9907.699999999255","","","","","","","","","","","","","","[""true"",""false"",""true""]","0",""
"sailing-instructions","19","271692","0.0-7.0-0.0-0.0","","","","","","","","","","","","","","null","null","null","null","null","null","","","","","","",""
"sailing-trial","20","276933","0.0-7.0-0.0-1.0-0.0","","","","false","","","","","","","","","","null","","2651.5","","0","0","null","null","arrowup","[0.2,0.8,0.2,0.8]","","",""
"sailing-trial","21","281848","0.0-7.0-0.0-1.0-1.0","","","","false","","","","","","","","","","null","","2407.300000000745","","1","1","null","null","arrowup","[0.2,0.8,0.2,0.8]","","",""
"sailing-trial","22","285170","0.0-7.0-0.0-1.0-2.0","","","","false","","","","","","","","","","null","","1648.5999999977648","","2","0","null","null","arrowup","[0.2,0.8,0.2,0.8]","","",""
"sailing-trial","23","289563","0.0-7.0-0.0-1.0-3.0","","","","false","","","","","","","","","","null","","1916.8999999985099","","3","1","null","null","arrowup","[0.2,0.8,0.2,0.8]","","",""
"sailing-comprehension","24","294639","0.0-7.0-0.0-2.0","","","","","","","","","","3749.7000000029802","","","","","","","","","","","","","","[""false""]","0",""
"sailing-instructions","25","305062","0.0-8.0-0.0-0.0","","","","","","","","","","","","","","null","null","null","null","null","null","","","","","","",""
"sailing-comprehension","26","308913","0.0-8.0-0.0-1.0","","","","","","","","","","2837.5","","","","","","","","","","","","","","[""true""]","0",""
"sailing-instructions","27","338795","0.0-9.0-0.0-0.0","","","","","","","","","","","","","","null","null","null","null","null","null","","","","","","",""
"sailing-trial","28","346477","0.0-9.0-0.0-1.0-0.0","","","","false","","","","","","","","","","1890.800000000745","","1850.699999999255","","1","1","arrowleft","0","arrowright","[0.2,0.8,0.2,0.8]","","",""
"sailing-trial","29","351879","0.0-9.0-0.0-1.0-1.0","","","","false","","","","","","","","","","1372.300000000745","","586.1999999992549","","1","1","arrowleft","0","arrowright","[0.2,0.8,0.2,0.8]","","",""
"sailing-trial","30","355833","0.0-9.0-0.0-1.0-2.0","","","","false","","","","","","","","","","null","","1957.7000000029802","","0","0","null","null","arrowup","[0.2,0.8,0.2,0.8]","","",""
"sailing-trial","31","361361","0.0-9.0-0.0-1.0-3.0","","","","false","","","","","","","","","","1811","","526.2000000029802","","3","1","arrowright","1","arrowright","[0.2,0.8,0.2,0.8]","","",""
"sailing-trial","32","365843","0.0-9.0-0.0-1.0-4.0","","","","false","","","","","","","","","","null","","2244.199999999255","","3","1","null","null","arrowup","[0.2,0.8,0.2,0.8]","","",""
"sailing-trial","33","371709","0.0-9.0-0.0-1.0-5.0","","","","false","","","","","","","","","","946.8999999985099","","1465.3999999985099","","3","1","arrowright","1","arrowright","[0.2,0.8,0.2,0.8]","","",""
"sailing-instructions","34","398122","0.0-10.0","","","","","","","","","","","","","","null","null","null","null","null","null","","","","","","",""
"sailing-trial","35","404101","0.0-11.0-0.0","","","","false","","","","","","","","","","1922.3999999985099","","914.6000000014901","","0","0","arrowleft","0","arrowleft","[0.325,0.675,0.15,0.85]","","",""
"sailing-trial","36","408022","0.0-11.0-1.0","","","","false","","","","","","","","","","null","","1423.800000000745","","2","0","null","null","arrowup","[0.325,0.675,0.15,0.85]","","",""
"sailing-trial","37","412909","0.0-11.0-2.0","","","","false","","","","","","","","","","1419.5","","112.30000000074506","","1","0","arrowleft","0","arrowright","[0.325,0.675,0.15,0.85]","","",""
"sailing-trial","38","416775","0.0-11.0-3.0","","","","false","","","","","","","","","","null","","1643.9000000022352","","3","1","null","null","arrowup","[0.325,0.675,0.15,0.85]","","",""
"sailing-trial","39","421008","0.0-11.0-4.0","","","","false","","","","","","","","","","879.6000000014901","","182.40000000223517","","3","1","arrowright","1","arrowright","[0.325,0.675,0.15,0.85]","","",""
"sailing-trial","40","424405","0.0-11.0-5.0","","","","false","","","","","","","","","","null","","1103.699999999255","","0","1","null","null","arrowup","[0.325,0.675,0.15,0.85]","","",""
"sailing-trial","41","428854","0.0-11.0-6.0","","","","false","","","","","","","","","","832.1999999992549","","612.3999999985099","","0","0","arrowleft","0","arrowleft","[0.325,0.675,0.15,0.85]","","",""
"sailing-trial","42","431578","0.0-11.0-7.0","","","","false","","","","","","","","","","null","","1355.5","","0","0","null","null","arrowup","[0.325,0.675,0.15,0.85]","","",""
"sailing-trial","43","435708","0.0-11.0-8.0","","","","false","","","","","","","","","","909.6000000014901","","3.800000000745058","","3","1","arrowright","1","arrowright","[0.325,0.675,0.15,0.85]","","",""
"sailing-trial","44","439163","0.0-11.0-9.0","","","","false","","","","","","","","","","null","","1095.5","","1","0","null","null","arrowup","[0.325,0.675,0.15,0.85]","","",""
"sailing-trial","45","443195","0.0-11.0-10.0","","","","false","","","","","","","","","","744.5","","282.19999999925494","","2","0","arrowright","1","arrowleft","[0.325,0.675,0.15,0.85]","","",""
"sailing-trial","46","446258","0.0-11.0-11.0","","","","false","","","","","","","","","","null","","1156.8999999985099","","3","1","null","null","arrowup","[0.325,0.675,0.15,0.85]","","",""
"sailing-trial","47","451340","0.0-11.0-12.0","","","","false","","","","","","","","","","808.5","","1546.7999999970198","","3","1","arrowright","1","arrowright","[0.325,0.675,0.15,0.85]","","",""
"sailing-trial","48","454506","0.0-11.0-13.0","","","","false","","","","","","","","","","null","","1329.5","","3","1","null","null","arrowup","[0.325,0.675,0.15,0.85]","","",""
"sailing-trial","49","458806","0.0-11.0-14.0","","","","false","","","","","","","","","","813.9000000022352","","524.3999999985099","","3","1","arrowright","1","arrowright","[0.325,0.675,0.15,0.85]","","",""
"sailing-trial","50","461738","0.0-11.0-15.0","","","","false","","","","","","","","","","null","","1282.4000000022352","","0","0","null","null","arrowup","[0.325,0.675,0.15,0.85]","","",""
"sailing-trial","51","466635","0.0-11.0-16.0","","","","false","","","","","","","","","","772","","1360.3999999985099","","3","0","arrowright","1","arrowright","[0.85,0.15,0.675,0.325]","","",""
"sailing-trial","52","469773","0.0-11.0-17.0","","","","false","","","","","","","","","","null","","1230.1000000014901","","0","1","null","null","arrowup","[0.85,0.15,0.675,0.325]","","",""
"sailing-trial","53","473971","0.0-11.0-18.0","","","","false","","","","","","","","","","688.6999999992549","","527.5","","0","0","arrowleft","0","arrowleft","[0.85,0.15,0.675,0.325]","","",""
"sailing-trial","54","477175","0.0-11.0-19.0","","","","false","","","","","","","","","","null","","1264.6000000014901","","2","0","null","null","arrowup","[0.85,0.15,0.675,0.325]","","",""
"sailing-trial","55","481213","0.0-11.0-20.0","","","","false","","","","","","","","","","862.8999999985099","","59.100000001490116","","1","0","arrowleft","0","arrowright","[0.85,0.15,0.675,0.325]","","",""
"sailing-trial","56","484389","0.0-11.0-21.0","","","","false","","","","","","","","","","null","","1224.8999999985099","","2","1","null","null","arrowup","[0.85,0.15,0.675,0.325]","","",""
"sailing-trial","57","488388","0.0-11.0-22.0","","","","false","","","","","","","","","","679.6000000014901","","109.69999999925494","","2","1","arrowright","1","arrowleft","[0.85,0.15,0.675,0.325]","","",""
"sailing-trial","58","491639","0.0-11.0-23.0","","","","false","","","","","","","","","","null","","1360.0999999977648","","3","1","null","null","arrowup","[0.85,0.15,0.675,0.325]","","",""
"sailing-trial","59","496656","0.0-11.0-24.0","","","","false","","","","","","","","","","886","","130.19999999925494","","3","1","arrowright","1","arrowright","[0.85,0.15,0.675,0.325]","","",""
"sailing-trial","60","500022","0.0-11.0-25.0","","","","false","","","","","","","","","","null","","1163.800000000745","","1","1","null","null","arrowup","[0.85,0.15,0.675,0.325]","","",""
"sailing-trial","61","504738","0.0-11.0-26.0","","","","false","","","","","","","","","","1115.4000000022352","","37.80000000074506","","1","1","arrowleft","0","arrowright","[0.85,0.15,0.675,0.325]","","",""
"sailing-trial","62","507821","0.0-11.0-27.0","","","","false","","","","","","","","","","null","","1073.300000000745","","3","0","null","null","arrowup","[0.85,0.15,0.675,0.325]","","",""
"sailing-trial","63","511639","0.0-11.0-28.0","","","","false","","","","","","","","","","729","","51.69999999925494","","1","0","arrowleft","0","arrowright","[0.85,0.15,0.675,0.325]","","",""
"sailing-trial","64","514773","0.0-11.0-29.0","","","","false","","","","","","","","","","null","","1169.300000000745","","3","0","null","null","arrowup","[0.85,0.15,0.675,0.325]","","",""
"sailing-trial","65","520423","0.0-11.0-30.0","","","","false","","","","","","","","","","932.9000000022352","","1396.1000000014901","","2","1","arrowright","1","arrowleft","[0.85,0.15,0.675,0.325]","","",""
"sailing-trial","66","523754","0.0-11.0-31.0","","","","false","","","","","","","","","","null","","1370.699999999255","","2","1","null","null","arrowup","[0.85,0.15,0.675,0.325]","","",""
"sailing-trial","67","527975","0.0-11.0-32.0","","","","false","","","","","","","","","","720.1999999992549","","355.4000000022352","","2","0","arrowright","1","arrowleft","[0.85,0.15,0.675,0.325]","","",""
"sailing-trial","68","530866","0.0-11.0-33.0","","","","false","","","","","","","","","","null","","1219.5","","3","0","null","null","arrowup","[0.85,0.15,0.675,0.325]","","",""
"sailing-trial","69","536053","0.0-11.0-34.0","","","","false","","","","","","","","","","794.3000000007451","","1166.800000000745","","0","1","arrowleft","0","arrowleft","[0.675,0.325,0.85,0.15]","","",""
"sailing-trial","70","539136","0.0-11.0-35.0","","","","false","","","","","","","","","","null","","1096.5","","0","1","null","null","arrowup","[0.675,0.325,0.85,0.15]","","",""
"sailing-trial","71","544438","0.0-11.0-36.0","","","","false","","","","","","","","","","1589.3999999985099","","942","","0","1","arrowleft","0","arrowleft","[0.675,0.325,0.85,0.15]","","",""
"sailing-trial","72","547547","0.0-11.0-37.0","","","","false","","","","","","","","","","null","","1043.800000000745","","3","0","null","null","arrowup","[0.675,0.325,0.85,0.15]","","",""
"sailing-trial","73","552004","0.0-11.0-38.0","","","","false","","","","","","","","","","931.3000000007451","","92.69999999925494","","0","1","arrowleft","0","arrowleft","[0.675,0.325,0.85,0.15]","","",""
"sailing-trial","74","554434","0.0-11.0-39.0","","","","false","","","","","","","","","","null","","949.3999999985099","","3","0","null","null","arrowup","[0.675,0.325,0.85,0.15]","","",""
"sailing-trial","75","558150","0.0-11.0-40.0","","","","false","","","","","","","","","","777.5999999977648","","36.30000000074506","","0","0","arrowleft","0","arrowleft","[0.675,0.325,0.85,0.15]","","",""
"sailing-trial","76","561286","0.0-11.0-41.0","","","","false","","","","","","","","","","null","","1241.6000000014901","","1","1","null","null","arrowup","[0.675,0.325,0.85,0.15]","","",""
"sailing-trial","77","565068","0.0-11.0-42.0","","","","false","","","","","","","","","","730.8999999985099","","7.699999999254942","","1","0","arrowleft","0","arrowright","[0.675,0.325,0.85,0.15]","","",""
"sailing-trial","78","568154","0.0-11.0-43.0","","","","false","","","","","","","","","","null","","935.6999999992549","","2","1","null","null","arrowup","[0.675,0.325,0.85,0.15]","","",""
"sailing-trial","79","572137","0.0-11.0-44.0","","","","false","","","","","","","","","","612.4000000022352","","93.80000000074506","","2","1","arrowright","1","arrowleft","[0.675,0.325,0.85,0.15]","","",""
"sailing-trial","80","576670","0.0-11.0-45.0","","","","false","","","","","","","","","","null","","2179.800000000745","","2","1","null","null","arrowup","[0.675,0.325,0.85,0.15]","","",""
"sailing-trial","81","580585","0.0-11.0-46.0","","","","false","","","","","","","","","","853.3999999985099","","26.399999998509884","","2","1","arrowright","1","arrowleft","[0.675,0.325,0.85,0.15]","","",""
"sailing-trial","82","585520","0.0-11.0-47.0","","","","false","","","","","","","","","","null","","2495.300000000745","","0","1","null","null","arrowup","[0.675,0.325,0.85,0.15]","","",""
"sailing-trial","83","589819","0.0-11.0-48.0","","","","false","","","","","","","","","","1214.7000000029802","","224.89999999850988","","0","1","arrowleft","0","arrowleft","[0.675,0.325,0.85,0.15]","","",""
"sailing-trial","84","593156","0.0-11.0-49.0","","","","false","","","","","","","","","","null","","1570.699999999255","","2","0","null","null","arrowup","[0.675,0.325,0.85,0.15]","","",""
"sailing-trial","85","598417","0.0-11.0-50.0","","","","false","","","","","","","","","","1289","","1216.7000000029802","","0","0","arrowleft","0","arrowleft","[0.675,0.325,0.85,0.15]","","",""
"sailing-trial","86","601703","0.0-11.0-51.0","","","","false","","","","","","","","","","null","","1111.0999999977648","","1","1","null","null","arrowup","[0.675,0.325,0.85,0.15]","","",""
"sailing-trial","87","605835","0.0-11.0-52.0","","","","false","","","","","","","","","","924.6999999992549","","103.60000000149012","","1","1","arrowleft","0","arrowright","[0.15,0.85,0.325,0.675]","","",""
"sailing-trial","88","608436","0.0-11.0-53.0","","","","false","","","","","","","","","","null","","1061.5999999977648","","2","0","null","null","arrowup","[0.15,0.85,0.325,0.675]","","",""
"sailing-trial","89","612701","0.0-11.0-54.0","","","","false","","","","","","","","","","931.0999999977648","","18.199999999254942","","1","1","arrowleft","0","arrowright","[0.15,0.85,0.325,0.675]","","",""
"sailing-trial","90","615760","0.0-11.0-55.0","","","","false","","","","","","","","","","null","","948.0999999977648","","3","0","null","null","arrowup","[0.15,0.85,0.325,0.675]","","",""
"sailing-trial","91","623584","0.0-11.0-56.0","","","","false","","","","","","","","","","716.3000000007451","","1125.9000000022352","","1","1","arrowleft","0","arrowright","[0.15,0.85,0.325,0.675]","","",""
"sailing-trial","92","626818","0.0-11.0-57.0","","","","false","","","","","","","","","","null","","1102.5999999977648","","3","1","null","null","arrowup","[0.15,0.85,0.325,0.675]","","",""
"sailing-trial","93","630815","0.0-11.0-58.0","","","","false","","","","","","","","","","828.5","","83.30000000074506","","3","0","arrowright","1","arrowright","[0.15,0.85,0.325,0.675]","","",""
"sailing-trial","94","634913","0.0-11.0-59.0","","","","false","","","","","","","","","","null","","2407","","2","0","null","null","arrowup","[0.15,0.85,0.325,0.675]","","",""
"sailing-trial","95","638932","0.0-11.0-60.0","","","","false","","","","","","","","","","785.8000000007451","","46.5","","1","1","arrowleft","0","arrowright","[0.15,0.85,0.325,0.675]","","",""
"sailing-trial","96","641784","0.0-11.0-61.0","","","","false","","","","","","","","","","null","","1003.5","","3","1","null","null","arrowup","[0.15,0.85,0.325,0.675]","","",""
"sailing-trial","97","646234","0.0-11.0-62.0","","","","false","","","","","","","","","","1312.800000000745","","11.899999998509884","","3","1","arrowright","1","arrowright","[0.15,0.85,0.325,0.675]","","",""
"sailing-trial","98","649251","0.0-11.0-63.0","","","","false","","","","","","","","","","null","","1147.800000000745","","3","1","null","null","arrowup","[0.15,0.85,0.325,0.675]","","",""
"sailing-trial","99","653110","0.0-11.0-64.0","","","","false","","","","","","","","","","831.1000000014901","","162.09999999776483","","3","0","arrowright","1","arrowright","[0.15,0.85,0.325,0.675]","","",""
"sailing-trial","100","656183","0.0-11.0-65.0","","","","false","","","","","","","","","","null","","1174.800000000745","","3","1","null","null","arrowup","[0.15,0.85,0.325,0.675]","","",""
"sailing-trial","101","660833","0.0-11.0-66.0","","","","false","","","","","","","","","","782.6000000014901","","966.1000000014901","","1","1","arrowleft","0","arrowright","[0.15,0.85,0.325,0.675]","","",""
"sailing-trial","102","664499","0.0-11.0-67.0","","","","false","","","","","","","","","","null","","1016.5","","3","1","null","null","arrowup","[0.15,0.85,0.325,0.675]","","",""
"sailing-trial","103","668467","0.0-11.0-68.0","","","","false","","","","","","","","","","837.3000000007451","","6.699999999254942","","1","1","arrowleft","0","arrowright","[0.15,0.85,0.325,0.675]","","",""
"sailing-trial","104","671834","0.0-11.0-69.0","","","","false","","","","","","","","","","null","","1482.0999999977648","","0","1","null","null","arrowup","[0.15,0.85,0.325,0.675]","","",""
"sailing-trial","105","676143","0.0-11.0-70.0","","","","false","","","","","","","","","","1079.6000000014901","","39.5","","0","0","arrowleft","0","arrowleft","[0.15,0.85,0.325,0.675]","","",""
"sailing-trial","106","679250","0.0-11.0-71.0","","","","false","","","","","","","","","","null","","1006.1999999992549","","1","1","null","null","arrowup","[0.15,0.85,0.325,0.675]","","",""
"sailing-trial","107","685914","0.0-11.0-72.0","","","","false","","","","","","","","","","3059.5","","122.40000000223517","","1","1","arrowleft","0","arrowright","[0.15,0.85,0.325,0.675]","","",""
"sailing-trial","108","688838","0.0-11.0-73.0","","","","false","","","","","","","","","","null","","1416.300000000745","","2","0","null","null","arrowup","[0.15,0.85,0.325,0.675]","","",""
"sailing-trial","109","692638","0.0-11.0-74.0","","","","false","","","","","","","","","","1017.5","","42.600000001490116","","3","0","arrowright","1","arrowright","[0.325,0.675,0.15,0.85]","","",""
"sailing-trial","110","695715","0.0-11.0-75.0","","","","false","","","","","","","","","","null","","1184.8999999985099","","1","1","null","null","arrowup","[0.325,0.675,0.15,0.85]","","",""
"sailing-trial","111","699916","0.0-11.0-76.0","","","","false","","","","","","","","","","904.5","","75.39999999850988","","1","1","arrowleft","0","arrowright","[0.325,0.675,0.15,0.85]","","",""
"sailing-trial","112","704536","0.0-11.0-77.0","","","","false","","","","","","","","","","null","","1598.5","","2","0","null","null","arrowup","[0.325,0.675,0.15,0.85]","","",""
"sailing-trial","113","710704","0.0-11.0-78.0","","","","false","","","","","","","","","","1763.6000000014901","","1680.699999999255","","1","0","arrowleft","0","arrowright","[0.325,0.675,0.15,0.85]","","",""
"sailing-trial","114","714392","0.0-11.0-79.0","","","","false","","","","","","","","","","null","","2268.89999999851","","2","0","null","null","arrowup","[0.325,0.675,0.15,0.85]","","",""
"sailing-trial","115","721767","0.0-11.0-80.0","","","","false","","","","","","","","","","3116.699999999255","","226.19999999925494","","2","0","arrowright","1","arrowleft","[0.325,0.675,0.15,0.85]","","",""
"sailing-trial","116","728501","0.0-11.0-81.0","","","","false","","","","","","","","","","null","","3703.800000000745","","2","0","null","null","arrowup","[0.325,0.675,0.15,0.85]","","",""
"sailing-trial","117","733895","0.0-11.0-82.0","","","","false","","","","","","","","","","2435.300000000745","","346.80000000074506","","2","0","arrowright","1","arrowleft","[0.325,0.675,0.15,0.85]","","",""
"sailing-trial","118","736554","0.0-11.0-83.0","","","","false","","","","","","","","","","null","","1009.6999999992549","","0","0","null","null","arrowup","[0.325,0.675,0.15,0.85]","","",""
"sailing-trial","119","741990","0.0-11.0-84.0","","","","false","","","","","","","","","","767.1000000014901","","1286.199999999255","","1","0","arrowleft","0","arrowright","[0.325,0.675,0.15,0.85]","","",""
"sailing-trial","120","745030","0.0-11.0-85.0","","","","false","","","","","","","","","","null","","1048.800000000745","","1","1","null","null","arrowup","[0.325,0.675,0.15,0.85]","","",""
"sailing-trial","121","749411","0.0-11.0-86.0","","","","false","","","","","","","","","","945.9000000022352","","478","","1","1","arrowleft","0","arrowright","[0.325,0.675,0.15,0.85]","","",""
"sailing-trial","122","752933","0.0-11.0-87.0","","","","false","","","","","","","","","","null","","1913.5999999977648","","1","0","null","null","arrowup","[0.325,0.675,0.15,0.85]","","",""
"sailing-trial","123","756930","0.0-11.0-88.0","","","","false","","","","","","","","","","863.4000000022352","","3.900000002235174","","3","1","arrowright","1","arrowright","[0.325,0.675,0.15,0.85]","","",""
"sailing-trial","124","759629","0.0-11.0-89.0","","","","false","","","","","","","","","","null","","1143","","0","0","null","null","arrowup","[0.325,0.675,0.15,0.85]","","",""
"sailing-trial","125","765045","0.0-11.0-90.0","","","","false","","","","","","","","","","805.2000000029802","","1725.8999999985099","","3","1","arrowright","1","arrowright","[0.15,0.85,0.325,0.675]","","",""
"sailing-trial","126","768060","0.0-11.0-91.0","","","","false","","","","","","","","","","null","","1059.8999999985099","","1","1","null","null","arrowup","[0.15,0.85,0.325,0.675]","","",""
"sailing-trial","127","772328","0.0-11.0-92.0","","","","false","","","","","","","","","","937.6999999992549","","0.7999999970197678","","1","1","arrowleft","0","arrowright","[0.15,0.85,0.325,0.675]","","",""
"sailing-trial","128","774971","0.0-11.0-93.0","","","","false","","","","","","","","","","null","","1090.1000000014901","","0","0","null","null","arrowup","[0.15,0.85,0.325,0.675]","","",""
"sailing-trial","129","778794","0.0-11.0-94.0","","","","false","","","","","","","","","","825.1999999992549","","113.19999999925494","","3","1","arrowright","1","arrowright","[0.15,0.85,0.325,0.675]","","",""
"sailing-trial","130","781342","0.0-11.0-95.0","","","","false","","","","","","","","","","null","","1107.699999999255","","0","0","null","null","arrowup","[0.15,0.85,0.325,0.675]","","",""
"sailing-trial","131","785344","0.0-11.0-96.0","","","","false","","","","","","","","","","874.8000000007451","","111.39999999850988","","3","1","arrowright","1","arrowright","[0.15,0.85,0.325,0.675]","","",""
"sailing-trial","132","788728","0.0-11.0-97.0","","","","false","","","","","","","","","","null","","1315.199999999255","","3","1","null","null","arrowup","[0.15,0.85,0.325,0.675]","","",""
"sailing-trial","133","793060","0.0-11.0-98.0","","","","false","","","","","","","","","","949.6999999992549","","389.1000000014901","","3","1","arrowright","1","arrowright","[0.15,0.85,0.325,0.675]","","",""
"sailing-trial","134","796034","0.0-11.0-99.0","","","","false","","","","","","","","","","null","","1003.4000000022352","","2","0","null","null","arrowup","[0.15,0.85,0.325,0.675]","","",""
"sailing-trial","135","800139","0.0-11.0-100.0","","","","false","","","","","","","","","","955.8999999985099","","595.3999999985099","","3","0","arrowright","1","arrowright","[0.15,0.85,0.325,0.675]","","",""
"sailing-trial","136","803296","0.0-11.0-101.0","","","","false","","","","","","","","","","null","","1189.199999999255","","3","1","null","null","arrowup","[0.15,0.85,0.325,0.675]","","",""
"sailing-trial","137","807927","0.0-11.0-102.0","","","","false","","","","","","","","","","748.1000000014901","","76.79999999701977","","1","1","arrowleft","0","arrowright","[0.15,0.85,0.325,0.675]","","",""
"sailing-trial","138","810794","0.0-11.0-103.0","","","","false","","","","","","","","","","null","","1015.3000000007451","","1","1","null","null","arrowup","[0.15,0.85,0.325,0.675]","","",""
"sailing-trial","139","814778","0.0-11.0-104.0","","","","false","","","","","","","","","","862.2000000029802","","157.79999999701977","","1","1","arrowleft","0","arrowright","[0.15,0.85,0.325,0.675]","","",""
"sailing-trial","140","817659","0.0-11.0-105.0","","","","false","","","","","","","","","","null","","1025","","1","1","null","null","arrowup","[0.15,0.85,0.325,0.675]","","",""
"sailing-trial","141","821310","0.0-11.0-106.0","","","","false","","","","","","","","","","1212.800000000745","","58.79999999701977","","1","0","arrowleft","0","arrowright","[0.85,0.15,0.675,0.325]","","",""
"sailing-trial","142","824111","0.0-11.0-107.0","","","","false","","","","","","","","","","null","","970.3999999985099","","3","1","null","null","arrowup","[0.85,0.15,0.675,0.325]","","",""
"sailing-trial","143","829310","0.0-11.0-108.0","","","","false","","","","","","","","","","1183","","1130.6000000014901","","3","1","arrowright","1","arrowright","[0.85,0.15,0.675,0.325]","","",""
"sailing-trial","144","833210","0.0-11.0-109.0","","","","false","","","","","","","","","","null","","1774.0999999977648","","0","1","null","null","arrowup","[0.85,0.15,0.675,0.325]","","",""
"sailing-trial","145","837841","0.0-11.0-110.0","","","","false","","","","","","","","","","1685.7999999970198","","22.300000000745058","","0","1","arrowleft","0","arrowleft","[0.85,0.15,0.675,0.325]","","",""
"sailing-trial","146","840972","0.0-11.0-111.0","","","","false","","","","","","","","","","null","","1405.2999999970198","","3","0","null","null","arrowup","[0.85,0.15,0.675,0.325]","","",""
"sailing-trial","147","845241","0.0-11.0-112.0","","","","false","","","","","","","","","","1060.199999999255","","321.8999999985099","","0","1","arrowleft","0","arrowleft","[0.85,0.15,0.675,0.325]","","",""
"sailing-trial","148","848425","0.0-11.0-113.0","","","","false","","","","","","","","","","null","","1285.5","","0","1","null","null","arrowup","[0.85,0.15,0.675,0.325]","","",""
"sailing-trial","149","853442","0.0-11.0-114.0","","","","false","","","","","","","","","","858.5","","1269.800000000745","","0","1","arrowleft","0","arrowleft","[0.85,0.15,0.675,0.325]","","",""
"sailing-trial","150","857174","0.0-11.0-115.0","","","","false","","","","","","","","","","null","","1855.1000000014901","","2","1","null","null","arrowup","[0.85,0.15,0.675,0.325]","","",""
"sailing-trial","151","861091","0.0-11.0-116.0","","","","false","","","","","","","","","","610.7000000029802","","269.19999999925494","","2","1","arrowright","1","arrowleft","[0.85,0.15,0.675,0.325]","","",""
"sailing-trial","152","863940","0.0-11.0-117.0","","","","false","","","","","","","","","","null","","1296.5","","3","0","null","null","arrowup","[0.85,0.15,0.675,0.325]","","",""
"sailing-trial","153","868576","0.0-11.0-118.0","","","","false","","","","","","","","","","1702.1000000014901","","128.30000000074506","","2","1","arrowright","1","arrowleft","[0.85,0.15,0.675,0.325]","","",""
"sailing-trial","154","871196","0.0-11.0-119.0","","","","false","","","","","","","","","","null","","974","","1","0","null","null","arrowup","[0.85,0.15,0.675,0.325]","","",""
"sailing-trial","155","875259","0.0-11.0-120.0","","","","false","","","","","","","","","","879.3000000007451","","141.39999999850988","","2","1","arrowright","1","arrowleft","[0.85,0.15,0.675,0.325]","","",""
"sailing-trial","156","878992","0.0-11.0-121.0","","","","false","","","","","","","","","","null","","1566.6000000014901","","2","1","null","null","arrowup","[0.85,0.15,0.675,0.325]","","",""
"sailing-trial","157","882966","0.0-11.0-122.0","","","","false","","","","","","","","","","776.5","","17.5","","2","0","arrowright","1","arrowleft","[0.85,0.15,0.675,0.325]","","",""
"sailing-trial","158","885825","0.0-11.0-123.0","","","","false","","","","","","","","","","null","","1004.5999999977648","","0","1","null","null","arrowup","[0.85,0.15,0.675,0.325]","","",""
"sailing-trial","159","889904","0.0-11.0-124.0","","","","false","","","","","","","","","","1079.9000000022352","","130.80000000074506","","0","0","arrowleft","0","arrowleft","[0.675,0.325,0.85,0.15]","","",""
"sailing-trial","160","893390","0.0-11.0-125.0","","","","false","","","","","","","","","","null","","1422.800000000745","","1","1","null","null","arrowup","[0.675,0.325,0.85,0.15]","","",""
"sailing-trial","161","897732","0.0-11.0-126.0","","","","false","","","","","","","","","","593","","890.3000000007451","","1","0","arrowleft","0","arrowright","[0.675,0.325,0.85,0.15]","","",""
"sailing-trial","162","901140","0.0-11.0-127.0","","","","false","","","","","","","","","","null","","1345.3999999985099","","0","1","null","null","arrowup","[0.675,0.325,0.85,0.15]","","",""
"sailing-trial","163","905542","0.0-11.0-128.0","","","","false","","","","","","","","","","936.5","","137.20000000298023","","1","0","arrowleft","0","arrowright","[0.675,0.325,0.85,0.15]","","",""
"sailing-trial","164","908239","0.0-11.0-129.0","","","","false","","","","","","","","","","null","","1114.0999999977648","","1","0","null","null","arrowup","[0.675,0.325,0.85,0.15]","","",""
"sailing-trial","165","912023","0.0-11.0-130.0","","","","false","","","","","","","","","","752.8000000007451","","118.40000000223517","","0","1","arrowleft","0","arrowleft","[0.675,0.325,0.85,0.15]","","",""
"sailing-trial","166","915011","0.0-11.0-131.0","","","","false","","","","","","","","","","null","","1528.6000000014901","","1","0","null","null","arrowup","[0.675,0.325,0.85,0.15]","","",""
"sailing-trial","167","919524","0.0-11.0-132.0","","","","false","","","","","","","","","","880.8999999985099","","886","","0","1","arrowleft","0","arrowleft","[0.675,0.325,0.85,0.15]","","",""
"sailing-trial","168","922178","0.0-11.0-133.0","","","","false","","","","","","","","","","null","","892.1999999992549","","0","0","null","null","arrowup","[0.675,0.325,0.85,0.15]","","",""
"sailing-trial","169","925960","0.0-11.0-134.0","","","","false","","","","","","","","","","930.2000000029802","","28","","0","0","arrowleft","0","arrowleft","[0.675,0.325,0.85,0.15]","","",""
"sailing-trial","170","928522","0.0-11.0-135.0","","","","false","","","","","","","","","","null","","956.8000000007451","","0","0","null","null","arrowup","[0.675,0.325,0.85,0.15]","","",""
"sailing-trial","171","932284","0.0-11.0-136.0","","","","false","","","","","","","","","","831.3999999985099","","280.30000000074506","","2","0","arrowright","1","arrowleft","[0.675,0.325,0.85,0.15]","","",""
"sailing-trial","172","934873","0.0-11.0-137.0","","","","false","","","","","","","","","","null","","996.1999999992549","","3","0","null","null","arrowup","[0.675,0.325,0.85,0.15]","","",""
"sailing-trial","173","938990","0.0-11.0-138.0","","","","false","","","","","","","","","","833.8000000007451","","212.30000000074506","","2","1","arrowright","1","arrowleft","[0.675,0.325,0.85,0.15]","","",""
"sailing-trial","174","941638","0.0-11.0-139.0","","","","false","","","","","","","","","","null","","1025.199999999255","","3","0","null","null","arrowup","[0.675,0.325,0.85,0.15]","","",""
"sailing-trial","175","946454","0.0-11.0-140.0","","","","false","","","","","","","","","","794.2999999970198","","1099.1000000014901","","2","1","arrowright","1","arrowleft","[0.675,0.325,0.85,0.15]","","",""
"sailing-trial","176","949011","0.0-11.0-141.0","","","","false","","","","","","","","","","null","","1016.6000000014901","","3","0","null","null","arrowup","[0.675,0.325,0.85,0.15]","","",""
"sailing-trial","177","952870","0.0-11.0-142.0","","","","false","","","","","","","","","","758.5999999977648","","116.89999999850988","","2","1","arrowright","1","arrowleft","[0.675,0.325,0.85,0.15]","","",""
"sailing-trial","178","955590","0.0-11.0-143.0","","","","false","","","","","","","","","","null","","1039.300000000745","","3","0","null","null","arrowup","[0.675,0.325,0.85,0.15]","","",""
"sailing-trial","179","959519","0.0-11.0-144.0","","","","false","","","","","","","","","","1065.8999999985099","","232.79999999701977","","2","0","arrowright","1","arrowleft","[0.85,0.15,0.675,0.325]","","",""
"sailing-trial","180","962573","0.0-11.0-145.0","","","","false","","","","","","","","","","null","","979.5","","2","1","null","null","arrowup","[0.85,0.15,0.675,0.325]","","",""
"sailing-trial","181","967605","0.0-11.0-146.0","","","","false","","","","","","","","","","924.8000000007451","","167.70000000298023","","2","1","arrowright","1","arrowleft","[0.85,0.15,0.675,0.325]","","",""
"sailing-trial","182","970570","0.0-11.0-147.0","","","","false","","","","","","","","","","null","","964.2999999970198","","0","1","null","null","arrowup","[0.85,0.15,0.675,0.325]","","",""
"sailing-trial","183","974422","0.0-11.0-148.0","","","","false","","","","","","","","","","790.0999999977648","","94","","0","1","arrowleft","0","arrowleft","[0.85,0.15,0.675,0.325]","","",""
"sailing-trial","184","977289","0.0-11.0-149.0","","","","false","","","","","","","","","","null","","959.5999999977648","","0","1","null","null","arrowup","[0.85,0.15,0.675,0.325]","","",""
"sailing-trial","185","982104","0.0-11.0-150.0","","","","false","","","","","","","","","","1131.6000000014901","","835.7000000029802","","0","1","arrowleft","0","arrowleft","[0.85,0.15,0.675,0.325]","","",""
"sailing-trial","186","985402","0.0-11.0-151.0","","","","false","","","","","","","","","","null","","1368.5999999977648","","0","1","null","null","arrowup","[0.85,0.15,0.675,0.325]","","",""
"sailing-trial","187","989688","0.0-11.0-152.0","","","","false","","","","","","","","","","890.5","","122.29999999701977","","0","1","arrowleft","0","arrowleft","[0.85,0.15,0.675,0.325]","","",""
"sailing-trial","188","992587","0.0-11.0-153.0","","","","false","","","","","","","","","","null","","938.3999999985099","","0","1","null","null","arrowup","[0.85,0.15,0.675,0.325]","","",""
"sailing-trial","189","997136","0.0-11.0-154.0","","","","false","","","","","","","","","","1451.5","","16.800000000745058","","0","1","arrowleft","0","arrowleft","[0.85,0.15,0.675,0.325]","","",""
"sailing-trial","190","1000023","0.0-11.0-155.0","","","","false","","","","","","","","","","null","","974.6999999992549","","1","0","null","null","arrowup","[0.85,0.15,0.675,0.325]","","",""
"sailing-trial","191","1004886","0.0-11.0-156.0","","","","false","","","","","","","","","","1903.1000000014901","","44.600000001490116","","0","1","arrowleft","0","arrowleft","[0.85,0.15,0.675,0.325]","","",""
"sailing-trial","192","1007625","0.0-11.0-157.0","","","","false","","","","","","","","","","null","","1202.800000000745","","3","0","null","null","arrowup","[0.85,0.15,0.675,0.325]","","",""
"sailing-trial","193","1011837","0.0-11.0-158.0","","","","false","","","","","","","","","","829.9000000022352","","418.69999999925494","","0","1","arrowleft","0","arrowleft","[0.85,0.15,0.675,0.325]","","",""
"sailing-trial","194","1014474","0.0-11.0-159.0","","","","false","","","","","","","","","","null","","1081.699999999255","","1","0","null","null","arrowup","[0.85,0.15,0.675,0.325]","","",""
"sailing-trial","195","1017923","0.0-11.0-160.0","","","","false","","","","","","","","","","765.5","","115.80000000074506","","0","0","arrowleft","0","arrowleft","[0.85,0.15,0.675,0.325]","","",""
"sailing-trial","196","1021153","0.0-11.0-161.0","","","","false","","","","","","","","","","null","","967.6999999992549","","0","1","null","null","arrowup","[0.85,0.15,0.675,0.325]","","",""
"sailing-trial","197","1024938","0.0-11.0-162.0","","","","false","","","","","","","","","","807.4000000022352","","57.400000002235174","","0","1","arrowleft","0","arrowleft","[0.85,0.15,0.675,0.325]","","",""
"sailing-trial","198","1028153","0.0-11.0-163.0","","","","false","","","","","","","","","","null","","1144.0999999977648","","0","1","null","null","arrowup","[0.85,0.15,0.675,0.325]","","",""
"sailing-trial","199","1035228","0.0-11.0-164.0","","","","false","","","","","","","","","","3867.300000000745","","664.6000000014901","","0","0","arrowleft","0","arrowleft","[0.675,0.325,0.85,0.15]","","",""
"sailing-trial","200","1038386","0.0-11.0-165.0","","","","false","","","","","","","","","","null","","1016.8999999985099","","1","1","null","null","arrowup","[0.675,0.325,0.85,0.15]","","",""
"sailing-trial","201","1042236","0.0-11.0-166.0","","","","false","","","","","","","","","","752.2000000029802","","92.60000000149012","","1","1","arrowleft","0","arrowright","[0.675,0.325,0.85,0.15]","","",""
"sailing-trial","202","1045052","0.0-11.0-167.0","","","","false","","","","","","","","","","null","","1225.699999999255","","1","0","null","null","arrowup","[0.675,0.325,0.85,0.15]","","",""
"sailing-trial","203","1049286","0.0-11.0-168.0","","","","false","","","","","","","","","","888.6000000014901","","168.40000000223517","","3","1","arrowright","1","arrowright","[0.675,0.325,0.85,0.15]","","",""
"sailing-trial","204","1052936","0.0-11.0-169.0","","","","false","","","","","","","","","","null","","1767.199999999255","","2","1","null","null","arrowup","[0.675,0.325,0.85,0.15]","","",""
"sailing-trial","205","1057734","0.0-11.0-170.0","","","","false","","","","","","","","","","1405.5999999977648","","551.1999999992549","","3","0","arrowright","1","arrowright","[0.675,0.325,0.85,0.15]","","",""
"sailing-trial","206","1060235","0.0-11.0-171.0","","","","false","","","","","","","","","","null","","986.8000000007451","","3","0","null","null","arrowup","[0.675,0.325,0.85,0.15]","","",""
"sailing-trial","207","1064752","0.0-11.0-172.0","","","","false","","","","","","","","","","864","","735.3999999985099","","2","1","arrowright","1","arrowleft","[0.675,0.325,0.85,0.15]","","",""
"sailing-trial","208","1067364","0.0-11.0-173.0","","","","false","","","","","","","","","","null","","1013.1000000014901","","1","0","null","null","arrowup","[0.675,0.325,0.85,0.15]","","",""
"sailing-trial","209","1071500","0.0-11.0-174.0","","","","false","","","","","","","","","","914.5","","284.5999999977648","","2","0","arrowright","1","arrowleft","[0.675,0.325,0.85,0.15]","","",""
"sailing-trial","210","1074669","0.0-11.0-175.0","","","","false","","","","","","","","","","null","","1046.0999999977648","","2","1","null","null","arrowup","[0.675,0.325,0.85,0.15]","","",""
"sailing-trial","211","1078667","0.0-11.0-176.0","","","","false","","","","","","","","","","832.6000000014901","","58.5","","2","1","arrowright","1","arrowleft","[0.675,0.325,0.85,0.15]","","",""
"sailing-trial","212","1082133","0.0-11.0-177.0","","","","false","","","","","","","","","","null","","1616.6000000014901","","2","1","null","null","arrowup","[0.675,0.325,0.85,0.15]","","",""
"sailing-trial","213","1087018","0.0-11.0-178.0","","","","false","","","","","","","","","","964.4000000022352","","994.1999999992549","","2","1","arrowright","1","arrowleft","[0.675,0.325,0.85,0.15]","","",""
"sailing-trial","214","1090516","0.0-11.0-179.0","","","","false","","","","","","","","","","null","","1631.199999999255","","2","1","null","null","arrowup","[0.675,0.325,0.85,0.15]","","",""
"sailing-trial","215","1094151","0.0-11.0-180.0","","","","false","","","","","","","","","","614.8000000007451","","101.80000000074506","","2","1","arrowright","1","arrowleft","[0.675,0.325,0.85,0.15]","","",""
"sailing-trial","216","1097517","0.0-11.0-181.0","","","","false","","","","","","","","","","null","","1164.3999999985099","","0","1","null","null","arrowup","[0.675,0.325,0.85,0.15]","","",""
"sailing-trial","217","1103701","0.0-11.0-182.0","","","","false","","","","","","","","","","1690.300000000745","","1529.699999999255","","0","1","arrowleft","0","arrowleft","[0.675,0.325,0.85,0.15]","","",""
"sailing-trial","218","1106958","0.0-11.0-183.0","","","","false","","","","","","","","","","null","","1568.8999999985099","","1","0","null","null","arrowup","[0.675,0.325,0.85,0.15]","","",""
"sailing-trial","219","1111051","0.0-11.0-184.0","","","","false","","","","","","","","","","864.5","","162.5","","0","1","arrowleft","0","arrowleft","[0.85,0.15,0.675,0.325]","","",""
"sailing-trial","220","1114133","0.0-11.0-185.0","","","","false","","","","","","","","","","null","","1223.300000000745","","0","1","null","null","arrowup","[0.85,0.15,0.675,0.325]","","",""
"sailing-trial","221","1118067","0.0-11.0-186.0","","","","false","","","","","","","","","","839.1999999992549","","217.29999999701977","","0","1","arrowleft","0","arrowleft","[0.85,0.15,0.675,0.325]","","",""
"sailing-trial","222","1121884","0.0-11.0-187.0","","","","false","","","","","","","","","","null","","1271.300000000745","","0","1","null","null","arrowup","[0.85,0.15,0.675,0.325]","","",""
"sailing-trial","223","1126733","0.0-11.0-188.0","","","","false","","","","","","","","","","1009.3999999985099","","943","","0","1","arrowleft","0","arrowleft","[0.85,0.15,0.675,0.325]","","",""
"sailing-trial","224","1130775","0.0-11.0-189.0","","","","false","","","","","","","","","","null","","2114.099999997765","","1","0","null","null","arrowup","[0.85,0.15,0.675,0.325]","","",""
"sailing-trial","225","1134948","0.0-11.0-190.0","","","","false","","","","","","","","","","1219.4000000022352","","85.69999999925494","","0","1","arrowleft","0","arrowleft","[0.85,0.15,0.675,0.325]","","",""
"sailing-trial","226","1137867","0.0-11.0-191.0","","","","false","","","","","","","","","","null","","871.3999999985099","","0","1","null","null","arrowup","[0.85,0.15,0.675,0.325]","","",""
"sailing-trial","227","1141547","0.0-11.0-192.0","","","","false","","","","","","","","","","1042.5","","79.5","","0","0","arrowleft","0","arrowleft","[0.85,0.15,0.675,0.325]","","",""
"sailing-trial","228","1144231","0.0-11.0-193.0","","","","false","","","","","","","","","","null","","1110.7000000029802","","3","0","null","null","arrowup","[0.85,0.15,0.675,0.325]","","",""
"sailing-trial","229","1148417","0.0-11.0-194.0","","","","false","","","","","","","","","","681.3999999985099","","454.80000000074506","","2","1","arrowright","1","arrowleft","[0.85,0.15,0.675,0.325]","","",""
"sailing-trial","230","1151109","0.0-11.0-195.0","","","","false","","","","","","","","","","null","","988.5","","3","0","null","null","arrowup","[0.85,0.15,0.675,0.325]","","",""
"sailing-trial","231","1154946","0.0-11.0-196.0","","","","false","","","","","","","","","","781.8999999985099","","72.60000000149012","","2","1","arrowright","1","arrowleft","[0.85,0.15,0.675,0.325]","","",""
"sailing-trial","232","1157847","0.0-11.0-197.0","","","","false","","","","","","","","","","null","","976.8000000007451","","2","1","null","null","arrowup","[0.85,0.15,0.675,0.325]","","",""
"sailing-trial","233","1162424","0.0-11.0-198.0","","","","false","","","","","","","","","","1720.300000000745","","86.30000000074506","","2","0","arrowright","1","arrowleft","[0.85,0.15,0.675,0.325]","","",""
"sailing-trial","234","1165581","0.0-11.0-199.0","","","","false","","","","","","","","","","null","","954.5","","0","1","null","null","arrowup","[0.85,0.15,0.675,0.325]","","",""
"sailing-trial","235","1169100","0.0-11.0-200.0","","","","false","","","","","","","","","","893.7999999970198","","118.59999999776483","","0","0","arrowleft","0","arrowleft","[0.85,0.15,0.675,0.325]","","",""
"sailing-trial","236","1171999","0.0-11.0-201.0","","","","false","","","","","","","","","","null","","941.6999999992549","","3","1","null","null","arrowup","[0.85,0.15,0.675,0.325]","","",""
"sailing-trial","237","1176464","0.0-11.0-202.0","","","","false","","","","","","","","","","755.4000000022352","","227.30000000074506","","2","1","arrowright","1","arrowleft","[0.85,0.15,0.675,0.325]","","",""
"sailing-trial","238","1179316","0.0-11.0-203.0","","","","false","","","","","","","","","","null","","896.9000000022352","","3","1","null","null","arrowup","[0.85,0.15,0.675,0.325]","","",""
"sailing-trial","239","1182956","0.0-11.0-204.0","","","","false","","","","","","","","","","666.5999999977648","","172.10000000149012","","3","0","arrowright","1","arrowright","[0.85,0.15,0.675,0.325]","","",""
"sailing-trial","240","1186097","0.0-11.0-205.0","","","","false","","","","","","","","","","null","","1129.5","","0","1","null","null","arrowup","[0.85,0.15,0.675,0.325]","","",""
"sailing-trial","241","1189979","0.0-11.0-206.0","","","","false","","","","","","","","","","819.6999999992549","","109.40000000223517","","0","1","arrowleft","0","arrowleft","[0.85,0.15,0.675,0.325]","","",""
"sailing-trial","242","1192685","0.0-11.0-207.0","","","","false","","","","","","","","","","null","","1044","","1","0","null","null","arrowup","[0.85,0.15,0.675,0.325]","","",""
"sailing-trial","243","1196498","0.0-11.0-208.0","","","","false","","","","","","","","","","1044.199999999255","","34","","0","0","arrowleft","0","arrowleft","[0.675,0.325,0.85,0.15]","","",""
"sailing-trial","244","1199081","0.0-11.0-209.0","","","","false","","","","","","","","","","null","","1039","","1","0","null","null","arrowup","[0.675,0.325,0.85,0.15]","","",""
"sailing-trial","245","1203685","0.0-11.0-210.0","","","","false","","","","","","","","","","1016","","1113","","0","0","arrowleft","0","arrowleft","[0.675,0.325,0.85,0.15]","","",""
"sailing-trial","246","1206099","0.0-11.0-211.0","","","","false","","","","","","","","","","null","","965.1999999992549","","1","0","null","null","arrowup","[0.675,0.325,0.85,0.15]","","",""
"sailing-trial","247","1209487","0.0-11.0-212.0","","","","false","","","","","","","","","","798.3000000007451","","57.600000001490116","","3","0","arrowright","1","arrowright","[0.675,0.325,0.85,0.15]","","",""
"sailing-trial","248","1212008","0.0-11.0-213.0","","","","false","","","","","","","","","","null","","1025.800000000745","","2","0","null","null","arrowup","[0.675,0.325,0.85,0.15]","","",""
"sailing-trial","249","1218147","0.0-11.0-214.0","","","","false","","","","","","","","","","1619.8999999985099","","1289.199999999255","","3","1","arrowright","1","arrowright","[0.675,0.325,0.85,0.15]","","",""
"sailing-trial","250","1220836","0.0-11.0-215.0","","","","false","","","","","","","","","","null","","1211.2000000029802","","3","0","null","null","arrowup","[0.675,0.325,0.85,0.15]","","",""
"sailing-trial","251","1224614","0.0-11.0-216.0","","","","false","","","","","","","","","","860","","33.599999997764826","","1","0","arrowleft","0","arrowright","[0.675,0.325,0.85,0.15]","","",""
"sailing-trial","252","1227828","0.0-11.0-217.0","","","","false","","","","","","","","","","null","","1184.5999999977648","","1","1","null","null","arrowup","[0.675,0.325,0.85,0.15]","","",""
"sailing-trial","253","1232197","0.0-11.0-218.0","","","","false","","","","","","","","","","1313.8999999985099","","28.699999999254942","","1","0","arrowleft","0","arrowright","[0.675,0.325,0.85,0.15]","","",""
"sailing-trial","254","1234839","0.0-11.0-219.0","","","","false","","","","","","","","","","null","","925.3000000007451","","3","0","null","null","arrowup","[0.675,0.325,0.85,0.15]","","",""
"sailing-trial","255","1239411","0.0-11.0-220.0","","","","false","","","","","","","","","","742.4000000022352","","932.9000000022352","","0","1","arrowleft","0","arrowleft","[0.675,0.325,0.85,0.15]","","",""
"sailing-trial","256","1242463","0.0-11.0-221.0","","","","false","","","","","","","","","","null","","1000.5","","1","1","null","null","arrowup","[0.675,0.325,0.85,0.15]","","",""
"sailing-trial","257","1246680","0.0-11.0-222.0","","","","false","","","","","","","","","","881.3000000007451","","768.5999999977648","","1","0","arrowleft","0","arrowright","[0.675,0.325,0.85,0.15]","","",""
"sailing-trial","258","1250094","0.0-11.0-223.0","","","","false","","","","","","","","","","null","","1481.6000000014901","","2","1","null","null","arrowup","[0.675,0.325,0.85,0.15]","","",""
"sailing-trial","259","1254069","0.0-11.0-224.0","","","","false","","","","","","","","","","1015.8000000007451","","325.1000000014901","","2","0","arrowright","1","arrowleft","[0.325,0.675,0.15,0.85]","","",""
"sailing-trial","260","1257211","0.0-11.0-225.0","","","","false","","","","","","","","","","null","","994","","1","1","null","null","arrowup","[0.325,0.675,0.15,0.85]","","",""
"sailing-trial","261","1262442","0.0-11.0-226.0","","","","false","","","","","","","","","","812.8000000007451","","118.60000000149012","","1","1","arrowleft","0","arrowright","[0.325,0.675,0.15,0.85]","","",""
"sailing-trial","262","1265034","0.0-11.0-227.0","","","","false","","","","","","","","","","null","","1016.1999999992549","","0","0","null","null","arrowup","[0.325,0.675,0.15,0.85]","","",""
"sailing-trial","263","1269161","0.0-11.0-228.0","","","","false","","","","","","","","","","947","","330.8999999985099","","1","1","arrowleft","0","arrowright","[0.325,0.675,0.15,0.85]","","",""
"sailing-trial","264","1271473","0.0-11.0-229.0","","","","false","","","","","","","","","","null","","842.2000000029802","","0","0","null","null","arrowup","[0.325,0.675,0.15,0.85]","","",""
"sailing-trial","265","1275446","0.0-11.0-230.0","","","","false","","","","","","","","","","996.3000000007451","","81.60000000149012","","1","1","arrowleft","0","arrowright","[0.325,0.675,0.15,0.85]","","",""
"sailing-trial","266","1278243","0.0-11.0-231.0","","","","false","","","","","","","","","","null","","923.5999999977648","","3","1","null","null","arrowup","[0.325,0.675,0.15,0.85]","","",""
"sailing-trial","267","1282244","0.0-11.0-232.0","","","","false","","","","","","","","","","833.8999999985099","","83.5","","3","1","arrowright","1","arrowright","[0.325,0.675,0.15,0.85]","","",""
"sailing-trial","268","1285144","0.0-11.0-233.0","","","","false","","","","","","","","","","null","","917.6000000014901","","2","1","null","null","arrowup","[0.325,0.675,0.15,0.85]","","",""
"sailing-trial","269","1288682","0.0-11.0-234.0","","","","false","","","","","","","","","","976","","46.100000001490116","","2","0","arrowright","1","arrowleft","[0.325,0.675,0.15,0.85]","","",""
"sailing-trial","270","1291444","0.0-11.0-235.0","","","","false","","","","","","","","","","null","","893.1000000014901","","3","1","null","null","arrowup","[0.325,0.675,0.15,0.85]","","",""
"sailing-trial","271","1295410","0.0-11.0-236.0","","","","false","","","","","","","","","","1101.9000000022352","","29.900000002235174","","3","1","arrowright","1","arrowright","[0.325,0.675,0.15,0.85]","","",""
"sailing-trial","272","1298259","0.0-11.0-237.0","","","","false","","","","","","","","","","null","","1002.8999999985099","","1","1","null","null","arrowup","[0.325,0.675,0.15,0.85]","","",""
"sailing-trial","273","1302010","0.0-11.0-238.0","","","","false","","","","","","","","","","712.5","","74.69999999925494","","1","1","arrowleft","0","arrowright","[0.325,0.675,0.15,0.85]","","",""
"sailing-trial","274","1305827","0.0-11.0-239.0","","","","false","","","","","","","","","","null","","1940.3999999985099","","0","1","null","null","arrowup","[0.325,0.675,0.15,0.85]","","",""
"sailing-trial","275","1310861","0.0-11.0-240.0","","","","false","","","","","","","","","","932.3000000007451","","1448.3999999985099","","0","0","arrowleft","0","arrowleft","[0.325,0.675,0.15,0.85]","","",""
"sailing-trial","276","1313908","0.0-11.0-241.0","","","","false","","","","","","","","","","null","","942.8000000007451","","3","1","null","null","arrowup","[0.325,0.675,0.15,0.85]","","",""
"sailing-trial","277","1317793","0.0-11.0-242.0","","","","false","","","","","","","","","","773","","125.39999999850988","","3","1","arrowright","1","arrowright","[0.325,0.675,0.15,0.85]","","",""
"sailing-trial","278","1320676","0.0-11.0-243.0","","","","false","","","","","","","","","","null","","1102.8999999985099","","0","1","null","null","arrowup","[0.325,0.675,0.15,0.85]","","",""
"sailing-trial","279","1324409","0.0-11.0-244.0","","","","false","","","","","","","","","","832.1999999992549","","15.800000000745058","","0","1","arrowleft","0","arrowleft","[0.325,0.675,0.15,0.85]","","",""
"sailing-trial","280","1327393","0.0-11.0-245.0","","","","false","","","","","","","","","","null","","1020.0999999977648","","3","0","null","null","arrowup","[0.325,0.675,0.15,0.85]","","",""
"sailing-trial","281","1331306","0.0-11.0-246.0","","","","false","","","","","","","","","","1025.800000000745","","337.80000000074506","","0","0","arrowleft","0","arrowleft","[0.15,0.85,0.325,0.675]","","",""
"sailing-trial","282","1333573","0.0-11.0-247.0","","","","false","","","","","","","","","","null","","810.2000000029802","","0","0","null","null","arrowup","[0.15,0.85,0.325,0.675]","","",""
"sailing-trial","283","1338259","0.0-11.0-248.0","","","","false","","","","","","","","","","1463.3999999985099","","34.899999998509884","","1","1","arrowleft","0","arrowright","[0.15,0.85,0.325,0.675]","","",""
"sailing-trial","284","1341560","0.0-11.0-249.0","","","","false","","","","","","","","","","null","","942.1999999992549","","0","0","null","null","arrowup","[0.15,0.85,0.325,0.675]","","",""
"sailing-trial","285","1346809","0.0-11.0-250.0","","","","false","","","","","","","","","","1656.2000000029802","","665.6999999992549","","1","1","arrowleft","0","arrowright","[0.15,0.85,0.325,0.675]","","",""
"sailing-trial","286","1349990","0.0-11.0-251.0","","","","false","","","","","","","","","","null","","1122.1000000014901","","1","1","null","null","arrowup","[0.15,0.85,0.325,0.675]","","",""
"sailing-trial","287","1353823","0.0-11.0-252.0","","","","false","","","","","","","","","","927.0999999977648","","52.69999999925494","","1","1","arrowleft","0","arrowright","[0.15,0.85,0.325,0.675]","","",""
"sailing-trial","288","1356824","0.0-11.0-253.0","","","","false","","","","","","","","","","null","","1058.7999999970198","","1","1","null","null","arrowup","[0.15,0.85,0.325,0.675]","","",""
"sailing-trial","289","1361141","0.0-11.0-254.0","","","","false","","","","","","","","","","1108.699999999255","","360.5","","1","1","arrowleft","0","arrowright","[0.15,0.85,0.325,0.675]","","",""
"sailing-trial","290","1363804","0.0-11.0-255.0","","","","false","","","","","","","","","","null","","1099.1000000014901","","2","0","null","null","arrowup","[0.15,0.85,0.325,0.675]","","",""
"sailing-trial","291","1367026","0.0-11.0-256.0","","","","false","","","","","","","","","","708.1999999992549","","2.7999999970197678","","1","0","arrowleft","0","arrowright","[0.15,0.85,0.325,0.675]","","",""
"sailing-trial","292","1369823","0.0-11.0-257.0","","","","false","","","","","","","","","","null","","839.5","","1","1","null","null","arrowup","[0.15,0.85,0.325,0.675]","","",""
"sailing-trial","293","1373940","0.0-11.0-258.0","","","","false","","","","","","","","","","676","","265.19999999925494","","1","1","arrowleft","0","arrowright","[0.15,0.85,0.325,0.675]","","",""
"sailing-trial","294","1376639","0.0-11.0-259.0","","","","false","","","","","","","","","","null","","856","","0","1","null","null","arrowup","[0.15,0.85,0.325,0.675]","","",""
"sailing-trial","295","1379772","0.0-11.0-260.0","","","","false","","","","","","","","","","727.9000000022352","","86.5","","0","0","arrowleft","0","arrowleft","[0.15,0.85,0.325,0.675]","","",""
"sailing-trial","296","1382377","0.0-11.0-261.0","","","","false","","","","","","","","","","null","","1076.699999999255","","0","0","null","null","arrowup","[0.15,0.85,0.325,0.675]","","",""
"sailing-trial","297","1386192","0.0-11.0-262.0","","","","false","","","","","","","","","","913.6000000014901","","175.19999999925494","","1","1","arrowleft","0","arrowright","[0.15,0.85,0.325,0.675]","","",""
"sailing-trial","298","1389074","0.0-11.0-263.0","","","","false","","","","","","","","","","null","","1002.8000000007451","","2","1","null","null","arrowup","[0.15,0.85,0.325,0.675]","","",""
"sailing-trial","299","1392555","0.0-11.0-264.0","","","","false","","","","","","","","","","636.0999999977648","","242.19999999925494","","2","0","arrowright","1","arrowleft","[0.675,0.325,0.85,0.15]","","",""
"sailing-trial","300","1395424","0.0-11.0-265.0","","","","false","","","","","","","","","","null","","986.6999999992549","","1","1","null","null","arrowup","[0.675,0.325,0.85,0.15]","","",""
"sailing-trial","301","1399283","0.0-11.0-266.0","","","","false","","","","","","","","","","712.3000000007451","","894.6999999992549","","1","0","arrowleft","0","arrowright","[0.675,0.325,0.85,0.15]","","",""
"sailing-trial","302","1402190","0.0-11.0-267.0","","","","false","","","","","","","","","","null","","945.6999999992549","","2","1","null","null","arrowup","[0.675,0.325,0.85,0.15]","","",""
"sailing-trial","303","1406921","0.0-11.0-268.0","","","","false","","","","","","","","","","737.6000000014901","","937.1000000014901","","2","1","arrowright","1","arrowleft","[0.675,0.325,0.85,0.15]","","",""
"sailing-trial","304","1409403","0.0-11.0-269.0","","","","false","","","","","","","","","","null","","909.3999999985099","","3","0","null","null","arrowup","[0.675,0.325,0.85,0.15]","","",""
"sailing-trial","305","1413288","0.0-11.0-270.0","","","","false","","","","","","","","","","948.5","","64.89999999850988","","2","1","arrowright","1","arrowleft","[0.675,0.325,0.85,0.15]","","",""
"sailing-trial","306","1415593","0.0-11.0-271.0","","","","false","","","","","","","","","","null","","957.4000000022352","","1","0","null","null","arrowup","[0.675,0.325,0.85,0.15]","","",""
"sailing-trial","307","1419388","0.0-11.0-272.0","","","","false","","","","","","","","","","780","","115.40000000223517","","2","1","arrowright","1","arrowleft","[0.675,0.325,0.85,0.15]","","",""
"sailing-trial","308","1421956","0.0-11.0-273.0","","","","false","","","","","","","","","","null","","767.5999999977648","","2","1","null","null","arrowup","[0.675,0.325,0.85,0.15]","","",""
"sailing-trial","309","1426539","0.0-11.0-274.0","","","","false","","","","","","","","","","969.5","","667.1000000014901","","2","1","arrowright","1","arrowleft","[0.675,0.325,0.85,0.15]","","",""
"sailing-trial","310","1430176","0.0-11.0-275.0","","","","false","","","","","","","","","","null","","1222.5","","2","1","null","null","arrowup","[0.675,0.325,0.85,0.15]","","",""
"sailing-trial","311","1434236","0.0-11.0-276.0","","","","false","","","","","","","","","","1039.2000000029802","","150.30000000074506","","2","1","arrowright","1","arrowleft","[0.675,0.325,0.85,0.15]","","",""
"sailing-trial","312","1436966","0.0-11.0-277.0","","","","false","","","","","","","","","","null","","985.1000000014901","","1","0","null","null","arrowup","[0.675,0.325,0.85,0.15]","","",""
"sailing-trial","313","1441353","0.0-11.0-278.0","","","","false","","","","","","","","","","1186.1000000014901","","244.69999999925494","","2","1","arrowright","1","arrowleft","[0.675,0.325,0.85,0.15]","","",""
"sailing-trial","314","1443537","0.0-11.0-279.0","","","","false","","","","","","","","","","null","","971","","1","0","null","null","arrowup","[0.675,0.325,0.85,0.15]","","",""
"sailing-trial","315","1448056","0.0-11.0-280.0","","","","false","","","","","","","","","","1019.7999999970198","","616.4000000022352","","2","1","arrowright","1","arrowleft","[0.85,0.15,0.675,0.325]","","",""
"sailing-trial","316","1452447","0.0-11.0-281.0","","","","false","","","","","","","","","","null","","2902.39999999851","","2","0","null","null","arrowup","[0.85,0.15,0.675,0.325]","","",""
"sailing-trial","317","1455836","0.0-11.0-282.0","","","","false","","","","","","","","","","712.3000000007451","","67.5","","3","0","arrowright","1","arrowright","[0.85,0.15,0.675,0.325]","","",""
"sailing-trial","318","1458853","0.0-11.0-283.0","","","","false","","","","","","","","","","null","","979.5999999977648","","2","1","null","null","arrowup","[0.85,0.15,0.675,0.325]","","",""
"sailing-trial","319","1462386","0.0-11.0-284.0","","","","false","","","","","","","","","","684.1999999992549","","1","","2","0","arrowright","1","arrowleft","[0.85,0.15,0.675,0.325]","","",""
"sailing-trial","320","1464852","0.0-11.0-285.0","","","","false","","","","","","","","","","null","","976.4000000022352","","3","0","null","null","arrowup","[0.85,0.15,0.675,0.325]","","",""
"sailing-trial","321","1469351","0.0-11.0-286.0","","","","false","","","","","","","","","","757.8000000007451","","761.5","","0","1","arrowleft","0","arrowleft","[0.85,0.15,0.675,0.325]","","",""
"sailing-trial","322","1471521","0.0-11.0-287.0","","","","false","","","","","","","","","","null","","785.1999999992549","","1","0","null","null","arrowup","[0.85,0.15,0.675,0.325]","","",""
"sailing-trial","323","1475338","0.0-11.0-288.0","","","","false","","","","","","","","","","856.1000000014901","","71.89999999850988","","0","1","arrowleft","0","arrowleft","[0.85,0.15,0.675,0.325]","","",""
"sailing-trial","324","1478421","0.0-11.0-289.0","","","","false","","","","","","","","","","null","","1250.800000000745","","0","1","null","null","arrowup","[0.85,0.15,0.675,0.325]","","",""
"sailing-trial","325","1482187","0.0-11.0-290.0","","","","false","","","","","","","","","","1099.6000000014901","","98.39999999850988","","0","0","arrowleft","0","arrowleft","[0.85,0.15,0.675,0.325]","","",""
"sailing-trial","326","1485604","0.0-11.0-291.0","","","","false","","","","","","","","","","null","","1417.0999999977648","","0","0","null","null","arrowup","[0.85,0.15,0.675,0.325]","","",""
"sailing-trial","327","1490340","0.0-11.0-292.0","","","","false","","","","","","","","","","1637.0999999977648","","361.69999999925494","","1","0","arrowleft","0","arrowright","[0.85,0.15,0.675,0.325]","","",""
"sailing-trial","328","1492596","0.0-11.0-293.0","","","","false","","","","","","","","","","null","","793.4000000022352","","1","0","null","null","arrowup","[0.85,0.15,0.675,0.325]","","",""
"sailing-trial","329","1496012","0.0-11.0-294.0","","","","false","","","","","","","","","","727","","26","","3","0","arrowright","1","arrowright","[0.85,0.15,0.675,0.325]","","",""
"sailing-trial","330","1498408","0.0-11.0-295.0","","","","false","","","","","","","","","","null","","928","","3","0","null","null","arrowup","[0.85,0.15,0.675,0.325]","","",""
"sailing-trial","331","1503269","0.0-11.0-296.0","","","","false","","","","","","","","","","919.4000000022352","","487.69999999925494","","2","1","arrowright","1","arrowleft","[0.85,0.15,0.675,0.325]","","",""
"sailing-trial","332","1507624","0.0-11.0-297.0","","","","false","","","","","","","","","","null","","2445.300000000745","","1","0","null","null","arrowup","[0.85,0.15,0.675,0.325]","","",""
"sailing-trial","333","1511919","0.0-11.0-298.0","","","","false","","","","","","","","","","991.4000000022352","","414","","2","1","arrowright","1","arrowleft","[0.85,0.15,0.675,0.325]","","",""
"sailing-trial","334","1515204","0.0-11.0-299.0","","","","false","","","","","","","","","","null","","1283.4000000022352","","2","1","null","null","arrowup","[0.85,0.15,0.675,0.325]","","",""
"sailing-trial","335","1519469","0.0-11.0-300.0","","","","false","","","","","","","","","","1207.1000000014901","","116.80000000074506","","2","1","arrowright","1","arrowleft","[0.675,0.325,0.85,0.15]","","",""
"sailing-trial","336","1522045","0.0-11.0-301.0","","","","false","","","","","","","","","","null","","1149.800000000745","","1","0","null","null","arrowup","[0.675,0.325,0.85,0.15]","","",""
"sailing-trial","337","1526018","0.0-11.0-302.0","","","","false","","","","","","","","","","962.8000000007451","","171.19999999925494","","2","1","arrowright","1","arrowleft","[0.675,0.325,0.85,0.15]","","",""
"sailing-trial","338","1528709","0.0-11.0-303.0","","","","false","","","","","","","","","","null","","1113.5","","3","0","null","null","arrowup","[0.675,0.325,0.85,0.15]","","",""
"sailing-trial","339","1532753","0.0-11.0-304.0","","","","false","","","","","","","","","","925.8999999985099","","124.59999999776483","","2","1","arrowright","1","arrowleft","[0.675,0.325,0.85,0.15]","","",""
"sailing-trial","340","1536219","0.0-11.0-305.0","","","","false","","","","","","","","","","null","","1107.199999999255","","2","1","null","null","arrowup","[0.675,0.325,0.85,0.15]","","",""
"sailing-trial","341","1539450","0.0-11.0-306.0","","","","false","","","","","","","","","","868.1999999992549","","34","","2","0","arrowright","1","arrowleft","[0.675,0.325,0.85,0.15]","","",""
"sailing-trial","342","1541952","0.0-11.0-307.0","","","","false","","","","","","","","","","null","","1016.1000000014901","","1","0","null","null","arrowup","[0.675,0.325,0.85,0.15]","","",""
"sailing-trial","343","1545752","0.0-11.0-308.0","","","","false","","","","","","","","","","740.6999999992549","","170.39999999850988","","2","1","arrowright","1","arrowleft","[0.675,0.325,0.85,0.15]","","",""
"sailing-trial","344","1548545","0.0-11.0-309.0","","","","false","","","","","","","","","","null","","1215.5","","3","0","null","null","arrowup","[0.675,0.325,0.85,0.15]","","",""
"sailing-trial","345","1552233","0.0-11.0-310.0","","","","false","","","","","","","","","","647","","157.69999999925494","","2","1","arrowright","1","arrowleft","[0.675,0.325,0.85,0.15]","","",""
"sailing-trial","346","1555635","0.0-11.0-311.0","","","","false","","","","","","","","","","null","","1187.1000000014901","","0","1","null","null","arrowup","[0.675,0.325,0.85,0.15]","","",""
"sailing-trial","347","1559984","0.0-11.0-312.0","","","","false","","","","","","","","","","1091.8999999985099","","280.8999999985099","","0","1","arrowleft","0","arrowleft","[0.675,0.325,0.85,0.15]","","",""
"sailing-trial","348","1563151","0.0-11.0-313.0","","","","false","","","","","","","","","","null","","1269.2999999970198","","0","1","null","null","arrowup","[0.675,0.325,0.85,0.15]","","",""
"sailing-trial","349","1567283","0.0-11.0-314.0","","","","false","","","","","","","","","","1020.1999999992549","","156","","0","1","arrowleft","0","arrowleft","[0.675,0.325,0.85,0.15]","","",""
"sailing-trial","350","1573435","0.0-11.0-315.0","","","","false","","","","","","","","","","null","","4270.5","","2","1","null","null","arrowup","[0.675,0.325,0.85,0.15]","","",""
"sailing-trial","351","1577282","0.0-11.0-316.0","","","","false","","","","","","","","","","882.2000000029802","","27.699999999254942","","2","1","arrowright","1","arrowleft","[0.675,0.325,0.85,0.15]","","",""
"sailing-trial","352","1580200","0.0-11.0-317.0","","","","false","","","","","","","","","","null","","1042.8999999985099","","2","1","null","null","arrowup","[0.675,0.325,0.85,0.15]","","",""
"sailing-trial","353","1584049","0.0-11.0-318.0","","","","false","","","","","","","","","","835.4000000022352","","91","","2","1","arrowright","1","arrowleft","[0.85,0.15,0.675,0.325]","","",""
"sailing-trial","354","1586838","0.0-11.0-319.0","","","","false","","","","","","","","","","null","","1008.1999999992549","","2","0","null","null","arrowup","[0.85,0.15,0.675,0.325]","","",""
"sailing-trial","355","1590617","0.0-11.0-320.0","","","","false","","","","","","","","","","786.4000000022352","","102.10000000149012","","0","1","arrowleft","0","arrowleft","[0.85,0.15,0.675,0.325]","","",""
"sailing-trial","356","1592870","0.0-11.0-321.0","","","","false","","","","","","","","","","null","","881.9000000022352","","3","0","null","null","arrowup","[0.85,0.15,0.675,0.325]","","",""
"sailing-trial","357","1597250","0.0-11.0-322.0","","","","false","","","","","","","","","","1403.6000000014901","","82","","0","1","arrowleft","0","arrowleft","[0.85,0.15,0.675,0.325]","","",""
"sailing-trial","358","1600092","0.0-11.0-323.0","","","","false","","","","","","","","","","null","","1244.5","","2","0","null","null","arrowup","[0.85,0.15,0.675,0.325]","","",""
"sailing-trial","359","1603816","0.0-11.0-324.0","","","","false","","","","","","","","","","683.3999999985099","","37.899999998509884","","0","1","arrowleft","0","arrowleft","[0.85,0.15,0.675,0.325]","","",""
"sailing-trial","360","1606517","0.0-11.0-325.0","","","","false","","","","","","","","","","null","","796.9000000022352","","1","1","null","null","arrowup","[0.85,0.15,0.675,0.325]","","",""
"sailing-trial","361","1609938","0.0-11.0-326.0","","","","false","","","","","","","","","","730.5999999977648","","262.69999999925494","","1","0","arrowleft","0","arrowright","[0.85,0.15,0.675,0.325]","","",""
"sailing-trial","362","1612581","0.0-11.0-327.0","","","","false","","","","","","","","","","null","","1126.6000000014901","","3","0","null","null","arrowup","[0.85,0.15,0.675,0.325]","","",""
"sailing-trial","363","1616181","0.0-11.0-328.0","","","","false","","","","","","","","","","695.8999999985099","","47.80000000074506","","0","1","arrowleft","0","arrowleft","[0.85,0.15,0.675,0.325]","","",""
"sailing-trial","364","1618497","0.0-11.0-329.0","","","","false","","","","","","","","","","null","","928.0999999977648","","1","0","null","null","arrowup","[0.85,0.15,0.675,0.325]","","",""
"sailing-trial","365","1622846","0.0-11.0-330.0","","","","false","","","","","","","","","","883.6999999992549","","980","","0","0","arrowleft","0","arrowleft","[0.85,0.15,0.675,0.325]","","",""
"sailing-trial","366","1626133","0.0-11.0-331.0","","","","false","","","","","","","","","","null","","1265.300000000745","","0","1","null","null","arrowup","[0.85,0.15,0.675,0.325]","","",""
"sailing-trial","367","1629963","0.0-11.0-332.0","","","","false","","","","","","","","","","744.2000000029802","","146.5","","0","1","arrowleft","0","arrowleft","[0.85,0.15,0.675,0.325]","","",""
"sailing-trial","368","1632882","0.0-11.0-333.0","","","","false","","","","","","","","","","null","","1037.5","","2","1","null","null","arrowup","[0.85,0.15,0.675,0.325]","","",""
"sailing-trial","369","1636498","0.0-11.0-334.0","","","","false","","","","","","","","","","567.6999999992549","","1.6000000014901161","","2","1","arrowright","1","arrowleft","[0.675,0.325,0.85,0.15]","","",""
"sailing-trial","370","1639864","0.0-11.0-335.0","","","","false","","","","","","","","","","null","","1440.5","","1","1","null","null","arrowup","[0.675,0.325,0.85,0.15]","","",""
"sailing-trial","371","1643802","0.0-11.0-336.0","","","","false","","","","","","","","","","1096.4000000022352","","418.5999999977648","","1","0","arrowleft","0","arrowright","[0.675,0.325,0.85,0.15]","","",""
"sailing-trial","372","1646597","0.0-11.0-337.0","","","","false","","","","","","","","","","null","","982.5","","0","1","null","null","arrowup","[0.675,0.325,0.85,0.15]","","",""
"sailing-trial","373","1650414","0.0-11.0-338.0","","","","false","","","","","","","","","","924.3999999985099","","9.099999997764826","","0","1","arrowleft","0","arrowleft","[0.675,0.325,0.85,0.15]","","",""
"sailing-trial","374","1653165","0.0-11.0-339.0","","","","false","","","","","","","","","","null","","892.3000000007451","","2","1","null","null","arrowup","[0.675,0.325,0.85,0.15]","","",""
"sailing-trial","375","1656981","0.0-11.0-340.0","","","","false","","","","","","","","","","581.2999999970198","","329.0999999977648","","2","1","arrowright","1","arrowleft","[0.675,0.325,0.85,0.15]","","",""
"sailing-trial","376","1659313","0.0-11.0-341.0","","","","false","","","","","","","","","","null","","866.5","","1","0","null","null","arrowup","[0.675,0.325,0.85,0.15]","","",""
"sailing-trial","377","1662813","0.0-11.0-342.0","","","","false","","","","","","","","","","727.8000000007451","","54.600000001490116","","2","1","arrowright","1","arrowleft","[0.675,0.325,0.85,0.15]","","",""
"sailing-trial","378","1665562","0.0-11.0-343.0","","","","false","","","","","","","","","","null","","831.8000000007451","","2","1","null","null","arrowup","[0.675,0.325,0.85,0.15]","","",""
"sailing-trial","379","1669198","0.0-11.0-344.0","","","","false","","","","","","","","","","669.1000000014901","","79.60000000149012","","2","1","arrowright","1","arrowleft","[0.675,0.325,0.85,0.15]","","",""
"sailing-trial","380","1671944","0.0-11.0-345.0","","","","false","","","","","","","","","","null","","985.3000000007451","","3","0","null","null","arrowup","[0.675,0.325,0.85,0.15]","","",""
"sailing-trial","381","1675772","0.0-11.0-346.0","","","","false","","","","","","","","","","660.9000000022352","","814","","2","0","arrowright","1","arrowleft","[0.675,0.325,0.85,0.15]","","",""
"sailing-trial","382","1678911","0.0-11.0-347.0","","","","false","","","","","","","","","","null","","1004","","2","1","null","null","arrowup","[0.675,0.325,0.85,0.15]","","",""
"sailing-trial","383","1681859","0.0-11.0-348.0","","","","false","","","","","","","","","","740.8999999985099","","17.099999997764826","","2","0","arrowright","1","arrowleft","[0.675,0.325,0.85,0.15]","","",""
"sailing-trial","384","1684581","0.0-11.0-349.0","","","","false","","","","","","","","","","null","","909.6999999992549","","0","1","null","null","arrowup","[0.675,0.325,0.85,0.15]","","",""
"sailing-trial","385","1688779","0.0-11.0-350.0","","","","false","","","","","","","","","","588.5","","944.3999999985099","","0","1","arrowleft","0","arrowleft","[0.675,0.325,0.85,0.15]","","",""
"sailing-trial","386","1691873","0.0-11.0-351.0","","","","false","","","","","","","","","","null","","1096.8999999985099","","3","0","null","null","arrowup","[0.675,0.325,0.85,0.15]","","",""
"sailing-trial","387","1695515","0.0-11.0-352.0","","","","false","","","","","","","","","","840.0999999977648","","249.89999999850988","","0","0","arrowleft","0","arrowleft","[0.325,0.675,0.15,0.85]","","",""
"sailing-trial","388","1698209","0.0-11.0-353.0","","","","false","","","","","","","","","","null","","1105","","0","0","null","null","arrowup","[0.325,0.675,0.15,0.85]","","",""
"sailing-trial","389","1706161","0.0-11.0-354.0","","","","false","","","","","","","","","","4711.60000000149","","67.10000000149012","","1","1","arrowleft","0","arrowright","[0.325,0.675,0.15,0.85]","","",""
"sailing-trial","390","1709228","0.0-11.0-355.0","","","","false","","","","","","","","","","null","","1256.8999999985099","","3","1","null","null","arrowup","[0.325,0.675,0.15,0.85]","","",""
"sailing-trial","391","1716513","0.0-11.0-356.0","","","","false","","","","","","","","","","903.9000000022352","","2553.800000000745","","3","1","arrowright","1","arrowright","[0.325,0.675,0.15,0.85]","","",""
"sailing-trial","392","1719121","0.0-11.0-357.0","","","","false","","","","","","","","","","null","","1277.9000000022352","","0","0","null","null","arrowup","[0.325,0.675,0.15,0.85]","","",""
"sailing-trial","393","1724609","0.0-11.0-358.0","","","","false","","","","","","","","","","816","","1797.300000000745","","3","1","arrowright","1","arrowright","[0.325,0.675,0.15,0.85]","","",""
"sailing-trial","394","1728244","0.0-11.0-359.0","","","","false","","","","","","","","","","null","","1818.800000000745","","2","1","null","null","arrowup","[0.325,0.675,0.15,0.85]","","",""
"sailing-trial","395","1732494","0.0-11.0-360.0","","","","false","","","","","","","","","","1000.3999999985099","","702.1999999992549","","2","0","arrowright","1","arrowleft","[0.325,0.675,0.15,0.85]","","",""
"sailing-trial","396","1735289","0.0-11.0-361.0","","","","false","","","","","","","","","","null","","1324.7000000029802","","1","0","null","null","arrowup","[0.325,0.675,0.15,0.85]","","",""
"sailing-trial","397","1738996","0.0-11.0-362.0","","","","false","","","","","","","","","","727.3999999985099","","20.300000000745058","","0","1","arrowleft","0","arrowleft","[0.325,0.675,0.15,0.85]","","",""
"sailing-trial","398","1742225","0.0-11.0-363.0","","","","false","","","","","","","","","","null","","1348.1000000014901","","3","1","null","null","arrowup","[0.325,0.675,0.15,0.85]","","",""
"sailing-trial","399","1747404","0.0-11.0-364.0","","","","false","","","","","","","","","","2380.60000000149","","195.30000000074506","","0","0","arrowleft","0","arrowleft","[0.325,0.675,0.15,0.85]","","",""
"sailing-trial","400","1750545","0.0-11.0-365.0","","","","false","","","","","","","","","","null","","1316.7999999970198","","3","1","null","null","arrowup","[0.325,0.675,0.15,0.85]","","",""
"sailing-trial","401","1754892","0.0-11.0-366.0","","","","false","","","","","","","","","","608.7999999970198","","734.5","","3","1","arrowright","1","arrowright","[0.325,0.675,0.15,0.85]","","",""
"sailing-trial","402","1758093","0.0-11.0-367.0","","","","false","","","","","","","","","","null","","1127.699999999255","","3","1","null","null","arrowup","[0.325,0.675,0.15,0.85]","","",""
"sailing-trial","403","1763174","0.0-11.0-368.0","","","","false","","","","","","","","","","1323.699999999255","","750.4000000022352","","3","1","arrowright","1","arrowright","[0.15,0.85,0.325,0.675]","","",""
"sailing-trial","404","1766717","0.0-11.0-369.0","","","","false","","","","","","","","","","null","","1904.8999999985099","","0","0","null","null","arrowup","[0.15,0.85,0.325,0.675]","","",""
"sailing-trial","405","1771711","0.0-11.0-370.0","","","","false","","","","","","","","","","915.6999999992549","","701.5","","3","1","arrowright","1","arrowright","[0.15,0.85,0.325,0.675]","","",""
"sailing-trial","406","1774075","0.0-11.0-371.0","","","","false","","","","","","","","","","null","","956.5","","2","0","null","null","arrowup","[0.15,0.85,0.325,0.675]","","",""
"sailing-trial","407","1778946","0.0-11.0-372.0","","","","false","","","","","","","","","","725.3000000007451","","109.69999999925494","","3","0","arrowright","1","arrowright","[0.15,0.85,0.325,0.675]","","",""
"sailing-trial","408","1782337","0.0-11.0-373.0","","","","false","","","","","","","","","","null","","1964","","0","0","null","null","arrowup","[0.15,0.85,0.325,0.675]","","",""
"sailing-trial","409","1786840","0.0-11.0-374.0","","","","false","","","","","","","","","","935.5","","687.8000000007451","","1","1","arrowleft","0","arrowright","[0.15,0.85,0.325,0.675]","","",""
"sailing-trial","410","1789719","0.0-11.0-375.0","","","","false","","","","","","","","","","null","","1225.3999999985099","","0","0","null","null","arrowup","[0.15,0.85,0.325,0.675]","","",""
"sailing-trial","411","1794198","0.0-11.0-376.0","","","","false","","","","","","","","","","1764.8999999985099","","91.60000000149012","","1","0","arrowleft","0","arrowright","[0.15,0.85,0.325,0.675]","","",""
"sailing-trial","412","1796832","0.0-11.0-377.0","","","","false","","","","","","","","","","null","","1009.8999999985099","","2","0","null","null","arrowup","[0.15,0.85,0.325,0.675]","","",""
"sailing-trial","413","1801074","0.0-11.0-378.0","","","","false","","","","","","","","","","793.2000000029802","","90.39999999850988","","1","1","arrowleft","0","arrowright","[0.15,0.85,0.325,0.675]","","",""
"sailing-trial","414","1804059","0.0-11.0-379.0","","","","false","","","","","","","","","","null","","965.3000000007451","","3","1","null","null","arrowup","[0.15,0.85,0.325,0.675]","","",""
"sailing-trial","415","1807775","0.0-11.0-380.0","","","","false","","","","","","","","","","715.1000000014901","","149.80000000074506","","1","1","arrowleft","0","arrowright","[0.15,0.85,0.325,0.675]","","",""
"sailing-trial","416","1810491","0.0-11.0-381.0","","","","false","","","","","","","","","","null","","899.5","","0","1","null","null","arrowup","[0.15,0.85,0.325,0.675]","","",""
"sailing-trial","417","1814125","0.0-11.0-382.0","","","","false","","","","","","","","","","624.7000000029802","","90","","0","1","arrowleft","0","arrowleft","[0.15,0.85,0.325,0.675]","","",""
"sailing-trial","418","1816289","0.0-11.0-383.0","","","","false","","","","","","","","","","null","","793.7000000029802","","2","0","null","null","arrowup","[0.15,0.85,0.325,0.675]","","",""
"sailing-trial","419","1820476","0.0-11.0-384.0","","","","false","","","","","","","","","","629.6999999992549","","689.4000000022352","","0","1","arrowleft","0","arrowleft","[0.325,0.675,0.15,0.85]","","",""
"sailing-trial","420","1822522","0.0-11.0-385.0","","","","false","","","","","","","","","","null","","712.1000000014901","","2","0","null","null","arrowup","[0.325,0.675,0.15,0.85]","","",""
"sailing-trial","421","1826240","0.0-11.0-386.0","","","","false","","","","","","","","","","663.8999999985099","","237.70000000298023","","0","1","arrowleft","0","arrowleft","[0.325,0.675,0.15,0.85]","","",""
"sailing-trial","422","1828618","0.0-11.0-387.0","","","","false","","","","","","","","","","null","","841.5999999977648","","2","0","null","null","arrowup","[0.325,0.675,0.15,0.85]","","",""
"sailing-trial","423","1832907","0.0-11.0-388.0","","","","false","","","","","","","","","","721","","709","","0","1","arrowleft","0","arrowleft","[0.325,0.675,0.15,0.85]","","",""
"sailing-trial","424","1835658","0.0-11.0-389.0","","","","false","","","","","","","","","","null","","846.6000000014901","","1","1","null","null","arrowup","[0.325,0.675,0.15,0.85]","","",""
"sailing-trial","425","1838703","0.0-11.0-390.0","","","","false","","","","","","","","","","719.9000000022352","","19.399999998509884","","1","0","arrowleft","0","arrowright","[0.325,0.675,0.15,0.85]","","",""
"sailing-trial","426","1841210","0.0-11.0-391.0","","","","false","","","","","","","","","","null","","957.8000000007451","","2","0","null","null","arrowup","[0.325,0.675,0.15,0.85]","","",""
"sailing-trial","427","1845257","0.0-11.0-392.0","","","","false","","","","","","","","","","1170.9000000022352","","28","","0","1","arrowleft","0","arrowleft","[0.325,0.675,0.15,0.85]","","",""
"sailing-trial","428","1848142","0.0-11.0-393.0","","","","false","","","","","","","","","","null","","965.8999999985099","","1","1","null","null","arrowup","[0.325,0.675,0.15,0.85]","","",""
"sailing-trial","429","1852216","0.0-11.0-394.0","","","","false","","","","","","","","","","950.5","","616.8000000007451","","1","0","arrowleft","0","arrowright","[0.325,0.675,0.15,0.85]","","",""
"sailing-trial","430","1854583","0.0-11.0-395.0","","","","false","","","","","","","","","","null","","830.5","","1","0","null","null","arrowup","[0.325,0.675,0.15,0.85]","","",""
"sailing-trial","431","1858640","0.0-11.0-396.0","","","","false","","","","","","","","","","1099.6000000014901","","34.400000002235174","","0","1","arrowleft","0","arrowleft","[0.325,0.675,0.15,0.85]","","",""
"sailing-trial","432","1860798","0.0-11.0-397.0","","","","false","","","","","","","","","","null","","668.1999999992549","","1","0","null","null","arrowup","[0.325,0.675,0.15,0.85]","","",""
"sailing-trial","433","1863863","0.0-11.0-398.0","","","","false","","","","","","","","","","641.3999999985099","","9.900000002235174","","0","0","arrowleft","0","arrowleft","[0.325,0.675,0.15,0.85]","","",""
"sailing-trial","434","1866337","0.0-11.0-399.0","","","","false","","","","","","","","","","null","","1021.1000000014901","","2","0","null","null","arrowup","[0.325,0.675,0.15,0.85]","","",""
"instructions","435","1870362","0.0-12.0","","","","","","","","","","4023.60000000149","","","","","","","","","","","","","","","","[{""page_index"":0,""viewing_time"":4022.699999999255}]"
"survey-debrief","436","1914052","0.0-13.0","","","","","","","","","","43686.699999999255","","","","","","","","","","","","","","{""difficulty"":""5"",""fun"":""1"",""clarity"":""5"",""strategy"":""I would remember the last shop that gave me bonus, and repeatedly visit that until some other shop gave the bonus."",""feedback"":""""}","",""
