"trial_type","trial_index","time_elapsed","internal_node_id","value","metadata","success","timeout","failed_images","failed_audio","failed_video","browser_interaction","low_quality","rt","stimulus","response","button_pressed","island_rt","island_response","boat_rt","boat_response","boat","reward","island_key","island","boat_key","reward_probabilities","responses","num_errors","view_history"
"pavlovia","0","20","0.0-0.0","","","","","","","","","","","","","","","","","","","","","","","","","",""
"call-function","1","20","0.0-1.0","","{""task_version"":""sailing_part1_v1"",""task_condition"":""good"",""boats"":[""A"",""C"",""D"",""B""],""boats_demo"":[""F"",""E"",""H"",""G""],""islands"":[""A"",""B""],""subject_id"":""14387"",""age"":""8"",""gender"":""Male""}","","","","","","","","","","","","","","","","","","","","","","","",""
"preload","2","2616","0.0-2.0","","","true","false","[]","[]","[]","[{""event"":""focus"",""trial"":0,""time"":2},{""event"":""fullscreenenter"",""trial"":3,""time"":6327}]","false","","","","","","","","","","","","","","","","",""
"fullscreen","3","7061","0.0-3.0","","","true","","","","","","","","","","","","","","","","","","","","","","",""
"audio-keyboard-response","4","10671","0.0-4.0-0.0","","","","","","","","","","3381.3333333333335","audio/beep_loop.wav"," ","","","","","","","","","","","","","",""
"audio-test","5","12775","0.0-4.0-1.0","","","","","","","","","","null","audio/turtle.mp3","","3","","","","","","","","","","","","",""
"audio-test","6","16436","0.0-4.0-2.0","","","","","","","","","","null","audio/shark.mp3","","2","","","","","","","","","","","","",""
"sailing-instructions","7","49925","0.0-5.0-0.0-0.0","","","","","","","","","","","","","","null","null","null","null","null","null","","","","","","",""
"sailing-trial","8","56778","0.0-5.0-0.0-1.0-0.0","","","","false","","","","","","","","","","5661","","null","","null","null","arrowleft","0","null","null","","",""
"sailing-trial","9","60638","0.0-5.0-0.0-1.0-1.0","","","","false","","","","","","","","","","2696","","null","","null","null","arrowright","1","null","null","","",""
"sailing-trial","10","63734","0.0-5.0-0.0-1.0-2.0","","","","false","","","","","","","","","","1899","","null","","null","null","arrowright","1","null","null","","",""
"sailing-instructions","11","110586","0.0-5.0-0.0-2.0","","","","","","","","","","","","","","null","null","null","null","0","null","","","","","","",""
"sailing-trial","12","122665","0.0-5.0-0.0-3.0-0.0","","","","false","","","","","","","","","","null","","7338","","2","1","null","null","arrowleft","[1,1,1,1]","","",""
"sailing-trial","13","127148","0.0-5.0-0.0-3.0-1.0","","","","false","","","","","","","","","","null","","1559","","3","1","null","null","arrowright","[1,1,1,1]","","",""
"sailing-trial","14","132876","0.0-5.0-0.0-3.0-2.0","","","","false","","","","","","","","","","null","","2112","","2","0","null","null","arrowleft","[0,0,0,0]","","",""
"sailing-instructions","15","143238","0.0-5.0-0.0-4.0","","","","","","","","","","","","","","null","null","null","null","null","null","","","","","","",""
"sailing-comprehension","16","159436","0.0-5.0-0.0-5.0","","","","","","","","","","13480","","","","","","","","","","","","","","[""true"",""true"",""false"",""true""]","0",""
"sailing-instructions","17","226988","0.0-6.0-0.0-0.0","","","","","","","","","","","","","","null","null","null","null","null","null","","","","","","",""
"sailing-comprehension","18","248403","0.0-6.0-0.0-1.0","","","","","","","","","","11902","","","","","","","","","","","","","","[""true"",""true"",""true""]","1",""
"sailing-instructions","19","315133","0.0-6.0-0.1-0.1","","","","","","","","","","","","","","null","null","null","null","null","null","","","","","","",""
"sailing-comprehension","20","336701","0.0-6.0-0.1-1.1","","","","","","","","","","20403","","","","","","","","","","","","","","[""true"",""false"",""true""]","0",""
"sailing-instructions","21","353334","0.0-7.0-0.0-0.0","","","","","","","","","","","","","","null","null","null","null","null","null","","","","","","",""
"sailing-trial","22","360883","0.0-7.0-0.0-1.0-0.0","","","","false","","","","","","","","","","null","","4551","","0","0","null","null","arrowup","[0.2,0.8,0.2,0.8]","","",""
"sailing-trial","23","365236","0.0-7.0-0.0-1.0-1.0","","","","false","","","","","","","","","","null","","2017","","1","1","null","null","arrowup","[0.2,0.8,0.2,0.8]","","",""
"sailing-trial","24","369320","0.0-7.0-0.0-1.0-2.0","","","","false","","","","","","","","","","null","","2009","","2","0","null","null","arrowup","[0.2,0.8,0.2,0.8]","","",""
"sailing-trial","25","372596","0.0-7.0-0.0-1.0-3.0","","","","false","","","","","","","","","","null","","1390","","3","1","null","null","arrowup","[0.2,0.8,0.2,0.8]","","",""
"sailing-comprehension","26","381356","0.0-7.0-0.0-2.0","","","","","","","","","","7137","","","","","","","","","","","","","","[""true""]","1",""
"sailing-instructions","27","396127","0.0-7.0-0.1-0.1","","","","","","","","","","","","","","null","null","null","null","null","null","","","","","","",""
"sailing-trial","28","400028","0.0-7.0-0.1-1.1-0.1","","","","false","","","","","","","","","","null","","1920","","0","0","null","null","arrowup","[0.2,0.8,0.2,0.8]","","",""
"sailing-trial","29","402779","0.0-7.0-0.1-1.1-1.1","","","","false","","","","","","","","","","null","","743","","1","1","null","null","arrowup","[0.2,0.8,0.2,0.8]","","",""
"sailing-trial","30","403982","0.0-7.0-0.1-1.1-2.1","","","","false","","","","","","","","","","null","","141","","2","0","null","null","arrowup","[0.2,0.8,0.2,0.8]","","",""
"sailing-trial","31","407082","0.0-7.0-0.1-1.1-3.1","","","","false","","","","","","","","","","null","","937","","3","1","null","null","arrowup","[0.2,0.8,0.2,0.8]","","",""
"sailing-comprehension","32","410815","0.0-7.0-0.1-2.1","","","","","","","","","","2528","","","","","","","","","","","","","","[""false""]","0",""
"sailing-instructions","33","421422","0.0-8.0-0.0-0.0","","","","","","","","","","","","","","null","null","null","null","null","null","","","","","","",""
"sailing-comprehension","34","426173","0.0-8.0-0.0-1.0","","","","","","","","","","3557","","","","","","","","","","","","","","[""true""]","0",""
"sailing-instructions","35","449123","0.0-9.0-0.0-0.0","","","","","","","","","","","","","","null","null","null","null","null","null","","","","","","",""
"sailing-trial","36","456172","0.0-9.0-0.0-1.0-0.0","","","","false","","","","","","","","","","2346","","554","","0","0","arrowleft","0","arrowleft","[0.2,0.8,0.2,0.8]","","",""
"sailing-trial","37","462128","0.0-9.0-0.0-1.0-1.0","","","","false","","","","","","","","","","1857","","753","","1","1","arrowleft","0","arrowright","[0.2,0.8,0.2,0.8]","","",""
"sailing-trial","38","467645","0.0-9.0-0.0-1.0-2.0","","","","false","","","","","","","","","","null","","3391","","0","1","null","null","arrowup","[0.2,0.8,0.2,0.8]","","",""
"sailing-trial","39","473171","0.0-9.0-0.0-1.0-3.0","","","","false","","","","","","","","","","1858","","266","","1","1","arrowleft","0","arrowright","[0.2,0.8,0.2,0.8]","","",""
"sailing-trial","40","476916","0.0-9.0-0.0-1.0-4.0","","","","false","","","","","","","","","","null","","1534","","3","1","null","null","arrowup","[0.2,0.8,0.2,0.8]","","",""
"sailing-trial","41","482769","0.0-9.0-0.0-1.0-5.0","","","","false","","","","","","","","","","1512","","254","","1","0","arrowleft","0","arrowright","[0.2,0.8,0.2,0.8]","","",""
"sailing-instructions","42","511690","0.0-10.0","","","","","","","","","","","","","","null","null","null","null","null","null","","","","","","",""
"sailing-trial","43","516810","0.0-11.0-0.0","","","","false","","","","","","","","","","1547","","336","","1","1","arrowleft","0","arrowright","[0.325,0.675,0.15,0.85]","","",""
"sailing-trial","44","521619","0.0-11.0-1.0","","","","false","","","","","","","","","","null","","1750","","2","0","null","null","arrowup","[0.325,0.675,0.15,0.85]","","",""
"sailing-trial","45","526637","0.0-11.0-2.0","","","","false","","","","","","","","","","1457","","502","","2","1","arrowright","1","arrowleft","[0.325,0.675,0.15,0.85]","","",""
"sailing-trial","46","530495","0.0-11.0-3.0","","","","false","","","","","","","","","","null","","2148","","2","0","null","null","arrowup","[0.325,0.675,0.15,0.85]","","",""
"sailing-trial","47","534245","0.0-11.0-4.0","","","","false","","","","","","","","","","1310","","103","","1","0","arrowleft","0","arrowright","[0.325,0.675,0.15,0.85]","","",""
"sailing-trial","48","538051","0.0-11.0-5.0","","","","false","","","","","","","","","","null","","1838","","3","1","null","null","arrowup","[0.325,0.675,0.15,0.85]","","",""
"sailing-trial","49","543501","0.0-11.0-6.0","","","","false","","","","","","","","","","1070","","253","","0","0","arrowleft","0","arrowleft","[0.325,0.675,0.15,0.85]","","",""
"sailing-trial","50","546314","0.0-11.0-7.0","","","","false","","","","","","","","","","null","","1373","","0","0","null","null","arrowup","[0.325,0.675,0.15,0.85]","","",""
"sailing-trial","51","552490","0.0-11.0-8.0","","","","false","","","","","","","","","","1096","","764","","2","0","arrowright","1","arrowleft","[0.325,0.675,0.15,0.85]","","",""
"sailing-trial","52","557720","0.0-11.0-9.0","","","","false","","","","","","","","","","null","","1552","","3","1","null","null","arrowup","[0.325,0.675,0.15,0.85]","","",""
"sailing-trial","53","562269","0.0-11.0-10.0","","","","false","","","","","","","","","","1279","","356","","1","1","arrowleft","0","arrowright","[0.325,0.675,0.15,0.85]","","",""
"sailing-trial","54","566749","0.0-11.0-11.0","","","","false","","","","","","","","","","null","","1429","","0","0","null","null","arrowup","[0.325,0.675,0.15,0.85]","","",""
"sailing-trial","55","570848","0.0-11.0-12.0","","","","false","","","","","","","","","","1108","","33","","1","1","arrowleft","0","arrowright","[0.325,0.675,0.15,0.85]","","",""
"sailing-trial","56","574410","0.0-11.0-13.0","","","","false","","","","","","","","","","null","","1619","","3","1","null","null","arrowup","[0.325,0.675,0.15,0.85]","","",""
"sailing-trial","57","579900","0.0-11.0-14.0","","","","false","","","","","","","","","","2160","","465","","1","1","arrowleft","0","arrowright","[0.325,0.675,0.15,0.85]","","",""
"sailing-trial","58","582310","0.0-11.0-15.0","","","","false","","","","","","","","","","null","","1062","","0","0","null","null","arrowup","[0.325,0.675,0.15,0.85]","","",""
"sailing-trial","59","587295","0.0-11.0-16.0","","","","false","","","","","","","","","","1345","","757","","1","1","arrowleft","0","arrowright","[0.325,0.675,0.15,0.85]","","",""
"sailing-trial","60","590077","0.0-11.0-17.0","","","","false","","","","","","","","","","null","","1295","","1","0","null","null","arrowup","[0.325,0.675,0.15,0.85]","","",""
"sailing-trial","61","594072","0.0-11.0-18.0","","","","false","","","","","","","","","","991","","10","","1","1","arrowleft","0","arrowright","[0.325,0.675,0.15,0.85]","","",""
"sailing-trial","62","596824","0.0-11.0-19.0","","","","false","","","","","","","","","","null","","1149","","2","1","null","null","arrowup","[0.325,0.675,0.15,0.85]","","",""
"sailing-trial","63","600411","0.0-11.0-20.0","","","","false","","","","","","","","","","859","","507","","1","0","arrowleft","0","arrowright","[0.85,0.15,0.675,0.325]","","",""
"sailing-trial","64","603095","0.0-11.0-21.0","","","","false","","","","","","","","","","null","","1161","","3","0","null","null","arrowup","[0.85,0.15,0.675,0.325]","","",""
"sailing-trial","65","607107","0.0-11.0-22.0","","","","false","","","","","","","","","","929","","185","","0","1","arrowleft","0","arrowleft","[0.85,0.15,0.675,0.325]","","",""
"sailing-trial","66","609555","0.0-11.0-23.0","","","","false","","","","","","","","","","null","","1053","","1","0","null","null","arrowup","[0.85,0.15,0.675,0.325]","","",""
"sailing-trial","67","613970","0.0-11.0-24.0","","","","false","","","","","","","","","","912","","552","","0","1","arrowleft","0","arrowleft","[0.85,0.15,0.675,0.325]","","",""
"sailing-trial","68","617084","0.0-11.0-25.0","","","","false","","","","","","","","","","null","","1161","","2","1","null","null","arrowup","[0.85,0.15,0.675,0.325]","","",""
"sailing-trial","69","621046","0.0-11.0-26.0","","","","false","","","","","","","","","","963","","76","","0","1","arrowleft","0","arrowleft","[0.85,0.15,0.675,0.325]","","",""
"sailing-trial","70","623885","0.0-11.0-27.0","","","","false","","","","","","","","","","null","","977","","3","0","null","null","arrowup","[0.85,0.15,0.675,0.325]","","",""
"sailing-trial","71","627609","0.0-11.0-28.0","","","","false","","","","","","","","","","724","","88","","0","1","arrowleft","0","arrowleft","[0.85,0.15,0.675,0.325]","","",""
"sailing-trial","72","631156","0.0-11.0-29.0","","","","false","","","","","","","","","","null","","1308","","3","1","null","null","arrowup","[0.85,0.15,0.675,0.325]","","",""
"sailing-trial","73","634848","0.0-11.0-30.0","","","","false","","","","","","","","","","1021","","236","","0","0","arrowleft","0","arrowleft","[0.85,0.15,0.675,0.325]","","",""
"sailing-trial","74","637018","0.0-11.0-31.0","","","","false","","","","","","","","","","null","","1062","","1","0","null","null","arrowup","[0.85,0.15,0.675,0.325]","","",""
"sailing-trial","75","642937","0.0-11.0-32.0","","","","false","","","","","","","","","","1948","","27","","1","0","arrowleft","0","arrowright","[0.85,0.15,0.675,0.325]","","",""
"sailing-trial","76","646040","0.0-11.0-33.0","","","","false","","","","","","","","","","null","","1052","","0","1","null","null","arrowup","[0.85,0.15,0.675,0.325]","","",""
"sailing-trial","77","650637","0.0-11.0-34.0","","","","false","","","","","","","","","","1499","","511","","3","0","arrowright","1","arrowright","[0.85,0.15,0.675,0.325]","","",""
"sailing-trial","78","653728","0.0-11.0-35.0","","","","false","","","","","","","","","","null","","1176","","2","1","null","null","arrowup","[0.85,0.15,0.675,0.325]","","",""
"sailing-trial","79","658058","0.0-11.0-36.0","","","","false","","","","","","","","","","1097","","334","","2","1","arrowright","1","arrowleft","[0.15,0.85,0.325,0.675]","","",""
"sailing-trial","80","662145","0.0-11.0-37.0","","","","false","","","","","","","","","","null","","996","","2","0","null","null","arrowup","[0.15,0.85,0.325,0.675]","","",""
"sailing-trial","81","665943","0.0-11.0-38.0","","","","false","","","","","","","","","","1390","","138","","2","0","arrowright","1","arrowleft","[0.15,0.85,0.325,0.675]","","",""
"sailing-trial","82","668997","0.0-11.0-39.0","","","","false","","","","","","","","","","null","","1478","","1","1","null","null","arrowup","[0.15,0.85,0.325,0.675]","","",""
"sailing-trial","83","673219","0.0-11.0-40.0","","","","false","","","","","","","","","","1052","","156","","3","1","arrowright","1","arrowright","[0.15,0.85,0.325,0.675]","","",""
"sailing-trial","84","675814","0.0-11.0-41.0","","","","false","","","","","","","","","","null","","1153","","0","0","null","null","arrowup","[0.15,0.85,0.325,0.675]","","",""
"sailing-trial","85","680698","0.0-11.0-42.0","","","","false","","","","","","","","","","1358","","533","","3","1","arrowright","1","arrowright","[0.15,0.85,0.325,0.675]","","",""
"sailing-trial","86","684335","0.0-11.0-43.0","","","","false","","","","","","","","","","null","","1199","","0","0","null","null","arrowup","[0.15,0.85,0.325,0.675]","","",""
"sailing-trial","87","688041","0.0-11.0-44.0","","","","false","","","","","","","","","","981","","144","","3","0","arrowright","1","arrowright","[0.15,0.85,0.325,0.675]","","",""
"sailing-trial","88","691316","0.0-11.0-45.0","","","","false","","","","","","","","","","null","","2148","","0","0","null","null","arrowup","[0.15,0.85,0.325,0.675]","","",""
"sailing-trial","89","695864","0.0-11.0-46.0","","","","false","","","","","","","","","","1062","","233","","2","1","arrowright","1","arrowleft","[0.15,0.85,0.325,0.675]","","",""
"sailing-trial","90","698673","0.0-11.0-47.0","","","","false","","","","","","","","","","null","","1148","","2","0","null","null","arrowup","[0.15,0.85,0.325,0.675]","","",""
"sailing-trial","91","704706","0.0-11.0-48.0","","","","false","","","","","","","","","","2881","","212","","3","1","arrowright","1","arrowright","[0.15,0.85,0.325,0.675]","","",""
"sailing-trial","92","708567","0.0-11.0-49.0","","","","false","","","","","","","","","","null","","1390","","1","1","null","null","arrowup","[0.15,0.85,0.325,0.675]","","",""
"sailing-trial","93","714242","0.0-11.0-50.0","","","","false","","","","","","","","","","1882","","793","","3","1","arrowright","1","arrowright","[0.15,0.85,0.325,0.675]","","",""
"sailing-trial","94","717926","0.0-11.0-51.0","","","","false","","","","","","","","","","null","","1223","","1","1","null","null","arrowup","[0.15,0.85,0.325,0.675]","","",""
"sailing-trial","95","721955","0.0-11.0-52.0","","","","false","","","","","","","","","","941","","186","","2","1","arrowright","1","arrowleft","[0.325,0.675,0.15,0.85]","","",""
"sailing-trial","96","726118","0.0-11.0-53.0","","","","false","","","","","","","","","","null","","1097","","2","0","null","null","arrowup","[0.325,0.675,0.15,0.85]","","",""
"sailing-trial","97","730910","0.0-11.0-54.0","","","","false","","","","","","","","","","904","","932","","3","1","arrowright","1","arrowright","[0.325,0.675,0.15,0.85]","","",""
"sailing-trial","98","733276","0.0-11.0-55.0","","","","false","","","","","","","","","","null","","1082","","2","0","null","null","arrowup","[0.325,0.675,0.15,0.85]","","",""
"sailing-trial","99","739631","0.0-11.0-56.0","","","","false","","","","","","","","","","1844","","403","","1","0","arrowleft","0","arrowright","[0.325,0.675,0.15,0.85]","","",""
"sailing-trial","100","746189","0.0-11.0-57.0","","","","false","","","","","","","","","","null","","3009","","0","1","null","null","arrowup","[0.325,0.675,0.15,0.85]","","",""
"sailing-trial","101","750267","0.0-11.0-58.0","","","","false","","","","","","","","","","1038","","628","","1","0","arrowleft","0","arrowright","[0.325,0.675,0.15,0.85]","","",""
"sailing-trial","102","753492","0.0-11.0-59.0","","","","false","","","","","","","","","","null","","1728","","1","0","null","null","arrowup","[0.325,0.675,0.15,0.85]","","",""
"sailing-trial","103","757575","0.0-11.0-60.0","","","","false","","","","","","","","","","1411","","196","","0","0","arrowleft","0","arrowleft","[0.325,0.675,0.15,0.85]","","",""
"sailing-trial","104","760831","0.0-11.0-61.0","","","","false","","","","","","","","","","null","","1325","","1","0","null","null","arrowup","[0.325,0.675,0.15,0.85]","","",""
"sailing-trial","105","766642","0.0-11.0-62.0","","","","false","","","","","","","","","","2428","","911","","0","0","arrowleft","0","arrowleft","[0.325,0.675,0.15,0.85]","","",""
"sailing-trial","106","772361","0.0-11.0-63.0","","","","false","","","","","","","","","","null","","2027","","2","1","null","null","arrowup","[0.325,0.675,0.15,0.85]","","",""
"sailing-trial","107","777182","0.0-11.0-64.0","","","","false","","","","","","","","","","1634","","182","","3","1","arrowright","1","arrowright","[0.325,0.675,0.15,0.85]","","",""
"sailing-trial","108","780417","0.0-11.0-65.0","","","","false","","","","","","","","","","null","","1303","","0","1","null","null","arrowup","[0.325,0.675,0.15,0.85]","","",""
"sailing-trial","109","784658","0.0-11.0-66.0","","","","false","","","","","","","","","","1256","","8","","3","0","arrowright","1","arrowright","[0.325,0.675,0.15,0.85]","","",""
"sailing-trial","110","787021","0.0-11.0-67.0","","","","false","","","","","","","","","","null","","1237","","2","0","null","null","arrowup","[0.325,0.675,0.15,0.85]","","",""
"sailing-trial","111","791220","0.0-11.0-68.0","","","","false","","","","","","","","","","1314","","344","","2","0","arrowright","1","arrowleft","[0.325,0.675,0.15,0.85]","","",""
"sailing-trial","112","793773","0.0-11.0-69.0","","","","false","","","","","","","","","","null","","1126","","2","0","null","null","arrowup","[0.325,0.675,0.15,0.85]","","",""
"sailing-trial","113","798217","0.0-11.0-70.0","","","","false","","","","","","","","","","1071","","457","","3","1","arrowright","1","arrowright","[0.15,0.85,0.325,0.675]","","",""
"sailing-trial","114","800466","0.0-11.0-71.0","","","","false","","","","","","","","","","null","","1025","","2","0","null","null","arrowup","[0.15,0.85,0.325,0.675]","","",""
"sailing-trial","115","804829","0.0-11.0-72.0","","","","false","","","","","","","","","","948","","439","","3","1","arrowright","1","arrowright","[0.15,0.85,0.325,0.675]","","",""
"sailing-trial","116","808508","0.0-11.0-73.0","","","","false","","","","","","","","","","null","","1657","","3","1","null","null","arrowup","[0.15,0.85,0.325,0.675]","","",""
"sailing-trial","117","812750","0.0-11.0-74.0","","","","false","","","","","","","","","","1218","","682","","3","0","arrowright","1","arrowright","[0.15,0.85,0.325,0.675]","","",""
"sailing-trial","118","816400","0.0-11.0-75.0","","","","false","","","","","","","","","","null","","1123","","2","1","null","null","arrowup","[0.15,0.85,0.325,0.675]","","",""
"sailing-trial","119","821675","0.0-11.0-76.0","","","","false","","","","","","","","","","2324","","622","","2","0","arrowright","1","arrowleft","[0.15,0.85,0.325,0.675]","","",""
"sailing-trial","120","824569","0.0-11.0-77.0","","","","false","","","","","","","","","","null","","1018","","3","1","null","null","arrowup","[0.15,0.85,0.325,0.675]","","",""
"sailing-trial","121","830040","0.0-11.0-78.0","","","","false","","","","","","","","","","1874","","68","","3","0","arrowright","1","arrowright","[0.15,0.85,0.325,0.675]","","",""
"sailing-trial","122","834356","0.0-11.0-79.0","","","","false","","","","","","","","","","null","","1219","","0","0","null","null","arrowup","[0.15,0.85,0.325,0.675]","","",""
"sailing-trial","123","838045","0.0-11.0-80.0","","","","false","","","","","","","","","","934","","287","","0","0","arrowleft","0","arrowleft","[0.15,0.85,0.325,0.675]","","",""
"sailing-trial","124","841193","0.0-11.0-81.0","","","","false","","","","","","","","","","null","","1456","","2","1","null","null","arrowup","[0.15,0.85,0.325,0.675]","","",""
"sailing-trial","125","845500","0.0-11.0-82.0","","","","false","","","","","","","","","","1113","","289","","1","1","arrowleft","0","arrowright","[0.15,0.85,0.325,0.675]","","",""
"sailing-trial","126","848352","0.0-11.0-83.0","","","","false","","","","","","","","","","null","","1213","","3","1","null","null","arrowup","[0.15,0.85,0.325,0.675]","","",""
"sailing-trial","127","852983","0.0-11.0-84.0","","","","false","","","","","","","","","","1205","","436","","1","1","arrowleft","0","arrowright","[0.15,0.85,0.325,0.675]","","",""
"sailing-trial","128","856051","0.0-11.0-85.0","","","","false","","","","","","","","","","null","","1204","","2","0","null","null","arrowup","[0.15,0.85,0.325,0.675]","","",""
"sailing-trial","129","861456","0.0-11.0-86.0","","","","false","","","","","","","","","","1097","","650","","1","1","arrowleft","0","arrowright","[0.325,0.675,0.15,0.85]","","",""
"sailing-trial","130","866302","0.0-11.0-87.0","","","","false","","","","","","","","","","null","","1174","","0","1","null","null","arrowup","[0.325,0.675,0.15,0.85]","","",""
"sailing-trial","131","870805","0.0-11.0-88.0","","","","false","","","","","","","","","","1122","","392","","1","1","arrowleft","0","arrowright","[0.325,0.675,0.15,0.85]","","",""
"sailing-trial","132","873796","0.0-11.0-89.0","","","","false","","","","","","","","","","null","","1074","","0","1","null","null","arrowup","[0.325,0.675,0.15,0.85]","","",""
"sailing-trial","133","877745","0.0-11.0-90.0","","","","false","","","","","","","","","","1151","","436","","1","0","arrowleft","0","arrowright","[0.325,0.675,0.15,0.85]","","",""
"sailing-trial","134","879918","0.0-11.0-91.0","","","","false","","","","","","","","","","null","","1069","","0","0","null","null","arrowup","[0.325,0.675,0.15,0.85]","","",""
"sailing-trial","135","883333","0.0-11.0-92.0","","","","false","","","","","","","","","","996","","64","","0","0","arrowleft","0","arrowleft","[0.325,0.675,0.15,0.85]","","",""
"sailing-trial","136","886049","0.0-11.0-93.0","","","","false","","","","","","","","","","null","","1126","","3","1","null","null","arrowup","[0.325,0.675,0.15,0.85]","","",""
"sailing-trial","137","890293","0.0-11.0-94.0","","","","false","","","","","","","","","","1049","","331","","3","1","arrowright","1","arrowright","[0.325,0.675,0.15,0.85]","","",""
"sailing-trial","138","893426","0.0-11.0-95.0","","","","false","","","","","","","","","","null","","1271","","3","1","null","null","arrowup","[0.325,0.675,0.15,0.85]","","",""
"sailing-trial","139","897919","0.0-11.0-96.0","","","","false","","","","","","","","","","802","","826","","3","1","arrowright","1","arrowright","[0.325,0.675,0.15,0.85]","","",""
"sailing-trial","140","902406","0.0-11.0-97.0","","","","false","","","","","","","","","","null","","1454","","0","0","null","null","arrowup","[0.325,0.675,0.15,0.85]","","",""
"sailing-trial","141","906767","0.0-11.0-98.0","","","","false","","","","","","","","","","650","","773","","3","1","arrowright","1","arrowright","[0.325,0.675,0.15,0.85]","","",""
"sailing-trial","142","910230","0.0-11.0-99.0","","","","false","","","","","","","","","","null","","1249","","3","1","null","null","arrowup","[0.325,0.675,0.15,0.85]","","",""
"sailing-trial","143","916850","0.0-11.0-100.0","","","","false","","","","","","","","","","1781","","685","","3","0","arrowright","1","arrowright","[0.325,0.675,0.15,0.85]","","",""
"sailing-trial","144","921049","0.0-11.0-101.0","","","","false","","","","","","","","","","null","","1140","","2","0","null","null","arrowup","[0.325,0.675,0.15,0.85]","","",""
"sailing-trial","145","926708","0.0-11.0-102.0","","","","false","","","","","","","","","","1368","","212","","2","0","arrowright","1","arrowleft","[0.325,0.675,0.15,0.85]","","",""
"sailing-trial","146","932759","0.0-11.0-103.0","","","","false","","","","","","","","","","null","","1217","","0","1","null","null","arrowup","[0.325,0.675,0.15,0.85]","","",""
"sailing-trial","147","942046","0.0-11.0-104.0","","","","false","","","","","","","","","","1170","","1280","","2","1","arrowright","1","arrowleft","[0.675,0.325,0.85,0.15]","","",""
"sailing-trial","148","949322","0.0-11.0-105.0","","","","false","","","","","","","","","","null","","1222","","0","1","null","null","arrowup","[0.675,0.325,0.85,0.15]","","",""
"sailing-trial","149","953553","0.0-11.0-106.0","","","","false","","","","","","","","","","862","","656","","2","1","arrowright","1","arrowleft","[0.675,0.325,0.85,0.15]","","",""
"sailing-trial","150","957836","0.0-11.0-107.0","","","","false","","","","","","","","","","null","","1226","","3","0","null","null","arrowup","[0.675,0.325,0.85,0.15]","","",""
"sailing-trial","151","963464","0.0-11.0-108.0","","","","false","","","","","","","","","","1952","","558","","0","1","arrowleft","0","arrowleft","[0.675,0.325,0.85,0.15]","","",""
"sailing-trial","152","969538","0.0-11.0-109.0","","","","false","","","","","","","","","","null","","1163","","1","1","null","null","arrowup","[0.675,0.325,0.85,0.15]","","",""
"sailing-trial","153","974811","0.0-11.0-110.0","","","","false","","","","","","","","","","570","","614","","0","0","arrowleft","0","arrowleft","[0.675,0.325,0.85,0.15]","","",""
"sailing-trial","154","981946","0.0-11.0-111.0","","","","false","","","","","","","","","","null","","1635","","1","1","null","null","arrowup","[0.675,0.325,0.85,0.15]","","",""
"sailing-trial","155","986534","0.0-11.0-112.0","","","","false","","","","","","","","","","539","","832","","1","1","arrowleft","0","arrowright","[0.675,0.325,0.85,0.15]","","",""
"sailing-trial","156","992792","0.0-11.0-113.0","","","","false","","","","","","","","","","null","","1399","","0","1","null","null","arrowup","[0.675,0.325,0.85,0.15]","","",""
"sailing-trial","157","1000376","0.0-11.0-114.0","","","","false","","","","","","","","","","1135","","524","","0","1","arrowleft","0","arrowleft","[0.675,0.325,0.85,0.15]","","",""
"sailing-trial","158","1004625","0.0-11.0-115.0","","","","false","","","","","","","","","","null","","1169","","1","0","null","null","arrowup","[0.675,0.325,0.85,0.15]","","",""
"sailing-trial","159","1010552","0.0-11.0-116.0","","","","false","","","","","","","","","","1003","","840","","0","0","arrowleft","0","arrowleft","[0.675,0.325,0.85,0.15]","","",""
"sailing-trial","160","1016979","0.0-11.0-117.0","","","","false","","","","","","","","","","null","","1359","","2","1","null","null","arrowup","[0.675,0.325,0.85,0.15]","","",""
"sailing-trial","161","1022899","0.0-11.0-118.0","","","","false","","","","","","","","","","1471","","365","","1","0","arrowleft","0","arrowright","[0.675,0.325,0.85,0.15]","","",""
"sailing-trial","162","1028269","0.0-11.0-119.0","","","","false","","","","","","","","","","null","","1634","","0","1","null","null","arrowup","[0.675,0.325,0.85,0.15]","","",""
"sailing-trial","163","1033393","0.0-11.0-120.0","","","","false","","","","","","","","","","597","","359","","0","0","arrowleft","0","arrowleft","[0.85,0.15,0.675,0.325]","","",""
"sailing-trial","164","1037756","0.0-11.0-121.0","","","","false","","","","","","","","","","null","","1314","","1","0","null","null","arrowup","[0.85,0.15,0.675,0.325]","","",""
"sailing-trial","165","1045432","0.0-11.0-122.0","","","","false","","","","","","","","","","815","","132","","0","1","arrowleft","0","arrowleft","[0.85,0.15,0.675,0.325]","","",""
"sailing-trial","166","1053328","0.0-11.0-123.0","","","","false","","","","","","","","","","null","","1575","","2","1","null","null","arrowup","[0.85,0.15,0.675,0.325]","","",""
"sailing-trial","167","1057768","0.0-11.0-124.0","","","","false","","","","","","","","","","1036","","488","","2","1","arrowright","1","arrowleft","[0.85,0.15,0.675,0.325]","","",""
"sailing-trial","168","1063137","0.0-11.0-125.0","","","","false","","","","","","","","","","null","","1365","","3","1","null","null","arrowup","[0.85,0.15,0.675,0.325]","","",""
"sailing-trial","169","1066759","0.0-11.0-126.0","","","","false","","","","","","","","","","961","","401","","2","0","arrowright","1","arrowleft","[0.85,0.15,0.675,0.325]","","",""
"sailing-trial","170","1069989","0.0-11.0-127.0","","","","false","","","","","","","","","","null","","1192","","0","1","null","null","arrowup","[0.85,0.15,0.675,0.325]","","",""
"sailing-trial","171","1074405","0.0-11.0-128.0","","","","false","","","","","","","","","","622","","911","","3","1","arrowright","1","arrowright","[0.85,0.15,0.675,0.325]","","",""
"sailing-trial","172","1078865","0.0-11.0-129.0","","","","false","","","","","","","","","","null","","1414","","3","0","null","null","arrowup","[0.85,0.15,0.675,0.325]","","",""
"sailing-trial","173","1083859","0.0-11.0-130.0","","","","false","","","","","","","","","","1453","","793","","0","1","arrowleft","0","arrowleft","[0.85,0.15,0.675,0.325]","","",""
"sailing-trial","174","1086150","0.0-11.0-131.0","","","","false","","","","","","","","","","null","","1123","","3","0","null","null","arrowup","[0.85,0.15,0.675,0.325]","","",""
"sailing-trial","175","1090680","0.0-11.0-132.0","","","","false","","","","","","","","","","944","","654","","0","1","arrowleft","0","arrowleft","[0.85,0.15,0.675,0.325]","","",""
"sailing-trial","176","1093675","0.0-11.0-133.0","","","","false","","","","","","","","","","null","","1009","","2","1","null","null","arrowup","[0.85,0.15,0.675,0.325]","","",""
"sailing-trial","177","1098011","0.0-11.0-134.0","","","","false","","","","","","","","","","915","","452","","0","1","arrowleft","0","arrowleft","[0.85,0.15,0.675,0.325]","","",""
"sailing-trial","178","1102193","0.0-11.0-135.0","","","","false","","","","","","","","","","null","","1107","","1","0","null","null","arrowup","[0.85,0.15,0.675,0.325]","","",""
"sailing-trial","179","1107533","0.0-11.0-136.0","","","","false","","","","","","","","","","609","","220","","0","1","arrowleft","0","arrowleft","[0.85,0.15,0.675,0.325]","","",""
"sailing-trial","180","1112718","0.0-11.0-137.0","","","","false","","","","","","","","","","null","","2131","","1","0","null","null","arrowup","[0.85,0.15,0.675,0.325]","","",""
"sailing-trial","181","1117948","0.0-11.0-138.0","","","","false","","","","","","","","","","748","","373","","0","0","arrowleft","0","arrowleft","[0.85,0.15,0.675,0.325]","","",""
"sailing-trial","182","1123775","0.0-11.0-139.0","","","","false","","","","","","","","","","null","","2014","","0","1","null","null","arrowup","[0.85,0.15,0.675,0.325]","","",""
"sailing-trial","183","1129659","0.0-11.0-140.0","","","","false","","","","","","","","","","981","","800","","3","0","arrowright","1","arrowright","[0.675,0.325,0.85,0.15]","","",""
"sailing-trial","184","1135299","0.0-11.0-141.0","","","","false","","","","","","","","","","null","","1810","","2","1","null","null","arrowup","[0.675,0.325,0.85,0.15]","","",""
"sailing-trial","185","1139735","0.0-11.0-142.0","","","","false","","","","","","","","","","1177","","918","","3","0","arrowright","1","arrowright","[0.675,0.325,0.85,0.15]","","",""
"sailing-trial","186","1145728","0.0-11.0-143.0","","","","false","","","","","","","","","","null","","1568","","2","1","null","null","arrowup","[0.675,0.325,0.85,0.15]","","",""
"sailing-trial","187","1150148","0.0-11.0-144.0","","","","false","","","","","","","","","","1091","","406","","2","1","arrowright","1","arrowleft","[0.675,0.325,0.85,0.15]","","",""
"sailing-trial","188","1155700","0.0-11.0-145.0","","","","false","","","","","","","","","","null","","1118","","2","1","null","null","arrowup","[0.675,0.325,0.85,0.15]","","",""
"sailing-trial","189","1160825","0.0-11.0-146.0","","","","false","","","","","","","","","","1020","","92","","2","1","arrowright","1","arrowleft","[0.675,0.325,0.85,0.15]","","",""
"sailing-trial","190","1165915","0.0-11.0-147.0","","","","false","","","","","","","","","","null","","2018","","0","0","null","null","arrowup","[0.675,0.325,0.85,0.15]","","",""
"sailing-trial","191","1170761","0.0-11.0-148.0","","","","false","","","","","","","","","","720","","50","","3","0","arrowright","1","arrowright","[0.675,0.325,0.85,0.15]","","",""
"sailing-trial","192","1175176","0.0-11.0-149.0","","","","false","","","","","","","","","","null","","1364","","3","0","null","null","arrowup","[0.675,0.325,0.85,0.15]","","",""
"sailing-trial","193","1181564","0.0-11.0-150.0","","","","false","","","","","","","","","","953","","386","","0","1","arrowleft","0","arrowleft","[0.675,0.325,0.85,0.15]","","",""
"sailing-trial","194","1186059","0.0-11.0-151.0","","","","false","","","","","","","","","","null","","1248","","1","0","null","null","arrowup","[0.675,0.325,0.85,0.15]","","",""
"sailing-trial","195","1191817","0.0-11.0-152.0","","","","false","","","","","","","","","","1056","","87","","0","1","arrowleft","0","arrowleft","[0.675,0.325,0.85,0.15]","","",""
"sailing-trial","196","1198118","0.0-11.0-153.0","","","","false","","","","","","","","","","null","","1659","","2","1","null","null","arrowup","[0.675,0.325,0.85,0.15]","","",""
"sailing-trial","197","1203043","0.0-11.0-154.0","","","","false","","","","","","","","","","1455","","577","","0","1","arrowleft","0","arrowleft","[0.675,0.325,0.85,0.15]","","",""
"sailing-trial","198","1205761","0.0-11.0-155.0","","","","false","","","","","","","","","","null","","1112","","2","1","null","null","arrowup","[0.675,0.325,0.85,0.15]","","",""
"sailing-trial","199","1210161","0.0-11.0-156.0","","","","false","","","","","","","","","","637","","681","","0","1","arrowleft","0","arrowleft","[0.85,0.15,0.675,0.325]","","",""
"sailing-trial","200","1214602","0.0-11.0-157.0","","","","false","","","","","","","","","","null","","1252","","0","1","null","null","arrowup","[0.85,0.15,0.675,0.325]","","",""
"sailing-trial","201","1219020","0.0-11.0-158.0","","","","false","","","","","","","","","","1344","","719","","0","0","arrowleft","0","arrowleft","[0.85,0.15,0.675,0.325]","","",""
"sailing-trial","202","1222627","0.0-11.0-159.0","","","","false","","","","","","","","","","null","","1386","","1","0","null","null","arrowup","[0.85,0.15,0.675,0.325]","","",""
"sailing-trial","203","1226639","0.0-11.0-160.0","","","","false","","","","","","","","","","883","","235","","3","1","arrowright","1","arrowright","[0.85,0.15,0.675,0.325]","","",""
"sailing-trial","204","1230221","0.0-11.0-161.0","","","","false","","","","","","","","","","null","","1123","","0","1","null","null","arrowup","[0.85,0.15,0.675,0.325]","","",""
"sailing-trial","205","1234856","0.0-11.0-162.0","","","","false","","","","","","","","","","783","","425","","2","1","arrowright","1","arrowleft","[0.85,0.15,0.675,0.325]","","",""
"sailing-trial","206","1242849","0.0-11.0-163.0","","","","false","","","","","","","","","","null","","5277","","3","0","null","null","arrowup","[0.85,0.15,0.675,0.325]","","",""
"sailing-trial","207","1247457","0.0-11.0-164.0","","","","false","","","","","","","","","","1070","","558","","3","0","arrowright","1","arrowright","[0.85,0.15,0.675,0.325]","","",""
"sailing-trial","208","1249902","0.0-11.0-165.0","","","","false","","","","","","","","","","null","","1082","","3","0","null","null","arrowup","[0.85,0.15,0.675,0.325]","","",""
"sailing-trial","209","1255851","0.0-11.0-166.0","","","","false","","","","","","","","","","2261","","384","","2","1","arrowright","1","arrowleft","[0.85,0.15,0.675,0.325]","","",""
"sailing-trial","210","1258250","0.0-11.0-167.0","","","","false","","","","","","","","","","null","","1225","","1","0","null","null","arrowup","[0.85,0.15,0.675,0.325]","","",""
"sailing-trial","211","1262144","0.0-11.0-168.0","","","","false","","","","","","","","","","856","","398","","2","1","arrowright","1","arrowleft","[0.85,0.15,0.675,0.325]","","",""
"sailing-trial","212","1265005","0.0-11.0-169.0","","","","false","","","","","","","","","","null","","1145","","1","1","null","null","arrowup","[0.85,0.15,0.675,0.325]","","",""
"sailing-trial","213","1269561","0.0-11.0-170.0","","","","false","","","","","","","","","","1022","","689","","2","1","arrowright","1","arrowleft","[0.85,0.15,0.675,0.325]","","",""
"sailing-trial","214","1273420","0.0-11.0-171.0","","","","false","","","","","","","","","","null","","1322","","3","1","null","null","arrowup","[0.85,0.15,0.675,0.325]","","",""
"sailing-trial","215","1277224","0.0-11.0-172.0","","","","false","","","","","","","","","","1024","","418","","2","0","arrowright","1","arrowleft","[0.85,0.15,0.675,0.325]","","",""
"sailing-trial","216","1282193","0.0-11.0-173.0","","","","false","","","","","","","","","","null","","1548","","1","1","null","null","arrowup","[0.85,0.15,0.675,0.325]","","",""
"sailing-trial","217","1286643","0.0-11.0-174.0","","","","false","","","","","","","","","","1605","","544","","3","0","arrowright","1","arrowright","[0.85,0.15,0.675,0.325]","","",""
"sailing-trial","218","1292863","0.0-11.0-175.0","","","","false","","","","","","","","","","null","","4229","","2","1","null","null","arrowup","[0.85,0.15,0.675,0.325]","","",""
"sailing-trial","219","1296346","0.0-11.0-176.0","","","","false","","","","","","","","","","720","","619","","1","0","arrowleft","0","arrowright","[0.85,0.15,0.675,0.325]","","",""
"sailing-trial","220","1299190","0.0-11.0-177.0","","","","false","","","","","","","","","","null","","1254","","0","1","null","null","arrowup","[0.85,0.15,0.675,0.325]","","",""
"sailing-trial","221","1304699","0.0-11.0-178.0","","","","false","","","","","","","","","","696","","706","","3","0","arrowright","1","arrowright","[0.675,0.325,0.85,0.15]","","",""
"sailing-trial","222","1308906","0.0-11.0-179.0","","","","false","","","","","","","","","","null","","1159","","2","0","null","null","arrowup","[0.675,0.325,0.85,0.15]","","",""
"sailing-trial","223","1315730","0.0-11.0-180.0","","","","false","","","","","","","","","","535","","399","","2","1","arrowright","1","arrowleft","[0.675,0.325,0.85,0.15]","","",""
"sailing-trial","224","1321861","0.0-11.0-181.0","","","","false","","","","","","","","","","null","","1557","","1","1","null","null","arrowup","[0.675,0.325,0.85,0.15]","","",""
"sailing-trial","225","1327715","0.0-11.0-182.0","","","","false","","","","","","","","","","1257","","514","","0","0","arrowleft","0","arrowleft","[0.675,0.325,0.85,0.15]","","",""
"sailing-trial","226","1332048","0.0-11.0-183.0","","","","false","","","","","","","","","","null","","1276","","3","0","null","null","arrowup","[0.675,0.325,0.85,0.15]","","",""
"sailing-trial","227","1337489","0.0-11.0-184.0","","","","false","","","","","","","","","","115","","1239","","0","0","arrowleft","0","arrowleft","[0.675,0.325,0.85,0.15]","","",""
"sailing-trial","228","1341814","0.0-11.0-185.0","","","","false","","","","","","","","","","null","","1067","","1","0","null","null","arrowup","[0.675,0.325,0.85,0.15]","","",""
"sailing-trial","229","1345283","0.0-11.0-186.0","","","","false","","","","","","","","","","825","","435","","3","0","arrowright","1","arrowright","[0.675,0.325,0.85,0.15]","","",""
"sailing-trial","230","1350056","0.0-11.0-187.0","","","","false","","","","","","","","","","null","","1719","","1","0","null","null","arrowup","[0.675,0.325,0.85,0.15]","","",""
"sailing-trial","231","1354706","0.0-11.0-188.0","","","","false","","","","","","","","","","1140","","628","","0","1","arrowleft","0","arrowleft","[0.675,0.325,0.85,0.15]","","",""
"sailing-trial","232","1359312","0.0-11.0-189.0","","","","false","","","","","","","","","","null","","1550","","1","0","null","null","arrowup","[0.675,0.325,0.85,0.15]","","",""
"sailing-trial","233","1362621","0.0-11.0-190.0","","","","false","","","","","","","","","","655","","89","","3","0","arrowright","1","arrowright","[0.675,0.325,0.85,0.15]","","",""
"sailing-trial","234","1365966","0.0-11.0-191.0","","","","false","","","","","","","","","","null","","1594","","1","0","null","null","arrowup","[0.675,0.325,0.85,0.15]","","",""
"sailing-trial","235","1369795","0.0-11.0-192.0","","","","false","","","","","","","","","","1054","","102","","2","1","arrowright","1","arrowleft","[0.675,0.325,0.85,0.15]","","",""
"sailing-trial","236","1374161","0.0-11.0-193.0","","","","false","","","","","","","","","","null","","1315","","1","0","null","null","arrowup","[0.675,0.325,0.85,0.15]","","",""
"sailing-trial","237","1378400","0.0-11.0-194.0","","","","false","","","","","","","","","","1210","","343","","2","0","arrowright","1","arrowleft","[0.85,0.15,0.675,0.325]","","",""
"sailing-trial","238","1383412","0.0-11.0-195.0","","","","false","","","","","","","","","","null","","1582","","2","1","null","null","arrowup","[0.85,0.15,0.675,0.325]","","",""
"sailing-trial","239","1388033","0.0-11.0-196.0","","","","false","","","","","","","","","","1311","","1071","","3","0","arrowright","1","arrowright","[0.85,0.15,0.675,0.325]","","",""
"sailing-trial","240","1392519","0.0-11.0-197.0","","","","false","","","","","","","","","","null","","1402","","3","0","null","null","arrowup","[0.85,0.15,0.675,0.325]","","",""
"sailing-trial","241","1396042","0.0-11.0-198.0","","","","false","","","","","","","","","","924","","238","","2","0","arrowright","1","arrowleft","[0.85,0.15,0.675,0.325]","","",""
"sailing-trial","242","1399992","0.0-11.0-199.0","","","","false","","","","","","","","","","null","","2089","","2","1","null","null","arrowup","[0.85,0.15,0.675,0.325]","","",""
"sailing-trial","243","1403827","0.0-11.0-200.0","","","","false","","","","","","","","","","702","","667","","2","0","arrowright","1","arrowleft","[0.85,0.15,0.675,0.325]","","",""
"sailing-trial","244","1410655","0.0-11.0-201.0","","","","false","","","","","","","","","","null","","1649","","2","1","null","null","arrowup","[0.85,0.15,0.675,0.325]","","",""
"sailing-trial","245","1414742","0.0-11.0-202.0","","","","false","","","","","","","","","","883","","220","","3","1","arrowright","1","arrowright","[0.85,0.15,0.675,0.325]","","",""
"sailing-trial","246","1420610","0.0-11.0-203.0","","","","false","","","","","","","","","","null","","1732","","1","1","null","null","arrowup","[0.85,0.15,0.675,0.325]","","",""
"sailing-trial","247","1425974","0.0-11.0-204.0","","","","false","","","","","","","","","","747","","533","","3","0","arrowright","1","arrowright","[0.85,0.15,0.675,0.325]","","",""
"sailing-trial","248","1430258","0.0-11.0-205.0","","","","false","","","","","","","","","","null","","1234","","3","0","null","null","arrowup","[0.85,0.15,0.675,0.325]","","",""
"sailing-trial","249","1434493","0.0-11.0-206.0","","","","false","","","","","","","","","","1212","","758","","2","0","arrowright","1","arrowleft","[0.85,0.15,0.675,0.325]","","",""
"sailing-trial","250","1440624","0.0-11.0-207.0","","","","false","","","","","","","","","","null","","3108","","3","0","null","null","arrowup","[0.85,0.15,0.675,0.325]","","",""
"sailing-trial","251","1444990","0.0-11.0-208.0","","","","false","","","","","","","","","","629","","1135","","3","0","arrowright","1","arrowright","[0.85,0.15,0.675,0.325]","","",""
"sailing-trial","252","1447687","0.0-11.0-209.0","","","","false","","","","","","","","","","null","","1286","","1","0","null","null","arrowup","[0.85,0.15,0.675,0.325]","","",""
"sailing-trial","253","1453596","0.0-11.0-210.0","","","","false","","","","","","","","","","1668","","1251","","0","1","arrowleft","0","arrowleft","[0.85,0.15,0.675,0.325]","","",""
"sailing-trial","254","1456276","0.0-11.0-211.0","","","","false","","","","","","","","","","null","","1172","","1","0","null","null","arrowup","[0.85,0.15,0.675,0.325]","","",""
"sailing-trial","255","1463123","0.0-11.0-212.0","","","","false","","","","","","","","","","1233","","271","","0","1","arrowleft","0","arrowleft","[0.85,0.15,0.675,0.325]","","",""
"sailing-trial","256","1466621","0.0-11.0-213.0","","","","false","","","","","","","","","","null","","1309","","0","1","null","null","arrowup","[0.85,0.15,0.675,0.325]","","",""
"sailing-trial","257","1470330","0.0-11.0-214.0","","","","false","","","","","","","","","","1031","","523","","0","0","arrowleft","0","arrowleft","[0.675,0.325,0.85,0.15]","","",""
"sailing-trial","258","1472764","0.0-11.0-215.0","","","","false","","","","","","","","","","null","","1351","","3","0","null","null","arrowup","[0.675,0.325,0.85,0.15]","","",""
"sailing-trial","259","1477275","0.0-11.0-216.0","","","","false","","","","","","","","","","1256","","483","","1","1","arrowleft","0","arrowright","[0.675,0.325,0.85,0.15]","","",""
"sailing-trial","260","1479836","0.0-11.0-217.0","","","","false","","","","","","","","","","null","","1029","","0","0","null","null","arrowup","[0.675,0.325,0.85,0.15]","","",""
"sailing-trial","261","1483554","0.0-11.0-218.0","","","","false","","","","","","","","","","999","","64","","1","0","arrowleft","0","arrowright","[0.675,0.325,0.85,0.15]","","",""
"sailing-trial","262","1486735","0.0-11.0-219.0","","","","false","","","","","","","","","","null","","1287","","2","1","null","null","arrowup","[0.675,0.325,0.85,0.15]","","",""
"sailing-trial","263","1490584","0.0-11.0-220.0","","","","false","","","","","","","","","","862","","497","","0","0","arrowleft","0","arrowleft","[0.675,0.325,0.85,0.15]","","",""
"sailing-trial","264","1492864","0.0-11.0-221.0","","","","false","","","","","","","","","","null","","993","","3","0","null","null","arrowup","[0.675,0.325,0.85,0.15]","","",""
"sailing-trial","265","1497356","0.0-11.0-222.0","","","","false","","","","","","","","","","1034","","1066","","3","0","arrowright","1","arrowright","[0.675,0.325,0.85,0.15]","","",""
"sailing-trial","266","1500331","0.0-11.0-223.0","","","","false","","","","","","","","","","null","","1489","","3","0","null","null","arrowup","[0.675,0.325,0.85,0.15]","","",""
"sailing-trial","267","1504847","0.0-11.0-224.0","","","","false","","","","","","","","","","1117","","415","","2","1","arrowright","1","arrowleft","[0.675,0.325,0.85,0.15]","","",""
"sailing-trial","268","1509375","0.0-11.0-225.0","","","","false","","","","","","","","","","null","","2850","","3","0","null","null","arrowup","[0.675,0.325,0.85,0.15]","","",""
"sailing-trial","269","1513361","0.0-11.0-226.0","","","","false","","","","","","","","","","751","","154","","2","1","arrowright","1","arrowleft","[0.675,0.325,0.85,0.15]","","",""
"sailing-trial","270","1516576","0.0-11.0-227.0","","","","false","","","","","","","","","","null","","1390","","1","1","null","null","arrowup","[0.675,0.325,0.85,0.15]","","",""
"sailing-trial","271","1520918","0.0-11.0-228.0","","","","false","","","","","","","","","","857","","672","","2","1","arrowright","1","arrowleft","[0.675,0.325,0.85,0.15]","","",""
"sailing-trial","272","1524686","0.0-11.0-229.0","","","","false","","","","","","","","","","null","","1316","","3","0","null","null","arrowup","[0.675,0.325,0.85,0.15]","","",""
"sailing-trial","273","1528929","0.0-11.0-230.0","","","","false","","","","","","","","","","867","","436","","3","0","arrowright","1","arrowright","[0.675,0.325,0.85,0.15]","","",""
"sailing-trial","274","1532111","0.0-11.0-231.0","","","","false","","","","","","","","","","null","","1634","","3","0","null","null","arrowup","[0.675,0.325,0.85,0.15]","","",""
"sailing-trial","275","1537727","0.0-11.0-232.0","","","","false","","","","","","","","","","1253","","227","","2","0","arrowright","1","arrowleft","[0.85,0.15,0.675,0.325]","","",""
"sailing-trial","276","1541237","0.0-11.0-233.0","","","","false","","","","","","","","","","null","","1374","","0","1","null","null","arrowup","[0.85,0.15,0.675,0.325]","","",""
"sailing-trial","277","1546705","0.0-11.0-234.0","","","","false","","","","","","","","","","1331","","749","","0","1","arrowleft","0","arrowleft","[0.85,0.15,0.675,0.325]","","",""
"sailing-trial","278","1550278","0.0-11.0-235.0","","","","false","","","","","","","","","","null","","1449","","3","1","null","null","arrowup","[0.85,0.15,0.675,0.325]","","",""
"sailing-trial","279","1555229","0.0-11.0-236.0","","","","false","","","","","","","","","","1363","","588","","0","1","arrowleft","0","arrowleft","[0.85,0.15,0.675,0.325]","","",""
"sailing-trial","280","1557985","0.0-11.0-237.0","","","","false","","","","","","","","","","null","","1143","","3","0","null","null","arrowup","[0.85,0.15,0.675,0.325]","","",""
"sailing-trial","281","1562246","0.0-11.0-238.0","","","","false","","","","","","","","","","1209","","666","","1","0","arrowleft","0","arrowright","[0.85,0.15,0.675,0.325]","","",""
"sailing-trial","282","1567371","0.0-11.0-239.0","","","","false","","","","","","","","","","null","","2194","","3","1","null","null","arrowup","[0.85,0.15,0.675,0.325]","","",""
"sailing-trial","283","1571437","0.0-11.0-240.0","","","","false","","","","","","","","","","1059","","630","","1","0","arrowleft","0","arrowright","[0.85,0.15,0.675,0.325]","","",""
"sailing-trial","284","1573991","0.0-11.0-241.0","","","","false","","","","","","","","","","null","","1146","","2","0","null","null","arrowup","[0.85,0.15,0.675,0.325]","","",""
"sailing-trial","285","1580314","0.0-11.0-242.0","","","","false","","","","","","","","","","1277","","962","","0","1","arrowleft","0","arrowleft","[0.85,0.15,0.675,0.325]","","",""
"sailing-trial","286","1582891","0.0-11.0-243.0","","","","false","","","","","","","","","","null","","1079","","1","0","null","null","arrowup","[0.85,0.15,0.675,0.325]","","",""
"sailing-trial","287","1586255","0.0-11.0-244.0","","","","false","","","","","","","","","","1026","","108","","3","0","arrowright","1","arrowright","[0.85,0.15,0.675,0.325]","","",""
"sailing-trial","288","1589386","0.0-11.0-245.0","","","","false","","","","","","","","","","null","","1011","","0","1","null","null","arrowup","[0.85,0.15,0.675,0.325]","","",""
"sailing-trial","289","1593448","0.0-11.0-246.0","","","","false","","","","","","","","","","632","","874","","3","0","arrowright","1","arrowright","[0.85,0.15,0.675,0.325]","","",""
"sailing-trial","290","1597391","0.0-11.0-247.0","","","","false","","","","","","","","","","null","","1668","","3","1","null","null","arrowup","[0.85,0.15,0.675,0.325]","","",""
"sailing-trial","291","1603494","0.0-11.0-248.0","","","","false","","","","","","","","","","1130","","697","","2","0","arrowright","1","arrowleft","[0.675,0.325,0.85,0.15]","","",""
"sailing-trial","292","1610250","0.0-11.0-249.0","","","","false","","","","","","","","","","null","","1079","","0","1","null","null","arrowup","[0.675,0.325,0.85,0.15]","","",""
"sailing-trial","293","1614614","0.0-11.0-250.0","","","","false","","","","","","","","","","1126","","788","","3","0","arrowright","1","arrowright","[0.675,0.325,0.85,0.15]","","",""
"sailing-trial","294","1617545","0.0-11.0-251.0","","","","false","","","","","","","","","","null","","1288","","1","1","null","null","arrowup","[0.675,0.325,0.85,0.15]","","",""
"sailing-trial","295","1622570","0.0-11.0-252.0","","","","false","","","","","","","","","","857","","265","","1","1","arrowleft","0","arrowright","[0.675,0.325,0.85,0.15]","","",""
"sailing-trial","296","1626799","0.0-11.0-253.0","","","","false","","","","","","","","","","null","","1101","","2","1","null","null","arrowup","[0.675,0.325,0.85,0.15]","","",""
"sailing-trial","297","1630100","0.0-11.0-254.0","","","","false","","","","","","","","","","600","","16","","1","1","arrowleft","0","arrowright","[0.675,0.325,0.85,0.15]","","",""
"sailing-trial","298","1632734","0.0-11.0-255.0","","","","false","","","","","","","","","","null","","1232","","3","0","null","null","arrowup","[0.675,0.325,0.85,0.15]","","",""
"sailing-trial","299","1641868","0.0-11.0-256.0","","","","false","","","","","","","","","","1895","","58","","1","1","arrowleft","0","arrowright","[0.675,0.325,0.85,0.15]","","",""
"sailing-trial","300","1645935","0.0-11.0-257.0","","","","false","","","","","","","","","","null","","1027","","2","1","null","null","arrowup","[0.675,0.325,0.85,0.15]","","",""
"sailing-trial","301","1655279","0.0-11.0-258.0","","","","false","","","","","","","","","","6488","","537","","1","0","arrowleft","0","arrowright","[0.675,0.325,0.85,0.15]","","",""
"sailing-trial","302","1660244","0.0-11.0-259.0","","","","false","","","","","","","","","","null","","3703","","1","0","null","null","arrowup","[0.675,0.325,0.85,0.15]","","",""
"sailing-trial","303","1665175","0.0-11.0-260.0","","","","false","","","","","","","","","","1893","","430","","3","0","arrowright","1","arrowright","[0.675,0.325,0.85,0.15]","","",""
"sailing-trial","304","1668783","0.0-11.0-261.0","","","","false","","","","","","","","","","null","","1331","","2","1","null","null","arrowup","[0.675,0.325,0.85,0.15]","","",""
"sailing-trial","305","1680415","0.0-11.0-262.0","","","","false","","","","","","","","","","4642","","2112","","2","1","arrowright","1","arrowleft","[0.675,0.325,0.85,0.15]","","",""
"sailing-trial","306","1683285","0.0-11.0-263.0","","","","false","","","","","","","","","","null","","1386","","1","0","null","null","arrowup","[0.675,0.325,0.85,0.15]","","",""
"sailing-trial","307","1687064","0.0-11.0-264.0","","","","false","","","","","","","","","","1159","","74","","3","0","arrowright","1","arrowright","[0.675,0.325,0.85,0.15]","","",""
"sailing-trial","308","1690062","0.0-11.0-265.0","","","","false","","","","","","","","","","null","","1886","","1","0","null","null","arrowup","[0.675,0.325,0.85,0.15]","","",""
"sailing-trial","309","1694947","0.0-11.0-266.0","","","","false","","","","","","","","","","1502","","1025","","3","0","arrowright","1","arrowright","[0.85,0.15,0.675,0.325]","","",""
"sailing-trial","310","1698089","0.0-11.0-267.0","","","","false","","","","","","","","","","null","","1493","","1","0","null","null","arrowup","[0.85,0.15,0.675,0.325]","","",""
"sailing-trial","311","1702332","0.0-11.0-268.0","","","","false","","","","","","","","","","872","","479","","2","1","arrowright","1","arrowleft","[0.85,0.15,0.675,0.325]","","",""
"sailing-trial","312","1707114","0.0-11.0-269.0","","","","false","","","","","","","","","","null","","1280","","3","1","null","null","arrowup","[0.85,0.15,0.675,0.325]","","",""
"sailing-trial","313","1710805","0.0-11.0-270.0","","","","false","","","","","","","","","","1089","","260","","3","0","arrowright","1","arrowright","[0.85,0.15,0.675,0.325]","","",""
"sailing-trial","314","1714616","0.0-11.0-271.0","","","","false","","","","","","","","","","null","","1250","","2","0","null","null","arrowup","[0.85,0.15,0.675,0.325]","","",""
"sailing-trial","315","1719783","0.0-11.0-272.0","","","","false","","","","","","","","","","1339","","590","","0","1","arrowleft","0","arrowleft","[0.85,0.15,0.675,0.325]","","",""
"sailing-trial","316","1725504","0.0-11.0-273.0","","","","false","","","","","","","","","","null","","2941","","2","0","null","null","arrowup","[0.85,0.15,0.675,0.325]","","",""
"sailing-trial","317","1731051","0.0-11.0-274.0","","","","false","","","","","","","","","","929","","1701","","3","0","arrowright","1","arrowright","[0.85,0.15,0.675,0.325]","","",""
"sailing-trial","318","1733936","0.0-11.0-275.0","","","","false","","","","","","","","","","null","","1184","","0","0","null","null","arrowup","[0.85,0.15,0.675,0.325]","","",""
"sailing-trial","319","1739584","0.0-11.0-276.0","","","","false","","","","","","","","","","1927","","876","","0","1","arrowleft","0","arrowleft","[0.85,0.15,0.675,0.325]","","",""
"sailing-trial","320","1742709","0.0-11.0-277.0","","","","false","","","","","","","","","","null","","1059","","3","1","null","null","arrowup","[0.85,0.15,0.675,0.325]","","",""
"sailing-trial","321","1749210","0.0-11.0-278.0","","","","false","","","","","","","","","","1162","","1035","","0","1","arrowleft","0","arrowleft","[0.85,0.15,0.675,0.325]","","",""
"sailing-trial","322","1751764","0.0-11.0-279.0","","","","false","","","","","","","","","","null","","1428","","0","0","null","null","arrowup","[0.85,0.15,0.675,0.325]","","",""
"sailing-trial","323","1756282","0.0-11.0-280.0","","","","false","","","","","","","","","","1260","","616","","0","1","arrowleft","0","arrowleft","[0.85,0.15,0.675,0.325]","","",""
"sailing-trial","324","1758957","0.0-11.0-281.0","","","","false","","","","","","","","","","null","","1191","","2","0","null","null","arrowup","[0.85,0.15,0.675,0.325]","","",""
"sailing-trial","325","1763438","0.0-11.0-282.0","","","","false","","","","","","","","","","1226","","524","","0","0","arrowleft","0","arrowleft","[0.675,0.325,0.85,0.15]","","",""
"sailing-trial","326","1766716","0.0-11.0-283.0","","","","false","","","","","","","","","","null","","1239","","0","1","null","null","arrowup","[0.675,0.325,0.85,0.15]","","",""
"sailing-trial","327","1771415","0.0-11.0-284.0","","","","false","","","","","","","","","","1140","","446","","2","0","arrowright","1","arrowleft","[0.675,0.325,0.85,0.15]","","",""
"sailing-trial","328","1774197","0.0-11.0-285.0","","","","false","","","","","","","","","","null","","1294","","3","0","null","null","arrowup","[0.675,0.325,0.85,0.15]","","",""
"sailing-trial","329","1777970","0.0-11.0-286.0","","","","false","","","","","","","","","","820","","441","","3","0","arrowright","1","arrowright","[0.675,0.325,0.85,0.15]","","",""
"sailing-trial","330","1780642","0.0-11.0-287.0","","","","false","","","","","","","","","","null","","965","","2","1","null","null","arrowup","[0.675,0.325,0.85,0.15]","","",""
"sailing-trial","331","1785607","0.0-11.0-288.0","","","","false","","","","","","","","","","1937","","14","","2","1","arrowright","1","arrowleft","[0.675,0.325,0.85,0.15]","","",""
"sailing-trial","332","1788468","0.0-11.0-289.0","","","","false","","","","","","","","","","null","","1387","","1","0","null","null","arrowup","[0.675,0.325,0.85,0.15]","","",""
"sailing-trial","333","1792689","0.0-11.0-290.0","","","","false","","","","","","","","","","709","","405","","2","1","arrowright","1","arrowleft","[0.675,0.325,0.85,0.15]","","",""
"sailing-trial","334","1795762","0.0-11.0-291.0","","","","false","","","","","","","","","","null","","1073","","0","1","null","null","arrowup","[0.675,0.325,0.85,0.15]","","",""
"sailing-trial","335","1799903","0.0-11.0-292.0","","","","false","","","","","","","","","","842","","407","","0","1","arrowleft","0","arrowleft","[0.675,0.325,0.85,0.15]","","",""
"sailing-trial","336","1803327","0.0-11.0-293.0","","","","false","","","","","","","","","","null","","2284","","3","0","null","null","arrowup","[0.675,0.325,0.85,0.15]","","",""
"sailing-trial","337","1808246","0.0-11.0-294.0","","","","false","","","","","","","","","","1426","","476","","0","1","arrowleft","0","arrowleft","[0.675,0.325,0.85,0.15]","","",""
"sailing-trial","338","1810791","0.0-11.0-295.0","","","","false","","","","","","","","","","null","","1072","","1","0","null","null","arrowup","[0.675,0.325,0.85,0.15]","","",""
"sailing-trial","339","1814290","0.0-11.0-296.0","","","","false","","","","","","","","","","1089","","115","","0","0","arrowleft","0","arrowleft","[0.675,0.325,0.85,0.15]","","",""
"sailing-trial","340","1817125","0.0-11.0-297.0","","","","false","","","","","","","","","","null","","1137","","0","1","null","null","arrowup","[0.675,0.325,0.85,0.15]","","",""
"sailing-trial","341","1821121","0.0-11.0-298.0","","","","false","","","","","","","","","","1036","","157","","0","1","arrowleft","0","arrowleft","[0.675,0.325,0.85,0.15]","","",""
"sailing-trial","342","1823598","0.0-11.0-299.0","","","","false","","","","","","","","","","null","","1150","","3","0","null","null","arrowup","[0.675,0.325,0.85,0.15]","","",""
"sailing-trial","343","1829464","0.0-11.0-300.0","","","","false","","","","","","","","","","1003","","1903","","0","1","arrowleft","0","arrowleft","[0.675,0.325,0.85,0.15]","","",""
"sailing-trial","344","1831749","0.0-11.0-301.0","","","","false","","","","","","","","","","null","","1051","","3","0","null","null","arrowup","[0.675,0.325,0.85,0.15]","","",""
"sailing-trial","345","1836286","0.0-11.0-302.0","","","","false","","","","","","","","","","994","","543","","2","1","arrowright","1","arrowleft","[0.85,0.15,0.675,0.325]","","",""
"sailing-trial","346","1839791","0.0-11.0-303.0","","","","false","","","","","","","","","","null","","1031","","0","1","null","null","arrowup","[0.85,0.15,0.675,0.325]","","",""
"sailing-trial","347","1843597","0.0-11.0-304.0","","","","false","","","","","","","","","","909","","90","","2","1","arrowright","1","arrowleft","[0.85,0.15,0.675,0.325]","","",""
"sailing-trial","348","1846831","0.0-11.0-305.0","","","","false","","","","","","","","","","null","","1631","","1","1","null","null","arrowup","[0.85,0.15,0.675,0.325]","","",""
"sailing-trial","349","1851550","0.0-11.0-306.0","","","","false","","","","","","","","","","587","","586","","2","0","arrowright","1","arrowleft","[0.85,0.15,0.675,0.325]","","",""
"sailing-trial","350","1854872","0.0-11.0-307.0","","","","false","","","","","","","","","","null","","1985","","1","0","null","null","arrowup","[0.85,0.15,0.675,0.325]","","",""
"sailing-trial","351","1858820","0.0-11.0-308.0","","","","false","","","","","","","","","","841","","196","","0","1","arrowleft","0","arrowleft","[0.85,0.15,0.675,0.325]","","",""
"sailing-trial","352","1861566","0.0-11.0-309.0","","","","false","","","","","","","","","","null","","1092","","3","0","null","null","arrowup","[0.85,0.15,0.675,0.325]","","",""
"sailing-trial","353","1866109","0.0-11.0-310.0","","","","false","","","","","","","","","","764","","687","","0","1","arrowleft","0","arrowleft","[0.85,0.15,0.675,0.325]","","",""
"sailing-trial","354","1868198","0.0-11.0-311.0","","","","false","","","","","","","","","","null","","912","","1","0","null","null","arrowup","[0.85,0.15,0.675,0.325]","","",""
"sailing-trial","355","1872003","0.0-11.0-312.0","","","","false","","","","","","","","","","640","","394","","0","1","arrowleft","0","arrowleft","[0.85,0.15,0.675,0.325]","","",""
"sailing-trial","356","1874692","0.0-11.0-313.0","","","","false","","","","","","","","","","null","","1094","","3","1","null","null","arrowup","[0.85,0.15,0.675,0.325]","","",""
"sailing-trial","357","1878410","0.0-11.0-314.0","","","","false","","","","","","","","","","616","","263","","0","1","arrowleft","0","arrowleft","[0.85,0.15,0.675,0.325]","","",""
"sailing-trial","358","1881351","0.0-11.0-315.0","","","","false","","","","","","","","","","null","","1239","","0","1","null","null","arrowup","[0.85,0.15,0.675,0.325]","","",""
"sailing-trial","359","1885904","0.0-11.0-316.0","","","","false","","","","","","","","","","981","","715","","0","1","arrowleft","0","arrowleft","[0.85,0.15,0.675,0.325]","","",""
"sailing-trial","360","1888362","0.0-11.0-317.0","","","","false","","","","","","","","","","null","","1086","","3","0","null","null","arrowup","[0.85,0.15,0.675,0.325]","","",""
"sailing-trial","361","1891889","0.0-11.0-318.0","","","","false","","","","","","","","","","567","","28","","0","1","arrowleft","0","arrowleft","[0.85,0.15,0.675,0.325]","","",""
"sailing-trial","362","1894150","0.0-11.0-319.0","","","","false","","","","","","","","","","null","","967","","1","0","null","null","arrowup","[0.85,0.15,0.675,0.325]","","",""
"sailing-trial","363","1897742","0.0-11.0-320.0","","","","false","","","","","","","","","","861","","330","","0","0","arrowleft","0","arrowleft","[0.325,0.675,0.15,0.85]","","",""
"sailing-trial","364","1899886","0.0-11.0-321.0","","","","false","","","","","","","","","","null","","1042","","0","0","null","null","arrowup","[0.325,0.675,0.15,0.85]","","",""
"sailing-trial","365","1903793","0.0-11.0-322.0","","","","false","","","","","","","","","","803","","552","","3","0","arrowright","1","arrowright","[0.325,0.675,0.15,0.85]","","",""
"sailing-trial","366","1907039","0.0-11.0-323.0","","","","false","","","","","","","","","","null","","1602","","1","1","null","null","arrowup","[0.325,0.675,0.15,0.85]","","",""
"sailing-trial","367","1911498","0.0-11.0-324.0","","","","false","","","","","","","","","","623","","1094","","3","1","arrowright","1","arrowright","[0.325,0.675,0.15,0.85]","","",""
"sailing-trial","368","1913678","0.0-11.0-325.0","","","","false","","","","","","","","","","null","","1093","","0","0","null","null","arrowup","[0.325,0.675,0.15,0.85]","","",""
"sailing-trial","369","1917501","0.0-11.0-326.0","","","","false","","","","","","","","","","596","","208","","3","1","arrowright","1","arrowright","[0.325,0.675,0.15,0.85]","","",""
"sailing-trial","370","1920145","0.0-11.0-327.0","","","","false","","","","","","","","","","null","","1014","","0","1","null","null","arrowup","[0.325,0.675,0.15,0.85]","","",""
"sailing-trial","371","1924028","0.0-11.0-328.0","","","","false","","","","","","","","","","716","","164","","3","1","arrowright","1","arrowright","[0.325,0.675,0.15,0.85]","","",""
"sailing-trial","372","1926081","0.0-11.0-329.0","","","","false","","","","","","","","","","null","","940","","2","0","null","null","arrowup","[0.325,0.675,0.15,0.85]","","",""
"sailing-trial","373","1929587","0.0-11.0-330.0","","","","false","","","","","","","","","","606","","264","","3","1","arrowright","1","arrowright","[0.325,0.675,0.15,0.85]","","",""
"sailing-trial","374","1932117","0.0-11.0-331.0","","","","false","","","","","","","","","","null","","1218","","1","0","null","null","arrowup","[0.325,0.675,0.15,0.85]","","",""
"sailing-trial","375","1936611","0.0-11.0-332.0","","","","false","","","","","","","","","","657","","1073","","2","0","arrowright","1","arrowleft","[0.325,0.675,0.15,0.85]","","",""
"sailing-trial","376","1940354","0.0-11.0-333.0","","","","false","","","","","","","","","","null","","1452","","2","0","null","null","arrowup","[0.325,0.675,0.15,0.85]","","",""
"sailing-trial","377","1943357","0.0-11.0-334.0","","","","false","","","","","","","","","","719","","98","","3","0","arrowright","1","arrowright","[0.325,0.675,0.15,0.85]","","",""
"sailing-trial","378","1946171","0.0-11.0-335.0","","","","false","","","","","","","","","","null","","1205","","3","1","null","null","arrowup","[0.325,0.675,0.15,0.85]","","",""
"sailing-trial","379","1949349","0.0-11.0-336.0","","","","false","","","","","","","","","","592","","331","","1","0","arrowleft","0","arrowright","[0.325,0.675,0.15,0.85]","","",""
"sailing-trial","380","1952064","0.0-11.0-337.0","","","","false","","","","","","","","","","null","","1055","","1","1","null","null","arrowup","[0.325,0.675,0.15,0.85]","","",""
"sailing-trial","381","1955879","0.0-11.0-338.0","","","","false","","","","","","","","","","1071","","133","","1","1","arrowleft","0","arrowright","[0.325,0.675,0.15,0.85]","","",""
"sailing-trial","382","1958895","0.0-11.0-339.0","","","","false","","","","","","","","","","null","","986","","1","1","null","null","arrowup","[0.325,0.675,0.15,0.85]","","",""
"sailing-trial","383","1962958","0.0-11.0-340.0","","","","false","","","","","","","","","","854","","157","","1","1","arrowleft","0","arrowright","[0.325,0.675,0.15,0.85]","","",""
"sailing-trial","384","1965569","0.0-11.0-341.0","","","","false","","","","","","","","","","null","","1342","","2","0","null","null","arrowup","[0.325,0.675,0.15,0.85]","","",""
"sailing-trial","385","1969381","0.0-11.0-342.0","","","","false","","","","","","","","","","970","","421","","1","0","arrowleft","0","arrowright","[0.325,0.675,0.15,0.85]","","",""
"sailing-trial","386","1972026","0.0-11.0-343.0","","","","false","","","","","","","","","","null","","1265","","0","0","null","null","arrowup","[0.325,0.675,0.15,0.85]","","",""
"sailing-trial","387","1978008","0.0-11.0-344.0","","","","false","","","","","","","","","","654","","1950","","2","1","arrowright","1","arrowleft","[0.675,0.325,0.85,0.15]","","",""
"sailing-trial","388","1980785","0.0-11.0-345.0","","","","false","","","","","","","","","","null","","1067","","0","1","null","null","arrowup","[0.675,0.325,0.85,0.15]","","",""
"sailing-trial","389","1986498","0.0-11.0-346.0","","","","false","","","","","","","","","","1632","","1117","","2","1","arrowright","1","arrowleft","[0.675,0.325,0.85,0.15]","","",""
"sailing-trial","390","1989609","0.0-11.0-347.0","","","","false","","","","","","","","","","null","","1014","","2","1","null","null","arrowup","[0.675,0.325,0.85,0.15]","","",""
"sailing-trial","391","1994111","0.0-11.0-348.0","","","","false","","","","","","","","","","948","","579","","0","1","arrowleft","0","arrowleft","[0.675,0.325,0.85,0.15]","","",""
"sailing-trial","392","1997131","0.0-11.0-349.0","","","","false","","","","","","","","","","null","","1083","","2","1","null","null","arrowup","[0.675,0.325,0.85,0.15]","","",""
"sailing-trial","393","2003140","0.0-11.0-350.0","","","","false","","","","","","","","","","1507","","2257","","0","0","arrowleft","0","arrowleft","[0.675,0.325,0.85,0.15]","","",""
"sailing-trial","394","2005851","0.0-11.0-351.0","","","","false","","","","","","","","","","null","","1150","","0","0","null","null","arrowup","[0.675,0.325,0.85,0.15]","","",""
"sailing-trial","395","2010235","0.0-11.0-352.0","","","","false","","","","","","","","","","1042","","90","","1","0","arrowleft","0","arrowright","[0.675,0.325,0.85,0.15]","","",""
"sailing-trial","396","2012840","0.0-11.0-353.0","","","","false","","","","","","","","","","null","","849","","2","1","null","null","arrowup","[0.675,0.325,0.85,0.15]","","",""
"sailing-trial","397","2017104","0.0-11.0-354.0","","","","false","","","","","","","","","","1461","","283","","3","0","arrowright","1","arrowright","[0.675,0.325,0.85,0.15]","","",""
"sailing-trial","398","2019469","0.0-11.0-355.0","","","","false","","","","","","","","","","null","","1016","","1","0","null","null","arrowup","[0.675,0.325,0.85,0.15]","","",""
"sailing-trial","399","2025174","0.0-11.0-356.0","","","","false","","","","","","","","","","1696","","273","","1","0","arrowleft","0","arrowright","[0.675,0.325,0.85,0.15]","","",""
"sailing-trial","400","2028139","0.0-11.0-357.0","","","","false","","","","","","","","","","null","","1099","","1","1","null","null","arrowup","[0.675,0.325,0.85,0.15]","","",""
"sailing-trial","401","2033327","0.0-11.0-358.0","","","","false","","","","","","","","","","2348","","78","","1","1","arrowleft","0","arrowright","[0.675,0.325,0.85,0.15]","","",""
"sailing-trial","402","2036303","0.0-11.0-359.0","","","","false","","","","","","","","","","null","","1053","","0","1","null","null","arrowup","[0.675,0.325,0.85,0.15]","","",""
"sailing-trial","403","2041210","0.0-11.0-360.0","","","","false","","","","","","","","","","1968","","646","","1","0","arrowleft","0","arrowright","[0.675,0.325,0.85,0.15]","","",""
"sailing-trial","404","2043413","0.0-11.0-361.0","","","","false","","","","","","","","","","null","","1015","","3","0","null","null","arrowup","[0.675,0.325,0.85,0.15]","","",""
"sailing-trial","405","2047359","0.0-11.0-362.0","","","","false","","","","","","","","","","1079","","453","","1","0","arrowleft","0","arrowright","[0.85,0.15,0.675,0.325]","","",""
"sailing-trial","406","2050698","0.0-11.0-363.0","","","","false","","","","","","","","","","null","","1327","","0","1","null","null","arrowup","[0.85,0.15,0.675,0.325]","","",""
"sailing-trial","407","2055061","0.0-11.0-364.0","","","","false","","","","","","","","","","711","","631","","2","1","arrowright","1","arrowleft","[0.85,0.15,0.675,0.325]","","",""
"sailing-trial","408","2057722","0.0-11.0-365.0","","","","false","","","","","","","","","","null","","1122","","3","0","null","null","arrowup","[0.85,0.15,0.675,0.325]","","",""
"sailing-trial","409","2061271","0.0-11.0-366.0","","","","false","","","","","","","","","","858","","24","","2","1","arrowright","1","arrowleft","[0.85,0.15,0.675,0.325]","","",""
"sailing-trial","410","2064175","0.0-11.0-367.0","","","","false","","","","","","","","","","null","","1076","","2","1","null","null","arrowup","[0.85,0.15,0.675,0.325]","","",""
"sailing-trial","411","2068520","0.0-11.0-368.0","","","","false","","","","","","","","","","996","","266","","2","1","arrowright","1","arrowleft","[0.85,0.15,0.675,0.325]","","",""
"sailing-trial","412","2070944","0.0-11.0-369.0","","","","false","","","","","","","","","","null","","1076","","1","0","null","null","arrowup","[0.85,0.15,0.675,0.325]","","",""
"sailing-trial","413","2075417","0.0-11.0-370.0","","","","false","","","","","","","","","","923","","489","","2","1","arrowright","1","arrowleft","[0.85,0.15,0.675,0.325]","","",""
"sailing-trial","414","2078328","0.0-11.0-371.0","","","","false","","","","","","","","","","null","","1195","","3","1","null","null","arrowup","[0.85,0.15,0.675,0.325]","","",""
"sailing-trial","415","2082090","0.0-11.0-372.0","","","","false","","","","","","","","","","959","","274","","3","0","arrowright","1","arrowright","[0.85,0.15,0.675,0.325]","","",""
"sailing-trial","416","2084777","0.0-11.0-373.0","","","","false","","","","","","","","","","null","","950","","3","1","null","null","arrowup","[0.85,0.15,0.675,0.325]","","",""
"sailing-trial","417","2088148","0.0-11.0-374.0","","","","false","","","","","","","","","","714","","211","","3","0","arrowright","1","arrowright","[0.85,0.15,0.675,0.325]","","",""
"sailing-trial","418","2093695","0.0-11.0-375.0","","","","false","","","","","","","","","","null","","3677","","0","1","null","null","arrowup","[0.85,0.15,0.675,0.325]","","",""
"sailing-trial","419","2099372","0.0-11.0-376.0","","","","false","","","","","","","","","","1061","","299","","2","0","arrowright","1","arrowleft","[0.85,0.15,0.675,0.325]","","",""
"sailing-trial","420","2102697","0.0-11.0-377.0","","","","false","","","","","","","","","","null","","1913","","3","0","null","null","arrowup","[0.85,0.15,0.675,0.325]","","",""
"sailing-trial","421","2106960","0.0-11.0-378.0","","","","false","","","","","","","","","","1319","","355","","1","0","arrowleft","0","arrowright","[0.85,0.15,0.675,0.325]","","",""
"sailing-trial","422","2110396","0.0-11.0-379.0","","","","false","","","","","","","","","","null","","1527","","0","1","null","null","arrowup","[0.85,0.15,0.675,0.325]","","",""
"sailing-trial","423","2114493","0.0-11.0-380.0","","","","false","","","","","","","","","","899","","160","","0","1","arrowleft","0","arrowleft","[0.85,0.15,0.675,0.325]","","",""
"sailing-trial","424","2118117","0.0-11.0-381.0","","","","false","","","","","","","","","","null","","1530","","0","1","null","null","arrowup","[0.85,0.15,0.675,0.325]","","",""
"sailing-trial","425","2123069","0.0-11.0-382.0","","","","false","","","","","","","","","","1395","","284","","0","1","arrowleft","0","arrowleft","[0.85,0.15,0.675,0.325]","","",""
"sailing-trial","426","2127807","0.0-11.0-383.0","","","","false","","","","","","","","","","null","","1676","","2","0","null","null","arrowup","[0.85,0.15,0.675,0.325]","","",""
"sailing-trial","427","2133509","0.0-11.0-384.0","","","","false","","","","","","","","","","1682","","610","","3","1","arrowright","1","arrowright","[0.325,0.675,0.15,0.85]","","",""
"sailing-trial","428","2138459","0.0-11.0-385.0","","","","false","","","","","","","","","","null","","1892","","0","0","null","null","arrowup","[0.325,0.675,0.15,0.85]","","",""
"sailing-trial","429","2145953","0.0-11.0-386.0","","","","false","","","","","","","","","","1159","","3935","","2","0","arrowright","1","arrowleft","[0.325,0.675,0.15,0.85]","","",""
"sailing-trial","430","2148528","0.0-11.0-387.0","","","","false","","","","","","","","","","null","","1085","","2","0","null","null","arrowup","[0.325,0.675,0.15,0.85]","","",""
"sailing-trial","431","2153373","0.0-11.0-388.0","","","","false","","","","","","","","","","1407","","339","","3","1","arrowright","1","arrowright","[0.325,0.675,0.15,0.85]","","",""
"sailing-trial","432","2155726","0.0-11.0-389.0","","","","false","","","","","","","","","","null","","1273","","2","0","null","null","arrowup","[0.325,0.675,0.15,0.85]","","",""
"sailing-trial","433","2161310","0.0-11.0-390.0","","","","false","","","","","","","","","","2029","","453","","0","1","arrowleft","0","arrowleft","[0.325,0.675,0.15,0.85]","","",""
"sailing-trial","434","2166358","0.0-11.0-391.0","","","","false","","","","","","","","","","null","","2282","","0","0","null","null","arrowup","[0.325,0.675,0.15,0.85]","","",""
"sailing-trial","435","2170958","0.0-11.0-392.0","","","","false","","","","","","","","","","1156","","712","","0","1","arrowleft","0","arrowleft","[0.325,0.675,0.15,0.85]","","",""
"sailing-trial","436","2176232","0.0-11.0-393.0","","","","false","","","","","","","","","","null","","3208","","0","0","null","null","arrowup","[0.325,0.675,0.15,0.85]","","",""
"sailing-trial","437","2180129","0.0-11.0-394.0","","","","false","","","","","","","","","","1013","","394","","0","0","arrowleft","0","arrowleft","[0.325,0.675,0.15,0.85]","","",""
"sailing-trial","438","2183165","0.0-11.0-395.0","","","","false","","","","","","","","","","null","","1966","","1","0","null","null","arrowup","[0.325,0.675,0.15,0.85]","","",""
"sailing-trial","439","2188719","0.0-11.0-396.0","","","","false","","","","","","","","","","2348","","243","","3","1","arrowright","1","arrowright","[0.325,0.675,0.15,0.85]","","",""
"sailing-trial","440","2192079","0.0-11.0-397.0","","","","false","","","","","","","","","","null","","1204","","2","0","null","null","arrowup","[0.325,0.675,0.15,0.85]","","",""
"sailing-trial","441","2196133","0.0-11.0-398.0","","","","false","","","","","","","","","","1016","","122","","3","1","arrowright","1","arrowright","[0.325,0.675,0.15,0.85]","","",""
"sailing-trial","442","2199723","0.0-11.0-399.0","","","","false","","","","","","","","","","null","","1312","","1","1","null","null","arrowup","[0.325,0.675,0.15,0.85]","","",""
"instructions","443","2202014","0.0-12.0","","","","","","","","","","2275","","","","","","","","","","","","","","","","[{""page_index"":0,""viewing_time"":2274}]"
"survey-debrief","444","2217630","0.0-13.0","","","","","","","","","","15601","","","","","","","","","","","","","","{""difficulty"":""2"",""fun"":""4"",""clarity"":""5"",""strategy"":""no"",""feedback"":""""}","",""
