"trial_type","trial_index","time_elapsed","internal_node_id","value","metadata","success","timeout","failed_images","failed_audio","failed_video","browser_interaction","low_quality","rt","stimulus","response","button_pressed","island_rt","island_response","boat_rt","boat_response","boat","reward","island_key","island","boat_key","reward_probabilities","responses","num_errors","view_history"
"pavlovia","0","2","0.0-0.0","","","","","","","","","","","","","","","","","","","","","","","","","",""
"call-function","1","3","0.0-1.0","","{""task_version"":""sailing_part1_v1"",""task_condition"":""good"",""boats"":[""D"",""B"",""A"",""C""],""boats_demo"":[""H"",""G"",""F"",""E""],""islands"":[""A"",""B""],""subject_id"":""15425"",""age"":""13"",""gender"":""Male""}","","","","","","","","","","","","","","","","","","","","","","","",""
"preload","2","4043","0.0-2.0","","","true","false","[]","[]","[]","[{""event"":""fullscreenenter"",""trial"":3,""time"":9449}]","false","","","","","","","","","","","","","","","","",""
"fullscreen","3","10443","0.0-3.0","","","true","","","","","","","","","","","","","","","","","","","","","","",""
"audio-keyboard-response","4","13054","0.0-4.0-0.0","","","","","","","","","","2081.0884353741494","audio/beep_loop.wav"," ","","","","","","","","","","","","","",""
"audio-test","5","22215","0.0-4.0-1.0","","","","","","","","","","null","audio/turtle.mp3","","3","","","","","","","","","","","","",""
"audio-test","6","24718","0.0-4.0-2.0","","","","","","","","","","null","audio/shark.mp3","","2","","","","","","","","","","","","",""
"sailing-instructions","7","71590","0.0-5.0-0.0-0.0","","","","","","","","","","","","","","null","null","null","null","null","null","","","","","","",""
"sailing-trial","8","79736","0.0-5.0-0.0-1.0-0.0","","","","false","","","","","","","","","","7044","","null","","null","null","arrowleft","0","null","null","","",""
"sailing-trial","9","84181","0.0-5.0-0.0-1.0-1.0","","","","false","","","","","","","","","","3307.699999988079","","null","","null","null","arrowright","1","null","null","","",""
"sailing-trial","10","88431","0.0-5.0-0.0-1.0-2.0","","","","false","","","","","","","","","","3147.2999999523163","","null","","null","null","arrowleft","0","null","null","","",""
"sailing-instructions","11","137222","0.0-5.0-0.0-2.0","","","","","","","","","","","","","","null","null","null","null","0","null","","","","","","",""
"sailing-trial","12","150415","0.0-5.0-0.0-3.0-0.0","","","","false","","","","","","","","","","null","","7313.5","","2","1","null","null","arrowleft","[1,1,1,1]","","",""
"sailing-trial","13","156050","0.0-5.0-0.0-3.0-1.0","","","","false","","","","","","","","","","null","","2339.399999976158","","3","1","null","null","arrowright","[1,1,1,1]","","",""
"sailing-trial","14","162264","0.0-5.0-0.0-3.0-2.0","","","","false","","","","","","","","","","null","","2679.099999964237","","3","0","null","null","arrowright","[0,0,0,0]","","",""
"sailing-instructions","15","170206","0.0-5.0-0.0-4.0","","","","","","","","","","","","","","null","null","null","null","null","null","","","","","","",""
"sailing-comprehension","16","198835","0.0-5.0-0.0-5.0","","","","","","","","","","20335","","","","","","","","","","","","","","[""true"",""false"",""false"",""true""]","1",""
"sailing-instructions","17","230542","0.0-5.0-0.1-0.1","","","","","","","","","","","","","","null","null","null","null","null","null","","","","","","",""
"sailing-trial","18","233063","0.0-5.0-0.1-1.1-0.1","","","","false","","","","","","","","","","1402.3999999761581","","null","","null","null","arrowleft","0","null","null","","",""
"sailing-trial","19","235480","0.0-5.0-0.1-1.1-1.1","","","","false","","","","","","","","","","1293.699999988079","","null","","null","null","arrowright","1","null","null","","",""
"sailing-trial","20","238898","0.0-5.0-0.1-1.1-2.1","","","","false","","","","","","","","","","2302.800000011921","","null","","null","null","arrowright","1","null","null","","",""
"sailing-instructions","21","283399","0.0-5.0-0.1-2.1","","","","","","","","","","","","","","null","null","null","null","0","null","","","","","","",""
"sailing-trial","22","292249","0.0-5.0-0.1-3.1-0.1","","","","false","","","","","","","","","","null","","3868.099999964237","","2","1","null","null","arrowleft","[1,1,1,1]","","",""
"sailing-trial","23","296162","0.0-5.0-0.1-3.1-1.1","","","","false","","","","","","","","","","null","","939.2000000476837","","3","1","null","null","arrowright","[1,1,1,1]","","",""
"sailing-trial","24","301097","0.0-5.0-0.1-3.1-2.1","","","","false","","","","","","","","","","null","","1368.699999988079","","2","0","null","null","arrowleft","[0,0,0,0]","","",""
"sailing-instructions","25","308734","0.0-5.0-0.1-4.1","","","","","","","","","","","","","","null","null","null","null","null","null","","","","","","",""
"sailing-comprehension","26","333489","0.0-5.0-0.1-5.1","","","","","","","","","","17751.19999998808","","","","","","","","","","","","","","[""true"",""false"",""false"",""true""]","1",""
"sailing-instructions","27","403054","0.0-6.0-0.0-0.0","","","","","","","","","","","","","","null","null","null","null","null","null","","","","","","",""
"sailing-comprehension","28","437225","0.0-6.0-0.0-1.0","","","","","","","","","","31111","","","","","","","","","","","","","","[""true"",""false"",""true""]","0",""
"sailing-instructions","29","452623","0.0-7.0-0.0-0.0","","","","","","","","","","","","","","null","null","null","null","null","null","","","","","","",""
"sailing-trial","30","461108","0.0-7.0-0.0-1.0-0.0","","","","false","","","","","","","","","","null","","5481.100000023842","","0","0","null","null","arrowup","[0.2,0.8,0.2,0.8]","","",""
"sailing-trial","31","466201","0.0-7.0-0.0-1.0-1.0","","","","false","","","","","","","","","","null","","2084.599999964237","","1","0","null","null","arrowup","[0.2,0.8,0.2,0.8]","","",""
"sailing-trial","32","470407","0.0-7.0-0.0-1.0-2.0","","","","false","","","","","","","","","","null","","1201.0999999642372","","2","0","null","null","arrowup","[0.2,0.8,0.2,0.8]","","",""
"sailing-trial","33","474297","0.0-7.0-0.0-1.0-3.0","","","","false","","","","","","","","","","null","","777.8999999761581","","3","1","null","null","arrowup","[0.2,0.8,0.2,0.8]","","",""
"sailing-comprehension","34","490775","0.0-7.0-0.0-2.0","","","","","","","","","","12164.5","","","","","","","","","","","","","","[""true""]","1",""
"sailing-instructions","35","508399","0.0-7.0-0.1-0.1","","","","","","","","","","","","","","null","null","null","null","null","null","","","","","","",""
"sailing-trial","36","514406","0.0-7.0-0.1-1.1-0.1","","","","false","","","","","","","","","","null","","2961.399999976158","","0","0","null","null","arrowup","[0.2,0.8,0.2,0.8]","","",""
"sailing-trial","37","519064","0.0-7.0-0.1-1.1-1.1","","","","false","","","","","","","","","","null","","1706.9000000357628","","1","1","null","null","arrowup","[0.2,0.8,0.2,0.8]","","",""
"sailing-trial","38","525499","0.0-7.0-0.1-1.1-2.1","","","","false","","","","","","","","","","null","","3138.300000011921","","2","1","null","null","arrowup","[0.2,0.8,0.2,0.8]","","",""
"sailing-trial","39","528496","0.0-7.0-0.1-1.1-3.1","","","","false","","","","","","","","","","null","","1314.5","","3","0","null","null","arrowup","[0.2,0.8,0.2,0.8]","","",""
"sailing-comprehension","40","540593","0.0-7.0-0.1-2.1","","","","","","","","","","10220.900000035763","","","","","","","","","","","","","","[""false""]","0",""
"sailing-instructions","41","551319","0.0-8.0-0.0-0.0","","","","","","","","","","","","","","null","null","null","null","null","null","","","","","","",""
"sailing-comprehension","42","557848","0.0-8.0-0.0-1.0","","","","","","","","","","4703.5","","","","","","","","","","","","","","[""true""]","0",""
"sailing-instructions","43","584880","0.0-9.0-0.0-0.0","","","","","","","","","","","","","","null","null","null","null","null","null","","","","","","",""
"sailing-trial","44","593333","0.0-9.0-0.0-1.0-0.0","","","","false","","","","","","","","","","3191.5","","1405.5","","3","1","arrowright","1","arrowright","[0.2,0.8,0.2,0.8]","","",""
"sailing-trial","45","600198","0.0-9.0-0.0-1.0-1.0","","","","false","","","","","","","","","","863.5","","2719.899999976158","","1","1","arrowleft","0","arrowright","[0.2,0.8,0.2,0.8]","","",""
"sailing-trial","46","608398","0.0-9.0-0.0-1.0-2.0","","","","false","","","","","","","","","","null","","5175.5","","0","0","null","null","arrowup","[0.2,0.8,0.2,0.8]","","",""
"sailing-trial","47","614771","0.0-9.0-0.0-1.0-3.0","","","","false","","","","","","","","","","2127.199999988079","","1052.0999999642372","","0","0","arrowleft","0","arrowleft","[0.2,0.8,0.2,0.8]","","",""
"sailing-trial","48","619098","0.0-9.0-0.0-1.0-4.0","","","","false","","","","","","","","","","null","","1874.300000011921","","3","1","null","null","arrowup","[0.2,0.8,0.2,0.8]","","",""
"sailing-trial","49","624100","0.0-9.0-0.0-1.0-5.0","","","","false","","","","","","","","","","958.5999999642372","","1053.5999999642372","","3","1","arrowright","1","arrowright","[0.2,0.8,0.2,0.8]","","",""
"sailing-instructions","50","651079","0.0-10.0","","","","","","","","","","","","","","null","null","null","null","null","null","","","","","","",""
"sailing-trial","51","658116","0.0-11.0-0.0","","","","false","","","","","","","","","","3753.300000011921","","308.39999997615814","","3","1","arrowright","1","arrowright","[0.85,0.15,0.675,0.325]","","",""
"sailing-trial","52","661549","0.0-11.0-1.0","","","","false","","","","","","","","","","null","","1468.7000000476837","","2","1","null","null","arrowup","[0.85,0.15,0.675,0.325]","","",""
"sailing-trial","53","668606","0.0-11.0-2.0","","","","false","","","","","","","","","","912.3000000119209","","2134","","3","0","arrowright","1","arrowright","[0.85,0.15,0.675,0.325]","","",""
"sailing-trial","54","673367","0.0-11.0-3.0","","","","false","","","","","","","","","","null","","1759.800000011921","","1","0","null","null","arrowup","[0.85,0.15,0.675,0.325]","","",""
"sailing-trial","55","679498","0.0-11.0-4.0","","","","false","","","","","","","","","","1291.5","","795","","0","0","arrowleft","0","arrowleft","[0.85,0.15,0.675,0.325]","","",""
"sailing-trial","56","683935","0.0-11.0-5.0","","","","false","","","","","","","","","","null","","1418.4000000357628","","1","0","null","null","arrowup","[0.85,0.15,0.675,0.325]","","",""
"sailing-trial","57","689900","0.0-11.0-6.0","","","","false","","","","","","","","","","922.7999999523163","","1968.5","","3","1","arrowright","1","arrowright","[0.85,0.15,0.675,0.325]","","",""
"sailing-trial","58","693400","0.0-11.0-7.0","","","","false","","","","","","","","","","null","","1281.3999999761581","","0","1","null","null","arrowup","[0.85,0.15,0.675,0.325]","","",""
"sailing-trial","59","698033","0.0-11.0-8.0","","","","false","","","","","","","","","","941.2999999523163","","863.6999999880791","","0","1","arrowleft","0","arrowleft","[0.85,0.15,0.675,0.325]","","",""
"sailing-trial","60","701367","0.0-11.0-9.0","","","","false","","","","","","","","","","null","","1364","","2","1","null","null","arrowup","[0.85,0.15,0.675,0.325]","","",""
"sailing-trial","61","705799","0.0-11.0-10.0","","","","false","","","","","","","","","","972.6000000238419","","538","","0","1","arrowleft","0","arrowleft","[0.85,0.15,0.675,0.325]","","",""
"sailing-trial","62","711101","0.0-11.0-11.0","","","","false","","","","","","","","","","null","","2280.400000035763","","3","0","null","null","arrowup","[0.85,0.15,0.675,0.325]","","",""
"sailing-trial","63","716186","0.0-11.0-12.0","","","","false","","","","","","","","","","874","","228","","3","0","arrowright","1","arrowright","[0.85,0.15,0.675,0.325]","","",""
"sailing-trial","64","720419","0.0-11.0-13.0","","","","false","","","","","","","","","","null","","1229.3999999761581","","2","0","null","null","arrowup","[0.85,0.15,0.675,0.325]","","",""
"sailing-trial","65","724568","0.0-11.0-14.0","","","","false","","","","","","","","","","909","","418.5","","0","1","arrowleft","0","arrowleft","[0.85,0.15,0.675,0.325]","","",""
"sailing-trial","66","727766","0.0-11.0-15.0","","","","false","","","","","","","","","","null","","1345.8999999761581","","1","1","null","null","arrowup","[0.85,0.15,0.675,0.325]","","",""
"sailing-trial","67","732700","0.0-11.0-16.0","","","","false","","","","","","","","","","1702","","349.5999999642372","","0","1","arrowleft","0","arrowleft","[0.675,0.325,0.85,0.15]","","",""
"sailing-trial","68","735784","0.0-11.0-17.0","","","","false","","","","","","","","","","null","","1287.800000011921","","0","1","null","null","arrowup","[0.675,0.325,0.85,0.15]","","",""
"sailing-trial","69","740649","0.0-11.0-18.0","","","","false","","","","","","","","","","881.9000000357628","","352.5","","0","1","arrowleft","0","arrowleft","[0.675,0.325,0.85,0.15]","","",""
"sailing-trial","70","745696","0.0-11.0-19.0","","","","false","","","","","","","","","","null","","2022.199999988079","","1","0","null","null","arrowup","[0.675,0.325,0.85,0.15]","","",""
"sailing-trial","71","750299","0.0-11.0-20.0","","","","false","","","","","","","","","","932.3999999761581","","536","","0","1","arrowleft","0","arrowleft","[0.675,0.325,0.85,0.15]","","",""
"sailing-trial","72","754669","0.0-11.0-21.0","","","","false","","","","","","","","","","null","","1365.3999999761581","","3","0","null","null","arrowup","[0.675,0.325,0.85,0.15]","","",""
"sailing-trial","73","760567","0.0-11.0-22.0","","","","false","","","","","","","","","","1299.800000011921","","583.7999999523163","","0","0","arrowleft","0","arrowleft","[0.675,0.325,0.85,0.15]","","",""
"sailing-trial","74","763534","0.0-11.0-23.0","","","","false","","","","","","","","","","null","","1189.5","","1","1","null","null","arrowup","[0.675,0.325,0.85,0.15]","","",""
"sailing-trial","75","769718","0.0-11.0-24.0","","","","false","","","","","","","","","","1013.8000000119209","","1161.7999999523163","","3","0","arrowright","1","arrowright","[0.675,0.325,0.85,0.15]","","",""
"sailing-trial","76","773200","0.0-11.0-25.0","","","","false","","","","","","","","","","null","","1450.8999999761581","","0","1","null","null","arrowup","[0.675,0.325,0.85,0.15]","","",""
"sailing-trial","77","779250","0.0-11.0-26.0","","","","false","","","","","","","","","","1613.2999999523163","","416.0999999642372","","3","0","arrowright","1","arrowright","[0.675,0.325,0.85,0.15]","","",""
"sailing-trial","78","782400","0.0-11.0-27.0","","","","false","","","","","","","","","","null","","1334.300000011921","","0","1","null","null","arrowup","[0.675,0.325,0.85,0.15]","","",""
"sailing-trial","79","787782","0.0-11.0-28.0","","","","false","","","","","","","","","","1375.1000000238419","","1115.699999988079","","2","1","arrowright","1","arrowleft","[0.675,0.325,0.85,0.15]","","",""
"sailing-trial","80","790767","0.0-11.0-29.0","","","","false","","","","","","","","","","null","","1170.5","","2","1","null","null","arrowup","[0.675,0.325,0.85,0.15]","","",""
"sailing-trial","81","796334","0.0-11.0-30.0","","","","false","","","","","","","","","","1456.800000011921","","1238.1000000238419","","0","1","arrowleft","0","arrowleft","[0.675,0.325,0.85,0.15]","","",""
"sailing-trial","82","799534","0.0-11.0-31.0","","","","false","","","","","","","","","","null","","1357.699999988079","","0","1","null","null","arrowup","[0.675,0.325,0.85,0.15]","","",""
"sailing-trial","83","803867","0.0-11.0-32.0","","","","false","","","","","","","","","","1074.300000011921","","475.19999998807907","","2","1","arrowright","1","arrowleft","[0.675,0.325,0.85,0.15]","","",""
"sailing-trial","84","808042","0.0-11.0-33.0","","","","false","","","","","","","","","","null","","1174.199999988079","","1","0","null","null","arrowup","[0.675,0.325,0.85,0.15]","","",""
"sailing-trial","85","811950","0.0-11.0-34.0","","","","false","","","","","","","","","","921","","184.20000004768372","","2","1","arrowright","1","arrowleft","[0.675,0.325,0.85,0.15]","","",""
"sailing-trial","86","816152","0.0-11.0-35.0","","","","false","","","","","","","","","","null","","1182.3999999761581","","1","0","null","null","arrowup","[0.675,0.325,0.85,0.15]","","",""
"sailing-trial","87","820017","0.0-11.0-36.0","","","","false","","","","","","","","","","919.7000000476837","","118.39999997615814","","2","1","arrowright","1","arrowleft","[0.675,0.325,0.85,0.15]","","",""
"sailing-trial","88","823200","0.0-11.0-37.0","","","","false","","","","","","","","","","null","","1119.800000011921","","3","1","null","null","arrowup","[0.675,0.325,0.85,0.15]","","",""
"sailing-trial","89","827234","0.0-11.0-38.0","","","","false","","","","","","","","","","688.2000000476837","","535.2000000476837","","2","1","arrowright","1","arrowleft","[0.85,0.15,0.675,0.325]","","",""
"sailing-trial","90","830116","0.0-11.0-39.0","","","","false","","","","","","","","","","null","","1026.2000000476837","","3","1","null","null","arrowup","[0.85,0.15,0.675,0.325]","","",""
"sailing-trial","91","834983","0.0-11.0-40.0","","","","false","","","","","","","","","","1228.6000000238419","","581.8999999761581","","1","1","arrowleft","0","arrowright","[0.85,0.15,0.675,0.325]","","",""
"sailing-trial","92","838334","0.0-11.0-41.0","","","","false","","","","","","","","","","null","","1201.5999999642372","","0","1","null","null","arrowup","[0.85,0.15,0.675,0.325]","","",""
"sailing-trial","93","843667","0.0-11.0-42.0","","","","false","","","","","","","","","","1045.9000000357628","","292.10000002384186","","1","0","arrowleft","0","arrowright","[0.85,0.15,0.675,0.325]","","",""
"sailing-trial","94","847733","0.0-11.0-43.0","","","","false","","","","","","","","","","null","","1061.1000000238419","","1","0","null","null","arrowup","[0.85,0.15,0.675,0.325]","","",""
"sailing-trial","95","852751","0.0-11.0-44.0","","","","false","","","","","","","","","","1007.9000000357628","","5.5","","3","0","arrowright","1","arrowright","[0.85,0.15,0.675,0.325]","","",""
"sailing-trial","96","856833","0.0-11.0-45.0","","","","false","","","","","","","","","","null","","1082","","3","0","null","null","arrowup","[0.85,0.15,0.675,0.325]","","",""
"sailing-trial","97","862333","0.0-11.0-46.0","","","","false","","","","","","","","","","809.5999999642372","","693.7000000476837","","2","0","arrowright","1","arrowleft","[0.85,0.15,0.675,0.325]","","",""
"sailing-trial","98","865549","0.0-11.0-47.0","","","","false","","","","","","","","","","null","","1128.8999999761581","","2","1","null","null","arrowup","[0.85,0.15,0.675,0.325]","","",""
"sailing-trial","99","871535","0.0-11.0-48.0","","","","false","","","","","","","","","","1098.5","","895.4000000357628","","1","0","arrowleft","0","arrowright","[0.85,0.15,0.675,0.325]","","",""
"sailing-trial","100","875501","0.0-11.0-49.0","","","","false","","","","","","","","","","null","","968.3000000119209","","3","0","null","null","arrowup","[0.85,0.15,0.675,0.325]","","",""
"sailing-trial","101","879848","0.0-11.0-50.0","","","","false","","","","","","","","","","887.9000000357628","","577.4000000357628","","0","1","arrowleft","0","arrowleft","[0.85,0.15,0.675,0.325]","","",""
"sailing-trial","102","882766","0.0-11.0-51.0","","","","false","","","","","","","","","","null","","1057.1000000238419","","1","1","null","null","arrowup","[0.85,0.15,0.675,0.325]","","",""
"sailing-trial","103","886450","0.0-11.0-52.0","","","","false","","","","","","","","","","709.1999999880791","","137.10000002384186","","2","1","arrowright","1","arrowleft","[0.85,0.15,0.675,0.325]","","",""
"sailing-trial","104","889449","0.0-11.0-53.0","","","","false","","","","","","","","","","null","","1096.5","","0","1","null","null","arrowup","[0.85,0.15,0.675,0.325]","","",""
"sailing-trial","105","893999","0.0-11.0-54.0","","","","false","","","","","","","","","","715.1000000238419","","1029.7999999523163","","2","1","arrowright","1","arrowleft","[0.85,0.15,0.675,0.325]","","",""
"sailing-trial","106","896698","0.0-11.0-55.0","","","","false","","","","","","","","","","null","","879.6999999880791","","2","1","null","null","arrowup","[0.85,0.15,0.675,0.325]","","",""
"sailing-trial","107","902234","0.0-11.0-56.0","","","","false","","","","","","","","","","1330.4000000357628","","181.5","","3","0","arrowright","1","arrowright","[0.675,0.325,0.85,0.15]","","",""
"sailing-trial","108","906535","0.0-11.0-57.0","","","","false","","","","","","","","","","null","","1258.300000011921","","3","0","null","null","arrowup","[0.675,0.325,0.85,0.15]","","",""
"sailing-trial","109","911485","0.0-11.0-58.0","","","","false","","","","","","","","","","804.0999999642372","","159.80000001192093","","1","0","arrowleft","0","arrowright","[0.675,0.325,0.85,0.15]","","",""
"sailing-trial","110","914598","0.0-11.0-59.0","","","","false","","","","","","","","","","null","","957.5","","2","1","null","null","arrowup","[0.675,0.325,0.85,0.15]","","",""
"sailing-trial","111","919249","0.0-11.0-60.0","","","","false","","","","","","","","","","1037.5","","779.5","","0","1","arrowleft","0","arrowleft","[0.675,0.325,0.85,0.15]","","",""
"sailing-trial","112","923266","0.0-11.0-61.0","","","","false","","","","","","","","","","null","","1018.5","","2","0","null","null","arrowup","[0.675,0.325,0.85,0.15]","","",""
"sailing-trial","113","928052","0.0-11.0-62.0","","","","false","","","","","","","","","","769","","1.100000023841858","","0","0","arrowleft","0","arrowleft","[0.675,0.325,0.85,0.15]","","",""
"sailing-trial","114","932118","0.0-11.0-63.0","","","","false","","","","","","","","","","null","","1071.1000000238419","","3","0","null","null","arrowup","[0.675,0.325,0.85,0.15]","","",""
"sailing-trial","115","936566","0.0-11.0-64.0","","","","false","","","","","","","","","","1000.6000000238419","","459.5999999642372","","2","1","arrowright","1","arrowleft","[0.675,0.325,0.85,0.15]","","",""
"sailing-trial","116","940566","0.0-11.0-65.0","","","","false","","","","","","","","","","null","","1005.2999999523163","","3","0","null","null","arrowup","[0.675,0.325,0.85,0.15]","","",""
"sailing-trial","117","946135","0.0-11.0-66.0","","","","false","","","","","","","","","","1493.5","","33.89999997615814","","3","0","arrowright","1","arrowright","[0.675,0.325,0.85,0.15]","","",""
"sailing-trial","118","950142","0.0-11.0-67.0","","","","false","","","","","","","","","","null","","983.1999999880791","","2","0","null","null","arrowup","[0.675,0.325,0.85,0.15]","","",""
"sailing-trial","119","954065","0.0-11.0-68.0","","","","false","","","","","","","","","","881.6999999880791","","113","","0","1","arrowleft","0","arrowleft","[0.675,0.325,0.85,0.15]","","",""
"sailing-trial","120","957066","0.0-11.0-69.0","","","","false","","","","","","","","","","null","","1065","","0","1","null","null","arrowup","[0.675,0.325,0.85,0.15]","","",""
"sailing-trial","121","961916","0.0-11.0-70.0","","","","false","","","","","","","","","","774.1000000238419","","1024.6000000238419","","0","1","arrowleft","0","arrowleft","[0.675,0.325,0.85,0.15]","","",""
"sailing-trial","122","965183","0.0-11.0-71.0","","","","false","","","","","","","","","","null","","1176","","1","1","null","null","arrowup","[0.675,0.325,0.85,0.15]","","",""
"sailing-trial","123","969950","0.0-11.0-72.0","","","","false","","","","","","","","","","1748.9000000357628","","142.69999998807907","","0","1","arrowleft","0","arrowleft","[0.675,0.325,0.85,0.15]","","",""
"sailing-trial","124","974690","0.0-11.0-73.0","","","","false","","","","","","","","","","null","","1740.800000011921","","3","0","null","null","arrowup","[0.675,0.325,0.85,0.15]","","",""
"sailing-trial","125","979483","0.0-11.0-74.0","","","","false","","","","","","","","","","1441.800000011921","","488.10000002384186","","0","1","arrowleft","0","arrowleft","[0.85,0.15,0.675,0.325]","","",""
"sailing-trial","126","983033","0.0-11.0-75.0","","","","false","","","","","","","","","","null","","1269.5","","2","1","null","null","arrowup","[0.85,0.15,0.675,0.325]","","",""
"sailing-trial","127","986817","0.0-11.0-76.0","","","","false","","","","","","","","","","873.9000000357628","","125.60000002384186","","0","1","arrowleft","0","arrowleft","[0.85,0.15,0.675,0.325]","","",""
"sailing-trial","128","991866","0.0-11.0-77.0","","","","false","","","","","","","","","","null","","2742","","2","1","null","null","arrowup","[0.85,0.15,0.675,0.325]","","",""
"sailing-trial","129","995933","0.0-11.0-78.0","","","","false","","","","","","","","","","1203.5","","76","","0","1","arrowleft","0","arrowleft","[0.85,0.15,0.675,0.325]","","",""
"sailing-trial","130","1000917","0.0-11.0-79.0","","","","false","","","","","","","","","","null","","1974.9000000357628","","1","0","null","null","arrowup","[0.85,0.15,0.675,0.325]","","",""
"sailing-trial","131","1004533","0.0-11.0-80.0","","","","false","","","","","","","","","","789.3000000119209","","38.10000002384186","","0","1","arrowleft","0","arrowleft","[0.85,0.15,0.675,0.325]","","",""
"sailing-trial","132","1008869","0.0-11.0-81.0","","","","false","","","","","","","","","","null","","1334.6000000238419","","3","0","null","null","arrowup","[0.85,0.15,0.675,0.325]","","",""
"sailing-trial","133","1012882","0.0-11.0-82.0","","","","false","","","","","","","","","","1095.4000000357628","","56.59999996423721","","0","1","arrowleft","0","arrowleft","[0.85,0.15,0.675,0.325]","","",""
"sailing-trial","134","1016518","0.0-11.0-83.0","","","","false","","","","","","","","","","null","","633","","1","0","null","null","arrowup","[0.85,0.15,0.675,0.325]","","",""
"sailing-trial","135","1021249","0.0-11.0-84.0","","","","false","","","","","","","","","","1210.300000011921","","607.0999999642372","","0","1","arrowleft","0","arrowleft","[0.85,0.15,0.675,0.325]","","",""
"sailing-trial","136","1026082","0.0-11.0-85.0","","","","false","","","","","","","","","","null","","2475.5","","0","1","null","null","arrowup","[0.85,0.15,0.675,0.325]","","",""
"sailing-trial","137","1031031","0.0-11.0-86.0","","","","false","","","","","","","","","","911.6000000238419","","724.8000000119209","","0","1","arrowleft","0","arrowleft","[0.85,0.15,0.675,0.325]","","",""
"sailing-trial","138","1035251","0.0-11.0-87.0","","","","false","","","","","","","","","","null","","1178.300000011921","","1","0","null","null","arrowup","[0.85,0.15,0.675,0.325]","","",""
"sailing-trial","139","1039484","0.0-11.0-88.0","","","","false","","","","","","","","","","834.6000000238419","","591.3000000119209","","0","1","arrowleft","0","arrowleft","[0.85,0.15,0.675,0.325]","","",""
"sailing-trial","140","1044218","0.0-11.0-89.0","","","","false","","","","","","","","","","null","","1709.0999999642372","","1","0","null","null","arrowup","[0.85,0.15,0.675,0.325]","","",""
"sailing-trial","141","1049582","0.0-11.0-90.0","","","","false","","","","","","","","","","780.5","","339.9000000357628","","0","1","arrowleft","0","arrowleft","[0.85,0.15,0.675,0.325]","","",""
"sailing-trial","142","1052833","0.0-11.0-91.0","","","","false","","","","","","","","","","null","","1391.5","","0","1","null","null","arrowup","[0.85,0.15,0.675,0.325]","","",""
"sailing-trial","143","1056582","0.0-11.0-92.0","","","","false","","","","","","","","","","671.6000000238419","","202.39999997615814","","0","1","arrowleft","0","arrowleft","[0.675,0.325,0.85,0.15]","","",""
"sailing-trial","144","1060182","0.0-11.0-93.0","","","","false","","","","","","","","","","null","","1367","","3","1","null","null","arrowup","[0.675,0.325,0.85,0.15]","","",""
"sailing-trial","145","1064699","0.0-11.0-94.0","","","","false","","","","","","","","","","919.1000000238419","","735.1000000238419","","0","1","arrowleft","0","arrowleft","[0.675,0.325,0.85,0.15]","","",""
"sailing-trial","146","1068985","0.0-11.0-95.0","","","","false","","","","","","","","","","null","","1289.5","","1","0","null","null","arrowup","[0.675,0.325,0.85,0.15]","","",""
"sailing-trial","147","1075115","0.0-11.0-96.0","","","","false","","","","","","","","","","1448.699999988079","","504.89999997615814","","0","1","arrowleft","0","arrowleft","[0.675,0.325,0.85,0.15]","","",""
"sailing-trial","148","1079950","0.0-11.0-97.0","","","","false","","","","","","","","","","null","","2574.5","","0","1","null","null","arrowup","[0.675,0.325,0.85,0.15]","","",""
"sailing-trial","149","1087885","0.0-11.0-98.0","","","","false","","","","","","","","","","2320.900000035763","","1628.699999988079","","0","0","arrowleft","0","arrowleft","[0.675,0.325,0.85,0.15]","","",""
"sailing-trial","150","1092134","0.0-11.0-99.0","","","","false","","","","","","","","","","null","","1226.5999999642372","","3","0","null","null","arrowup","[0.675,0.325,0.85,0.15]","","",""
"sailing-trial","151","1096967","0.0-11.0-100.0","","","","false","","","","","","","","","","1114.699999988079","","553","","2","1","arrowright","1","arrowleft","[0.675,0.325,0.85,0.15]","","",""
"sailing-trial","152","1099916","0.0-11.0-101.0","","","","false","","","","","","","","","","null","","1166","","2","1","null","null","arrowup","[0.675,0.325,0.85,0.15]","","",""
"sailing-trial","153","1104834","0.0-11.0-102.0","","","","false","","","","","","","","","","776.4000000357628","","125.80000001192093","","0","0","arrowleft","0","arrowleft","[0.675,0.325,0.85,0.15]","","",""
"sailing-trial","154","1109317","0.0-11.0-103.0","","","","false","","","","","","","","","","null","","2625.600000023842","","2","1","null","null","arrowup","[0.675,0.325,0.85,0.15]","","",""
"sailing-trial","155","1114882","0.0-11.0-104.0","","","","false","","","","","","","","","","997.1999999880791","","1397.800000011921","","1","1","arrowleft","0","arrowright","[0.675,0.325,0.85,0.15]","","",""
"sailing-trial","156","1119784","0.0-11.0-105.0","","","","false","","","","","","","","","","null","","3095.399999976158","","0","1","null","null","arrowup","[0.675,0.325,0.85,0.15]","","",""
"sailing-trial","157","1124433","0.0-11.0-106.0","","","","false","","","","","","","","","","1564.300000011921","","294.60000002384186","","0","1","arrowleft","0","arrowleft","[0.675,0.325,0.85,0.15]","","",""
"sailing-trial","158","1130732","0.0-11.0-107.0","","","","false","","","","","","","","","","null","","3999.199999988079","","0","1","null","null","arrowup","[0.675,0.325,0.85,0.15]","","",""
"sailing-trial","159","1137600","0.0-11.0-108.0","","","","false","","","","","","","","","","3711.100000023842","","377.69999998807907","","0","1","arrowleft","0","arrowleft","[0.675,0.325,0.85,0.15]","","",""
"sailing-trial","160","1141216","0.0-11.0-109.0","","","","false","","","","","","","","","","null","","1707.5","","2","1","null","null","arrowup","[0.675,0.325,0.85,0.15]","","",""
"sailing-trial","161","1148016","0.0-11.0-110.0","","","","false","","","","","","","","","","766.9000000357628","","2034.4000000357628","","0","0","arrowleft","0","arrowleft","[0.85,0.15,0.675,0.325]","","",""
"sailing-trial","162","1151117","0.0-11.0-111.0","","","","false","","","","","","","","","","null","","1312.0999999642372","","0","1","null","null","arrowup","[0.85,0.15,0.675,0.325]","","",""
"sailing-trial","163","1154966","0.0-11.0-112.0","","","","false","","","","","","","","","","829.3999999761581","","1.5","","0","1","arrowleft","0","arrowleft","[0.85,0.15,0.675,0.325]","","",""
"sailing-trial","164","1158016","0.0-11.0-113.0","","","","false","","","","","","","","","","null","","1004.5","","0","1","null","null","arrowup","[0.85,0.15,0.675,0.325]","","",""
"sailing-trial","165","1162066","0.0-11.0-114.0","","","","false","","","","","","","","","","1169.9000000357628","","50.10000002384186","","0","1","arrowleft","0","arrowleft","[0.85,0.15,0.675,0.325]","","",""
"sailing-trial","166","1165167","0.0-11.0-115.0","","","","false","","","","","","","","","","null","","1097.1000000238419","","1","1","null","null","arrowup","[0.85,0.15,0.675,0.325]","","",""
"sailing-trial","167","1171499","0.0-11.0-116.0","","","","false","","","","","","","","","","1289","","242.4000000357628","","0","1","arrowleft","0","arrowleft","[0.85,0.15,0.675,0.325]","","",""
"sailing-trial","168","1175685","0.0-11.0-117.0","","","","false","","","","","","","","","","null","","1184.9000000357628","","2","0","null","null","arrowup","[0.85,0.15,0.675,0.325]","","",""
"sailing-trial","169","1182267","0.0-11.0-118.0","","","","false","","","","","","","","","","1907.9000000357628","","613.5","","0","0","arrowleft","0","arrowleft","[0.85,0.15,0.675,0.325]","","",""
"sailing-trial","170","1186201","0.0-11.0-119.0","","","","false","","","","","","","","","","null","","1232.699999988079","","1","0","null","null","arrowup","[0.85,0.15,0.675,0.325]","","",""
"sailing-trial","171","1195017","0.0-11.0-120.0","","","","false","","","","","","","","","","5491.5","","81.59999996423721","","0","1","arrowleft","0","arrowleft","[0.85,0.15,0.675,0.325]","","",""
"sailing-trial","172","1199153","0.0-11.0-121.0","","","","false","","","","","","","","","","null","","1127.300000011921","","1","0","null","null","arrowup","[0.85,0.15,0.675,0.325]","","",""
"sailing-trial","173","1203751","0.0-11.0-122.0","","","","false","","","","","","","","","","1557.300000011921","","159.5","","0","1","arrowleft","0","arrowleft","[0.85,0.15,0.675,0.325]","","",""
"sailing-trial","174","1207753","0.0-11.0-123.0","","","","false","","","","","","","","","","null","","969","","1","0","null","null","arrowup","[0.85,0.15,0.675,0.325]","","",""
"sailing-trial","175","1212500","0.0-11.0-124.0","","","","false","","","","","","","","","","864.8000000119209","","761.3999999761581","","0","1","arrowleft","0","arrowleft","[0.85,0.15,0.675,0.325]","","",""
"sailing-trial","176","1216603","0.0-11.0-125.0","","","","false","","","","","","","","","","null","","1080.5","","0","0","null","null","arrowup","[0.85,0.15,0.675,0.325]","","",""
"sailing-trial","177","1222201","0.0-11.0-126.0","","","","false","","","","","","","","","","1521.4000000357628","","537.5","","0","1","arrowleft","0","arrowleft","[0.85,0.15,0.675,0.325]","","",""
"sailing-trial","178","1228651","0.0-11.0-127.0","","","","false","","","","","","","","","","null","","3456.7999999523163","","2","0","null","null","arrowup","[0.85,0.15,0.675,0.325]","","",""
"sailing-trial","179","1235802","0.0-11.0-128.0","","","","false","","","","","","","","","","2460.100000023842","","670.3000000119209","","0","0","arrowleft","0","arrowleft","[0.675,0.325,0.85,0.15]","","",""
"sailing-trial","180","1239883","0.0-11.0-129.0","","","","false","","","","","","","","","","null","","1078.0999999642372","","3","0","null","null","arrowup","[0.675,0.325,0.85,0.15]","","",""
"sailing-trial","181","1245602","0.0-11.0-130.0","","","","false","","","","","","","","","","1040.6000000238419","","666.0999999642372","","3","0","arrowright","1","arrowright","[0.675,0.325,0.85,0.15]","","",""
"sailing-trial","182","1249752","0.0-11.0-131.0","","","","false","","","","","","","","","","null","","1152.199999988079","","3","0","null","null","arrowup","[0.675,0.325,0.85,0.15]","","",""
"sailing-trial","183","1255284","0.0-11.0-132.0","","","","false","","","","","","","","","","1197.7999999523163","","335.4000000357628","","2","0","arrowright","1","arrowleft","[0.675,0.325,0.85,0.15]","","",""
"sailing-trial","184","1258382","0.0-11.0-133.0","","","","false","","","","","","","","","","null","","1189.300000011921","","2","1","null","null","arrowup","[0.675,0.325,0.85,0.15]","","",""
"sailing-trial","185","1264257","0.0-11.0-134.0","","","","false","","","","","","","","","","1343","","842.2000000476837","","3","0","arrowright","1","arrowright","[0.675,0.325,0.85,0.15]","","",""
"sailing-trial","186","1267700","0.0-11.0-135.0","","","","false","","","","","","","","","","null","","1156.7999999523163","","0","1","null","null","arrowup","[0.675,0.325,0.85,0.15]","","",""
"sailing-trial","187","1275166","0.0-11.0-136.0","","","","false","","","","","","","","","","951","","3346.399999976158","","2","1","arrowright","1","arrowleft","[0.675,0.325,0.85,0.15]","","",""
"sailing-trial","188","1279765","0.0-11.0-137.0","","","","false","","","","","","","","","","null","","1445.0999999642372","","0","1","null","null","arrowup","[0.675,0.325,0.85,0.15]","","",""
"sailing-trial","189","1284450","0.0-11.0-138.0","","","","false","","","","","","","","","","1748.6000000238419","","23.30000001192093","","0","1","arrowleft","0","arrowleft","[0.675,0.325,0.85,0.15]","","",""
"sailing-trial","190","1288485","0.0-11.0-139.0","","","","false","","","","","","","","","","null","","1023.9000000357628","","1","0","null","null","arrowup","[0.675,0.325,0.85,0.15]","","",""
"sailing-trial","191","1293949","0.0-11.0-140.0","","","","false","","","","","","","","","","784.7000000476837","","777.1999999880791","","0","1","arrowleft","0","arrowleft","[0.675,0.325,0.85,0.15]","","",""
"sailing-trial","192","1301215","0.0-11.0-141.0","","","","false","","","","","","","","","","null","","4380.100000023842","","2","1","null","null","arrowup","[0.675,0.325,0.85,0.15]","","",""
"sailing-trial","193","1306488","0.0-11.0-142.0","","","","false","","","","","","","","","","781.3000000119209","","491.19999998807907","","0","0","arrowleft","0","arrowleft","[0.675,0.325,0.85,0.15]","","",""
"sailing-trial","194","1309667","0.0-11.0-143.0","","","","false","","","","","","","","","","null","","1330.7000000476837","","0","1","null","null","arrowup","[0.675,0.325,0.85,0.15]","","",""
"sailing-trial","195","1316033","0.0-11.0-144.0","","","","false","","","","","","","","","","1484.7999999523163","","1924.699999988079","","0","1","arrowleft","0","arrowleft","[0.675,0.325,0.85,0.15]","","",""
"sailing-trial","196","1321451","0.0-11.0-145.0","","","","false","","","","","","","","","","null","","2420.800000011921","","3","0","null","null","arrowup","[0.675,0.325,0.85,0.15]","","",""
"sailing-trial","197","1325684","0.0-11.0-146.0","","","","false","","","","","","","","","","1107.5","","20.69999998807907","","0","1","arrowleft","0","arrowleft","[0.675,0.325,0.85,0.15]","","",""
"sailing-trial","198","1331299","0.0-11.0-147.0","","","","false","","","","","","","","","","null","","3395.599999964237","","0","1","null","null","arrowup","[0.675,0.325,0.85,0.15]","","",""
"sailing-trial","199","1340917","0.0-11.0-148.0","","","","false","","","","","","","","","","911.3000000119209","","4668.399999976158","","0","1","arrowleft","0","arrowleft","[0.85,0.15,0.675,0.325]","","",""
"sailing-trial","200","1345017","0.0-11.0-149.0","","","","false","","","","","","","","","","null","","1095.199999988079","","2","0","null","null","arrowup","[0.85,0.15,0.675,0.325]","","",""
"sailing-trial","201","1353000","0.0-11.0-150.0","","","","false","","","","","","","","","","1287.3999999761581","","3376.7000000476837","","0","1","arrowleft","0","arrowleft","[0.85,0.15,0.675,0.325]","","",""
"sailing-trial","202","1357069","0.0-11.0-151.0","","","","false","","","","","","","","","","null","","1057.4000000357628","","1","0","null","null","arrowup","[0.85,0.15,0.675,0.325]","","",""
"sailing-trial","203","1361982","0.0-11.0-152.0","","","","false","","","","","","","","","","1304.8999999761581","","451.10000002384186","","0","1","arrowleft","0","arrowleft","[0.85,0.15,0.675,0.325]","","",""
"sailing-trial","204","1366033","0.0-11.0-153.0","","","","false","","","","","","","","","","null","","1048.800000011921","","3","0","null","null","arrowup","[0.85,0.15,0.675,0.325]","","",""
"sailing-trial","205","1371244","0.0-11.0-154.0","","","","false","","","","","","","","","","805.1999999880791","","404.2000000476837","","1","0","arrowleft","0","arrowright","[0.85,0.15,0.675,0.325]","","",""
"sailing-trial","206","1374066","0.0-11.0-155.0","","","","false","","","","","","","","","","null","","1007.1000000238419","","2","1","null","null","arrowup","[0.85,0.15,0.675,0.325]","","",""
"sailing-trial","207","1378198","0.0-11.0-156.0","","","","false","","","","","","","","","","849.6999999880791","","498.69999998807907","","0","1","arrowleft","0","arrowleft","[0.85,0.15,0.675,0.325]","","",""
"sailing-trial","208","1381067","0.0-11.0-157.0","","","","false","","","","","","","","","","null","","1070","","2","1","null","null","arrowup","[0.85,0.15,0.675,0.325]","","",""
"sailing-trial","209","1385600","0.0-11.0-158.0","","","","false","","","","","","","","","","987.1000000238419","","679.8999999761581","","0","1","arrowleft","0","arrowleft","[0.85,0.15,0.675,0.325]","","",""
"sailing-trial","210","1391538","0.0-11.0-159.0","","","","false","","","","","","","","","","null","","977.3999999761581","","0","1","null","null","arrowup","[0.85,0.15,0.675,0.325]","","",""
"sailing-trial","211","1395566","0.0-11.0-160.0","","","","false","","","","","","","","","","657.3000000119209","","152","","0","1","arrowleft","0","arrowleft","[0.85,0.15,0.675,0.325]","","",""
"sailing-trial","212","1398767","0.0-11.0-161.0","","","","false","","","","","","","","","","null","","1030.800000011921","","3","1","null","null","arrowup","[0.85,0.15,0.675,0.325]","","",""
"sailing-trial","213","1402750","0.0-11.0-162.0","","","","false","","","","","","","","","","651.6999999880791","","92.40000003576279","","0","1","arrowleft","0","arrowleft","[0.85,0.15,0.675,0.325]","","",""
"sailing-trial","214","1405534","0.0-11.0-163.0","","","","false","","","","","","","","","","null","","975.0999999642372","","0","1","null","null","arrowup","[0.85,0.15,0.675,0.325]","","",""
"sailing-trial","215","1412267","0.0-11.0-164.0","","","","false","","","","","","","","","","2008.4000000357628","","723.5","","0","0","arrowleft","0","arrowleft","[0.325,0.675,0.15,0.85]","","",""
"sailing-trial","216","1415668","0.0-11.0-165.0","","","","false","","","","","","","","","","null","","1005.8000000119209","","3","1","null","null","arrowup","[0.325,0.675,0.15,0.85]","","",""
"sailing-trial","217","1420818","0.0-11.0-166.0","","","","false","","","","","","","","","","850.3999999761581","","295","","0","0","arrowleft","0","arrowleft","[0.325,0.675,0.15,0.85]","","",""
"sailing-trial","218","1424616","0.0-11.0-167.0","","","","false","","","","","","","","","","null","","1645.7000000476837","","0","1","null","null","arrowup","[0.325,0.675,0.15,0.85]","","",""
"sailing-trial","219","1429800","0.0-11.0-168.0","","","","false","","","","","","","","","","954.6999999880791","","202.0999999642372","","0","0","arrowleft","0","arrowleft","[0.325,0.675,0.15,0.85]","","",""
"sailing-trial","220","1433917","0.0-11.0-169.0","","","","false","","","","","","","","","","null","","1995.199999988079","","3","1","null","null","arrowup","[0.325,0.675,0.15,0.85]","","",""
"sailing-trial","221","1439001","0.0-11.0-170.0","","","","false","","","","","","","","","","900.6000000238419","","109.40000003576279","","2","0","arrowright","1","arrowleft","[0.325,0.675,0.15,0.85]","","",""
"sailing-trial","222","1441949","0.0-11.0-171.0","","","","false","","","","","","","","","","null","","922.3999999761581","","3","1","null","null","arrowup","[0.325,0.675,0.15,0.85]","","",""
"sailing-trial","223","1449002","0.0-11.0-172.0","","","","false","","","","","","","","","","740.8000000119209","","2304.399999976158","","3","0","arrowright","1","arrowright","[0.325,0.675,0.15,0.85]","","",""
"sailing-trial","224","1452133","0.0-11.0-173.0","","","","false","","","","","","","","","","null","","1145.7999999523163","","0","1","null","null","arrowup","[0.325,0.675,0.15,0.85]","","",""
"sailing-trial","225","1458800","0.0-11.0-174.0","","","","false","","","","","","","","","","775.4000000357628","","1872","","0","0","arrowleft","0","arrowleft","[0.325,0.675,0.15,0.85]","","",""
"sailing-trial","226","1461966","0.0-11.0-175.0","","","","false","","","","","","","","","","null","","1035.699999988079","","3","1","null","null","arrowup","[0.325,0.675,0.15,0.85]","","",""
"sailing-trial","227","1467449","0.0-11.0-176.0","","","","false","","","","","","","","","","895.8000000119209","","926.6999999880791","","0","1","arrowleft","0","arrowleft","[0.325,0.675,0.15,0.85]","","",""
"sailing-trial","228","1471502","0.0-11.0-177.0","","","","false","","","","","","","","","","null","","1047.8999999761581","","2","0","null","null","arrowup","[0.325,0.675,0.15,0.85]","","",""
"sailing-trial","229","1475266","0.0-11.0-178.0","","","","false","","","","","","","","","","479.69999998807907","","170.39999997615814","","0","1","arrowleft","0","arrowleft","[0.325,0.675,0.15,0.85]","","",""
"sailing-trial","230","1478350","0.0-11.0-179.0","","","","false","","","","","","","","","","null","","885.8000000119209","","3","1","null","null","arrowup","[0.325,0.675,0.15,0.85]","","",""
"sailing-trial","231","1483151","0.0-11.0-180.0","","","","false","","","","","","","","","","937.8000000119209","","834.1000000238419","","0","1","arrowleft","0","arrowleft","[0.85,0.15,0.675,0.325]","","",""
"sailing-trial","232","1487168","0.0-11.0-181.0","","","","false","","","","","","","","","","null","","1023.8000000119209","","3","0","null","null","arrowup","[0.85,0.15,0.675,0.325]","","",""
"sailing-trial","233","1490982","0.0-11.0-182.0","","","","false","","","","","","","","","","689","","288.80000001192093","","0","1","arrowleft","0","arrowleft","[0.85,0.15,0.675,0.325]","","",""
"sailing-trial","234","1494634","0.0-11.0-183.0","","","","false","","","","","","","","","","null","","1423.199999988079","","3","0","null","null","arrowup","[0.85,0.15,0.675,0.325]","","",""
"sailing-trial","235","1498599","0.0-11.0-184.0","","","","false","","","","","","","","","","760.7999999523163","","17","","0","1","arrowleft","0","arrowleft","[0.85,0.15,0.675,0.325]","","",""
"sailing-trial","236","1502000","0.0-11.0-185.0","","","","false","","","","","","","","","","null","","1117.2999999523163","","3","1","null","null","arrowup","[0.85,0.15,0.675,0.325]","","",""
"sailing-trial","237","1506367","0.0-11.0-186.0","","","","false","","","","","","","","","","1521.5999999642372","","11.600000023841858","","0","1","arrowleft","0","arrowleft","[0.85,0.15,0.675,0.325]","","",""
"sailing-trial","238","1511517","0.0-11.0-187.0","","","","false","","","","","","","","","","null","","1998.800000011921","","2","1","null","null","arrowup","[0.85,0.15,0.675,0.325]","","",""
"sailing-trial","239","1516684","0.0-11.0-188.0","","","","false","","","","","","","","","","1364.6000000238419","","595.5","","0","1","arrowleft","0","arrowleft","[0.85,0.15,0.675,0.325]","","",""
"sailing-trial","240","1521651","0.0-11.0-189.0","","","","false","","","","","","","","","","null","","1018.6000000238419","","1","1","null","null","arrowup","[0.85,0.15,0.675,0.325]","","",""
"sailing-trial","241","1527133","0.0-11.0-190.0","","","","false","","","","","","","","","","1042.199999988079","","326.0999999642372","","0","1","arrowleft","0","arrowleft","[0.85,0.15,0.675,0.325]","","",""
"sailing-trial","242","1531035","0.0-11.0-191.0","","","","false","","","","","","","","","","null","","905.1999999880791","","1","0","null","null","arrowup","[0.85,0.15,0.675,0.325]","","",""
"sailing-trial","243","1536719","0.0-11.0-192.0","","","","false","","","","","","","","","","665.8999999761581","","1024","","0","0","arrowleft","0","arrowleft","[0.85,0.15,0.675,0.325]","","",""
"sailing-trial","244","1540883","0.0-11.0-193.0","","","","false","","","","","","","","","","null","","979","","3","1","null","null","arrowup","[0.85,0.15,0.675,0.325]","","",""
"sailing-trial","245","1546301","0.0-11.0-194.0","","","","false","","","","","","","","","","865.3000000119209","","539.5","","0","0","arrowleft","0","arrowleft","[0.85,0.15,0.675,0.325]","","",""
"sailing-trial","246","1550336","0.0-11.0-195.0","","","","false","","","","","","","","","","null","","1028.5999999642372","","1","0","null","null","arrowup","[0.85,0.15,0.675,0.325]","","",""
"sailing-trial","247","1555718","0.0-11.0-196.0","","","","false","","","","","","","","","","2460.899999976158","","29.600000023841858","","1","1","arrowleft","0","arrowright","[0.85,0.15,0.675,0.325]","","",""
"sailing-trial","248","1559668","0.0-11.0-197.0","","","","false","","","","","","","","","","null","","943","","1","0","null","null","arrowup","[0.85,0.15,0.675,0.325]","","",""
"sailing-trial","249","1565069","0.0-11.0-198.0","","","","false","","","","","","","","","","1141","","272.80000001192093","","1","0","arrowleft","0","arrowright","[0.85,0.15,0.675,0.325]","","",""
"sailing-trial","250","1569118","0.0-11.0-199.0","","","","false","","","","","","","","","","null","","1056.7999999523163","","3","0","null","null","arrowup","[0.85,0.15,0.675,0.325]","","",""
"sailing-trial","251","1573919","0.0-11.0-200.0","","","","false","","","","","","","","","","653.1000000238419","","126.10000002384186","","3","0","arrowright","1","arrowright","[0.85,0.15,0.675,0.325]","","",""
"sailing-trial","252","1577951","0.0-11.0-201.0","","","","false","","","","","","","","","","null","","991.4000000357628","","1","0","null","null","arrowup","[0.85,0.15,0.675,0.325]","","",""
"sailing-trial","253","1582667","0.0-11.0-202.0","","","","false","","","","","","","","","","1149.300000011921","","140.9000000357628","","2","1","arrowright","1","arrowleft","[0.85,0.15,0.675,0.325]","","",""
"sailing-trial","254","1585617","0.0-11.0-203.0","","","","false","","","","","","","","","","null","","1032.5","","2","1","null","null","arrowup","[0.85,0.15,0.675,0.325]","","",""
"sailing-trial","255","1590432","0.0-11.0-204.0","","","","false","","","","","","","","","","1231.8999999761581","","478.89999997615814","","0","1","arrowleft","0","arrowleft","[0.675,0.325,0.85,0.15]","","",""
"sailing-trial","256","1595567","0.0-11.0-205.0","","","","false","","","","","","","","","","null","","2120.899999976158","","0","0","null","null","arrowup","[0.675,0.325,0.85,0.15]","","",""
"sailing-trial","257","1600283","0.0-11.0-206.0","","","","false","","","","","","","","","","688.8999999761581","","1155.699999988079","","0","1","arrowleft","0","arrowleft","[0.675,0.325,0.85,0.15]","","",""
"sailing-trial","258","1604202","0.0-11.0-207.0","","","","false","","","","","","","","","","null","","910.3000000119209","","3","0","null","null","arrowup","[0.675,0.325,0.85,0.15]","","",""
"sailing-trial","259","1609702","0.0-11.0-208.0","","","","false","","","","","","","","","","1174.5","","318","","0","0","arrowleft","0","arrowleft","[0.675,0.325,0.85,0.15]","","",""
"sailing-trial","260","1613368","0.0-11.0-209.0","","","","false","","","","","","","","","","null","","1560.2000000476837","","0","1","null","null","arrowup","[0.675,0.325,0.85,0.15]","","",""
"sailing-trial","261","1618119","0.0-11.0-210.0","","","","false","","","","","","","","","","724.5","","3.399999976158142","","0","0","arrowleft","0","arrowleft","[0.675,0.325,0.85,0.15]","","",""
"sailing-trial","262","1622051","0.0-11.0-211.0","","","","false","","","","","","","","","","null","","928","","1","0","null","null","arrowup","[0.675,0.325,0.85,0.15]","","",""
"sailing-trial","263","1627093","0.0-11.0-212.0","","","","false","","","","","","","","","","798.6000000238419","","241.30000001192093","","3","0","arrowright","1","arrowright","[0.675,0.325,0.85,0.15]","","",""
"sailing-trial","264","1631668","0.0-11.0-213.0","","","","false","","","","","","","","","","null","","1561","","3","0","null","null","arrowup","[0.675,0.325,0.85,0.15]","","",""
"sailing-trial","265","1637617","0.0-11.0-214.0","","","","false","","","","","","","","","","2031.1000000238419","","1075.300000011921","","0","1","arrowleft","0","arrowleft","[0.675,0.325,0.85,0.15]","","",""
"sailing-trial","266","1640868","0.0-11.0-215.0","","","","false","","","","","","","","","","null","","1041.6000000238419","","2","1","null","null","arrowup","[0.675,0.325,0.85,0.15]","","",""
"sailing-trial","267","1645501","0.0-11.0-216.0","","","","false","","","","","","","","","","639.8000000119209","","344.69999998807907","","0","1","arrowleft","0","arrowleft","[0.675,0.325,0.85,0.15]","","",""
"sailing-trial","268","1651982","0.0-11.0-217.0","","","","false","","","","","","","","","","null","","3434.800000011921","","3","0","null","null","arrowup","[0.675,0.325,0.85,0.15]","","",""
"sailing-trial","269","1656233","0.0-11.0-218.0","","","","false","","","","","","","","","","1345.4000000357628","","42","","0","1","arrowleft","0","arrowleft","[0.675,0.325,0.85,0.15]","","",""
"sailing-trial","270","1660151","0.0-11.0-219.0","","","","false","","","","","","","","","","null","","897.1999999880791","","3","0","null","null","arrowup","[0.675,0.325,0.85,0.15]","","",""
"sailing-trial","271","1664803","0.0-11.0-220.0","","","","false","","","","","","","","","","614.3000000119209","","6.300000011920929","","0","0","arrowleft","0","arrowleft","[0.85,0.15,0.675,0.325]","","",""
"sailing-trial","272","1667591","0.0-11.0-221.0","","","","false","","","","","","","","","","null","","814.0999999642372","","1","0","null","null","arrowup","[0.85,0.15,0.675,0.325]","","",""
"sailing-trial","273","1671184","0.0-11.0-222.0","","","","false","","","","","","","","","","685.2999999523163","","103","","2","1","arrowright","1","arrowleft","[0.85,0.15,0.675,0.325]","","",""
"sailing-trial","274","1673458","0.0-11.0-223.0","","","","false","","","","","","","","","","null","","906.3000000119209","","3","0","null","null","arrowup","[0.85,0.15,0.675,0.325]","","",""
"sailing-trial","275","1678186","0.0-11.0-224.0","","","","false","","","","","","","","","","653.3000000119209","","29.399999976158142","","1","0","arrowleft","0","arrowright","[0.85,0.15,0.675,0.325]","","",""
"sailing-trial","276","1681417","0.0-11.0-225.0","","","","false","","","","","","","","","","null","","971.8000000119209","","0","1","null","null","arrowup","[0.85,0.15,0.675,0.325]","","",""
"sailing-trial","277","1687650","0.0-11.0-226.0","","","","false","","","","","","","","","","1833.9000000357628","","1548.6000000238419","","0","1","arrowleft","0","arrowleft","[0.85,0.15,0.675,0.325]","","",""
"sailing-trial","278","1690194","0.0-11.0-227.0","","","","false","","","","","","","","","","null","","1039","","3","0","null","null","arrowup","[0.85,0.15,0.675,0.325]","","",""
"sailing-trial","279","1695651","0.0-11.0-228.0","","","","false","","","","","","","","","","800.1999999880791","","1200.6000000238419","","0","1","arrowleft","0","arrowleft","[0.85,0.15,0.675,0.325]","","",""
"sailing-trial","280","1699802","0.0-11.0-229.0","","","","false","","","","","","","","","","null","","1132.8999999761581","","1","0","null","null","arrowup","[0.85,0.15,0.675,0.325]","","",""
"sailing-trial","281","1704799","0.0-11.0-230.0","","","","false","","","","","","","","","","1977.1000000238419","","210.70000004768372","","0","1","arrowleft","0","arrowleft","[0.85,0.15,0.675,0.325]","","",""
"sailing-trial","282","1708101","0.0-11.0-231.0","","","","false","","","","","","","","","","null","","1166.5999999642372","","2","1","null","null","arrowup","[0.85,0.15,0.675,0.325]","","",""
"sailing-trial","283","1712532","0.0-11.0-232.0","","","","false","","","","","","","","","","832","","262","","0","1","arrowleft","0","arrowleft","[0.85,0.15,0.675,0.325]","","",""
"sailing-trial","284","1715799","0.0-11.0-233.0","","","","false","","","","","","","","","","null","","1230.8999999761581","","0","1","null","null","arrowup","[0.85,0.15,0.675,0.325]","","",""
"sailing-trial","285","1719917","0.0-11.0-234.0","","","","false","","","","","","","","","","844.3000000119209","","413.4000000357628","","0","1","arrowleft","0","arrowleft","[0.85,0.15,0.675,0.325]","","",""
"sailing-trial","286","1723951","0.0-11.0-235.0","","","","false","","","","","","","","","","null","","1033.1000000238419","","2","0","null","null","arrowup","[0.85,0.15,0.675,0.325]","","",""
"sailing-trial","287","1728918","0.0-11.0-236.0","","","","false","","","","","","","","","","839.5","","121.30000001192093","","0","0","arrowleft","0","arrowleft","[0.15,0.85,0.325,0.675]","","",""
"sailing-trial","288","1735233","0.0-11.0-237.0","","","","false","","","","","","","","","","null","","3314.600000023842","","0","0","null","null","arrowup","[0.15,0.85,0.325,0.675]","","",""
"sailing-trial","289","1741350","0.0-11.0-238.0","","","","false","","","","","","","","","","1921.2000000476837","","202","","0","0","arrowleft","0","arrowleft","[0.15,0.85,0.325,0.675]","","",""
"sailing-trial","290","1745417","0.0-11.0-239.0","","","","false","","","","","","","","","","null","","1054.2000000476837","","2","0","null","null","arrowup","[0.15,0.85,0.325,0.675]","","",""
"sailing-trial","291","1750785","0.0-11.0-240.0","","","","false","","","","","","","","","","614.1999999880791","","701.1000000238419","","3","0","arrowright","1","arrowright","[0.15,0.85,0.325,0.675]","","",""
"sailing-trial","292","1754132","0.0-11.0-241.0","","","","false","","","","","","","","","","null","","1209.300000011921","","2","1","null","null","arrowup","[0.15,0.85,0.325,0.675]","","",""
"sailing-trial","293","1759616","0.0-11.0-242.0","","","","false","","","","","","","","","","2225.099999964237","","188.0999999642372","","2","1","arrowright","1","arrowleft","[0.15,0.85,0.325,0.675]","","",""
"sailing-trial","294","1762783","0.0-11.0-243.0","","","","false","","","","","","","","","","null","","1076","","2","1","null","null","arrowup","[0.15,0.85,0.325,0.675]","","",""
"sailing-trial","295","1768685","0.0-11.0-244.0","","","","false","","","","","","","","","","1036.9000000357628","","861.8000000119209","","0","0","arrowleft","0","arrowleft","[0.15,0.85,0.325,0.675]","","",""
"sailing-trial","296","1772816","0.0-11.0-245.0","","","","false","","","","","","","","","","null","","2058","","1","1","null","null","arrowup","[0.15,0.85,0.325,0.675]","","",""
"sailing-trial","297","1778834","0.0-11.0-246.0","","","","false","","","","","","","","","","711.1000000238419","","1272.5","","2","0","arrowright","1","arrowleft","[0.15,0.85,0.325,0.675]","","",""
"sailing-trial","298","1782883","0.0-11.0-247.0","","","","false","","","","","","","","","","null","","1053.2000000476837","","3","0","null","null","arrowup","[0.15,0.85,0.325,0.675]","","",""
"sailing-trial","299","1788151","0.0-11.0-248.0","","","","false","","","","","","","","","","852","","405.5","","0","0","arrowleft","0","arrowleft","[0.15,0.85,0.325,0.675]","","",""
"sailing-trial","300","1792633","0.0-11.0-249.0","","","","false","","","","","","","","","","null","","2315.5","","2","1","null","null","arrowup","[0.15,0.85,0.325,0.675]","","",""
"sailing-trial","301","1797649","0.0-11.0-250.0","","","","false","","","","","","","","","","793.8999999761581","","228.5","","0","0","arrowleft","0","arrowleft","[0.15,0.85,0.325,0.675]","","",""
"sailing-trial","302","1800566","0.0-11.0-251.0","","","","false","","","","","","","","","","null","","1039.7000000476837","","0","0","null","null","arrowup","[0.15,0.85,0.325,0.675]","","",""
"sailing-trial","303","1805218","0.0-11.0-252.0","","","","false","","","","","","","","","","614.1999999880791","","15.200000047683716","","1","0","arrowleft","0","arrowright","[0.15,0.85,0.325,0.675]","","",""
"sailing-trial","304","1808033","0.0-11.0-253.0","","","","false","","","","","","","","","","null","","992.6999999880791","","3","1","null","null","arrowup","[0.15,0.85,0.325,0.675]","","",""
"sailing-trial","305","1812333","0.0-11.0-254.0","","","","false","","","","","","","","","","1269.699999988079","","38.799999952316284","","2","1","arrowright","1","arrowleft","[0.15,0.85,0.325,0.675]","","",""
"sailing-trial","306","1815649","0.0-11.0-255.0","","","","false","","","","","","","","","","null","","1073.199999988079","","1","1","null","null","arrowup","[0.15,0.85,0.325,0.675]","","",""
"sailing-trial","307","1820552","0.0-11.0-256.0","","","","false","","","","","","","","","","639.1999999880791","","266.5","","0","0","arrowleft","0","arrowleft","[0.675,0.325,0.85,0.15]","","",""
"sailing-trial","308","1825766","0.0-11.0-257.0","","","","false","","","","","","","","","","null","","3174.300000011921","","0","1","null","null","arrowup","[0.675,0.325,0.85,0.15]","","",""
"sailing-trial","309","1831798","0.0-11.0-258.0","","","","false","","","","","","","","","","1478.3999999761581","","518.5999999642372","","0","0","arrowleft","0","arrowleft","[0.675,0.325,0.85,0.15]","","",""
"sailing-trial","310","1835495","0.0-11.0-259.0","","","","false","","","","","","","","","","null","","893.3000000119209","","0","0","null","null","arrowup","[0.675,0.325,0.85,0.15]","","",""
"sailing-trial","311","1840316","0.0-11.0-260.0","","","","false","","","","","","","","","","678.8000000119209","","1170.9000000357628","","2","1","arrowright","1","arrowleft","[0.675,0.325,0.85,0.15]","","",""
"sailing-trial","312","1844234","0.0-11.0-261.0","","","","false","","","","","","","","","","null","","905.6000000238419","","1","0","null","null","arrowup","[0.675,0.325,0.85,0.15]","","",""
"sailing-trial","313","1848532","0.0-11.0-262.0","","","","false","","","","","","","","","","1090.699999988079","","209.39999997615814","","2","1","arrowright","1","arrowleft","[0.675,0.325,0.85,0.15]","","",""
"sailing-trial","314","1852468","0.0-11.0-263.0","","","","false","","","","","","","","","","null","","937","","1","0","null","null","arrowup","[0.675,0.325,0.85,0.15]","","",""
"sailing-trial","315","1857684","0.0-11.0-264.0","","","","false","","","","","","","","","","1346","","775.8000000119209","","1","1","arrowleft","0","arrowright","[0.675,0.325,0.85,0.15]","","",""
"sailing-trial","316","1861950","0.0-11.0-265.0","","","","false","","","","","","","","","","null","","1081","","2","1","null","null","arrowup","[0.675,0.325,0.85,0.15]","","",""
"sailing-trial","317","1867202","0.0-11.0-266.0","","","","false","","","","","","","","","","1030.699999988079","","185.39999997615814","","1","0","arrowleft","0","arrowright","[0.675,0.325,0.85,0.15]","","",""
"sailing-trial","318","1872318","0.0-11.0-267.0","","","","false","","","","","","","","","","null","","2112.699999988079","","0","0","null","null","arrowup","[0.675,0.325,0.85,0.15]","","",""
"sailing-trial","319","1876800","0.0-11.0-268.0","","","","false","","","","","","","","","","1668.699999988079","","97.89999997615814","","0","1","arrowleft","0","arrowleft","[0.675,0.325,0.85,0.15]","","",""
"sailing-trial","320","1883067","0.0-11.0-269.0","","","","false","","","","","","","","","","null","","1114.5","","2","1","null","null","arrowup","[0.675,0.325,0.85,0.15]","","",""
"sailing-trial","321","1888484","0.0-11.0-270.0","","","","false","","","","","","","","","","1795","","403.60000002384186","","0","1","arrowleft","0","arrowleft","[0.675,0.325,0.85,0.15]","","",""
"sailing-trial","322","1891967","0.0-11.0-271.0","","","","false","","","","","","","","","","null","","1057.800000011921","","3","1","null","null","arrowup","[0.675,0.325,0.85,0.15]","","",""
"sailing-trial","323","1896949","0.0-11.0-272.0","","","","false","","","","","","","","","","610.3999999761581","","794.1999999880791","","0","1","arrowleft","0","arrowleft","[0.325,0.675,0.15,0.85]","","",""
"sailing-trial","324","1899967","0.0-11.0-273.0","","","","false","","","","","","","","","","null","","945.6000000238419","","1","1","null","null","arrowup","[0.325,0.675,0.15,0.85]","","",""
"sailing-trial","325","1904817","0.0-11.0-274.0","","","","false","","","","","","","","","","598.3000000119209","","252.39999997615814","","0","0","arrowleft","0","arrowleft","[0.325,0.675,0.15,0.85]","","",""
"sailing-trial","326","1908316","0.0-11.0-275.0","","","","false","","","","","","","","","","null","","1391.5999999642372","","2","1","null","null","arrowup","[0.325,0.675,0.15,0.85]","","",""
"sailing-trial","327","1912983","0.0-11.0-276.0","","","","false","","","","","","","","","","623.6000000238419","","1","","2","0","arrowright","1","arrowleft","[0.325,0.675,0.15,0.85]","","",""
"sailing-trial","328","1915850","0.0-11.0-277.0","","","","false","","","","","","","","","","null","","1068.800000011921","","0","1","null","null","arrowup","[0.325,0.675,0.15,0.85]","","",""
"sailing-trial","329","1920669","0.0-11.0-278.0","","","","false","","","","","","","","","","548.8999999761581","","270.69999998807907","","2","0","arrowright","1","arrowleft","[0.325,0.675,0.15,0.85]","","",""
"sailing-trial","330","1924217","0.0-11.0-279.0","","","","false","","","","","","","","","","null","","1402.699999988079","","3","1","null","null","arrowup","[0.325,0.675,0.15,0.85]","","",""
"sailing-trial","331","1929135","0.0-11.0-280.0","","","","false","","","","","","","","","","704.6999999880791","","210.0999999642372","","0","0","arrowleft","0","arrowleft","[0.325,0.675,0.15,0.85]","","",""
"sailing-trial","332","1933316","0.0-11.0-281.0","","","","false","","","","","","","","","","null","","2017","","3","1","null","null","arrowup","[0.325,0.675,0.15,0.85]","","",""
"sailing-trial","333","1937950","0.0-11.0-282.0","","","","false","","","","","","","","","","1714.5","","104.90000003576279","","0","1","arrowleft","0","arrowleft","[0.325,0.675,0.15,0.85]","","",""
"sailing-trial","334","1942453","0.0-11.0-283.0","","","","false","","","","","","","","","","null","","1507.5","","0","0","null","null","arrowup","[0.325,0.675,0.15,0.85]","","",""
"sailing-trial","335","1947452","0.0-11.0-284.0","","","","false","","","","","","","","","","951.5","","36.10000002384186","","0","0","arrowleft","0","arrowleft","[0.325,0.675,0.15,0.85]","","",""
"sailing-trial","336","1951468","0.0-11.0-285.0","","","","false","","","","","","","","","","null","","1007.7999999523163","","2","0","null","null","arrowup","[0.325,0.675,0.15,0.85]","","",""
"sailing-trial","337","1957735","0.0-11.0-286.0","","","","false","","","","","","","","","","1020.3000000119209","","1251.5999999642372","","0","0","arrowleft","0","arrowleft","[0.325,0.675,0.15,0.85]","","",""
"sailing-trial","338","1961636","0.0-11.0-287.0","","","","false","","","","","","","","","","null","","901.1999999880791","","2","0","null","null","arrowup","[0.325,0.675,0.15,0.85]","","",""
"sailing-trial","339","1966551","0.0-11.0-288.0","","","","false","","","","","","","","","","1825.6000000238419","","187.79999995231628","","3","1","arrowright","1","arrowright","[0.325,0.675,0.15,0.85]","","",""
"sailing-trial","340","1971669","0.0-11.0-289.0","","","","false","","","","","","","","","","null","","2112.2000000476837","","0","0","null","null","arrowup","[0.325,0.675,0.15,0.85]","","",""
"sailing-trial","341","1976017","0.0-11.0-290.0","","","","false","","","","","","","","","","959.5999999642372","","255","","3","1","arrowright","1","arrowright","[0.325,0.675,0.15,0.85]","","",""
"sailing-trial","342","1979796","0.0-11.0-291.0","","","","false","","","","","","","","","","null","","1697.4000000357628","","0","0","null","null","arrowup","[0.325,0.675,0.15,0.85]","","",""
"sailing-trial","343","1983951","0.0-11.0-292.0","","","","false","","","","","","","","","","853.1000000238419","","436.60000002384186","","3","1","arrowright","1","arrowright","[0.325,0.675,0.15,0.85]","","",""
"sailing-trial","344","1988818","0.0-11.0-293.0","","","","false","","","","","","","","","","null","","1593","","3","1","null","null","arrowup","[0.325,0.675,0.15,0.85]","","",""
"sailing-trial","345","1993718","0.0-11.0-294.0","","","","false","","","","","","","","","","1422","","227.60000002384186","","2","1","arrowright","1","arrowleft","[0.15,0.85,0.325,0.675]","","",""
"sailing-trial","346","1998067","0.0-11.0-295.0","","","","false","","","","","","","","","","null","","2155.800000011921","","1","1","null","null","arrowup","[0.15,0.85,0.325,0.675]","","",""
"sailing-trial","347","2003017","0.0-11.0-296.0","","","","false","","","","","","","","","","901.3000000119209","","34.69999998807907","","3","0","arrowright","1","arrowright","[0.15,0.85,0.325,0.675]","","",""
"sailing-trial","348","2006298","0.0-11.0-297.0","","","","false","","","","","","","","","","null","","1219.199999988079","","1","1","null","null","arrowup","[0.15,0.85,0.325,0.675]","","",""
"sailing-trial","349","2011669","0.0-11.0-298.0","","","","false","","","","","","","","","","1100.199999988079","","248","","0","0","arrowleft","0","arrowleft","[0.15,0.85,0.325,0.675]","","",""
"sailing-trial","350","2014734","0.0-11.0-299.0","","","","false","","","","","","","","","","null","","975.8999999761581","","2","1","null","null","arrowup","[0.15,0.85,0.325,0.675]","","",""
"sailing-trial","351","2019033","0.0-11.0-300.0","","","","false","","","","","","","","","","992.8000000119209","","484.30000001192093","","0","1","arrowleft","0","arrowleft","[0.15,0.85,0.325,0.675]","","",""
"sailing-trial","352","2023052","0.0-11.0-301.0","","","","false","","","","","","","","","","null","","1019.3999999761581","","0","0","null","null","arrowup","[0.15,0.85,0.325,0.675]","","",""
"sailing-trial","353","2029886","0.0-11.0-302.0","","","","false","","","","","","","","","","1917.7000000476837","","901.3999999761581","","0","0","arrowleft","0","arrowleft","[0.15,0.85,0.325,0.675]","","",""
"sailing-trial","354","2035701","0.0-11.0-303.0","","","","false","","","","","","","","","","null","","2813.2999999523163","","0","0","null","null","arrowup","[0.15,0.85,0.325,0.675]","","",""
"sailing-trial","355","2041219","0.0-11.0-304.0","","","","false","","","","","","","","","","629.6000000238419","","893","","2","0","arrowright","1","arrowleft","[0.15,0.85,0.325,0.675]","","",""
"sailing-trial","356","2045268","0.0-11.0-305.0","","","","false","","","","","","","","","","null","","1056.300000011921","","0","0","null","null","arrowup","[0.15,0.85,0.325,0.675]","","",""
"sailing-trial","357","2050201","0.0-11.0-306.0","","","","false","","","","","","","","","","822.1000000238419","","106.5","","0","0","arrowleft","0","arrowleft","[0.15,0.85,0.325,0.675]","","",""
"sailing-trial","358","2053433","0.0-11.0-307.0","","","","false","","","","","","","","","","null","","1223","","1","1","null","null","arrowup","[0.15,0.85,0.325,0.675]","","",""
"sailing-trial","359","2058636","0.0-11.0-308.0","","","","false","","","","","","","","","","633.3000000119209","","550.0999999642372","","2","0","arrowright","1","arrowleft","[0.15,0.85,0.325,0.675]","","",""
"sailing-trial","360","2062784","0.0-11.0-309.0","","","","false","","","","","","","","","","null","","1127","","2","0","null","null","arrowup","[0.15,0.85,0.325,0.675]","","",""
"sailing-trial","361","2069536","0.0-11.0-310.0","","","","false","","","","","","","","","","1834.6000000238419","","898","","2","0","arrowright","1","arrowleft","[0.15,0.85,0.325,0.675]","","",""
"sailing-trial","362","2072750","0.0-11.0-311.0","","","","false","","","","","","","","","","null","","984.5","","2","1","null","null","arrowup","[0.15,0.85,0.325,0.675]","","",""
"sailing-trial","363","2076617","0.0-11.0-312.0","","","","false","","","","","","","","","","724.6999999880791","","332.89999997615814","","0","1","arrowleft","0","arrowleft","[0.85,0.15,0.675,0.325]","","",""
"sailing-trial","364","2079867","0.0-11.0-313.0","","","","false","","","","","","","","","","null","","1152.800000011921","","0","1","null","null","arrowup","[0.85,0.15,0.675,0.325]","","",""
"sailing-trial","365","2083999","0.0-11.0-314.0","","","","false","","","","","","","","","","970.8999999761581","","320.39999997615814","","0","1","arrowleft","0","arrowleft","[0.85,0.15,0.675,0.325]","","",""
"sailing-trial","366","2087133","0.0-11.0-315.0","","","","false","","","","","","","","","","null","","921.2999999523163","","2","1","null","null","arrowup","[0.85,0.15,0.675,0.325]","","",""
"sailing-trial","367","2093166","0.0-11.0-316.0","","","","false","","","","","","","","","","768.5","","299.10000002384186","","0","1","arrowleft","0","arrowleft","[0.85,0.15,0.675,0.325]","","",""
"sailing-trial","368","2097284","0.0-11.0-317.0","","","","false","","","","","","","","","","null","","1123.199999988079","","0","0","null","null","arrowup","[0.85,0.15,0.675,0.325]","","",""
"sailing-trial","369","2102169","0.0-11.0-318.0","","","","false","","","","","","","","","","714.3999999761581","","140.79999995231628","","0","0","arrowleft","0","arrowleft","[0.85,0.15,0.675,0.325]","","",""
"sailing-trial","370","2106102","0.0-11.0-319.0","","","","false","","","","","","","","","","null","","891.5","","3","0","null","null","arrowup","[0.85,0.15,0.675,0.325]","","",""
"sailing-trial","371","2111983","0.0-11.0-320.0","","","","false","","","","","","","","","","1584.199999988079","","297","","2","0","arrowright","1","arrowleft","[0.85,0.15,0.675,0.325]","","",""
"sailing-trial","372","2115903","0.0-11.0-321.0","","","","false","","","","","","","","","","null","","900.3000000119209","","3","0","null","null","arrowup","[0.85,0.15,0.675,0.325]","","",""
"sailing-trial","373","2120884","0.0-11.0-322.0","","","","false","","","","","","","","","","931","","1157.7999999523163","","3","1","arrowright","1","arrowright","[0.85,0.15,0.675,0.325]","","",""
"sailing-trial","374","2124769","0.0-11.0-323.0","","","","false","","","","","","","","","","null","","879.1000000238419","","3","0","null","null","arrowup","[0.85,0.15,0.675,0.325]","","",""
"sailing-trial","375","2130065","0.0-11.0-324.0","","","","false","","","","","","","","","","982.6000000238419","","925.1000000238419","","3","1","arrowright","1","arrowright","[0.85,0.15,0.675,0.325]","","",""
"sailing-trial","376","2134202","0.0-11.0-325.0","","","","false","","","","","","","","","","null","","1133.5999999642372","","1","0","null","null","arrowup","[0.85,0.15,0.675,0.325]","","",""
"sailing-trial","377","2139266","0.0-11.0-326.0","","","","false","","","","","","","","","","1602.800000011921","","595.6999999880791","","1","1","arrowleft","0","arrowright","[0.85,0.15,0.675,0.325]","","",""
"sailing-trial","378","2145217","0.0-11.0-327.0","","","","false","","","","","","","","","","null","","2948.900000035763","","2","0","null","null","arrowup","[0.85,0.15,0.675,0.325]","","",""
"sailing-trial","379","2150050","0.0-11.0-328.0","","","","false","","","","","","","","","","1610.5","","110.90000003576279","","0","1","arrowleft","0","arrowleft","[0.675,0.325,0.85,0.15]","","",""
"sailing-trial","380","2153935","0.0-11.0-329.0","","","","false","","","","","","","","","","null","","890.1000000238419","","3","0","null","null","arrowup","[0.675,0.325,0.85,0.15]","","",""
"sailing-trial","381","2159869","0.0-11.0-330.0","","","","false","","","","","","","","","","1190.7000000476837","","731.3000000119209","","0","0","arrowleft","0","arrowleft","[0.675,0.325,0.85,0.15]","","",""
"sailing-trial","382","2163818","0.0-11.0-331.0","","","","false","","","","","","","","","","null","","931.2999999523163","","3","0","null","null","arrowup","[0.675,0.325,0.85,0.15]","","",""
"sailing-trial","383","2169653","0.0-11.0-332.0","","","","false","","","","","","","","","","1730","","87.19999998807907","","1","0","arrowleft","0","arrowright","[0.675,0.325,0.85,0.15]","","",""
"sailing-trial","384","2173651","0.0-11.0-333.0","","","","false","","","","","","","","","","null","","999.8999999761581","","1","0","null","null","arrowup","[0.675,0.325,0.85,0.15]","","",""
"sailing-trial","385","2178252","0.0-11.0-334.0","","","","false","","","","","","","","","","559.0999999642372","","17.400000035762787","","2","0","arrowright","1","arrowleft","[0.675,0.325,0.85,0.15]","","",""
"sailing-trial","386","2181935","0.0-11.0-335.0","","","","false","","","","","","","","","","null","","686.3000000119209","","3","0","null","null","arrowup","[0.675,0.325,0.85,0.15]","","",""
"sailing-trial","387","2186619","0.0-11.0-336.0","","","","false","","","","","","","","","","639.5999999642372","","41.80000001192093","","3","0","arrowright","1","arrowright","[0.675,0.325,0.85,0.15]","","",""
"sailing-trial","388","2190125","0.0-11.0-337.0","","","","false","","","","","","","","","","null","","961.8000000119209","","0","0","null","null","arrowup","[0.675,0.325,0.85,0.15]","","",""
"sailing-trial","389","2195368","0.0-11.0-338.0","","","","false","","","","","","","","","","1232.1000000238419","","185.39999997615814","","1","1","arrowleft","0","arrowright","[0.675,0.325,0.85,0.15]","","",""
"sailing-trial","390","2198382","0.0-11.0-339.0","","","","false","","","","","","","","","","null","","980","","2","1","null","null","arrowup","[0.675,0.325,0.85,0.15]","","",""
"sailing-trial","391","2202316","0.0-11.0-340.0","","","","false","","","","","","","","","","831.3000000119209","","256","","0","1","arrowleft","0","arrowleft","[0.675,0.325,0.85,0.15]","","",""
"sailing-trial","392","2206448","0.0-11.0-341.0","","","","false","","","","","","","","","","null","","1121.1000000238419","","0","0","null","null","arrowup","[0.675,0.325,0.85,0.15]","","",""
"sailing-trial","393","2209966","0.0-11.0-342.0","","","","false","","","","","","","","","","556.8999999761581","","92.19999998807907","","0","1","arrowleft","0","arrowleft","[0.675,0.325,0.85,0.15]","","",""
"sailing-trial","394","2213918","0.0-11.0-343.0","","","","false","","","","","","","","","","null","","937.9000000357628","","1","0","null","null","arrowup","[0.675,0.325,0.85,0.15]","","",""
"sailing-trial","395","2219150","0.0-11.0-344.0","","","","false","","","","","","","","","","765.6999999880791","","442.19999998807907","","0","0","arrowleft","0","arrowleft","[0.85,0.15,0.675,0.325]","","",""
"sailing-trial","396","2223101","0.0-11.0-345.0","","","","false","","","","","","","","","","null","","944.2999999523163","","2","0","null","null","arrowup","[0.85,0.15,0.675,0.325]","","",""
"sailing-trial","397","2227865","0.0-11.0-346.0","","","","false","","","","","","","","","","694","","389.30000001192093","","3","0","arrowright","1","arrowright","[0.85,0.15,0.675,0.325]","","",""
"sailing-trial","398","2232567","0.0-11.0-347.0","","","","false","","","","","","","","","","null","","1702.6000000238419","","1","0","null","null","arrowup","[0.85,0.15,0.675,0.325]","","",""
"sailing-trial","399","2236762","0.0-11.0-348.0","","","","false","","","","","","","","","","745.4000000357628","","112.69999998807907","","2","0","arrowright","1","arrowleft","[0.85,0.15,0.675,0.325]","","",""
"sailing-trial","400","2239153","0.0-11.0-349.0","","","","false","","","","","","","","","","null","","826.8999999761581","","1","0","null","null","arrowup","[0.85,0.15,0.675,0.325]","","",""
"sailing-trial","401","2243042","0.0-11.0-350.0","","","","false","","","","","","","","","","627.5","","77.19999998807907","","1","0","arrowleft","0","arrowright","[0.85,0.15,0.675,0.325]","","",""
"sailing-trial","402","2245523","0.0-11.0-351.0","","","","false","","","","","","","","","","null","","1033.8999999761581","","3","0","null","null","arrowup","[0.85,0.15,0.675,0.325]","","",""
"sailing-trial","403","2249667","0.0-11.0-352.0","","","","false","","","","","","","","","","941.8999999761581","","210","","0","1","arrowleft","0","arrowleft","[0.85,0.15,0.675,0.325]","","",""
"sailing-trial","404","2253669","0.0-11.0-353.0","","","","false","","","","","","","","","","null","","977.5","","1","0","null","null","arrowup","[0.85,0.15,0.675,0.325]","","",""
"sailing-trial","405","2259282","0.0-11.0-354.0","","","","false","","","","","","","","","","887.8999999761581","","1028.4000000357628","","2","1","arrowright","1","arrowleft","[0.85,0.15,0.675,0.325]","","",""
"sailing-trial","406","2262915","0.0-11.0-355.0","","","","false","","","","","","","","","","null","","1448.2999999523163","","2","1","null","null","arrowup","[0.85,0.15,0.675,0.325]","","",""
"sailing-trial","407","2268133","0.0-11.0-356.0","","","","false","","","","","","","","","","791.1999999880791","","1396.0999999642372","","2","1","arrowright","1","arrowleft","[0.85,0.15,0.675,0.325]","","",""
"sailing-trial","408","2271851","0.0-11.0-357.0","","","","false","","","","","","","","","","null","","1616.199999988079","","3","1","null","null","arrowup","[0.85,0.15,0.675,0.325]","","",""
"sailing-trial","409","2276251","0.0-11.0-358.0","","","","false","","","","","","","","","","1122.0999999642372","","456.10000002384186","","0","1","arrowleft","0","arrowleft","[0.85,0.15,0.675,0.325]","","",""
"sailing-trial","410","2279568","0.0-11.0-359.0","","","","false","","","","","","","","","","null","","1281.800000011921","","0","1","null","null","arrowup","[0.85,0.15,0.675,0.325]","","",""
"sailing-trial","411","2283667","0.0-11.0-360.0","","","","false","","","","","","","","","","838.1000000238419","","299.5999999642372","","0","1","arrowleft","0","arrowleft","[0.85,0.15,0.675,0.325]","","",""
"sailing-trial","412","2287484","0.0-11.0-361.0","","","","false","","","","","","","","","","null","","1926.699999988079","","2","1","null","null","arrowup","[0.85,0.15,0.675,0.325]","","",""
"sailing-trial","413","2293285","0.0-11.0-362.0","","","","false","","","","","","","","","","814.8999999761581","","1826.6000000238419","","0","1","arrowleft","0","arrowleft","[0.85,0.15,0.675,0.325]","","",""
"sailing-trial","414","2296367","0.0-11.0-363.0","","","","false","","","","","","","","","","null","","931.5","","2","1","null","null","arrowup","[0.85,0.15,0.675,0.325]","","",""
"sailing-trial","415","2300435","0.0-11.0-364.0","","","","false","","","","","","","","","","835.5999999642372","","318.60000002384186","","2","1","arrowright","1","arrowleft","[0.675,0.325,0.85,0.15]","","",""
"sailing-trial","416","2304452","0.0-11.0-365.0","","","","false","","","","","","","","","","null","","1009.8000000119209","","3","0","null","null","arrowup","[0.675,0.325,0.85,0.15]","","",""
"sailing-trial","417","2309833","0.0-11.0-366.0","","","","false","","","","","","","","","","2120.199999988079","","474.9000000357628","","0","1","arrowleft","0","arrowleft","[0.675,0.325,0.85,0.15]","","",""
"sailing-trial","418","2313720","0.0-11.0-367.0","","","","false","","","","","","","","","","null","","869.3999999761581","","1","0","null","null","arrowup","[0.675,0.325,0.85,0.15]","","",""
"sailing-trial","419","2318450","0.0-11.0-368.0","","","","false","","","","","","","","","","1019.2000000476837","","885.1999999880791","","2","1","arrowright","1","arrowleft","[0.675,0.325,0.85,0.15]","","",""
"sailing-trial","420","2321551","0.0-11.0-369.0","","","","false","","","","","","","","","","null","","994.3000000119209","","0","1","null","null","arrowup","[0.675,0.325,0.85,0.15]","","",""
"sailing-trial","421","2326901","0.0-11.0-370.0","","","","false","","","","","","","","","","957.6000000238419","","394.9000000357628","","0","0","arrowleft","0","arrowleft","[0.675,0.325,0.85,0.15]","","",""
"sailing-trial","422","2331201","0.0-11.0-371.0","","","","false","","","","","","","","","","null","","2195.800000011921","","0","1","null","null","arrowup","[0.675,0.325,0.85,0.15]","","",""
"sailing-trial","423","2335183","0.0-11.0-372.0","","","","false","","","","","","","","","","814","","361.5999999642372","","0","1","arrowleft","0","arrowleft","[0.675,0.325,0.85,0.15]","","",""
"sailing-trial","424","2339167","0.0-11.0-373.0","","","","false","","","","","","","","","","null","","943.1999999880791","","1","0","null","null","arrowup","[0.675,0.325,0.85,0.15]","","",""
"sailing-trial","425","2344135","0.0-11.0-374.0","","","","false","","","","","","","","","","872.8999999761581","","98.89999997615814","","0","0","arrowleft","0","arrowleft","[0.675,0.325,0.85,0.15]","","",""
"sailing-trial","426","2348303","0.0-11.0-375.0","","","","false","","","","","","","","","","null","","1171.2999999523163","","1","0","null","null","arrowup","[0.675,0.325,0.85,0.15]","","",""
"sailing-trial","427","2352567","0.0-11.0-376.0","","","","false","","","","","","","","","","1263.0999999642372","","195.69999998807907","","0","1","arrowleft","0","arrowleft","[0.675,0.325,0.85,0.15]","","",""
"sailing-trial","428","2356418","0.0-11.0-377.0","","","","false","","","","","","","","","","null","","960.9000000357628","","1","1","null","null","arrowup","[0.675,0.325,0.85,0.15]","","",""
"sailing-trial","429","2361285","0.0-11.0-378.0","","","","false","","","","","","","","","","832.7000000476837","","2","","0","0","arrowleft","0","arrowleft","[0.675,0.325,0.85,0.15]","","",""
"sailing-trial","430","2365635","0.0-11.0-379.0","","","","false","","","","","","","","","","null","","1352.300000011921","","1","0","null","null","arrowup","[0.675,0.325,0.85,0.15]","","",""
"sailing-trial","431","2370687","0.0-11.0-380.0","","","","false","","","","","","","","","","614","","355.5","","3","0","arrowright","1","arrowright","[0.675,0.325,0.85,0.15]","","",""
"sailing-trial","432","2373718","0.0-11.0-381.0","","","","false","","","","","","","","","","null","","1010.1999999880791","","2","1","null","null","arrowup","[0.675,0.325,0.85,0.15]","","",""
"sailing-trial","433","2377833","0.0-11.0-382.0","","","","false","","","","","","","","","","1010.6000000238419","","193.5999999642372","","2","1","arrowright","1","arrowleft","[0.675,0.325,0.85,0.15]","","",""
"sailing-trial","434","2382069","0.0-11.0-383.0","","","","false","","","","","","","","","","null","","1227.6000000238419","","3","0","null","null","arrowup","[0.675,0.325,0.85,0.15]","","",""
"sailing-trial","435","2386901","0.0-11.0-384.0","","","","false","","","","","","","","","","650.0999999642372","","185.19999998807907","","3","0","arrowright","1","arrowright","[0.85,0.15,0.675,0.325]","","",""
"sailing-trial","436","2390217","0.0-11.0-385.0","","","","false","","","","","","","","","","null","","1105.7999999523163","","2","1","null","null","arrowup","[0.85,0.15,0.675,0.325]","","",""
"sailing-trial","437","2395752","0.0-11.0-386.0","","","","false","","","","","","","","","","2582.2999999523163","","120","","0","1","arrowleft","0","arrowleft","[0.85,0.15,0.675,0.325]","","",""
"sailing-trial","438","2398488","0.0-11.0-387.0","","","","false","","","","","","","","","","null","","1046.1000000238419","","2","0","null","null","arrowup","[0.85,0.15,0.675,0.325]","","",""
"sailing-trial","439","2402801","0.0-11.0-388.0","","","","false","","","","","","","","","","731","","775.6999999880791","","0","1","arrowleft","0","arrowleft","[0.85,0.15,0.675,0.325]","","",""
"sailing-trial","440","2405217","0.0-11.0-389.0","","","","false","","","","","","","","","","null","","950.3999999761581","","1","0","null","null","arrowup","[0.85,0.15,0.675,0.325]","","",""
"sailing-trial","441","2410288","0.0-11.0-390.0","","","","false","","","","","","","","","","1035.8999999761581","","29.099999964237213","","0","0","arrowleft","0","arrowleft","[0.85,0.15,0.675,0.325]","","",""
"sailing-trial","442","2413250","0.0-11.0-391.0","","","","false","","","","","","","","","","null","","932.5","","0","1","null","null","arrowup","[0.85,0.15,0.675,0.325]","","",""
"sailing-trial","443","2419317","0.0-11.0-392.0","","","","false","","","","","","","","","","1608.5","","414.89999997615814","","3","0","arrowright","1","arrowright","[0.85,0.15,0.675,0.325]","","",""
"sailing-trial","444","2422299","0.0-11.0-393.0","","","","false","","","","","","","","","","null","","1185.4000000357628","","0","1","null","null","arrowup","[0.85,0.15,0.675,0.325]","","",""
"sailing-trial","445","2427167","0.0-11.0-394.0","","","","false","","","","","","","","","","920.7000000476837","","236.80000001192093","","0","1","arrowleft","0","arrowleft","[0.85,0.15,0.675,0.325]","","",""
"sailing-trial","446","2429601","0.0-11.0-395.0","","","","false","","","","","","","","","","null","","1132.800000011921","","2","0","null","null","arrowup","[0.85,0.15,0.675,0.325]","","",""
"sailing-trial","447","2433418","0.0-11.0-396.0","","","","false","","","","","","","","","","740.7000000476837","","184.89999997615814","","0","1","arrowleft","0","arrowleft","[0.85,0.15,0.675,0.325]","","",""
"sailing-trial","448","2435736","0.0-11.0-397.0","","","","false","","","","","","","","","","null","","1031.800000011921","","1","0","null","null","arrowup","[0.85,0.15,0.675,0.325]","","",""
"sailing-trial","449","2439451","0.0-11.0-398.0","","","","false","","","","","","","","","","625.5","","117.80000001192093","","0","1","arrowleft","0","arrowleft","[0.85,0.15,0.675,0.325]","","",""
"sailing-trial","450","2442700","0.0-11.0-399.0","","","","false","","","","","","","","","","null","","1054.5","","0","1","null","null","arrowup","[0.85,0.15,0.675,0.325]","","",""
"instructions","451","2446314","0.0-12.0","","","","","","","","","","3613.400000035763","","","","","","","","","","","","","","","","[{""page_index"":0,""viewing_time"":3612.100000023842}]"
"survey-debrief","452","2497538","0.0-13.0","","","","","","","","","","51222","","","","","","","","","","","","","","{""difficulty"":""3"",""fun"":""2"",""clarity"":""5"",""strategy"":""I was trying to remember the pattern."",""feedback"":""no""}","",""
