"trial_type","trial_index","time_elapsed","internal_node_id","value","metadata","success","timeout","failed_images","failed_audio","failed_video","browser_interaction","low_quality","rt","stimulus","response","button_pressed","island_rt","island_response","boat_rt","boat_response","boat","reward","island_key","island","boat_key","reward_probabilities","responses","num_errors","view_history"
"pavlovia","0","7","0.0-0.0","","","","","","","","","","","","","","","","","","","","","","","","","",""
"call-function","1","7","0.0-1.0","","{""task_version"":""sailing_part1_v1"",""task_condition"":""good"",""boats"":[""B"",""C"",""D"",""A""],""boats_demo"":[""E"",""F"",""G"",""H""],""islands"":[""A"",""B""],""subject_id"":""13808"",""age"":""9"",""gender"":""Male""}","","","","","","","","","","","","","","","","","","","","","","","",""
"preload","2","4425","0.0-2.0","","","true","false","[]","[]","[]","[{""event"":""fullscreenenter"",""trial"":3,""time"":7510}]","false","","","","","","","","","","","","","","","","",""
"fullscreen","3","8474","0.0-3.0","","","true","","","","","","","","","","","","","","","","","","","","","","",""
"audio-keyboard-response","4","10392","0.0-4.0-0.0","","","","","","","","","","0","audio/beep_loop.wav"," ","","","","","","","","","","","","","",""
"audio-test","5","15961","0.0-4.0-1.0","","","","","","","","","","null","audio/turtle.mp3","","3","","","","","","","","","","","","",""
"audio-test","6","18159","0.0-4.0-2.0","","","","","","","","","","null","audio/shark.mp3","","2","","","","","","","","","","","","",""
"sailing-instructions","7","59403","0.0-5.0-0.0-0.0","","","","","","","","","","","","","","null","null","null","null","null","null","","","","","","",""
"sailing-trial","8","67158","0.0-5.0-0.0-1.0-0.0","","","","false","","","","","","","","","","6619","","null","","null","null","arrowleft","0","null","null","","",""
"sailing-trial","9","71417","0.0-5.0-0.0-1.0-1.0","","","","false","","","","","","","","","","3135","","null","","null","null","arrowright","1","null","null","","",""
"sailing-trial","10","77065","0.0-5.0-0.0-1.0-2.0","","","","false","","","","","","","","","","4525","","null","","null","null","arrowleft","0","null","null","","",""
"sailing-instructions","11","125227","0.0-5.0-0.0-2.0","","","","","","","","","","","","","","null","null","null","null","0","null","","","","","","",""
"sailing-trial","12","143046","0.0-5.0-0.0-3.0-0.0","","","","false","","","","","","","","","","null","","13720","","2","1","null","null","arrowleft","[1,1,1,1]","","",""
"sailing-trial","13","147725","0.0-5.0-0.0-3.0-1.0","","","","false","","","","","","","","","","null","","1491","","3","1","null","null","arrowright","[1,1,1,1]","","",""
"sailing-trial","14","153771","0.0-5.0-0.0-3.0-2.0","","","","false","","","","","","","","","","null","","2506","","3","0","null","null","arrowright","[0,0,0,0]","","",""
"sailing-instructions","15","162021","0.0-5.0-0.0-4.0","","","","","","","","","","","","","","null","null","null","null","null","null","","","","","","",""
"sailing-comprehension","16","225396","0.0-5.0-0.0-5.0","","","","","","","","","","44787","","","","","","","","","","","","","","[""true"",""false"",""false"",""true""]","1",""
"sailing-instructions","17","261504","0.0-5.0-0.1-0.1","","","","","","","","","","","","","","null","null","null","null","null","null","","","","","","",""
"sailing-trial","18","266144","0.0-5.0-0.1-1.1-0.1","","","","false","","","","","","","","","","3519","","null","","null","null","arrowleft","0","null","null","","",""
"sailing-trial","19","268248","0.0-5.0-0.1-1.1-1.1","","","","false","","","","","","","","","","974","","null","","null","null","arrowright","1","null","null","","",""
"sailing-trial","20","270153","0.0-5.0-0.1-1.1-2.1","","","","false","","","","","","","","","","788","","null","","null","null","arrowleft","0","null","null","","",""
"sailing-instructions","21","310106","0.0-5.0-0.1-2.1","","","","","","","","","","","","","","null","null","null","null","0","null","","","","","","",""
"sailing-trial","22","314809","0.0-5.0-0.1-3.1-0.1","","","","false","","","","","","","","","","null","","1415","","2","1","null","null","arrowleft","[1,1,1,1]","","",""
"sailing-trial","23","318501","0.0-5.0-0.1-3.1-1.1","","","","false","","","","","","","","","","null","","1072","","3","1","null","null","arrowright","[1,1,1,1]","","",""
"sailing-trial","24","322472","0.0-5.0-0.1-3.1-2.1","","","","false","","","","","","","","","","null","","1998.9999999999418","","2","0","null","null","arrowleft","[0,0,0,0]","","",""
"sailing-instructions","25","332201","0.0-5.0-0.1-4.1","","","","","","","","","","","","","","null","null","null","null","null","null","","","","","","",""
"sailing-comprehension","26","354492","0.0-5.0-0.1-5.1","","","","","","","","","","20388","","","","","","","","","","","","","","[""true"",""true"",""false"",""true""]","0",""
"sailing-instructions","27","427609","0.0-6.0-0.0-0.0","","","","","","","","","","","","","","null","null","null","null","null","null","","","","","","",""
"sailing-comprehension","28","487323","0.0-6.0-0.0-1.0","","","","","","","","","","50864.00000000006","","","","","","","","","","","","","","[""true"",""true"",""true""]","1",""
"sailing-instructions","29","550383","0.0-6.0-0.1-0.1","","","","","","","","","","","","","","null","null","null","null","null","null","","","","","","",""
"sailing-comprehension","30","563466","0.0-6.0-0.1-1.1","","","","","","","","","","11224","","","","","","","","","","","","","","[""true"",""false"",""true""]","0",""
"sailing-instructions","31","581768","0.0-7.0-0.0-0.0","","","","","","","","","","","","","","null","null","null","null","null","null","","","","","","",""
"sailing-trial","32","588519","0.0-7.0-0.0-1.0-0.0","","","","false","","","","","","","","","","null","","3720.0000000001164","","0","0","null","null","arrowup","[0.2,0.8,0.2,0.8]","","",""
"sailing-trial","33","595458","0.0-7.0-0.0-1.0-1.0","","","","false","","","","","","","","","","null","","3552","","1","1","null","null","arrowup","[0.2,0.8,0.2,0.8]","","",""
"sailing-trial","34","600018","0.0-7.0-0.0-1.0-2.0","","","","false","","","","","","","","","","null","","2052","","2","0","null","null","arrowup","[0.2,0.8,0.2,0.8]","","",""
"sailing-trial","35","605218","0.0-7.0-0.0-1.0-3.0","","","","false","","","","","","","","","","null","","1411","","3","1","null","null","arrowup","[0.2,0.8,0.2,0.8]","","",""
"sailing-comprehension","36","623022","0.0-7.0-0.0-2.0","","","","","","","","","","16084","","","","","","","","","","","","","","[""false""]","0",""
"sailing-instructions","37","634537","0.0-8.0-0.0-0.0","","","","","","","","","","","","","","null","null","null","null","null","null","","","","","","",""
"sailing-comprehension","38","647938","0.0-8.0-0.0-1.0","","","","","","","","","","11374","","","","","","","","","","","","","","[""false""]","1",""
"sailing-instructions","39","657825","0.0-8.0-0.1-0.1","","","","","","","","","","","","","","null","null","null","null","null","null","","","","","","",""
"sailing-comprehension","40","664279","0.0-8.0-0.1-1.1","","","","","","","","","","4877","","","","","","","","","","","","","","[""true""]","0",""
"sailing-instructions","41","703544","0.0-9.0-0.0-0.0","","","","","","","","","","","","","","null","null","null","null","null","null","","","","","","",""
"sailing-trial","42","710101","0.0-9.0-0.0-1.0-0.0","","","","false","","","","","","","","","","1773","","1517","","3","0","arrowright","1","arrowright","[0.2,0.8,0.2,0.8]","","",""
"sailing-trial","43","716824","0.0-9.0-0.0-1.0-1.0","","","","false","","","","","","","","","","1481","","1608","","0","0","arrowleft","0","arrowleft","[0.2,0.8,0.2,0.8]","","",""
"sailing-trial","44","721904","0.0-9.0-0.0-1.0-2.0","","","","false","","","","","","","","","","null","","3035","","0","0","null","null","arrowup","[0.2,0.8,0.2,0.8]","","",""
"sailing-trial","45","726986","0.0-9.0-0.0-1.0-3.0","","","","false","","","","","","","","","","1207","","650","","2","0","arrowright","1","arrowleft","[0.2,0.8,0.2,0.8]","","",""
"sailing-trial","46","731522","0.0-9.0-0.0-1.0-4.0","","","","false","","","","","","","","","","null","","2037","","3","1","null","null","arrowup","[0.2,0.8,0.2,0.8]","","",""
"sailing-trial","47","739594","0.0-9.0-0.0-1.0-5.0","","","","false","","","","","","","","","","1737.0000000001164","","1936","","1","1","arrowleft","0","arrowright","[0.2,0.8,0.2,0.8]","","",""
"sailing-instructions","48","770424","0.0-10.0","","","","","","","","","","","","","","null","null","null","null","null","null","","","","","","",""
"sailing-trial","49","777746","0.0-11.0-0.0","","","","false","","","","","","","","","","3220","","121","","0","1","arrowleft","0","arrowleft","[0.675,0.325,0.15,0.85]","","",""
"sailing-trial","50","782525","0.0-11.0-1.0","","","","false","","","","","","","","","","null","","2403","","3","1","null","null","arrowup","[0.675,0.325,0.15,0.85]","","",""
"sailing-trial","51","786813","0.0-11.0-2.0","","","","false","","","","","","","","","","1001","","233","","0","0","arrowleft","0","arrowleft","[0.675,0.325,0.15,0.85]","","",""
"sailing-trial","52","790910","0.0-11.0-3.0","","","","false","","","","","","","","","","null","","1911","","2","0","null","null","arrowup","[0.675,0.325,0.15,0.85]","","",""
"sailing-trial","53","795945","0.0-11.0-4.0","","","","false","","","","","","","","","","1134","","280","","2","1","arrowright","1","arrowleft","[0.675,0.325,0.15,0.85]","","",""
"sailing-trial","54","799556","0.0-11.0-5.0","","","","false","","","","","","","","","","null","","2112.0000000001164","","2","0","null","null","arrowup","[0.675,0.325,0.15,0.85]","","",""
"sailing-trial","55","804150","0.0-11.0-6.0","","","","false","","","","","","","","","","1510","","71","","0","1","arrowleft","0","arrowleft","[0.675,0.325,0.15,0.85]","","",""
"sailing-trial","56","807390","0.0-11.0-7.0","","","","false","","","","","","","","","","null","","1619","","2","0","null","null","arrowup","[0.675,0.325,0.15,0.85]","","",""
"sailing-trial","57","814344","0.0-11.0-8.0","","","","false","","","","","","","","","","925","","179","","3","1","arrowright","1","arrowright","[0.675,0.325,0.15,0.85]","","",""
"sailing-trial","58","817471","0.0-11.0-9.0","","","","false","","","","","","","","","","null","","1547","","0","0","null","null","arrowup","[0.675,0.325,0.15,0.85]","","",""
"sailing-trial","59","823551","0.0-11.0-10.0","","","","false","","","","","","","","","","906","","550","","3","1","arrowright","1","arrowright","[0.675,0.325,0.15,0.85]","","",""
"sailing-trial","60","826564","0.0-11.0-11.0","","","","false","","","","","","","","","","null","","1317.9999999998836","","2","0","null","null","arrowup","[0.675,0.325,0.15,0.85]","","",""
"sailing-trial","61","831471","0.0-11.0-12.0","","","","false","","","","","","","","","","773","","364","","3","0","arrowright","1","arrowright","[0.675,0.325,0.15,0.85]","","",""
"sailing-trial","62","835032","0.0-11.0-13.0","","","","false","","","","","","","","","","null","","1530","","3","1","null","null","arrowup","[0.675,0.325,0.15,0.85]","","",""
"sailing-trial","63","841483","0.0-11.0-14.0","","","","false","","","","","","","","","","1620","","890.0000000001164","","2","1","arrowright","1","arrowleft","[0.675,0.325,0.15,0.85]","","",""
"sailing-trial","64","844264","0.0-11.0-15.0","","","","false","","","","","","","","","","null","","1258","","0","0","null","null","arrowup","[0.675,0.325,0.15,0.85]","","",""
"sailing-trial","65","848870","0.0-11.0-16.0","","","","false","","","","","","","","","","1312","","286","","2","1","arrowright","1","arrowleft","[0.15,0.85,0.675,0.325]","","",""
"sailing-trial","66","853027","0.0-11.0-17.0","","","","false","","","","","","","","","","null","","1132","","0","0","null","null","arrowup","[0.15,0.85,0.675,0.325]","","",""
"sailing-trial","67","857639","0.0-11.0-18.0","","","","false","","","","","","","","","","1833.0000000001164","","282","","2","0","arrowright","1","arrowleft","[0.15,0.85,0.675,0.325]","","",""
"sailing-trial","68","861754","0.0-11.0-19.0","","","","false","","","","","","","","","","null","","1608","","2","1","null","null","arrowup","[0.15,0.85,0.675,0.325]","","",""
"sailing-trial","69","865499","0.0-11.0-20.0","","","","false","","","","","","","","","","734.9999999998836","","394","","3","0","arrowright","1","arrowright","[0.15,0.85,0.675,0.325]","","",""
"sailing-trial","70","869223","0.0-11.0-21.0","","","","false","","","","","","","","","","null","","1317","","1","1","null","null","arrowup","[0.15,0.85,0.675,0.325]","","",""
"sailing-trial","71","875223","0.0-11.0-22.0","","","","false","","","","","","","","","","2006","","636.0000000001164","","1","1","arrowleft","0","arrowright","[0.15,0.85,0.675,0.325]","","",""
"sailing-trial","72","878766","0.0-11.0-23.0","","","","false","","","","","","","","","","null","","1445.0000000001164","","1","1","null","null","arrowup","[0.15,0.85,0.675,0.325]","","",""
"sailing-trial","73","883596","0.0-11.0-24.0","","","","false","","","","","","","","","","988","","178","","1","1","arrowleft","0","arrowright","[0.15,0.85,0.675,0.325]","","",""
"sailing-trial","74","886804","0.0-11.0-25.0","","","","false","","","","","","","","","","null","","1253","","1","1","null","null","arrowup","[0.15,0.85,0.675,0.325]","","",""
"sailing-trial","75","891232","0.0-11.0-26.0","","","","false","","","","","","","","","","970","","30","","1","1","arrowleft","0","arrowright","[0.15,0.85,0.675,0.325]","","",""
"sailing-trial","76","894357","0.0-11.0-27.0","","","","false","","","","","","","","","","null","","1077","","2","1","null","null","arrowup","[0.15,0.85,0.675,0.325]","","",""
"sailing-trial","77","899104","0.0-11.0-28.0","","","","false","","","","","","","","","","978","","560","","2","1","arrowright","1","arrowleft","[0.15,0.85,0.675,0.325]","","",""
"sailing-trial","78","901921","0.0-11.0-29.0","","","","false","","","","","","","","","","null","","1217","","0","0","null","null","arrowup","[0.15,0.85,0.675,0.325]","","",""
"sailing-trial","79","906520","0.0-11.0-30.0","","","","false","","","","","","","","","","756","","1343","","0","0","arrowleft","0","arrowleft","[0.15,0.85,0.675,0.325]","","",""
"sailing-trial","80","909281","0.0-11.0-31.0","","","","false","","","","","","","","","","null","","1271","","3","0","null","null","arrowup","[0.15,0.85,0.675,0.325]","","",""
"sailing-trial","81","914377","0.0-11.0-32.0","","","","false","","","","","","","","","","1181","","161","","1","1","arrowleft","0","arrowright","[0.15,0.85,0.675,0.325]","","",""
"sailing-trial","82","917285","0.0-11.0-33.0","","","","false","","","","","","","","","","null","","992","","1","1","null","null","arrowup","[0.15,0.85,0.675,0.325]","","",""
"sailing-trial","83","922200","0.0-11.0-34.0","","","","false","","","","","","","","","","1547","","449.0000000001164","","1","0","arrowleft","0","arrowright","[0.325,0.675,0.85,0.15]","","",""
"sailing-trial","84","925324","0.0-11.0-35.0","","","","false","","","","","","","","","","null","","1183.9999999998836","","2","1","null","null","arrowup","[0.325,0.675,0.85,0.15]","","",""
"sailing-trial","85","929931","0.0-11.0-36.0","","","","false","","","","","","","","","","621","","1259","","2","0","arrowright","1","arrowleft","[0.325,0.675,0.85,0.15]","","",""
"sailing-trial","86","932224","0.0-11.0-37.0","","","","false","","","","","","","","","","null","","1114","","1","0","null","null","arrowup","[0.325,0.675,0.85,0.15]","","",""
"sailing-trial","87","938403","0.0-11.0-38.0","","","","false","","","","","","","","","","1802","","31","","3","0","arrowright","1","arrowright","[0.325,0.675,0.85,0.15]","","",""
"sailing-trial","88","942604","0.0-11.0-39.0","","","","false","","","","","","","","","","null","","1232.0000000001164","","0","1","null","null","arrowup","[0.325,0.675,0.85,0.15]","","",""
"sailing-trial","89","946847","0.0-11.0-40.0","","","","false","","","","","","","","","","957","","274","","3","1","arrowright","1","arrowright","[0.325,0.675,0.85,0.15]","","",""
"sailing-trial","90","951461","0.0-11.0-41.0","","","","false","","","","","","","","","","null","","1184.9999999998836","","2","1","null","null","arrowup","[0.325,0.675,0.85,0.15]","","",""
"sailing-trial","91","956719","0.0-11.0-42.0","","","","false","","","","","","","","","","234","","669","","3","0","arrowright","1","arrowright","[0.325,0.675,0.85,0.15]","","",""
"sailing-trial","92","960780","0.0-11.0-43.0","","","","false","","","","","","","","","","null","","1033","","0","0","null","null","arrowup","[0.325,0.675,0.85,0.15]","","",""
"sailing-trial","93","965315","0.0-11.0-44.0","","","","false","","","","","","","","","","505","","603.0000000001164","","0","1","arrowleft","0","arrowleft","[0.325,0.675,0.85,0.15]","","",""
"sailing-trial","94","968355","0.0-11.0-45.0","","","","false","","","","","","","","","","null","","899","","2","1","null","null","arrowup","[0.325,0.675,0.85,0.15]","","",""
"sailing-trial","95","973519","0.0-11.0-46.0","","","","false","","","","","","","","","","1212","","487.0000000001164","","0","1","arrowleft","0","arrowleft","[0.325,0.675,0.85,0.15]","","",""
"sailing-trial","96","976410","0.0-11.0-47.0","","","","false","","","","","","","","","","null","","1071","","1","1","null","null","arrowup","[0.325,0.675,0.85,0.15]","","",""
"sailing-trial","97","980297","0.0-11.0-48.0","","","","false","","","","","","","","","","612","","719","","0","0","arrowleft","0","arrowleft","[0.325,0.675,0.85,0.15]","","",""
"sailing-trial","98","982860","0.0-11.0-49.0","","","","false","","","","","","","","","","null","","1348","","1","0","null","null","arrowup","[0.325,0.675,0.85,0.15]","","",""
"sailing-trial","99","987123","0.0-11.0-50.0","","","","false","","","","","","","","","","1053.9999999998836","","200.99999999988358","","2","1","arrowright","1","arrowleft","[0.325,0.675,0.85,0.15]","","",""
"sailing-trial","100","989154","0.0-11.0-51.0","","","","false","","","","","","","","","","null","","742","","0","0","null","null","arrowup","[0.325,0.675,0.85,0.15]","","",""
"sailing-trial","101","993774","0.0-11.0-52.0","","","","false","","","","","","","","","","1079.9999999998836","","71","","2","1","arrowright","1","arrowleft","[0.15,0.85,0.675,0.325]","","",""
"sailing-trial","102","997014","0.0-11.0-53.0","","","","false","","","","","","","","","","null","","1029.9999999998836","","3","0","null","null","arrowup","[0.15,0.85,0.675,0.325]","","",""
"sailing-trial","103","1000659","0.0-11.0-54.0","","","","false","","","","","","","","","","486","","132","","2","1","arrowright","1","arrowleft","[0.15,0.85,0.675,0.325]","","",""
"sailing-trial","104","1003846","0.0-11.0-55.0","","","","false","","","","","","","","","","null","","1339","","0","0","null","null","arrowup","[0.15,0.85,0.675,0.325]","","",""
"sailing-trial","105","1007578","0.0-11.0-56.0","","","","false","","","","","","","","","","730.0000000001164","","119","","2","0","arrowright","1","arrowleft","[0.15,0.85,0.675,0.325]","","",""
"sailing-trial","106","1010449","0.0-11.0-57.0","","","","false","","","","","","","","","","null","","1148.0000000001164","","0","0","null","null","arrowup","[0.15,0.85,0.675,0.325]","","",""
"sailing-trial","107","1014763","0.0-11.0-58.0","","","","false","","","","","","","","","","963","","15","","1","1","arrowleft","0","arrowright","[0.15,0.85,0.675,0.325]","","",""
"sailing-trial","108","1018239","0.0-11.0-59.0","","","","false","","","","","","","","","","null","","1291","","1","1","null","null","arrowup","[0.15,0.85,0.675,0.325]","","",""
"sailing-trial","109","1021941","0.0-11.0-60.0","","","","false","","","","","","","","","","1006","","147","","1","0","arrowleft","0","arrowright","[0.15,0.85,0.675,0.325]","","",""
"sailing-trial","110","1024689","0.0-11.0-61.0","","","","false","","","","","","","","","","null","","1058.0000000001164","","1","1","null","null","arrowup","[0.15,0.85,0.675,0.325]","","",""
"sailing-trial","111","1029135","0.0-11.0-62.0","","","","false","","","","","","","","","","754.0000000002328","","310.9999999998836","","3","1","arrowright","1","arrowright","[0.15,0.85,0.675,0.325]","","",""
"sailing-trial","112","1034518","0.0-11.0-63.0","","","","false","","","","","","","","","","null","","3336.9999999998836","","0","0","null","null","arrowup","[0.15,0.85,0.675,0.325]","","",""
"sailing-trial","113","1043501","0.0-11.0-64.0","","","","false","","","","","","","","","","1761.9999999998836","","2872.999999999767","","3","0","arrowright","1","arrowright","[0.15,0.85,0.675,0.325]","","",""
"sailing-trial","114","1049673","0.0-11.0-65.0","","","","false","","","","","","","","","","null","","1553.9999999997672","","3","1","null","null","arrowup","[0.15,0.85,0.675,0.325]","","",""
"sailing-trial","115","1056106","0.0-11.0-66.0","","","","false","","","","","","","","","","1926","","139","","1","1","arrowleft","0","arrowright","[0.15,0.85,0.675,0.325]","","",""
"sailing-trial","116","1061873","0.0-11.0-67.0","","","","false","","","","","","","","","","null","","3430","","0","1","null","null","arrowup","[0.15,0.85,0.675,0.325]","","",""
"sailing-trial","117","1069510","0.0-11.0-68.0","","","","false","","","","","","","","","","812","","883","","0","1","arrowleft","0","arrowleft","[0.675,0.325,0.15,0.85]","","",""
"sailing-trial","118","1071851","0.0-11.0-69.0","","","","false","","","","","","","","","","null","","1062","","0","0","null","null","arrowup","[0.675,0.325,0.15,0.85]","","",""
"sailing-trial","119","1077180","0.0-11.0-70.0","","","","false","","","","","","","","","","1110","","571.9999999997672","","0","1","arrowleft","0","arrowleft","[0.675,0.325,0.15,0.85]","","",""
"sailing-trial","120","1083279","0.0-11.0-71.0","","","","false","","","","","","","","","","null","","3718","","0","0","null","null","arrowup","[0.675,0.325,0.15,0.85]","","",""
"sailing-trial","121","1092036","0.0-11.0-72.0","","","","false","","","","","","","","","","5141","","541","","0","1","arrowleft","0","arrowleft","[0.675,0.325,0.15,0.85]","","",""
"sailing-trial","122","1096146","0.0-11.0-73.0","","","","false","","","","","","","","","","null","","1931","","3","1","null","null","arrowup","[0.675,0.325,0.15,0.85]","","",""
"sailing-trial","123","1099941","0.0-11.0-74.0","","","","false","","","","","","","","","","608","","174","","3","1","arrowright","1","arrowright","[0.675,0.325,0.15,0.85]","","",""
"sailing-trial","124","1102732","0.0-11.0-75.0","","","","false","","","","","","","","","","null","","1070","","3","1","null","null","arrowup","[0.675,0.325,0.15,0.85]","","",""
"sailing-trial","125","1106525","0.0-11.0-76.0","","","","false","","","","","","","","","","386","","21","","3","1","arrowright","1","arrowright","[0.675,0.325,0.15,0.85]","","",""
"sailing-trial","126","1109189","0.0-11.0-77.0","","","","false","","","","","","","","","","null","","1120","","2","0","null","null","arrowup","[0.675,0.325,0.15,0.85]","","",""
"sailing-trial","127","1114095","0.0-11.0-78.0","","","","false","","","","","","","","","","1060.9999999997672","","505","","3","1","arrowright","1","arrowright","[0.675,0.325,0.15,0.85]","","",""
"sailing-trial","128","1121215","0.0-11.0-79.0","","","","false","","","","","","","","","","null","","3531","","3","1","null","null","arrowup","[0.675,0.325,0.15,0.85]","","",""
"sailing-trial","129","1136221","0.0-11.0-80.0","","","","true","","","","","","","","","","null","","null","","null","null","null","null","null","[0.675,0.325,0.15,0.85]","","",""
"sailing-trial","130","1139571","0.0-11.0-81.0","","","","false","","","","","","","","","","null","","1910","","2","0","null","null","arrowup","[0.675,0.325,0.15,0.85]","","",""
"sailing-trial","131","1154581","0.0-11.0-82.0","","","","true","","","","","","","","","","null","","null","","null","null","null","null","null","[0.675,0.325,0.15,0.85]","","",""
"sailing-trial","132","1169589","0.0-11.0-83.0","","","","true","","","","","","","","","","null","","null","","null","null","null","null","null","[0.675,0.325,0.15,0.85]","","",""
"sailing-trial","133","1184594","0.0-11.0-84.0","","","","true","","","","","","","","","","null","","null","","null","null","null","null","null","[0.675,0.325,0.15,0.85]","","",""
"sailing-trial","134","1188195","0.0-11.0-85.0","","","","false","","","","","","","","","","null","","1368.9999999997672","","1","0","null","null","arrowup","[0.675,0.325,0.15,0.85]","","",""
"sailing-trial","135","1192238","0.0-11.0-86.0","","","","false","","","","","","","","","","725","","294","","3","1","arrowright","1","arrowright","[0.675,0.325,0.15,0.85]","","",""
"sailing-trial","136","1195662","0.0-11.0-87.0","","","","false","","","","","","","","","","null","","1418","","3","1","null","null","arrowup","[0.675,0.325,0.15,0.85]","","",""
"sailing-trial","137","1199340","0.0-11.0-88.0","","","","false","","","","","","","","","","406.99999999976717","","56","","3","1","arrowright","1","arrowright","[0.675,0.325,0.15,0.85]","","",""
"sailing-trial","138","1201646","0.0-11.0-89.0","","","","false","","","","","","","","","","null","","1122","","1","0","null","null","arrowup","[0.675,0.325,0.15,0.85]","","",""
"sailing-trial","139","1209718","0.0-11.0-90.0","","","","false","","","","","","","","","","4325","","400","","3","1","arrowright","1","arrowright","[0.85,0.15,0.325,0.675]","","",""
"sailing-trial","140","1212471","0.0-11.0-91.0","","","","false","","","","","","","","","","null","","1239","","3","0","null","null","arrowup","[0.85,0.15,0.325,0.675]","","",""
"sailing-trial","141","1217388","0.0-11.0-92.0","","","","false","","","","","","","","","","1860","","24.00000000023283","","2","1","arrowright","1","arrowleft","[0.85,0.15,0.325,0.675]","","",""
"sailing-trial","142","1219906","0.0-11.0-93.0","","","","false","","","","","","","","","","null","","1022","","1","0","null","null","arrowup","[0.85,0.15,0.325,0.675]","","",""
"sailing-trial","143","1223855","0.0-11.0-94.0","","","","false","","","","","","","","","","809","","79.99999999976717","","2","1","arrowright","1","arrowleft","[0.85,0.15,0.325,0.675]","","",""
"sailing-trial","144","1226663","0.0-11.0-95.0","","","","false","","","","","","","","","","null","","866","","3","1","null","null","arrowup","[0.85,0.15,0.325,0.675]","","",""
"sailing-trial","145","1231292","0.0-11.0-96.0","","","","false","","","","","","","","","","1201.0000000002328","","237","","2","1","arrowright","1","arrowleft","[0.85,0.15,0.325,0.675]","","",""
"sailing-trial","146","1233596","0.0-11.0-97.0","","","","false","","","","","","","","","","null","","1057","","1","0","null","null","arrowup","[0.85,0.15,0.325,0.675]","","",""
"sailing-trial","147","1236825","0.0-11.0-98.0","","","","false","","","","","","","","","","555","","100","","0","0","arrowleft","0","arrowleft","[0.85,0.15,0.325,0.675]","","",""
"sailing-trial","148","1240048","0.0-11.0-99.0","","","","false","","","","","","","","","","null","","1263.9999999997672","","3","1","null","null","arrowup","[0.85,0.15,0.325,0.675]","","",""
"sailing-trial","149","1244142","0.0-11.0-100.0","","","","false","","","","","","","","","","691","","310","","3","1","arrowright","1","arrowright","[0.85,0.15,0.325,0.675]","","",""
"sailing-trial","150","1246679","0.0-11.0-101.0","","","","false","","","","","","","","","","null","","1195","","1","0","null","null","arrowup","[0.85,0.15,0.325,0.675]","","",""
"sailing-trial","151","1251529","0.0-11.0-102.0","","","","false","","","","","","","","","","1118","","382","","2","1","arrowright","1","arrowleft","[0.85,0.15,0.325,0.675]","","",""
"sailing-trial","152","1263345","0.0-11.0-103.0","","","","false","","","","","","","","","","null","","2473","","3","1","null","null","arrowup","[0.85,0.15,0.325,0.675]","","",""
"sailing-trial","153","1278354","0.0-11.0-104.0","","","","true","","","","","","","","","","null","","null","","null","null","null","null","null","[0.85,0.15,0.325,0.675]","","",""
"sailing-trial","154","1283654","0.0-11.0-105.0","","","","false","","","","","","","","","","null","","4085.000000000233","","3","0","null","null","arrowup","[0.85,0.15,0.325,0.675]","","",""
"sailing-trial","155","1287543","0.0-11.0-106.0","","","","false","","","","","","","","","","725","","174.99999999976717","","2","1","arrowright","1","arrowleft","[0.85,0.15,0.325,0.675]","","",""
"sailing-trial","156","1289657","0.0-11.0-107.0","","","","false","","","","","","","","","","null","","1082","","2","0","null","null","arrowup","[0.85,0.15,0.325,0.675]","","",""
"sailing-trial","157","1293811","0.0-11.0-108.0","","","","false","","","","","","","","","","585","","404","","0","0","arrowleft","0","arrowleft","[0.85,0.15,0.325,0.675]","","",""
"sailing-trial","158","1296376","0.0-11.0-109.0","","","","false","","","","","","","","","","null","","1064","","3","0","null","null","arrowup","[0.85,0.15,0.325,0.675]","","",""
"sailing-trial","159","1300385","0.0-11.0-110.0","","","","false","","","","","","","","","","766","","247","","1","0","arrowleft","0","arrowright","[0.85,0.15,0.325,0.675]","","",""
"sailing-trial","160","1303469","0.0-11.0-111.0","","","","false","","","","","","","","","","null","","1106","","0","1","null","null","arrowup","[0.85,0.15,0.325,0.675]","","",""
"sailing-trial","161","1306468","0.0-11.0-112.0","","","","false","","","","","","","","","","591.9999999997672","","44.00000000023283","","2","0","arrowright","1","arrowleft","[0.675,0.325,0.15,0.85]","","",""
"sailing-trial","162","1315050","0.0-11.0-113.0","","","","false","","","","","","","","","","null","","6399","","1","1","null","null","arrowup","[0.675,0.325,0.15,0.85]","","",""
"sailing-trial","163","1320832","0.0-11.0-114.0","","","","false","","","","","","","","","","523","","182","","1","1","arrowleft","0","arrowright","[0.675,0.325,0.15,0.85]","","",""
"sailing-trial","164","1323264","0.0-11.0-115.0","","","","false","","","","","","","","","","null","","1220","","3","0","null","null","arrowup","[0.675,0.325,0.15,0.85]","","",""
"sailing-trial","165","1326478","0.0-11.0-116.0","","","","false","","","","","","","","","","564","","157","","1","0","arrowleft","0","arrowright","[0.675,0.325,0.15,0.85]","","",""
"sailing-trial","166","1329371","0.0-11.0-117.0","","","","false","","","","","","","","","","null","","1120","","3","1","null","null","arrowup","[0.675,0.325,0.15,0.85]","","",""
"sailing-trial","167","1332178","0.0-11.0-118.0","","","","false","","","","","","","","","","99.00000000023283","","59","","1","0","arrowleft","0","arrowright","[0.675,0.325,0.15,0.85]","","",""
"sailing-trial","168","1336118","0.0-11.0-119.0","","","","false","","","","","","","","","","null","","921","","3","0","null","null","arrowup","[0.675,0.325,0.15,0.85]","","",""
"sailing-trial","169","1340049","0.0-11.0-120.0","","","","false","","","","","","","","","","437","","139.99999999976717","","0","1","arrowleft","0","arrowleft","[0.675,0.325,0.15,0.85]","","",""
"sailing-trial","170","1342907","0.0-11.0-121.0","","","","false","","","","","","","","","","null","","927","","3","1","null","null","arrowup","[0.675,0.325,0.15,0.85]","","",""
"sailing-trial","171","1346516","0.0-11.0-122.0","","","","false","","","","","","","","","","487","","115","","0","1","arrowleft","0","arrowleft","[0.675,0.325,0.15,0.85]","","",""
"sailing-trial","172","1349124","0.0-11.0-123.0","","","","false","","","","","","","","","","null","","918.9999999997672","","0","1","null","null","arrowup","[0.675,0.325,0.15,0.85]","","",""
"sailing-trial","173","1352750","0.0-11.0-124.0","","","","false","","","","","","","","","","311","","135","","0","1","arrowleft","0","arrowleft","[0.675,0.325,0.15,0.85]","","",""
"sailing-trial","174","1355183","0.0-11.0-125.0","","","","false","","","","","","","","","","null","","692","","2","0","null","null","arrowup","[0.675,0.325,0.15,0.85]","","",""
"sailing-trial","175","1358171","0.0-11.0-126.0","","","","false","","","","","","","","","","17","","175","","0","0","arrowleft","0","arrowleft","[0.675,0.325,0.15,0.85]","","",""
"sailing-trial","176","1361020","0.0-11.0-127.0","","","","false","","","","","","","","","","null","","1110.9999999997672","","2","0","null","null","arrowup","[0.675,0.325,0.15,0.85]","","",""
"sailing-trial","177","1365853","0.0-11.0-128.0","","","","false","","","","","","","","","","562","","179","","3","1","arrowright","1","arrowright","[0.675,0.325,0.15,0.85]","","",""
"sailing-trial","178","1368430","0.0-11.0-129.0","","","","false","","","","","","","","","","null","","925.0000000002328","","2","0","null","null","arrowup","[0.675,0.325,0.15,0.85]","","",""
"sailing-trial","179","1371613","0.0-11.0-130.0","","","","false","","","","","","","","","","285.99999999976717","","53","","3","0","arrowright","1","arrowright","[0.85,0.15,0.325,0.675]","","",""
"sailing-trial","180","1374560","0.0-11.0-131.0","","","","false","","","","","","","","","","null","","1057","","2","0","null","null","arrowup","[0.85,0.15,0.325,0.675]","","",""
"sailing-trial","181","1378269","0.0-11.0-132.0","","","","false","","","","","","","","","","497","","64.99999999976717","","0","1","arrowleft","0","arrowleft","[0.85,0.15,0.325,0.675]","","",""
"sailing-trial","182","1381326","0.0-11.0-133.0","","","","false","","","","","","","","","","null","","1333","","0","1","null","null","arrowup","[0.85,0.15,0.325,0.675]","","",""
"sailing-trial","183","1385386","0.0-11.0-134.0","","","","false","","","","","","","","","","514.9999999997672","","61.99999999976717","","0","1","arrowleft","0","arrowleft","[0.85,0.15,0.325,0.675]","","",""
"sailing-trial","184","1395893","0.0-11.0-135.0","","","","false","","","","","","","","","","null","","9163","","1","0","null","null","arrowup","[0.85,0.15,0.325,0.675]","","",""
"sailing-trial","185","1400174","0.0-11.0-136.0","","","","false","","","","","","","","","","1221.9999999997672","","91","","2","0","arrowright","1","arrowleft","[0.85,0.15,0.325,0.675]","","",""
"sailing-trial","186","1403402","0.0-11.0-137.0","","","","false","","","","","","","","","","null","","1692","","2","1","null","null","arrowup","[0.85,0.15,0.325,0.675]","","",""
"sailing-trial","187","1407148","0.0-11.0-138.0","","","","false","","","","","","","","","","795","","231","","2","0","arrowright","1","arrowleft","[0.85,0.15,0.325,0.675]","","",""
"sailing-trial","188","1410203","0.0-11.0-139.0","","","","false","","","","","","","","","","null","","994","","2","1","null","null","arrowup","[0.85,0.15,0.325,0.675]","","",""
"sailing-trial","189","1414248","0.0-11.0-140.0","","","","false","","","","","","","","","","786","","190.99999999976717","","2","1","arrowright","1","arrowleft","[0.85,0.15,0.325,0.675]","","",""
"sailing-trial","190","1416689","0.0-11.0-141.0","","","","false","","","","","","","","","","null","","1226.9999999997672","","1","0","null","null","arrowup","[0.85,0.15,0.325,0.675]","","",""
"sailing-trial","191","1420749","0.0-11.0-142.0","","","","false","","","","","","","","","","654","","120","","2","1","arrowright","1","arrowleft","[0.85,0.15,0.325,0.675]","","",""
"sailing-trial","192","1428370","0.0-11.0-143.0","","","","false","","","","","","","","","","null","","5716.999999999767","","1","1","null","null","arrowup","[0.85,0.15,0.325,0.675]","","",""
"sailing-trial","193","1432404","0.0-11.0-144.0","","","","false","","","","","","","","","","852","","600","","2","0","arrowright","1","arrowleft","[0.85,0.15,0.325,0.675]","","",""
"sailing-trial","194","1434682","0.0-11.0-145.0","","","","false","","","","","","","","","","null","","1105","","1","0","null","null","arrowup","[0.85,0.15,0.325,0.675]","","",""
"sailing-trial","195","1437970","0.0-11.0-146.0","","","","false","","","","","","","","","","544","","56.99999999976717","","0","0","arrowleft","0","arrowleft","[0.15,0.85,0.675,0.325]","","",""
"sailing-trial","196","1441120","0.0-11.0-147.0","","","","false","","","","","","","","","","null","","1005.9999999997672","","2","1","null","null","arrowup","[0.15,0.85,0.675,0.325]","","",""
"sailing-trial","197","1445248","0.0-11.0-148.0","","","","false","","","","","","","","","","553","","114","","2","1","arrowright","1","arrowleft","[0.15,0.85,0.675,0.325]","","",""
"sailing-trial","198","1449850","0.0-11.0-149.0","","","","false","","","","","","","","","","null","","2882.999999999767","","3","0","null","null","arrowup","[0.15,0.85,0.675,0.325]","","",""
"sailing-trial","199","1453482","0.0-11.0-150.0","","","","false","","","","","","","","","","538","","380","","2","0","arrowright","1","arrowleft","[0.15,0.85,0.675,0.325]","","",""
"sailing-trial","200","1456059","0.0-11.0-151.0","","","","false","","","","","","","","","","null","","925","","0","0","null","null","arrowup","[0.15,0.85,0.675,0.325]","","",""
"sailing-trial","201","1460515","0.0-11.0-152.0","","","","false","","","","","","","","","","874","","597","","3","0","arrowright","1","arrowright","[0.15,0.85,0.675,0.325]","","",""
"sailing-trial","202","1463730","0.0-11.0-153.0","","","","false","","","","","","","","","","null","","1403","","0","1","null","null","arrowup","[0.15,0.85,0.675,0.325]","","",""
"sailing-trial","203","1467465","0.0-11.0-154.0","","","","false","","","","","","","","","","601.9999999997672","","467","","0","0","arrowleft","0","arrowleft","[0.15,0.85,0.675,0.325]","","",""
"sailing-trial","204","1470198","0.0-11.0-155.0","","","","false","","","","","","","","","","null","","1002","","2","1","null","null","arrowup","[0.15,0.85,0.675,0.325]","","",""
"sailing-trial","205","1474442","0.0-11.0-156.0","","","","false","","","","","","","","","","710","","318","","1","1","arrowleft","0","arrowright","[0.15,0.85,0.675,0.325]","","",""
"sailing-trial","206","1477550","0.0-11.0-157.0","","","","false","","","","","","","","","","null","","1061","","1","1","null","null","arrowup","[0.15,0.85,0.675,0.325]","","",""
"sailing-trial","207","1490936","0.0-11.0-158.0","","","","false","","","","","","","","","","9866","","7","","1","1","arrowleft","0","arrowright","[0.15,0.85,0.675,0.325]","","",""
"sailing-trial","208","1495464","0.0-11.0-159.0","","","","false","","","","","","","","","","null","","2938","","0","0","null","null","arrowup","[0.15,0.85,0.675,0.325]","","",""
"sailing-trial","209","1499593","0.0-11.0-160.0","","","","false","","","","","","","","","","623","","77","","2","1","arrowright","1","arrowleft","[0.15,0.85,0.675,0.325]","","",""
"sailing-trial","210","1501665","0.0-11.0-161.0","","","","false","","","","","","","","","","null","","869","","2","0","null","null","arrowup","[0.15,0.85,0.675,0.325]","","",""
"sailing-trial","211","1505605","0.0-11.0-162.0","","","","false","","","","","","","","","","888","","279","","2","0","arrowright","1","arrowleft","[0.85,0.15,0.325,0.675]","","",""
"sailing-trial","212","1509252","0.0-11.0-163.0","","","","false","","","","","","","","","","null","","1550.9999999997672","","3","1","null","null","arrowup","[0.85,0.15,0.325,0.675]","","",""
"sailing-trial","213","1513880","0.0-11.0-164.0","","","","false","","","","","","","","","","688","","905.9999999997672","","0","1","arrowleft","0","arrowleft","[0.85,0.15,0.325,0.675]","","",""
"sailing-trial","214","1528886","0.0-11.0-165.0","","","","true","","","","","","","","","","null","","null","","null","null","null","null","null","[0.85,0.15,0.325,0.675]","","",""
"sailing-trial","215","1534843","0.0-11.0-166.0","","","","false","","","","","","","","","","3348","","14","","2","0","arrowright","1","arrowleft","[0.85,0.15,0.325,0.675]","","",""
"sailing-trial","216","1537522","0.0-11.0-167.0","","","","false","","","","","","","","","","null","","1028","","3","0","null","null","arrowup","[0.85,0.15,0.325,0.675]","","",""
"sailing-trial","217","1553279","0.0-11.0-168.0","","","","true","","","","","","","","","","754","","null","","null","null","arrowleft","0","null","[0.85,0.15,0.325,0.675]","","",""
"sailing-trial","218","1558065","0.0-11.0-169.0","","","","false","","","","","","","","","","null","","2669","","0","1","null","null","arrowup","[0.85,0.15,0.325,0.675]","","",""
"sailing-trial","219","1564166","0.0-11.0-170.0","","","","false","","","","","","","","","","1283","","559","","0","1","arrowleft","0","arrowleft","[0.85,0.15,0.325,0.675]","","",""
"sailing-trial","220","1567925","0.0-11.0-171.0","","","","false","","","","","","","","","","null","","1547","","2","1","null","null","arrowup","[0.85,0.15,0.325,0.675]","","",""
"sailing-trial","221","1571718","0.0-11.0-172.0","","","","false","","","","","","","","","","610","","150.00000000023283","","0","1","arrowleft","0","arrowleft","[0.85,0.15,0.325,0.675]","","",""
"sailing-trial","222","1574204","0.0-11.0-173.0","","","","false","","","","","","","","","","null","","907","","2","0","null","null","arrowup","[0.85,0.15,0.325,0.675]","","",""
"sailing-trial","223","1576982","0.0-11.0-174.0","","","","false","","","","","","","","","","171","","16","","0","0","arrowleft","0","arrowleft","[0.85,0.15,0.325,0.675]","","",""
"sailing-trial","224","1581009","0.0-11.0-175.0","","","","false","","","","","","","","","","null","","2806","","3","0","null","null","arrowup","[0.85,0.15,0.325,0.675]","","",""
"sailing-trial","225","1586457","0.0-11.0-176.0","","","","false","","","","","","","","","","2033","","735","","2","0","arrowright","1","arrowleft","[0.85,0.15,0.325,0.675]","","",""
"sailing-trial","226","1588743","0.0-11.0-177.0","","","","false","","","","","","","","","","null","","1029","","3","0","null","null","arrowup","[0.85,0.15,0.325,0.675]","","",""
"sailing-trial","227","1593744","0.0-11.0-178.0","","","","false","","","","","","","","","","670.0000000002328","","963.9999999997672","","0","1","arrowleft","0","arrowleft","[0.85,0.15,0.325,0.675]","","",""
"sailing-trial","228","1597078","0.0-11.0-179.0","","","","false","","","","","","","","","","null","","1327","","1","0","null","null","arrowup","[0.85,0.15,0.325,0.675]","","",""
"sailing-trial","229","1601064","0.0-11.0-180.0","","","","false","","","","","","","","","","117","","737.0000000002328","","3","1","arrowright","1","arrowright","[0.675,0.325,0.15,0.85]","","",""
"sailing-trial","230","1605560","0.0-11.0-181.0","","","","false","","","","","","","","","","null","","3321","","2","0","null","null","arrowup","[0.675,0.325,0.15,0.85]","","",""
"sailing-trial","231","1610087","0.0-11.0-182.0","","","","false","","","","","","","","","","1052","","316","","1","1","arrowleft","0","arrowright","[0.675,0.325,0.15,0.85]","","",""
"sailing-trial","232","1613079","0.0-11.0-183.0","","","","false","","","","","","","","","","null","","1224","","3","1","null","null","arrowup","[0.675,0.325,0.15,0.85]","","",""
"sailing-trial","233","1618243","0.0-11.0-184.0","","","","false","","","","","","","","","","699.0000000002328","","564.9999999997672","","3","1","arrowright","1","arrowright","[0.675,0.325,0.15,0.85]","","",""
"sailing-trial","234","1620464","0.0-11.0-185.0","","","","false","","","","","","","","","","null","","1051","","1","0","null","null","arrowup","[0.675,0.325,0.15,0.85]","","",""
"sailing-trial","235","1624727","0.0-11.0-186.0","","","","false","","","","","","","","","","582","","423","","3","1","arrowright","1","arrowright","[0.675,0.325,0.15,0.85]","","",""
"sailing-trial","236","1629490","0.0-11.0-187.0","","","","false","","","","","","","","","","null","","2807","","3","1","null","null","arrowup","[0.675,0.325,0.15,0.85]","","",""
"sailing-trial","237","1633749","0.0-11.0-188.0","","","","false","","","","","","","","","","1379.9999999997672","","374.00000000023283","","1","0","arrowleft","0","arrowright","[0.675,0.325,0.15,0.85]","","",""
"sailing-trial","238","1636557","0.0-11.0-189.0","","","","false","","","","","","","","","","null","","1086","","2","1","null","null","arrowup","[0.675,0.325,0.15,0.85]","","",""
"sailing-trial","239","1643521","0.0-11.0-190.0","","","","false","","","","","","","","","","3965","","428","","2","0","arrowright","1","arrowleft","[0.675,0.325,0.15,0.85]","","",""
"sailing-trial","240","1646926","0.0-11.0-191.0","","","","false","","","","","","","","","","null","","1907","","1","0","null","null","arrowup","[0.675,0.325,0.15,0.85]","","",""
"sailing-trial","241","1651398","0.0-11.0-192.0","","","","false","","","","","","","","","","589","","843.9999999997672","","1","1","arrowleft","0","arrowright","[0.675,0.325,0.15,0.85]","","",""
"sailing-trial","242","1654306","0.0-11.0-193.0","","","","false","","","","","","","","","","null","","1218","","2","1","null","null","arrowup","[0.675,0.325,0.15,0.85]","","",""
"sailing-trial","243","1660372","0.0-11.0-194.0","","","","false","","","","","","","","","","222.00000000023283","","2393.000000000233","","0","1","arrowleft","0","arrowleft","[0.675,0.325,0.15,0.85]","","",""
"sailing-trial","244","1666093","0.0-11.0-195.0","","","","false","","","","","","","","","","null","","4095","","1","0","null","null","arrowup","[0.675,0.325,0.15,0.85]","","",""
"sailing-trial","245","1682548","0.0-11.0-196.0","","","","false","","","","","","","","","","3489.000000000233","","3249.000000000233","","0","1","arrowleft","0","arrowleft","[0.675,0.325,0.15,0.85]","","",""
"sailing-trial","246","1686007","0.0-11.0-197.0","","","","false","","","","","","","","","","null","","1558.9999999997672","","0","1","null","null","arrowup","[0.675,0.325,0.15,0.85]","","",""
"sailing-trial","247","1689551","0.0-11.0-198.0","","","","false","","","","","","","","","","271.00000000023283","","241.99999999976717","","0","1","arrowleft","0","arrowleft","[0.675,0.325,0.15,0.85]","","",""
"sailing-trial","248","1691605","0.0-11.0-199.0","","","","false","","","","","","","","","","null","","882","","0","0","null","null","arrowup","[0.675,0.325,0.15,0.85]","","",""
"sailing-trial","249","1694912","0.0-11.0-200.0","","","","false","","","","","","","","","","655.9999999997672","","95","","0","0","arrowleft","0","arrowleft","[0.675,0.325,0.15,0.85]","","",""
"sailing-trial","250","1697254","0.0-11.0-201.0","","","","false","","","","","","","","","","null","","1078.9999999997672","","2","0","null","null","arrowup","[0.675,0.325,0.15,0.85]","","",""
"sailing-trial","251","1700870","0.0-11.0-202.0","","","","false","","","","","","","","","","865","","76","","1","0","arrowleft","0","arrowright","[0.675,0.325,0.15,0.85]","","",""
"sailing-trial","252","1708551","0.0-11.0-203.0","","","","false","","","","","","","","","","null","","5625","","2","1","null","null","arrowup","[0.675,0.325,0.15,0.85]","","",""
"sailing-trial","253","1713548","0.0-11.0-204.0","","","","false","","","","","","","","","","1449.0000000002328","","532","","0","1","arrowleft","0","arrowleft","[0.85,0.15,0.325,0.675]","","",""
"sailing-trial","254","1716707","0.0-11.0-205.0","","","","false","","","","","","","","","","null","","1106","","3","1","null","null","arrowup","[0.85,0.15,0.325,0.675]","","",""
"sailing-trial","255","1720750","0.0-11.0-206.0","","","","false","","","","","","","","","","583","","60.99999999976717","","0","1","arrowleft","0","arrowleft","[0.85,0.15,0.325,0.675]","","",""
"sailing-trial","256","1723878","0.0-11.0-207.0","","","","false","","","","","","","","","","null","","1436.9999999997672","","2","0","null","null","arrowup","[0.85,0.15,0.325,0.675]","","",""
"sailing-trial","257","1728102","0.0-11.0-208.0","","","","false","","","","","","","","","","1019","","66","","0","1","arrowleft","0","arrowleft","[0.85,0.15,0.325,0.675]","","",""
"sailing-trial","258","1730791","0.0-11.0-209.0","","","","false","","","","","","","","","","null","","865","","3","1","null","null","arrowup","[0.85,0.15,0.325,0.675]","","",""
"sailing-trial","259","1734802","0.0-11.0-210.0","","","","false","","","","","","","","","","676","","316","","3","1","arrowright","1","arrowright","[0.85,0.15,0.325,0.675]","","",""
"sailing-trial","260","1737443","0.0-11.0-211.0","","","","false","","","","","","","","","","null","","790.0000000002328","","2","1","null","null","arrowup","[0.85,0.15,0.325,0.675]","","",""
"sailing-trial","261","1741972","0.0-11.0-212.0","","","","false","","","","","","","","","","542.0000000002328","","668","","0","1","arrowleft","0","arrowleft","[0.85,0.15,0.325,0.675]","","",""
"sailing-trial","262","1745216","0.0-11.0-213.0","","","","false","","","","","","","","","","null","","2069","","1","0","null","null","arrowup","[0.85,0.15,0.325,0.675]","","",""
"sailing-trial","263","1748973","0.0-11.0-214.0","","","","false","","","","","","","","","","645","","410","","0","0","arrowleft","0","arrowleft","[0.85,0.15,0.325,0.675]","","",""
"sailing-trial","264","1763980","0.0-11.0-215.0","","","","true","","","","","","","","","","null","","null","","null","null","null","null","null","[0.85,0.15,0.325,0.675]","","",""
"sailing-trial","265","1778987","0.0-11.0-216.0","","","","true","","","","","","","","","","null","","null","","null","null","null","null","null","[0.85,0.15,0.325,0.675]","","",""
"sailing-trial","266","1787478","0.0-11.0-217.0","","","","false","","","","","","","","","","null","","6797.000000000233","","0","1","null","null","arrowup","[0.85,0.15,0.325,0.675]","","",""
"sailing-trial","267","1790950","0.0-11.0-218.0","","","","false","","","","","","","","","","773","","195","","2","0","arrowright","1","arrowleft","[0.85,0.15,0.325,0.675]","","",""
"sailing-trial","268","1803672","0.0-11.0-219.0","","","","false","","","","","","","","","","null","","5652","","2","1","null","null","arrowup","[0.85,0.15,0.325,0.675]","","",""
"sailing-trial","269","1807568","0.0-11.0-220.0","","","","false","","","","","","","","","","846","","21","","0","1","arrowleft","0","arrowleft","[0.675,0.325,0.15,0.85]","","",""
"sailing-trial","270","1813900","0.0-11.0-221.0","","","","false","","","","","","","","","","null","","3966","","3","1","null","null","arrowup","[0.675,0.325,0.15,0.85]","","",""
"sailing-trial","271","1818211","0.0-11.0-222.0","","","","false","","","","","","","","","","1200","","20","","1","1","arrowleft","0","arrowright","[0.675,0.325,0.15,0.85]","","",""
"sailing-trial","272","1820848","0.0-11.0-223.0","","","","false","","","","","","","","","","null","","1236.9999999997672","","2","0","null","null","arrowup","[0.675,0.325,0.15,0.85]","","",""
"sailing-trial","273","1826149","0.0-11.0-224.0","","","","false","","","","","","","","","","538","","392.00000000023283","","1","1","arrowleft","0","arrowright","[0.675,0.325,0.15,0.85]","","",""
"sailing-trial","274","1829441","0.0-11.0-225.0","","","","false","","","","","","","","","","null","","1293.0000000002328","","1","1","null","null","arrowup","[0.675,0.325,0.15,0.85]","","",""
"sailing-trial","275","1833128","0.0-11.0-226.0","","","","false","","","","","","","","","","401","","438","","1","0","arrowleft","0","arrowright","[0.675,0.325,0.15,0.85]","","",""
"sailing-trial","276","1836262","0.0-11.0-227.0","","","","false","","","","","","","","","","null","","1517.0000000002328","","0","0","null","null","arrowup","[0.675,0.325,0.15,0.85]","","",""
"sailing-trial","277","1841307","0.0-11.0-228.0","","","","false","","","","","","","","","","533","","598","","2","0","arrowright","1","arrowleft","[0.675,0.325,0.15,0.85]","","",""
"sailing-trial","278","1845686","0.0-11.0-229.0","","","","false","","","","","","","","","","null","","2234","","3","1","null","null","arrowup","[0.675,0.325,0.15,0.85]","","",""
"sailing-trial","279","1849135","0.0-11.0-230.0","","","","false","","","","","","","","","","464","","131","","0","0","arrowleft","0","arrowleft","[0.675,0.325,0.15,0.85]","","",""
"sailing-trial","280","1851515","0.0-11.0-231.0","","","","false","","","","","","","","","","null","","1146","","2","0","null","null","arrowup","[0.675,0.325,0.15,0.85]","","",""
"sailing-trial","281","1855161","0.0-11.0-232.0","","","","false","","","","","","","","","","451","","71","","3","1","arrowright","1","arrowright","[0.675,0.325,0.15,0.85]","","",""
"sailing-trial","282","1857477","0.0-11.0-233.0","","","","false","","","","","","","","","","null","","929","","1","0","null","null","arrowup","[0.675,0.325,0.15,0.85]","","",""
"sailing-trial","283","1860952","0.0-11.0-234.0","","","","false","","","","","","","","","","450","","228","","3","0","arrowright","1","arrowright","[0.675,0.325,0.15,0.85]","","",""
"sailing-trial","284","1863336","0.0-11.0-235.0","","","","false","","","","","","","","","","null","","1050.9999999997672","","1","0","null","null","arrowup","[0.675,0.325,0.15,0.85]","","",""
"sailing-trial","285","1866423","0.0-11.0-236.0","","","","false","","","","","","","","","","395.00000000023283","","198.00000000023283","","0","0","arrowleft","0","arrowleft","[0.675,0.325,0.15,0.85]","","",""
"sailing-trial","286","1868931","0.0-11.0-237.0","","","","false","","","","","","","","","","null","","1327","","1","0","null","null","arrowup","[0.675,0.325,0.15,0.85]","","",""
"sailing-trial","287","1872742","0.0-11.0-238.0","","","","false","","","","","","","","","","428","","162.00000000023283","","1","1","arrowleft","0","arrowright","[0.675,0.325,0.15,0.85]","","",""
"sailing-trial","288","1875783","0.0-11.0-239.0","","","","false","","","","","","","","","","null","","980","","3","1","null","null","arrowup","[0.675,0.325,0.15,0.85]","","",""
"sailing-trial","289","1879364","0.0-11.0-240.0","","","","false","","","","","","","","","","656","","232.00000000023283","","1","0","arrowleft","0","arrowright","[0.85,0.15,0.325,0.675]","","",""
"sailing-trial","290","1882017","0.0-11.0-241.0","","","","false","","","","","","","","","","null","","964","","0","1","null","null","arrowup","[0.85,0.15,0.325,0.675]","","",""
"sailing-trial","291","1885443","0.0-11.0-242.0","","","","false","","","","","","","","","","148.00000000023283","","198.99999999976717","","0","1","arrowleft","0","arrowleft","[0.85,0.15,0.325,0.675]","","",""
"sailing-trial","292","1891115","0.0-11.0-243.0","","","","false","","","","","","","","","","null","","4062.999999999767","","1","0","null","null","arrowup","[0.85,0.15,0.325,0.675]","","",""
"sailing-trial","293","1895553","0.0-11.0-244.0","","","","false","","","","","","","","","","354","","317","","2","0","arrowright","1","arrowleft","[0.85,0.15,0.325,0.675]","","",""
"sailing-trial","294","1900100","0.0-11.0-245.0","","","","false","","","","","","","","","","null","","1346","","0","1","null","null","arrowup","[0.85,0.15,0.325,0.675]","","",""
"sailing-trial","295","1905681","0.0-11.0-246.0","","","","false","","","","","","","","","","2146","","415","","0","1","arrowleft","0","arrowleft","[0.85,0.15,0.325,0.675]","","",""
"sailing-trial","296","1908672","0.0-11.0-247.0","","","","false","","","","","","","","","","null","","1014","","0","1","null","null","arrowup","[0.85,0.15,0.325,0.675]","","",""
"sailing-trial","297","1912248","0.0-11.0-248.0","","","","false","","","","","","","","","","395","","91","","0","1","arrowleft","0","arrowleft","[0.85,0.15,0.325,0.675]","","",""
"sailing-trial","298","1915023","0.0-11.0-249.0","","","","false","","","","","","","","","","null","","884","","0","1","null","null","arrowup","[0.85,0.15,0.325,0.675]","","",""
"sailing-trial","299","1918231","0.0-11.0-250.0","","","","false","","","","","","","","","","75.00000000023283","","23","","0","1","arrowleft","0","arrowleft","[0.85,0.15,0.325,0.675]","","",""
"sailing-trial","300","1920714","0.0-11.0-251.0","","","","false","","","","","","","","","","null","","913","","1","0","null","null","arrowup","[0.85,0.15,0.325,0.675]","","",""
"sailing-trial","301","1924616","0.0-11.0-252.0","","","","false","","","","","","","","","","459.99999999976717","","48","","0","1","arrowleft","0","arrowleft","[0.85,0.15,0.325,0.675]","","",""
"sailing-trial","302","1926451","0.0-11.0-253.0","","","","false","","","","","","","","","","null","","662","","1","0","null","null","arrowup","[0.85,0.15,0.325,0.675]","","",""
"sailing-trial","303","1929930","0.0-11.0-254.0","","","","false","","","","","","","","","","284","","143","","0","1","arrowleft","0","arrowleft","[0.85,0.15,0.325,0.675]","","",""
"sailing-trial","304","1932270","0.0-11.0-255.0","","","","false","","","","","","","","","","null","","218.00000000023283","","0","1","null","null","arrowup","[0.85,0.15,0.325,0.675]","","",""
"sailing-trial","305","1935680","0.0-11.0-256.0","","","","false","","","","","","","","","","181","","189","","0","1","arrowleft","0","arrowleft","[0.675,0.325,0.15,0.85]","","",""
"sailing-trial","306","1938502","0.0-11.0-257.0","","","","false","","","","","","","","","","null","","796","","3","1","null","null","arrowup","[0.675,0.325,0.15,0.85]","","",""
"sailing-trial","307","1942363","0.0-11.0-258.0","","","","false","","","","","","","","","","114.00000000023283","","741","","0","1","arrowleft","0","arrowleft","[0.675,0.325,0.15,0.85]","","",""
"sailing-trial","308","1944519","0.0-11.0-259.0","","","","false","","","","","","","","","","null","","670","","0","0","null","null","arrowup","[0.675,0.325,0.15,0.85]","","",""
"sailing-trial","309","1948229","0.0-11.0-260.0","","","","false","","","","","","","","","","618.0000000002328","","85","","3","1","arrowright","1","arrowright","[0.675,0.325,0.15,0.85]","","",""
"sailing-trial","310","1950902","0.0-11.0-261.0","","","","false","","","","","","","","","","null","","921","","0","1","null","null","arrowup","[0.675,0.325,0.15,0.85]","","",""
"sailing-trial","311","1955381","0.0-11.0-262.0","","","","false","","","","","","","","","","363","","1020","","3","1","arrowright","1","arrowright","[0.675,0.325,0.15,0.85]","","",""
"sailing-trial","312","1959041","0.0-11.0-263.0","","","","false","","","","","","","","","","null","","1881.0000000002328","","2","1","null","null","arrowup","[0.675,0.325,0.15,0.85]","","",""
"sailing-trial","313","1963233","0.0-11.0-264.0","","","","false","","","","","","","","","","1040.9999999997672","","606","","3","0","arrowright","1","arrowright","[0.675,0.325,0.15,0.85]","","",""
"sailing-trial","314","1966261","0.0-11.0-265.0","","","","false","","","","","","","","","","null","","1259","","3","1","null","null","arrowup","[0.675,0.325,0.15,0.85]","","",""
"sailing-trial","315","1969571","0.0-11.0-266.0","","","","false","","","","","","","","","","135","","171","","3","1","arrowright","1","arrowright","[0.675,0.325,0.15,0.85]","","",""
"sailing-trial","316","1972662","0.0-11.0-267.0","","","","false","","","","","","","","","","null","","1207.9999999997672","","3","1","null","null","arrowup","[0.675,0.325,0.15,0.85]","","",""
"sailing-trial","317","1975966","0.0-11.0-268.0","","","","false","","","","","","","","","","129","","348","","2","0","arrowright","1","arrowleft","[0.675,0.325,0.15,0.85]","","",""
"sailing-trial","318","1978344","0.0-11.0-269.0","","","","false","","","","","","","","","","null","","1067.9999999997672","","1","0","null","null","arrowup","[0.675,0.325,0.15,0.85]","","",""
"sailing-trial","319","1983125","0.0-11.0-270.0","","","","false","","","","","","","","","","394","","1267.9999999997672","","3","0","arrowright","1","arrowright","[0.675,0.325,0.15,0.85]","","",""
"sailing-trial","320","1985515","0.0-11.0-271.0","","","","false","","","","","","","","","","null","","1202","","1","0","null","null","arrowup","[0.675,0.325,0.15,0.85]","","",""
"sailing-trial","321","1989089","0.0-11.0-272.0","","","","false","","","","","","","","","","271","","104","","0","1","arrowleft","0","arrowleft","[0.675,0.325,0.15,0.85]","","",""
"sailing-trial","322","1991846","0.0-11.0-273.0","","","","false","","","","","","","","","","null","","957","","0","1","null","null","arrowup","[0.675,0.325,0.15,0.85]","","",""
"sailing-trial","323","1998197","0.0-11.0-274.0","","","","false","","","","","","","","","","257","","351.00000000023283","","0","1","arrowleft","0","arrowleft","[0.85,0.15,0.325,0.675]","","",""
"sailing-trial","324","2001389","0.0-11.0-275.0","","","","false","","","","","","","","","","null","","1149.9999999997672","","3","1","null","null","arrowup","[0.85,0.15,0.325,0.675]","","",""
"sailing-trial","325","2004770","0.0-11.0-276.0","","","","false","","","","","","","","","","395.99999999976717","","156","","3","0","arrowright","1","arrowright","[0.85,0.15,0.325,0.675]","","",""
"sailing-trial","326","2007227","0.0-11.0-277.0","","","","false","","","","","","","","","","null","","911","","2","0","null","null","arrowup","[0.85,0.15,0.325,0.675]","","",""
"sailing-trial","327","2010614","0.0-11.0-278.0","","","","false","","","","","","","","","","209.99999999976717","","169","","0","1","arrowleft","0","arrowleft","[0.85,0.15,0.325,0.675]","","",""
"sailing-trial","328","2013038","0.0-11.0-279.0","","","","false","","","","","","","","","","null","","686","","3","1","null","null","arrowup","[0.85,0.15,0.325,0.675]","","",""
"sailing-trial","329","2017116","0.0-11.0-280.0","","","","false","","","","","","","","","","241","","264","","0","1","arrowleft","0","arrowleft","[0.85,0.15,0.325,0.675]","","",""
"sailing-trial","330","2020257","0.0-11.0-281.0","","","","false","","","","","","","","","","null","","962","","0","1","null","null","arrowup","[0.85,0.15,0.325,0.675]","","",""
"sailing-trial","331","2023833","0.0-11.0-282.0","","","","false","","","","","","","","","","191.00000000023283","","270.99999999976717","","0","1","arrowleft","0","arrowleft","[0.85,0.15,0.325,0.675]","","",""
"sailing-trial","332","2025820","0.0-11.0-283.0","","","","false","","","","","","","","","","null","","813","","1","0","null","null","arrowup","[0.85,0.15,0.325,0.675]","","",""
"sailing-trial","333","2029532","0.0-11.0-284.0","","","","false","","","","","","","","","","531.0000000002328","","160","","0","1","arrowleft","0","arrowleft","[0.85,0.15,0.325,0.675]","","",""
"sailing-trial","334","2031742","0.0-11.0-285.0","","","","false","","","","","","","","","","null","","939","","1","0","null","null","arrowup","[0.85,0.15,0.325,0.675]","","",""
"sailing-trial","335","2035564","0.0-11.0-286.0","","","","false","","","","","","","","","","481","","144","","0","1","arrowleft","0","arrowleft","[0.85,0.15,0.325,0.675]","","",""
"sailing-trial","336","2037908","0.0-11.0-287.0","","","","false","","","","","","","","","","null","","658","","3","0","null","null","arrowup","[0.85,0.15,0.325,0.675]","","",""
"sailing-trial","337","2042600","0.0-11.0-288.0","","","","false","","","","","","","","","","438","","489","","0","1","arrowleft","0","arrowleft","[0.85,0.15,0.325,0.675]","","",""
"sailing-trial","338","2045575","0.0-11.0-289.0","","","","false","","","","","","","","","","null","","1088.0000000002328","","1","1","null","null","arrowup","[0.85,0.15,0.325,0.675]","","",""
"sailing-trial","339","2049236","0.0-11.0-290.0","","","","false","","","","","","","","","","531","","83.99999999976717","","0","1","arrowleft","0","arrowleft","[0.85,0.15,0.325,0.675]","","",""
"sailing-trial","340","2054633","0.0-11.0-291.0","","","","false","","","","","","","","","","null","","3324.999999999767","","3","1","null","null","arrowup","[0.85,0.15,0.325,0.675]","","",""
"sailing-trial","341","2058994","0.0-11.0-292.0","","","","false","","","","","","","","","","657.0000000002328","","679.9999999997672","","0","1","arrowleft","0","arrowleft","[0.85,0.15,0.325,0.675]","","",""
"sailing-trial","342","2061852","0.0-11.0-293.0","","","","false","","","","","","","","","","null","","1682.0000000002328","","2","0","null","null","arrowup","[0.85,0.15,0.325,0.675]","","",""
"sailing-trial","343","2066381","0.0-11.0-294.0","","","","false","","","","","","","","","","686","","522.0000000004657","","0","1","arrowleft","0","arrowleft","[0.675,0.325,0.15,0.85]","","",""
"sailing-trial","344","2069072","0.0-11.0-295.0","","","","false","","","","","","","","","","null","","702.0000000002328","","1","1","null","null","arrowup","[0.675,0.325,0.15,0.85]","","",""
"sailing-trial","345","2072214","0.0-11.0-296.0","","","","false","","","","","","","","","","96","","14.99999999976717","","0","1","arrowleft","0","arrowleft","[0.675,0.325,0.15,0.85]","","",""
"sailing-trial","346","2074988","0.0-11.0-297.0","","","","false","","","","","","","","","","null","","1549","","2","0","null","null","arrowup","[0.675,0.325,0.15,0.85]","","",""
"sailing-trial","347","2078352","0.0-11.0-298.0","","","","false","","","","","","","","","","411","","173","","0","0","arrowleft","0","arrowleft","[0.675,0.325,0.15,0.85]","","",""
"sailing-trial","348","2081222","0.0-11.0-299.0","","","","false","","","","","","","","","","null","","1170.9999999997672","","3","1","null","null","arrowup","[0.675,0.325,0.15,0.85]","","",""
"sailing-trial","349","2084731","0.0-11.0-300.0","","","","false","","","","","","","","","","312","","192","","3","1","arrowright","1","arrowright","[0.675,0.325,0.15,0.85]","","",""
"sailing-trial","350","2087222","0.0-11.0-301.0","","","","false","","","","","","","","","","null","","786.0000000002328","","3","1","null","null","arrowup","[0.675,0.325,0.15,0.85]","","",""
"sailing-trial","351","2090551","0.0-11.0-302.0","","","","false","","","","","","","","","","326.99999999976717","","206.99999999976717","","3","0","arrowright","1","arrowright","[0.675,0.325,0.15,0.85]","","",""
"sailing-trial","352","2093671","0.0-11.0-303.0","","","","false","","","","","","","","","","null","","1384.9999999997672","","2","1","null","null","arrowup","[0.675,0.325,0.15,0.85]","","",""
"sailing-trial","353","2096645","0.0-11.0-304.0","","","","false","","","","","","","","","","476","","1.9999999995343387","","2","0","arrowright","1","arrowleft","[0.675,0.325,0.15,0.85]","","",""
"sailing-trial","354","2099722","0.0-11.0-305.0","","","","false","","","","","","","","","","null","","958","","1","1","null","null","arrowup","[0.675,0.325,0.15,0.85]","","",""
"sailing-trial","355","2105153","0.0-11.0-306.0","","","","false","","","","","","","","","","1040","","238","","0","1","arrowleft","0","arrowleft","[0.675,0.325,0.15,0.85]","","",""
"sailing-trial","356","2107878","0.0-11.0-307.0","","","","false","","","","","","","","","","null","","1112","","1","0","null","null","arrowup","[0.675,0.325,0.15,0.85]","","",""
"sailing-trial","357","2111218","0.0-11.0-308.0","","","","false","","","","","","","","","","324.99999999953434","","4.000000000465661","","0","1","arrowleft","0","arrowleft","[0.675,0.325,0.15,0.85]","","",""
"sailing-trial","358","2113994","0.0-11.0-309.0","","","","false","","","","","","","","","","null","","1035.0000000004657","","3","1","null","null","arrowup","[0.675,0.325,0.15,0.85]","","",""
"sailing-trial","359","2117203","0.0-11.0-310.0","","","","false","","","","","","","","","","96.99999999953434","","95","","3","1","arrowright","1","arrowright","[0.675,0.325,0.15,0.85]","","",""
"sailing-trial","360","2119435","0.0-11.0-311.0","","","","false","","","","","","","","","","null","","1204.0000000004657","","2","0","null","null","arrowup","[0.675,0.325,0.15,0.85]","","",""
"sailing-trial","361","2122827","0.0-11.0-312.0","","","","false","","","","","","","","","","663","","88","","0","0","arrowleft","0","arrowleft","[0.675,0.325,0.15,0.85]","","",""
"sailing-trial","362","2125742","0.0-11.0-313.0","","","","false","","","","","","","","","","null","","1219","","0","1","null","null","arrowup","[0.675,0.325,0.15,0.85]","","",""
"sailing-trial","363","2130438","0.0-11.0-314.0","","","","false","","","","","","","","","","396","","1013","","0","1","arrowleft","0","arrowleft","[0.85,0.15,0.325,0.675]","","",""
"sailing-trial","364","2134366","0.0-11.0-315.0","","","","false","","","","","","","","","","null","","2030","","0","1","null","null","arrowup","[0.85,0.15,0.325,0.675]","","",""
"sailing-trial","365","2139445","0.0-11.0-316.0","","","","false","","","","","","","","","","802","","1082","","0","1","arrowleft","0","arrowleft","[0.85,0.15,0.325,0.675]","","",""
"sailing-trial","366","2141900","0.0-11.0-317.0","","","","false","","","","","","","","","","null","","841","","2","0","null","null","arrowup","[0.85,0.15,0.325,0.675]","","",""
"sailing-trial","367","2146298","0.0-11.0-318.0","","","","false","","","","","","","","","","995","","10","","0","1","arrowleft","0","arrowleft","[0.85,0.15,0.325,0.675]","","",""
"sailing-trial","368","2149973","0.0-11.0-319.0","","","","false","","","","","","","","","","null","","1225.0000000004657","","0","1","null","null","arrowup","[0.85,0.15,0.325,0.675]","","",""
"sailing-trial","369","2154403","0.0-11.0-320.0","","","","false","","","","","","","","","","1212","","207","","0","1","arrowleft","0","arrowleft","[0.85,0.15,0.325,0.675]","","",""
"sailing-trial","370","2158849","0.0-11.0-321.0","","","","false","","","","","","","","","","null","","2827","","1","0","null","null","arrowup","[0.85,0.15,0.325,0.675]","","",""
"sailing-trial","371","2162875","0.0-11.0-322.0","","","","false","","","","","","","","","","466","","548","","0","1","arrowleft","0","arrowleft","[0.85,0.15,0.325,0.675]","","",""
"sailing-trial","372","2166668","0.0-11.0-323.0","","","","false","","","","","","","","","","null","","1262","","0","1","null","null","arrowup","[0.85,0.15,0.325,0.675]","","",""
"sailing-trial","373","2172552","0.0-11.0-324.0","","","","false","","","","","","","","","","976","","218","","0","1","arrowleft","0","arrowleft","[0.85,0.15,0.325,0.675]","","",""
"sailing-trial","374","2180122","0.0-11.0-325.0","","","","false","","","","","","","","","","null","","5880","","0","1","null","null","arrowup","[0.85,0.15,0.325,0.675]","","",""
"sailing-trial","375","2184200","0.0-11.0-326.0","","","","false","","","","","","","","","","671.0000000004657","","352","","0","1","arrowleft","0","arrowleft","[0.85,0.15,0.325,0.675]","","",""
"sailing-trial","376","2186227","0.0-11.0-327.0","","","","false","","","","","","","","","","null","","769","","1","0","null","null","arrowup","[0.85,0.15,0.325,0.675]","","",""
"sailing-trial","377","2189715","0.0-11.0-328.0","","","","false","","","","","","","","","","440","","25","","0","1","arrowleft","0","arrowleft","[0.85,0.15,0.325,0.675]","","",""
"sailing-trial","378","2192757","0.0-11.0-329.0","","","","false","","","","","","","","","","null","","1351","","0","1","null","null","arrowup","[0.85,0.15,0.325,0.675]","","",""
"sailing-trial","379","2196333","0.0-11.0-330.0","","","","false","","","","","","","","","","235","","222","","0","1","arrowleft","0","arrowleft","[0.85,0.15,0.325,0.675]","","",""
"sailing-trial","380","2198806","0.0-11.0-331.0","","","","false","","","","","","","","","","null","","774","","2","1","null","null","arrowup","[0.85,0.15,0.325,0.675]","","",""
"sailing-trial","381","2204271","0.0-11.0-332.0","","","","false","","","","","","","","","","517.0000000004657","","1297","","0","1","arrowleft","0","arrowleft","[0.675,0.325,0.15,0.85]","","",""
"sailing-trial","382","2209451","0.0-11.0-333.0","","","","false","","","","","","","","","","null","","3390","","3","1","null","null","arrowup","[0.675,0.325,0.15,0.85]","","",""
"sailing-trial","383","2212790","0.0-11.0-334.0","","","","false","","","","","","","","","","47","","680","","0","0","arrowleft","0","arrowleft","[0.675,0.325,0.15,0.85]","","",""
"sailing-trial","384","2215301","0.0-11.0-335.0","","","","false","","","","","","","","","","null","","210","","1","1","null","null","arrowup","[0.675,0.325,0.15,0.85]","","",""
"sailing-trial","385","2220593","0.0-11.0-336.0","","","","false","","","","","","","","","","417.00000000046566","","531.9999999995343","","0","0","arrowleft","0","arrowleft","[0.675,0.325,0.15,0.85]","","",""
"sailing-trial","386","2223321","0.0-11.0-337.0","","","","false","","","","","","","","","","null","","1041","","0","1","null","null","arrowup","[0.675,0.325,0.15,0.85]","","",""
"sailing-trial","387","2226781","0.0-11.0-338.0","","","","false","","","","","","","","","","255.99999999953434","","181","","0","1","arrowleft","0","arrowleft","[0.675,0.325,0.15,0.85]","","",""
"sailing-trial","388","2232429","0.0-11.0-339.0","","","","false","","","","","","","","","","null","","2924","","2","0","null","null","arrowup","[0.675,0.325,0.15,0.85]","","",""
"sailing-trial","389","2236274","0.0-11.0-340.0","","","","false","","","","","","","","","","399","","268","","0","1","arrowleft","0","arrowleft","[0.675,0.325,0.15,0.85]","","",""
"sailing-trial","390","2239583","0.0-11.0-341.0","","","","false","","","","","","","","","","null","","1571","","0","1","null","null","arrowup","[0.675,0.325,0.15,0.85]","","",""
"sailing-trial","391","2244562","0.0-11.0-342.0","","","","false","","","","","","","","","","433.00000000046566","","69","","0","1","arrowleft","0","arrowleft","[0.675,0.325,0.15,0.85]","","",""
"sailing-trial","392","2247488","0.0-11.0-343.0","","","","false","","","","","","","","","","null","","1195.0000000004657","","1","1","null","null","arrowup","[0.675,0.325,0.15,0.85]","","",""
"sailing-trial","393","2253403","0.0-11.0-344.0","","","","false","","","","","","","","","","1919","","5","","0","1","arrowleft","0","arrowleft","[0.675,0.325,0.15,0.85]","","",""
"sailing-trial","394","2259316","0.0-11.0-345.0","","","","false","","","","","","","","","","null","","3343","","1","0","null","null","arrowup","[0.675,0.325,0.15,0.85]","","",""
"sailing-trial","395","2262962","0.0-11.0-346.0","","","","false","","","","","","","","","","201","","395","","0","1","arrowleft","0","arrowleft","[0.675,0.325,0.15,0.85]","","",""
"sailing-trial","396","2266173","0.0-11.0-347.0","","","","false","","","","","","","","","","null","","1644","","2","0","null","null","arrowup","[0.675,0.325,0.15,0.85]","","",""
"sailing-trial","397","2269265","0.0-11.0-348.0","","","","false","","","","","","","","","","427","","157","","0","0","arrowleft","0","arrowleft","[0.15,0.85,0.675,0.325]","","",""
"sailing-trial","398","2271547","0.0-11.0-349.0","","","","false","","","","","","","","","","null","","1064","","0","0","null","null","arrowup","[0.15,0.85,0.675,0.325]","","",""
"sailing-trial","399","2275898","0.0-11.0-350.0","","","","false","","","","","","","","","","617","","588","","0","1","arrowleft","0","arrowleft","[0.15,0.85,0.675,0.325]","","",""
"sailing-trial","400","2279257","0.0-11.0-351.0","","","","false","","","","","","","","","","null","","1661","","1","1","null","null","arrowup","[0.15,0.85,0.675,0.325]","","",""
"sailing-trial","401","2283512","0.0-11.0-352.0","","","","false","","","","","","","","","","937","","699","","0","0","arrowleft","0","arrowleft","[0.15,0.85,0.675,0.325]","","",""
"sailing-trial","402","2286995","0.0-11.0-353.0","","","","false","","","","","","","","","","null","","1108","","2","1","null","null","arrowup","[0.15,0.85,0.675,0.325]","","",""
"sailing-trial","403","2294893","0.0-11.0-354.0","","","","false","","","","","","","","","","2354","","1202","","0","0","arrowleft","0","arrowleft","[0.15,0.85,0.675,0.325]","","",""
"sailing-trial","404","2298199","0.0-11.0-355.0","","","","false","","","","","","","","","","null","","1517.9999999995343","","0","0","null","null","arrowup","[0.15,0.85,0.675,0.325]","","",""
"sailing-trial","405","2301891","0.0-11.0-356.0","","","","false","","","","","","","","","","826","","297","","0","0","arrowleft","0","arrowleft","[0.15,0.85,0.675,0.325]","","",""
"sailing-trial","406","2306162","0.0-11.0-357.0","","","","false","","","","","","","","","","null","","984.9999999995343","","1","1","null","null","arrowup","[0.15,0.85,0.675,0.325]","","",""
"sailing-trial","407","2310162","0.0-11.0-358.0","","","","false","","","","","","","","","","956.9999999995343","","199","","0","0","arrowleft","0","arrowleft","[0.15,0.85,0.675,0.325]","","",""
"sailing-trial","408","2312429","0.0-11.0-359.0","","","","false","","","","","","","","","","null","","963.9999999995343","","3","0","null","null","arrowup","[0.15,0.85,0.675,0.325]","","",""
"sailing-trial","409","2316207","0.0-11.0-360.0","","","","false","","","","","","","","","","347.00000000046566","","161","","0","1","arrowleft","0","arrowleft","[0.15,0.85,0.675,0.325]","","",""
"sailing-trial","410","2318441","0.0-11.0-361.0","","","","false","","","","","","","","","","null","","986","","2","0","null","null","arrowup","[0.15,0.85,0.675,0.325]","","",""
"sailing-trial","411","2322858","0.0-11.0-362.0","","","","false","","","","","","","","","","1150.9999999995343","","170","","0","1","arrowleft","0","arrowleft","[0.15,0.85,0.675,0.325]","","",""
"sailing-trial","412","2324855","0.0-11.0-363.0","","","","false","","","","","","","","","","null","","722","","0","0","null","null","arrowup","[0.15,0.85,0.675,0.325]","","",""
"sailing-trial","413","2327962","0.0-11.0-364.0","","","","false","","","","","","","","","","448.99999999953434","","46","","0","0","arrowleft","0","arrowleft","[0.15,0.85,0.675,0.325]","","",""
"sailing-trial","414","2331479","0.0-11.0-365.0","","","","false","","","","","","","","","","null","","1681","","0","0","null","null","arrowup","[0.15,0.85,0.675,0.325]","","",""
"sailing-trial","415","2336361","0.0-11.0-366.0","","","","false","","","","","","","","","","622","","1158","","0","1","arrowleft","0","arrowleft","[0.15,0.85,0.675,0.325]","","",""
"sailing-trial","416","2340606","0.0-11.0-367.0","","","","false","","","","","","","","","","null","","2190","","2","1","null","null","arrowup","[0.15,0.85,0.675,0.325]","","",""
"sailing-trial","417","2345168","0.0-11.0-368.0","","","","false","","","","","","","","","","291.99999999953434","","32","","2","1","arrowright","1","arrowleft","[0.85,0.15,0.325,0.675]","","",""
"sailing-trial","418","2347616","0.0-11.0-369.0","","","","false","","","","","","","","","","null","","1012","","1","0","null","null","arrowup","[0.85,0.15,0.325,0.675]","","",""
"sailing-trial","419","2351742","0.0-11.0-370.0","","","","false","","","","","","","","","","806","","712","","2","0","arrowright","1","arrowleft","[0.85,0.15,0.325,0.675]","","",""
"sailing-trial","420","2354493","0.0-11.0-371.0","","","","false","","","","","","","","","","null","","1048","","3","1","null","null","arrowup","[0.85,0.15,0.325,0.675]","","",""
"sailing-trial","421","2359139","0.0-11.0-372.0","","","","false","","","","","","","","","","533","","780","","0","1","arrowleft","0","arrowleft","[0.85,0.15,0.325,0.675]","","",""
"sailing-trial","422","2361814","0.0-11.0-373.0","","","","false","","","","","","","","","","null","","1463","","2","0","null","null","arrowup","[0.85,0.15,0.325,0.675]","","",""
"sailing-trial","423","2365322","0.0-11.0-374.0","","","","false","","","","","","","","","","243","","129","","0","1","arrowleft","0","arrowleft","[0.85,0.15,0.325,0.675]","","",""
"sailing-trial","424","2369191","0.0-11.0-375.0","","","","false","","","","","","","","","","null","","1305","","2","0","null","null","arrowup","[0.85,0.15,0.325,0.675]","","",""
"sailing-trial","425","2372491","0.0-11.0-376.0","","","","false","","","","","","","","","","240","","48.00000000046566","","0","1","arrowleft","0","arrowleft","[0.85,0.15,0.325,0.675]","","",""
"sailing-trial","426","2374874","0.0-11.0-377.0","","","","false","","","","","","","","","","null","","1101.9999999995343","","3","0","null","null","arrowup","[0.85,0.15,0.325,0.675]","","",""
"sailing-trial","427","2378043","0.0-11.0-378.0","","","","false","","","","","","","","","","547","","92","","0","0","arrowleft","0","arrowleft","[0.85,0.15,0.325,0.675]","","",""
"sailing-trial","428","2381315","0.0-11.0-379.0","","","","false","","","","","","","","","","null","","1554","","0","1","null","null","arrowup","[0.85,0.15,0.325,0.675]","","",""
"sailing-trial","429","2384992","0.0-11.0-380.0","","","","false","","","","","","","","","","440","","152","","0","1","arrowleft","0","arrowleft","[0.85,0.15,0.325,0.675]","","",""
"sailing-trial","430","2387482","0.0-11.0-381.0","","","","false","","","","","","","","","","null","","790","","3","1","null","null","arrowup","[0.85,0.15,0.325,0.675]","","",""
"sailing-trial","431","2390875","0.0-11.0-382.0","","","","false","","","","","","","","","","270.99999999953434","","97","","0","1","arrowleft","0","arrowleft","[0.85,0.15,0.325,0.675]","","",""
"sailing-trial","432","2393798","0.0-11.0-383.0","","","","false","","","","","","","","","","null","","1162","","0","1","null","null","arrowup","[0.85,0.15,0.325,0.675]","","",""
"sailing-trial","433","2397543","0.0-11.0-384.0","","","","false","","","","","","","","","","658","","8","","0","1","arrowleft","0","arrowleft","[0.675,0.325,0.15,0.85]","","",""
"sailing-trial","434","2400133","0.0-11.0-385.0","","","","false","","","","","","","","","","null","","899","","3","1","null","null","arrowup","[0.675,0.325,0.15,0.85]","","",""
"sailing-trial","435","2403825","0.0-11.0-386.0","","","","false","","","","","","","","","","545","","111","","0","1","arrowleft","0","arrowleft","[0.675,0.325,0.15,0.85]","","",""
"sailing-trial","436","2407152","0.0-11.0-387.0","","","","false","","","","","","","","","","null","","1626","","1","1","null","null","arrowup","[0.675,0.325,0.15,0.85]","","",""
"sailing-trial","437","2411179","0.0-11.0-388.0","","","","false","","","","","","","","","","789","","219.99999999953434","","0","1","arrowleft","0","arrowleft","[0.675,0.325,0.15,0.85]","","",""
"sailing-trial","438","2413200","0.0-11.0-389.0","","","","false","","","","","","","","","","null","","849","","3","0","null","null","arrowup","[0.675,0.325,0.15,0.85]","","",""
"sailing-trial","439","2417212","0.0-11.0-390.0","","","","false","","","","","","","","","","308","","155.00000000046566","","0","1","arrowleft","0","arrowleft","[0.675,0.325,0.15,0.85]","","",""
"sailing-trial","440","2421858","0.0-11.0-391.0","","","","false","","","","","","","","","","null","","2055","","0","1","null","null","arrowup","[0.675,0.325,0.15,0.85]","","",""
"sailing-trial","441","2426269","0.0-11.0-392.0","","","","false","","","","","","","","","","1190","","223","","0","1","arrowleft","0","arrowleft","[0.675,0.325,0.15,0.85]","","",""
"sailing-trial","442","2430351","0.0-11.0-393.0","","","","false","","","","","","","","","","null","","2905","","0","0","null","null","arrowup","[0.675,0.325,0.15,0.85]","","",""
"sailing-trial","443","2435596","0.0-11.0-394.0","","","","false","","","","","","","","","","1246","","123","","0","1","arrowleft","0","arrowleft","[0.675,0.325,0.15,0.85]","","",""
"sailing-trial","444","2440276","0.0-11.0-395.0","","","","false","","","","","","","","","","null","","3498","","2","0","null","null","arrowup","[0.675,0.325,0.15,0.85]","","",""
"sailing-trial","445","2446141","0.0-11.0-396.0","","","","false","","","","","","","","","","2410.0000000004657","","7.000000000465661","","0","1","arrowleft","0","arrowleft","[0.675,0.325,0.15,0.85]","","",""
"sailing-trial","446","2450001","0.0-11.0-397.0","","","","false","","","","","","","","","","null","","1775","","3","1","null","null","arrowup","[0.675,0.325,0.15,0.85]","","",""
"sailing-trial","447","2452985","0.0-11.0-398.0","","","","false","","","","","","","","","","197","","209","","0","0","arrowleft","0","arrowleft","[0.675,0.325,0.15,0.85]","","",""
"sailing-trial","448","2455548","0.0-11.0-399.0","","","","false","","","","","","","","","","null","","1349","","1","0","null","null","arrowup","[0.675,0.325,0.15,0.85]","","",""
"instructions","449","2458328","0.0-12.0","","","","","","","","","","2779","","","","","","","","","","","","","","","","[{""page_index"":0,""viewing_time"":2779}]"
"survey-debrief","450","2529552","0.0-13.0","","","","","","","","","","71220","","","","","","","","","","","","","","{""difficulty"":""3"",""fun"":""3"",""clarity"":""2"",""strategy"":""no"",""feedback"":""no""}","",""
