"trial_type","trial_index","time_elapsed","internal_node_id","value","metadata","success","timeout","failed_images","failed_audio","failed_video","browser_interaction","low_quality","rt","stimulus","response","button_pressed","island_rt","island_response","boat_rt","boat_response","boat","reward","island_key","island","boat_key","reward_probabilities","responses","num_errors","view_history"
"pavlovia","0","3","0.0-0.0","","","","","","","","","","","","","","","","","","","","","","","","","",""
"call-function","1","4","0.0-1.0","","{""task_version"":""sailing_part1_v1"",""task_condition"":""good"",""boats"":[""D"",""A"",""B"",""C""],""boats_demo"":[""H"",""E"",""F"",""G""],""islands"":[""B"",""A""],""subject_id"":""14934"",""age"":""12"",""gender"":""Male""}","","","","","","","","","","","","","","","","","","","","","","","",""
"preload","2","6236","0.0-2.0","","","true","false","[]","[]","[]","[{""event"":""fullscreenenter"",""trial"":3,""time"":11057}]","false","","","","","","","","","","","","","","","","",""
"fullscreen","3","12016","0.0-3.0","","","true","","","","","","","","","","","","","","","","","","","","","","",""
"audio-keyboard-response","4","16330","0.0-4.0-0.0","","","","","","","","","","4021.3333333333335","audio/beep_loop.wav"," ","","","","","","","","","","","","","",""
"audio-test","5","18155","0.0-4.0-1.0","","","","","","","","","","null","audio/turtle.mp3","","3","","","","","","","","","","","","",""
"audio-test","6","20523","0.0-4.0-2.0","","","","","","","","","","null","audio/shark.mp3","","2","","","","","","","","","","","","",""
"sailing-instructions","7","54146","0.0-5.0-0.0-0.0","","","","","","","","","","","","","","null","null","null","null","null","null","","","","","","",""
"sailing-trial","8","61402","0.0-5.0-0.0-1.0-0.0","","","","false","","","","","","","","","","6117.900000035763","","null","","null","null","arrowleft","0","null","null","","",""
"sailing-trial","9","64371","0.0-5.0-0.0-1.0-1.0","","","","false","","","","","","","","","","1852.199999988079","","null","","null","null","arrowright","1","null","null","","",""
"sailing-trial","10","68189","0.0-5.0-0.0-1.0-2.0","","","","false","","","","","","","","","","2697.800000011921","","null","","null","null","arrowright","1","null","null","","",""
"sailing-instructions","11","117603","0.0-5.0-0.0-2.0","","","","","","","","","","","","","","null","null","null","null","0","null","","","","","","",""
"sailing-trial","12","123868","0.0-5.0-0.0-3.0-0.0","","","","false","","","","","","","","","","null","","2053.099999964237","","2","1","null","null","arrowleft","[1,1,1,1]","","",""
"sailing-trial","13","128256","0.0-5.0-0.0-3.0-1.0","","","","false","","","","","","","","","","null","","1778.800000011921","","3","1","null","null","arrowright","[1,1,1,1]","","",""
"sailing-trial","14","135004","0.0-5.0-0.0-3.0-2.0","","","","false","","","","","","","","","","null","","3173.400000035763","","3","0","null","null","arrowright","[0,0,0,0]","","",""
"sailing-instructions","15","142376","0.0-5.0-0.0-4.0","","","","","","","","","","","","","","null","null","null","null","null","null","","","","","","",""
"sailing-comprehension","16","189946","0.0-5.0-0.0-5.0","","","","","","","","","","32215.900000035763","","","","","","","","","","","","","","[""true"",""false"",""false"",""true""]","1",""
"sailing-instructions","17","244146","0.0-5.0-0.1-0.1","","","","","","","","","","","","","","null","null","null","null","null","null","","","","","","",""
"sailing-trial","18","246752","0.0-5.0-0.1-1.1-0.1","","","","false","","","","","","","","","","1474.1000000238419","","null","","null","null","arrowleft","0","null","null","","",""
"sailing-trial","19","248522","0.0-5.0-0.1-1.1-1.1","","","","false","","","","","","","","","","661.5","","null","","null","null","arrowright","1","null","null","","",""
"sailing-trial","20","251703","0.0-5.0-0.1-1.1-2.1","","","","false","","","","","","","","","","2029.199999988079","","null","","null","null","arrowright","1","null","null","","",""
"sailing-instructions","21","299937","0.0-5.0-0.1-2.1","","","","","","","","","","","","","","null","null","null","null","0","null","","","","","","",""
"sailing-trial","22","305887","0.0-5.0-0.1-3.1-0.1","","","","false","","","","","","","","","","null","","2221","","2","1","null","null","arrowleft","[1,1,1,1]","","",""
"sailing-trial","23","309649","0.0-5.0-0.1-3.1-1.1","","","","false","","","","","","","","","","null","","1241.8999999761581","","3","1","null","null","arrowright","[1,1,1,1]","","",""
"sailing-trial","24","314119","0.0-5.0-0.1-3.1-2.1","","","","false","","","","","","","","","","null","","944.3000000119209","","2","0","null","null","arrowleft","[0,0,0,0]","","",""
"sailing-instructions","25","321724","0.0-5.0-0.1-4.1","","","","","","","","","","","","","","null","null","null","null","null","null","","","","","","",""
"sailing-comprehension","26","355291","0.0-5.0-0.1-5.1","","","","","","","","","","21986","","","","","","","","","","","","","","[""true"",""true"",""false"",""true""]","0",""
"sailing-instructions","27","431864","0.0-6.0-0.0-0.0","","","","","","","","","","","","","","null","null","null","null","null","null","","","","","","",""
"sailing-comprehension","28","490641","0.0-6.0-0.0-1.0","","","","","","","","","","53743.30000001192","","","","","","","","","","","","","","[""true"",""false"",""true""]","0",""
"sailing-instructions","29","509258","0.0-7.0-0.0-0.0","","","","","","","","","","","","","","null","null","null","null","null","null","","","","","","",""
"sailing-trial","30","517701","0.0-7.0-0.0-1.0-0.0","","","","false","","","","","","","","","","null","","5393.699999988079","","0","0","null","null","arrowup","[0.2,0.8,0.2,0.8]","","",""
"sailing-trial","31","521038","0.0-7.0-0.0-1.0-1.0","","","","false","","","","","","","","","","null","","1627.3999999761581","","1","0","null","null","arrowup","[0.2,0.8,0.2,0.8]","","",""
"sailing-trial","32","524520","0.0-7.0-0.0-1.0-2.0","","","","false","","","","","","","","","","null","","1421.5999999642372","","2","1","null","null","arrowup","[0.2,0.8,0.2,0.8]","","",""
"sailing-trial","33","526689","0.0-7.0-0.0-1.0-3.0","","","","false","","","","","","","","","","null","","797.6999999880791","","3","0","null","null","arrowup","[0.2,0.8,0.2,0.8]","","",""
"sailing-comprehension","34","541879","0.0-7.0-0.0-2.0","","","","","","","","","","11828","","","","","","","","","","","","","","[""false""]","0",""
"sailing-instructions","35","552743","0.0-8.0-0.0-0.0","","","","","","","","","","","","","","null","null","null","null","null","null","","","","","","",""
"sailing-comprehension","36","562371","0.0-8.0-0.0-1.0","","","","","","","","","","4773.400000035763","","","","","","","","","","","","","","[""true""]","0",""
"sailing-instructions","37","604311","0.0-9.0-0.0-0.0","","","","","","","","","","","","","","null","null","null","null","null","null","","","","","","",""
"sailing-trial","38","611518","0.0-9.0-0.0-1.0-0.0","","","","false","","","","","","","","","","2401.900000035763","","986.5","","2","0","arrowright","1","arrowleft","[0.2,0.8,0.2,0.8]","","",""
"sailing-trial","39","615807","0.0-9.0-0.0-1.0-1.0","","","","false","","","","","","","","","","1090","","14.300000011920929","","3","1","arrowright","1","arrowright","[0.2,0.8,0.2,0.8]","","",""
"sailing-trial","40","619389","0.0-9.0-0.0-1.0-2.0","","","","false","","","","","","","","","","null","","1903.9000000357628","","0","0","null","null","arrowup","[0.2,0.8,0.2,0.8]","","",""
"sailing-trial","41","626340","0.0-9.0-0.0-1.0-3.0","","","","false","","","","","","","","","","641.4000000357628","","3227.100000023842","","3","1","arrowright","1","arrowright","[0.2,0.8,0.2,0.8]","","",""
"sailing-trial","42","629889","0.0-9.0-0.0-1.0-4.0","","","","false","","","","","","","","","","null","","1527","","3","1","null","null","arrowup","[0.2,0.8,0.2,0.8]","","",""
"sailing-trial","43","633898","0.0-9.0-0.0-1.0-5.0","","","","false","","","","","","","","","","1098.1000000238419","","55.80000001192093","","3","1","arrowright","1","arrowright","[0.2,0.8,0.2,0.8]","","",""
"sailing-instructions","44","658656","0.0-10.0","","","","","","","","","","","","","","null","null","null","null","null","null","","","","","","",""
"sailing-trial","45","663269","0.0-11.0-0.0","","","","false","","","","","","","","","","1060.2999999523163","","83.79999995231628","","3","1","arrowright","1","arrowright","[0.85,0.15,0.325,0.675]","","",""
"sailing-trial","46","667107","0.0-11.0-1.0","","","","false","","","","","","","","","","null","","1618.8999999761581","","0","1","null","null","arrowup","[0.85,0.15,0.325,0.675]","","",""
"sailing-trial","47","671041","0.0-11.0-2.0","","","","false","","","","","","","","","","593.3999999761581","","519.1999999880791","","3","1","arrowright","1","arrowright","[0.85,0.15,0.325,0.675]","","",""
"sailing-trial","48","674101","0.0-11.0-3.0","","","","false","","","","","","","","","","null","","1067","","2","0","null","null","arrowup","[0.85,0.15,0.325,0.675]","","",""
"sailing-trial","49","677603","0.0-11.0-4.0","","","","false","","","","","","","","","","490.60000002384186","","48.30000001192093","","3","1","arrowright","1","arrowright","[0.85,0.15,0.325,0.675]","","",""
"sailing-trial","50","682719","0.0-11.0-5.0","","","","false","","","","","","","","","","null","","1210.1000000238419","","1","1","null","null","arrowup","[0.85,0.15,0.325,0.675]","","",""
"sailing-trial","51","686138","0.0-11.0-6.0","","","","false","","","","","","","","","","60.5","","505.89999997615814","","3","0","arrowright","1","arrowright","[0.85,0.15,0.325,0.675]","","",""
"sailing-trial","52","689958","0.0-11.0-7.0","","","","false","","","","","","","","","","null","","1355.5","","0","1","null","null","arrowup","[0.85,0.15,0.325,0.675]","","",""
"sailing-trial","53","693666","0.0-11.0-8.0","","","","false","","","","","","","","","","524.8999999761581","","27.19999998807907","","3","1","arrowright","1","arrowright","[0.85,0.15,0.325,0.675]","","",""
"sailing-trial","54","697921","0.0-11.0-9.0","","","","false","","","","","","","","","","null","","1244.3999999761581","","2","0","null","null","arrowup","[0.85,0.15,0.325,0.675]","","",""
"sailing-trial","55","702163","0.0-11.0-10.0","","","","false","","","","","","","","","","507.2999999523163","","818.1999999880791","","3","1","arrowright","1","arrowright","[0.85,0.15,0.325,0.675]","","",""
"sailing-trial","56","705348","0.0-11.0-11.0","","","","false","","","","","","","","","","null","","1116","","3","1","null","null","arrowup","[0.85,0.15,0.325,0.675]","","",""
"sailing-trial","57","709561","0.0-11.0-12.0","","","","false","","","","","","","","","","592.8000000119209","","241.69999998807907","","0","1","arrowleft","0","arrowleft","[0.85,0.15,0.325,0.675]","","",""
"sailing-trial","58","712808","0.0-11.0-13.0","","","","false","","","","","","","","","","null","","1071.800000011921","","0","1","null","null","arrowup","[0.85,0.15,0.325,0.675]","","",""
"sailing-trial","59","716494","0.0-11.0-14.0","","","","false","","","","","","","","","","443.0999999642372","","4.900000035762787","","0","1","arrowleft","0","arrowleft","[0.85,0.15,0.325,0.675]","","",""
"sailing-trial","60","719514","0.0-11.0-15.0","","","","false","","","","","","","","","","null","","1254.199999988079","","1","0","null","null","arrowup","[0.85,0.15,0.325,0.675]","","",""
"sailing-trial","61","723108","0.0-11.0-16.0","","","","false","","","","","","","","","","407.89999997615814","","13.199999988079071","","0","1","arrowleft","0","arrowleft","[0.85,0.15,0.325,0.675]","","",""
"sailing-trial","62","725643","0.0-11.0-17.0","","","","false","","","","","","","","","","null","","664.0999999642372","","0","1","null","null","arrowup","[0.85,0.15,0.325,0.675]","","",""
"sailing-trial","63","728800","0.0-11.0-18.0","","","","false","","","","","","","","","","358.89999997615814","","510.89999997615814","","0","0","arrowleft","0","arrowleft","[0.15,0.85,0.675,0.325]","","",""
"sailing-trial","64","733083","0.0-11.0-19.0","","","","false","","","","","","","","","","null","","1270.199999988079","","3","0","null","null","arrowup","[0.15,0.85,0.675,0.325]","","",""
"sailing-trial","65","738125","0.0-11.0-20.0","","","","false","","","","","","","","","","957.8000000119209","","1652.5","","0","0","arrowleft","0","arrowleft","[0.15,0.85,0.675,0.325]","","",""
"sailing-trial","66","741670","0.0-11.0-21.0","","","","false","","","","","","","","","","null","","1253.199999988079","","1","1","null","null","arrowup","[0.15,0.85,0.675,0.325]","","",""
"sailing-trial","67","745508","0.0-11.0-22.0","","","","false","","","","","","","","","","745.6000000238419","","166.5","","3","0","arrowright","1","arrowright","[0.15,0.85,0.675,0.325]","","",""
"sailing-trial","68","748392","0.0-11.0-23.0","","","","false","","","","","","","","","","null","","940.5","","1","1","null","null","arrowup","[0.15,0.85,0.675,0.325]","","",""
"sailing-trial","69","754106","0.0-11.0-24.0","","","","false","","","","","","","","","","672.3000000119209","","668","","3","1","arrowright","1","arrowright","[0.15,0.85,0.675,0.325]","","",""
"sailing-trial","70","757235","0.0-11.0-25.0","","","","false","","","","","","","","","","null","","1167.5999999642372","","2","1","null","null","arrowup","[0.15,0.85,0.675,0.325]","","",""
"sailing-trial","71","761732","0.0-11.0-26.0","","","","false","","","","","","","","","","788.9000000357628","","1011.5","","3","0","arrowright","1","arrowright","[0.15,0.85,0.675,0.325]","","",""
"sailing-trial","72","764874","0.0-11.0-27.0","","","","false","","","","","","","","","","null","","1083.5","","1","0","null","null","arrowup","[0.15,0.85,0.675,0.325]","","",""
"sailing-trial","73","769185","0.0-11.0-28.0","","","","false","","","","","","","","","","465.60000002384186","","814.8000000119209","","1","1","arrowleft","0","arrowright","[0.15,0.85,0.675,0.325]","","",""
"sailing-trial","74","772288","0.0-11.0-29.0","","","","false","","","","","","","","","","null","","1143.2000000476837","","2","1","null","null","arrowup","[0.15,0.85,0.675,0.325]","","",""
"sailing-trial","75","775657","0.0-11.0-30.0","","","","false","","","","","","","","","","443.5","","355.69999998807907","","2","1","arrowright","1","arrowleft","[0.15,0.85,0.675,0.325]","","",""
"sailing-trial","76","778785","0.0-11.0-31.0","","","","false","","","","","","","","","","null","","1223.0999999642372","","3","1","null","null","arrowup","[0.15,0.85,0.675,0.325]","","",""
"sailing-trial","77","784035","0.0-11.0-32.0","","","","false","","","","","","","","","","1482.1000000238419","","808.3000000119209","","2","1","arrowright","1","arrowleft","[0.15,0.85,0.675,0.325]","","",""
"sailing-trial","78","787209","0.0-11.0-33.0","","","","false","","","","","","","","","","null","","1067.300000011921","","1","1","null","null","arrowup","[0.15,0.85,0.675,0.325]","","",""
"sailing-trial","79","791181","0.0-11.0-34.0","","","","false","","","","","","","","","","521.8999999761581","","679.1999999880791","","2","0","arrowright","1","arrowleft","[0.85,0.15,0.325,0.675]","","",""
"sailing-trial","80","794509","0.0-11.0-35.0","","","","false","","","","","","","","","","null","","1077.6000000238419","","2","1","null","null","arrowup","[0.85,0.15,0.325,0.675]","","",""
"sailing-trial","81","799939","0.0-11.0-36.0","","","","false","","","","","","","","","","916.1000000238419","","1526.300000011921","","3","0","arrowright","1","arrowright","[0.85,0.15,0.325,0.675]","","",""
"sailing-trial","82","803547","0.0-11.0-37.0","","","","false","","","","","","","","","","null","","2310.600000023842","","1","0","null","null","arrowup","[0.85,0.15,0.325,0.675]","","",""
"sailing-trial","83","809296","0.0-11.0-38.0","","","","false","","","","","","","","","","879.8000000119209","","1706.8999999761581","","0","1","arrowleft","0","arrowleft","[0.85,0.15,0.325,0.675]","","",""
"sailing-trial","84","812395","0.0-11.0-39.0","","","","false","","","","","","","","","","null","","1220.4000000357628","","2","1","null","null","arrowup","[0.85,0.15,0.325,0.675]","","",""
"sailing-trial","85","816352","0.0-11.0-40.0","","","","false","","","","","","","","","","618","","12.199999988079071","","0","0","arrowleft","0","arrowleft","[0.85,0.15,0.325,0.675]","","",""
"sailing-trial","86","819489","0.0-11.0-41.0","","","","false","","","","","","","","","","null","","1857.1000000238419","","3","0","null","null","arrowup","[0.85,0.15,0.325,0.675]","","",""
"sailing-trial","87","823513","0.0-11.0-42.0","","","","false","","","","","","","","","","634.5","","389.30000001192093","","2","0","arrowright","1","arrowleft","[0.85,0.15,0.325,0.675]","","",""
"sailing-trial","88","827555","0.0-11.0-43.0","","","","false","","","","","","","","","","null","","1021.2999999523163","","1","0","null","null","arrowup","[0.85,0.15,0.325,0.675]","","",""
"sailing-trial","89","833061","0.0-11.0-44.0","","","","false","","","","","","","","","","1102.1000000238419","","383.7999999523163","","3","0","arrowright","1","arrowright","[0.85,0.15,0.325,0.675]","","",""
"sailing-trial","90","836147","0.0-11.0-45.0","","","","false","","","","","","","","","","null","","930","","2","1","null","null","arrowup","[0.85,0.15,0.325,0.675]","","",""
"sailing-trial","91","839952","0.0-11.0-46.0","","","","false","","","","","","","","","","713.3000000119209","","701","","1","0","arrowleft","0","arrowright","[0.85,0.15,0.325,0.675]","","",""
"sailing-trial","92","842991","0.0-11.0-47.0","","","","false","","","","","","","","","","null","","1270.800000011921","","1","1","null","null","arrowup","[0.85,0.15,0.325,0.675]","","",""
"sailing-trial","93","847884","0.0-11.0-48.0","","","","false","","","","","","","","","","492","","369.80000001192093","","2","0","arrowright","1","arrowleft","[0.85,0.15,0.325,0.675]","","",""
"sailing-trial","94","851108","0.0-11.0-49.0","","","","false","","","","","","","","","","null","","1410.4000000357628","","3","1","null","null","arrowup","[0.85,0.15,0.325,0.675]","","",""
"sailing-trial","95","855644","0.0-11.0-50.0","","","","false","","","","","","","","","","604.8999999761581","","945","","2","1","arrowright","1","arrowleft","[0.85,0.15,0.325,0.675]","","",""
"sailing-trial","96","858524","0.0-11.0-51.0","","","","false","","","","","","","","","","null","","1065.3999999761581","","3","1","null","null","arrowup","[0.85,0.15,0.325,0.675]","","",""
"sailing-trial","97","863924","0.0-11.0-52.0","","","","false","","","","","","","","","","1863.5999999642372","","405","","2","0","arrowright","1","arrowleft","[0.85,0.15,0.325,0.675]","","",""
"sailing-trial","98","866689","0.0-11.0-53.0","","","","false","","","","","","","","","","null","","1001","","2","0","null","null","arrowup","[0.85,0.15,0.325,0.675]","","",""
"sailing-trial","99","871715","0.0-11.0-54.0","","","","false","","","","","","","","","","1026.2999999523163","","857.8999999761581","","0","1","arrowleft","0","arrowleft","[0.675,0.325,0.15,0.85]","","",""
"sailing-trial","100","879075","0.0-11.0-55.0","","","","false","","","","","","","","","","null","","5483.200000047684","","3","1","null","null","arrowup","[0.675,0.325,0.15,0.85]","","",""
"sailing-trial","101","882845","0.0-11.0-56.0","","","","false","","","","","","","","","","769.1000000238419","","68.5","","3","1","arrowright","1","arrowright","[0.675,0.325,0.15,0.85]","","",""
"sailing-trial","102","885858","0.0-11.0-57.0","","","","false","","","","","","","","","","null","","862.3000000119209","","3","1","null","null","arrowup","[0.675,0.325,0.15,0.85]","","",""
"sailing-trial","103","889707","0.0-11.0-58.0","","","","false","","","","","","","","","","522.5","","15.400000035762787","","3","1","arrowright","1","arrowright","[0.675,0.325,0.15,0.85]","","",""
"sailing-trial","104","892539","0.0-11.0-59.0","","","","false","","","","","","","","","","null","","1156.4000000357628","","0","0","null","null","arrowup","[0.675,0.325,0.15,0.85]","","",""
"sailing-trial","105","897904","0.0-11.0-60.0","","","","false","","","","","","","","","","780.7999999523163","","544.6000000238419","","3","0","arrowright","1","arrowright","[0.675,0.325,0.15,0.85]","","",""
"sailing-trial","106","900841","0.0-11.0-61.0","","","","false","","","","","","","","","","null","","932","","0","1","null","null","arrowup","[0.675,0.325,0.15,0.85]","","",""
"sailing-trial","107","905509","0.0-11.0-62.0","","","","false","","","","","","","","","","762.8000000119209","","458.60000002384186","","0","1","arrowleft","0","arrowleft","[0.675,0.325,0.15,0.85]","","",""
"sailing-trial","108","908485","0.0-11.0-63.0","","","","false","","","","","","","","","","null","","1120.1000000238419","","3","1","null","null","arrowup","[0.675,0.325,0.15,0.85]","","",""
"sailing-trial","109","911483","0.0-11.0-64.0","","","","false","","","","","","","","","","561.5999999642372","","149.4000000357628","","0","0","arrowleft","0","arrowleft","[0.675,0.325,0.15,0.85]","","",""
"sailing-trial","110","915980","0.0-11.0-65.0","","","","false","","","","","","","","","","null","","1464.7999999523163","","2","0","null","null","arrowup","[0.675,0.325,0.15,0.85]","","",""
"sailing-trial","111","920038","0.0-11.0-66.0","","","","false","","","","","","","","","","555.5","","363.30000001192093","","3","1","arrowright","1","arrowright","[0.675,0.325,0.15,0.85]","","",""
"sailing-trial","112","924914","0.0-11.0-67.0","","","","false","","","","","","","","","","null","","1873.5","","1","0","null","null","arrowup","[0.675,0.325,0.15,0.85]","","",""
"sailing-trial","113","932456","0.0-11.0-68.0","","","","false","","","","","","","","","","4598.5","","77.20000004768372","","3","1","arrowright","1","arrowright","[0.675,0.325,0.15,0.85]","","",""
"sailing-trial","114","935369","0.0-11.0-69.0","","","","false","","","","","","","","","","null","","1193.300000011921","","0","1","null","null","arrowup","[0.675,0.325,0.15,0.85]","","",""
"sailing-trial","115","938885","0.0-11.0-70.0","","","","false","","","","","","","","","","493.19999998807907","","4.599999964237213","","3","1","arrowright","1","arrowright","[0.675,0.325,0.15,0.85]","","",""
"sailing-trial","116","941251","0.0-11.0-71.0","","","","false","","","","","","","","","","null","","1030.3999999761581","","0","0","null","null","arrowup","[0.675,0.325,0.15,0.85]","","",""
"sailing-trial","117","944186","0.0-11.0-72.0","","","","false","","","","","","","","","","305.30000001192093","","25.399999976158142","","3","0","arrowright","1","arrowright","[0.675,0.325,0.15,0.85]","","",""
"sailing-trial","118","947301","0.0-11.0-73.0","","","","false","","","","","","","","","","null","","1658.7000000476837","","1","0","null","null","arrowup","[0.675,0.325,0.15,0.85]","","",""
"sailing-trial","119","952200","0.0-11.0-74.0","","","","false","","","","","","","","","","401.0999999642372","","491.4000000357628","","3","0","arrowright","1","arrowright","[0.85,0.15,0.325,0.675]","","",""
"sailing-trial","120","955326","0.0-11.0-75.0","","","","false","","","","","","","","","","null","","989.8000000119209","","0","1","null","null","arrowup","[0.85,0.15,0.325,0.675]","","",""
"sailing-trial","121","959757","0.0-11.0-76.0","","","","false","","","","","","","","","","531.3000000119209","","887","","2","1","arrowright","1","arrowleft","[0.85,0.15,0.325,0.675]","","",""
"sailing-trial","122","963441","0.0-11.0-77.0","","","","false","","","","","","","","","","null","","1949.199999988079","","0","1","null","null","arrowup","[0.85,0.15,0.325,0.675]","","",""
"sailing-trial","123","967843","0.0-11.0-78.0","","","","false","","","","","","","","","","939.5","","378.19999998807907","","0","1","arrowleft","0","arrowleft","[0.85,0.15,0.325,0.675]","","",""
"sailing-trial","124","970246","0.0-11.0-79.0","","","","false","","","","","","","","","","null","","1274.9000000357628","","1","0","null","null","arrowup","[0.85,0.15,0.325,0.675]","","",""
"sailing-trial","125","973303","0.0-11.0-80.0","","","","false","","","","","","","","","","529.3000000119209","","376.10000002384186","","0","0","arrowleft","0","arrowleft","[0.85,0.15,0.325,0.675]","","",""
"sailing-trial","126","976379","0.0-11.0-81.0","","","","false","","","","","","","","","","null","","1206.800000011921","","0","1","null","null","arrowup","[0.85,0.15,0.325,0.675]","","",""
"sailing-trial","127","979155","0.0-11.0-82.0","","","","false","","","","","","","","","","435.80000001192093","","293.19999998807907","","0","0","arrowleft","0","arrowleft","[0.85,0.15,0.325,0.675]","","",""
"sailing-trial","128","982092","0.0-11.0-83.0","","","","false","","","","","","","","","","null","","1037.800000011921","","0","1","null","null","arrowup","[0.85,0.15,0.325,0.675]","","",""
"sailing-trial","129","987042","0.0-11.0-84.0","","","","false","","","","","","","","","","1226.199999988079","","588.6999999880791","","0","1","arrowleft","0","arrowleft","[0.85,0.15,0.325,0.675]","","",""
"sailing-trial","130","991624","0.0-11.0-85.0","","","","false","","","","","","","","","","null","","1562.6000000238419","","1","0","null","null","arrowup","[0.85,0.15,0.325,0.675]","","",""
"sailing-trial","131","995992","0.0-11.0-86.0","","","","false","","","","","","","","","","555.3999999761581","","774.8999999761581","","0","1","arrowleft","0","arrowleft","[0.85,0.15,0.325,0.675]","","",""
"sailing-trial","132","1000145","0.0-11.0-87.0","","","","false","","","","","","","","","","null","","2148.900000035763","","3","1","null","null","arrowup","[0.85,0.15,0.325,0.675]","","",""
"sailing-trial","133","1004109","0.0-11.0-88.0","","","","false","","","","","","","","","","536","","579.6000000238419","","0","1","arrowleft","0","arrowleft","[0.85,0.15,0.325,0.675]","","",""
"sailing-trial","134","1008196","0.0-11.0-89.0","","","","false","","","","","","","","","","null","","1036.7000000476837","","0","1","null","null","arrowup","[0.85,0.15,0.325,0.675]","","",""
"sailing-trial","135","1012298","0.0-11.0-90.0","","","","false","","","","","","","","","","771.5","","243","","0","1","arrowleft","0","arrowleft","[0.85,0.15,0.325,0.675]","","",""
"sailing-trial","136","1017722","0.0-11.0-91.0","","","","false","","","","","","","","","","null","","3884.100000023842","","0","0","null","null","arrowup","[0.85,0.15,0.325,0.675]","","",""
"sailing-trial","137","1022046","0.0-11.0-92.0","","","","false","","","","","","","","","","807.6000000238419","","266.5","","0","1","arrowleft","0","arrowleft","[0.675,0.325,0.15,0.85]","","",""
"sailing-trial","138","1026324","0.0-11.0-93.0","","","","false","","","","","","","","","","null","","1266.3999999761581","","3","0","null","null","arrowup","[0.675,0.325,0.15,0.85]","","",""
"sailing-trial","139","1030275","0.0-11.0-94.0","","","","false","","","","","","","","","","630.0999999642372","","303.30000001192093","","0","1","arrowleft","0","arrowleft","[0.675,0.325,0.15,0.85]","","",""
"sailing-trial","140","1034542","0.0-11.0-95.0","","","","false","","","","","","","","","","null","","1630.6000000238419","","2","0","null","null","arrowup","[0.675,0.325,0.15,0.85]","","",""
"sailing-trial","141","1039451","0.0-11.0-96.0","","","","false","","","","","","","","","","448","","491.69999998807907","","0","0","arrowleft","0","arrowleft","[0.675,0.325,0.15,0.85]","","",""
"sailing-trial","142","1042057","0.0-11.0-97.0","","","","false","","","","","","","","","","null","","1058.300000011921","","2","0","null","null","arrowup","[0.675,0.325,0.15,0.85]","","",""
"sailing-trial","143","1046707","0.0-11.0-98.0","","","","false","","","","","","","","","","1235.3999999761581","","461.19999998807907","","1","0","arrowleft","0","arrowright","[0.675,0.325,0.15,0.85]","","",""
"sailing-trial","144","1049422","0.0-11.0-99.0","","","","false","","","","","","","","","","null","","1198.300000011921","","1","0","null","null","arrowup","[0.675,0.325,0.15,0.85]","","",""
"sailing-trial","145","1054096","0.0-11.0-100.0","","","","false","","","","","","","","","","826.1999999880791","","187.4000000357628","","3","1","arrowright","1","arrowright","[0.675,0.325,0.15,0.85]","","",""
"sailing-trial","146","1058257","0.0-11.0-101.0","","","","false","","","","","","","","","","null","","1149","","1","0","null","null","arrowup","[0.675,0.325,0.15,0.85]","","",""
"sailing-trial","147","1062525","0.0-11.0-102.0","","","","false","","","","","","","","","","532.8000000119209","","490.89999997615814","","3","1","arrowright","1","arrowright","[0.675,0.325,0.15,0.85]","","",""
"sailing-trial","148","1066732","0.0-11.0-103.0","","","","false","","","","","","","","","","null","","1197.5","","1","0","null","null","arrowup","[0.675,0.325,0.15,0.85]","","",""
"sailing-trial","149","1071259","0.0-11.0-104.0","","","","false","","","","","","","","","","542.1000000238419","","554.0999999642372","","3","1","arrowright","1","arrowright","[0.675,0.325,0.15,0.85]","","",""
"sailing-trial","150","1075642","0.0-11.0-105.0","","","","false","","","","","","","","","","null","","1892","","2","0","null","null","arrowup","[0.675,0.325,0.15,0.85]","","",""
"sailing-trial","151","1081031","0.0-11.0-106.0","","","","false","","","","","","","","","","552.3000000119209","","1783.7999999523163","","3","1","arrowright","1","arrowright","[0.675,0.325,0.15,0.85]","","",""
"sailing-trial","152","1084349","0.0-11.0-107.0","","","","false","","","","","","","","","","null","","1315.1000000238419","","3","1","null","null","arrowup","[0.675,0.325,0.15,0.85]","","",""
"sailing-trial","153","1088493","0.0-11.0-108.0","","","","false","","","","","","","","","","698.8999999761581","","341.89999997615814","","3","1","arrowright","1","arrowright","[0.675,0.325,0.15,0.85]","","",""
"sailing-trial","154","1092224","0.0-11.0-109.0","","","","false","","","","","","","","","","null","","1749.199999988079","","3","1","null","null","arrowup","[0.675,0.325,0.15,0.85]","","",""
"sailing-trial","155","1096663","0.0-11.0-110.0","","","","false","","","","","","","","","","1381.199999988079","","418.5","","3","1","arrowright","1","arrowright","[0.675,0.325,0.15,0.85]","","",""
"sailing-trial","156","1099262","0.0-11.0-111.0","","","","false","","","","","","","","","","null","","1210.0999999642372","","2","0","null","null","arrowup","[0.675,0.325,0.15,0.85]","","",""
"sailing-trial","157","1103490","0.0-11.0-112.0","","","","false","","","","","","","","","","659.9000000357628","","633","","3","1","arrowright","1","arrowright","[0.85,0.15,0.325,0.675]","","",""
"sailing-trial","158","1106106","0.0-11.0-113.0","","","","false","","","","","","","","","","null","","1232.300000011921","","1","0","null","null","arrowup","[0.85,0.15,0.325,0.675]","","",""
"sailing-trial","159","1109107","0.0-11.0-114.0","","","","false","","","","","","","","","","195.80000001192093","","39.89999997615814","","3","1","arrowright","1","arrowright","[0.85,0.15,0.325,0.675]","","",""
"sailing-trial","160","1113395","0.0-11.0-115.0","","","","false","","","","","","","","","","null","","2206.699999988079","","0","1","null","null","arrowup","[0.85,0.15,0.325,0.675]","","",""
"sailing-trial","161","1116563","0.0-11.0-116.0","","","","false","","","","","","","","","","634.0999999642372","","16.100000023841858","","0","1","arrowleft","0","arrowleft","[0.85,0.15,0.325,0.675]","","",""
"sailing-trial","162","1119454","0.0-11.0-117.0","","","","false","","","","","","","","","","null","","1238.800000011921","","1","0","null","null","arrowup","[0.85,0.15,0.325,0.675]","","",""
"sailing-trial","163","1124421","0.0-11.0-118.0","","","","false","","","","","","","","","","519.7999999523163","","413.5","","0","0","arrowleft","0","arrowleft","[0.85,0.15,0.325,0.675]","","",""
"sailing-trial","164","1127460","0.0-11.0-119.0","","","","false","","","","","","","","","","null","","1128.800000011921","","0","1","null","null","arrowup","[0.85,0.15,0.325,0.675]","","",""
"sailing-trial","165","1132607","0.0-11.0-120.0","","","","false","","","","","","","","","","975.5","","874.1999999880791","","0","1","arrowleft","0","arrowleft","[0.85,0.15,0.325,0.675]","","",""
"sailing-trial","166","1135929","0.0-11.0-121.0","","","","false","","","","","","","","","","null","","1348.199999988079","","0","1","null","null","arrowup","[0.85,0.15,0.325,0.675]","","",""
"sailing-trial","167","1140413","0.0-11.0-122.0","","","","false","","","","","","","","","","1323.5","","468.19999998807907","","0","1","arrowleft","0","arrowleft","[0.85,0.15,0.325,0.675]","","",""
"sailing-trial","168","1144359","0.0-11.0-123.0","","","","false","","","","","","","","","","null","","2076.699999988079","","3","1","null","null","arrowup","[0.85,0.15,0.325,0.675]","","",""
"sailing-trial","169","1149123","0.0-11.0-124.0","","","","false","","","","","","","","","","876.8000000119209","","743.5999999642372","","0","1","arrowleft","0","arrowleft","[0.85,0.15,0.325,0.675]","","",""
"sailing-trial","170","1153055","0.0-11.0-125.0","","","","false","","","","","","","","","","null","","876.8000000119209","","1","0","null","null","arrowup","[0.85,0.15,0.325,0.675]","","",""
"sailing-trial","171","1157456","0.0-11.0-126.0","","","","false","","","","","","","","","","638.3000000119209","","403.19999998807907","","0","1","arrowleft","0","arrowleft","[0.85,0.15,0.325,0.675]","","",""
"sailing-trial","172","1163407","0.0-11.0-127.0","","","","false","","","","","","","","","","null","","4050.800000011921","","0","1","null","null","arrowup","[0.85,0.15,0.325,0.675]","","",""
"sailing-trial","173","1166906","0.0-11.0-128.0","","","","false","","","","","","","","","","514.2000000476837","","322.9000000357628","","0","1","arrowleft","0","arrowleft","[0.675,0.325,0.15,0.85]","","",""
"sailing-trial","174","1169281","0.0-11.0-129.0","","","","false","","","","","","","","","","null","","859.1000000238419","","2","0","null","null","arrowup","[0.675,0.325,0.15,0.85]","","",""
"sailing-trial","175","1174665","0.0-11.0-130.0","","","","false","","","","","","","","","","514.8000000119209","","857.3999999761581","","0","0","arrowleft","0","arrowleft","[0.675,0.325,0.15,0.85]","","",""
"sailing-trial","176","1177648","0.0-11.0-131.0","","","","false","","","","","","","","","","null","","996.9000000357628","","0","1","null","null","arrowup","[0.675,0.325,0.15,0.85]","","",""
"sailing-trial","177","1181830","0.0-11.0-132.0","","","","false","","","","","","","","","","776.3999999761581","","84.10000002384186","","0","1","arrowleft","0","arrowleft","[0.675,0.325,0.15,0.85]","","",""
"sailing-trial","178","1184945","0.0-11.0-133.0","","","","false","","","","","","","","","","null","","1166.1000000238419","","1","1","null","null","arrowup","[0.675,0.325,0.15,0.85]","","",""
"sailing-trial","179","1188918","0.0-11.0-134.0","","","","false","","","","","","","","","","1074.800000011921","","858","","1","0","arrowleft","0","arrowright","[0.675,0.325,0.15,0.85]","","",""
"sailing-trial","180","1192896","0.0-11.0-135.0","","","","false","","","","","","","","","","null","","1130.9000000357628","","1","0","null","null","arrowup","[0.675,0.325,0.15,0.85]","","",""
"sailing-trial","181","1195999","0.0-11.0-136.0","","","","false","","","","","","","","","","458","","56.39999997615814","","0","0","arrowleft","0","arrowleft","[0.675,0.325,0.15,0.85]","","",""
"sailing-trial","182","1199340","0.0-11.0-137.0","","","","false","","","","","","","","","","null","","1445.0999999642372","","3","1","null","null","arrowup","[0.675,0.325,0.15,0.85]","","",""
"sailing-trial","183","1203679","0.0-11.0-138.0","","","","false","","","","","","","","","","863.5","","641.5","","3","1","arrowright","1","arrowright","[0.675,0.325,0.15,0.85]","","",""
"sailing-trial","184","1208258","0.0-11.0-139.0","","","","false","","","","","","","","","","null","","2575.800000011921","","3","1","null","null","arrowup","[0.675,0.325,0.15,0.85]","","",""
"sailing-trial","185","1212193","0.0-11.0-140.0","","","","false","","","","","","","","","","631.1999999880791","","145.30000001192093","","3","1","arrowright","1","arrowright","[0.675,0.325,0.15,0.85]","","",""
"sailing-trial","186","1214939","0.0-11.0-141.0","","","","false","","","","","","","","","","null","","1079.800000011921","","1","0","null","null","arrowup","[0.675,0.325,0.15,0.85]","","",""
"sailing-trial","187","1220046","0.0-11.0-142.0","","","","false","","","","","","","","","","1258.9000000357628","","422.9000000357628","","3","1","arrowright","1","arrowright","[0.675,0.325,0.15,0.85]","","",""
"sailing-trial","188","1224932","0.0-11.0-143.0","","","","false","","","","","","","","","","null","","3011.199999988079","","3","1","null","null","arrowup","[0.675,0.325,0.15,0.85]","","",""
"sailing-trial","189","1229645","0.0-11.0-144.0","","","","false","","","","","","","","","","1039.3999999761581","","995.3000000119209","","3","1","arrowright","1","arrowright","[0.675,0.325,0.15,0.85]","","",""
"sailing-trial","190","1233546","0.0-11.0-145.0","","","","false","","","","","","","","","","null","","1007.3000000119209","","3","0","null","null","arrowup","[0.675,0.325,0.15,0.85]","","",""
"sailing-trial","191","1238095","0.0-11.0-146.0","","","","false","","","","","","","","","","907.1000000238419","","443.0999999642372","","3","1","arrowright","1","arrowright","[0.85,0.15,0.325,0.675]","","",""
"sailing-trial","192","1241475","0.0-11.0-147.0","","","","false","","","","","","","","","","null","","1396.1000000238419","","2","1","null","null","arrowup","[0.85,0.15,0.325,0.675]","","",""
"sailing-trial","193","1245928","0.0-11.0-148.0","","","","false","","","","","","","","","","767.5999999642372","","694.5","","3","1","arrowright","1","arrowright","[0.85,0.15,0.325,0.675]","","",""
"sailing-trial","194","1248649","0.0-11.0-149.0","","","","false","","","","","","","","","","null","","1277.800000011921","","1","0","null","null","arrowup","[0.85,0.15,0.325,0.675]","","",""
"sailing-trial","195","1252396","0.0-11.0-150.0","","","","false","","","","","","","","","","781","","49","","3","1","arrowright","1","arrowright","[0.85,0.15,0.325,0.675]","","",""
"sailing-trial","196","1256373","0.0-11.0-151.0","","","","false","","","","","","","","","","null","","1248.2999999523163","","2","0","null","null","arrowup","[0.85,0.15,0.325,0.675]","","",""
"sailing-trial","197","1259946","0.0-11.0-152.0","","","","false","","","","","","","","","","470.30000001192093","","13.399999976158142","","3","1","arrowright","1","arrowright","[0.85,0.15,0.325,0.675]","","",""
"sailing-trial","198","1264595","0.0-11.0-153.0","","","","false","","","","","","","","","","null","","2620.899999976158","","1","1","null","null","arrowup","[0.85,0.15,0.325,0.675]","","",""
"sailing-trial","199","1268747","0.0-11.0-154.0","","","","false","","","","","","","","","","1469.5","","597.6999999880791","","1","0","arrowleft","0","arrowright","[0.85,0.15,0.325,0.675]","","",""
"sailing-trial","200","1271991","0.0-11.0-155.0","","","","false","","","","","","","","","","null","","1199.699999988079","","3","1","null","null","arrowup","[0.85,0.15,0.325,0.675]","","",""
"sailing-trial","201","1276598","0.0-11.0-156.0","","","","false","","","","","","","","","","562.5999999642372","","1123.1000000238419","","3","1","arrowright","1","arrowright","[0.85,0.15,0.325,0.675]","","",""
"sailing-trial","202","1281023","0.0-11.0-157.0","","","","false","","","","","","","","","","null","","1391.8999999761581","","2","0","null","null","arrowup","[0.85,0.15,0.325,0.675]","","",""
"sailing-trial","203","1284791","0.0-11.0-158.0","","","","false","","","","","","","","","","502","","270.5","","0","1","arrowleft","0","arrowleft","[0.85,0.15,0.325,0.675]","","",""
"sailing-trial","204","1287317","0.0-11.0-159.0","","","","false","","","","","","","","","","null","","1172.5","","3","0","null","null","arrowup","[0.85,0.15,0.325,0.675]","","",""
"sailing-trial","205","1291525","0.0-11.0-160.0","","","","false","","","","","","","","","","486.7000000476837","","842.2000000476837","","0","1","arrowleft","0","arrowleft","[0.85,0.15,0.325,0.675]","","",""
"sailing-trial","206","1295355","0.0-11.0-161.0","","","","false","","","","","","","","","","null","","1091.5","","1","0","null","null","arrowup","[0.85,0.15,0.325,0.675]","","",""
"sailing-trial","207","1299181","0.0-11.0-162.0","","","","false","","","","","","","","","","427.5","","465.0999999642372","","0","0","arrowleft","0","arrowleft","[0.675,0.325,0.15,0.85]","","",""
"sailing-trial","208","1302342","0.0-11.0-163.0","","","","false","","","","","","","","","","null","","1176.699999988079","","3","1","null","null","arrowup","[0.675,0.325,0.15,0.85]","","",""
"sailing-trial","209","1306263","0.0-11.0-164.0","","","","false","","","","","","","","","","628.8999999761581","","395.0999999642372","","0","1","arrowleft","0","arrowleft","[0.675,0.325,0.15,0.85]","","",""
"sailing-trial","210","1308942","0.0-11.0-165.0","","","","false","","","","","","","","","","null","","824.3000000119209","","3","1","null","null","arrowup","[0.675,0.325,0.15,0.85]","","",""
"sailing-trial","211","1313192","0.0-11.0-166.0","","","","false","","","","","","","","","","467.80000001192093","","841.9000000357628","","0","1","arrowleft","0","arrowleft","[0.675,0.325,0.15,0.85]","","",""
"sailing-trial","212","1316562","0.0-11.0-167.0","","","","false","","","","","","","","","","null","","865.5","","0","0","null","null","arrowup","[0.675,0.325,0.15,0.85]","","",""
"sailing-trial","213","1321837","0.0-11.0-168.0","","","","false","","","","","","","","","","395.60000002384186","","857.6000000238419","","0","0","arrowleft","0","arrowleft","[0.675,0.325,0.15,0.85]","","",""
"sailing-trial","214","1324360","0.0-11.0-169.0","","","","false","","","","","","","","","","null","","1181","","1","0","null","null","arrowup","[0.675,0.325,0.15,0.85]","","",""
"sailing-trial","215","1328442","0.0-11.0-170.0","","","","false","","","","","","","","","","710.1999999880791","","359.69999998807907","","0","1","arrowleft","0","arrowleft","[0.675,0.325,0.15,0.85]","","",""
"sailing-trial","216","1331182","0.0-11.0-171.0","","","","false","","","","","","","","","","null","","1073.8999999761581","","1","0","null","null","arrowup","[0.675,0.325,0.15,0.85]","","",""
"sailing-trial","217","1334942","0.0-11.0-172.0","","","","false","","","","","","","","","","519.6000000238419","","605.8000000119209","","0","1","arrowleft","0","arrowleft","[0.675,0.325,0.15,0.85]","","",""
"sailing-trial","218","1339791","0.0-11.0-173.0","","","","false","","","","","","","","","","null","","1820.5","","2","0","null","null","arrowup","[0.675,0.325,0.15,0.85]","","",""
"sailing-trial","219","1344575","0.0-11.0-174.0","","","","false","","","","","","","","","","1853.199999988079","","47.19999998807907","","3","1","arrowright","1","arrowright","[0.675,0.325,0.15,0.85]","","",""
"sailing-trial","220","1347140","0.0-11.0-175.0","","","","false","","","","","","","","","","null","","1496.300000011921","","1","0","null","null","arrowup","[0.675,0.325,0.15,0.85]","","",""
"sailing-trial","221","1351319","0.0-11.0-176.0","","","","false","","","","","","","","","","786.6999999880791","","1085.800000011921","","3","0","arrowright","1","arrowright","[0.675,0.325,0.15,0.85]","","",""
"sailing-trial","222","1354414","0.0-11.0-177.0","","","","false","","","","","","","","","","null","","1186.6000000238419","","1","1","null","null","arrowup","[0.675,0.325,0.15,0.85]","","",""
"sailing-trial","223","1359040","0.0-11.0-178.0","","","","false","","","","","","","","","","548.8999999761581","","77.19999998807907","","0","0","arrowleft","0","arrowleft","[0.675,0.325,0.15,0.85]","","",""
"sailing-trial","224","1362673","0.0-11.0-179.0","","","","false","","","","","","","","","","null","","972.5","","3","0","null","null","arrowup","[0.675,0.325,0.15,0.85]","","",""
"sailing-trial","225","1367637","0.0-11.0-180.0","","","","false","","","","","","","","","","917.8000000119209","","139.5999999642372","","2","0","arrowright","1","arrowleft","[0.85,0.15,0.325,0.675]","","",""
"sailing-trial","226","1371690","0.0-11.0-181.0","","","","false","","","","","","","","","","null","","1015.7999999523163","","2","0","null","null","arrowup","[0.85,0.15,0.325,0.675]","","",""
"sailing-trial","227","1375011","0.0-11.0-182.0","","","","false","","","","","","","","","","172.10000002384186","","284.30000001192093","","1","1","arrowleft","0","arrowright","[0.85,0.15,0.325,0.675]","","",""
"sailing-trial","228","1378333","0.0-11.0-183.0","","","","false","","","","","","","","","","null","","1453.6000000238419","","0","1","null","null","arrowup","[0.85,0.15,0.325,0.675]","","",""
"sailing-trial","229","1382806","0.0-11.0-184.0","","","","false","","","","","","","","","","438.0999999642372","","442.5","","1","0","arrowleft","0","arrowright","[0.85,0.15,0.325,0.675]","","",""
"sailing-trial","230","1385286","0.0-11.0-185.0","","","","false","","","","","","","","","","null","","1038.0999999642372","","2","0","null","null","arrowup","[0.85,0.15,0.325,0.675]","","",""
"sailing-trial","231","1388983","0.0-11.0-186.0","","","","false","","","","","","","","","","463","","265.89999997615814","","1","1","arrowleft","0","arrowright","[0.85,0.15,0.325,0.675]","","",""
"sailing-trial","232","1392739","0.0-11.0-187.0","","","","false","","","","","","","","","","null","","2354.600000023842","","2","0","null","null","arrowup","[0.85,0.15,0.325,0.675]","","",""
"sailing-trial","233","1396405","0.0-11.0-188.0","","","","false","","","","","","","","","","394.30000001192093","","114.19999998807907","","1","0","arrowleft","0","arrowright","[0.85,0.15,0.325,0.675]","","",""
"sailing-trial","234","1399357","0.0-11.0-189.0","","","","false","","","","","","","","","","null","","1028.2999999523163","","3","1","null","null","arrowup","[0.85,0.15,0.325,0.675]","","",""
"sailing-trial","235","1405162","0.0-11.0-190.0","","","","false","","","","","","","","","","1415.1000000238419","","368.80000001192093","","3","0","arrowright","1","arrowright","[0.85,0.15,0.325,0.675]","","",""
"sailing-trial","236","1407839","0.0-11.0-191.0","","","","false","","","","","","","","","","null","","1336.699999988079","","0","0","null","null","arrowup","[0.85,0.15,0.325,0.675]","","",""
"sailing-trial","237","1413106","0.0-11.0-192.0","","","","false","","","","","","","","","","730.8999999761581","","475.39999997615814","","1","0","arrowleft","0","arrowright","[0.85,0.15,0.325,0.675]","","",""
"sailing-trial","238","1415156","0.0-11.0-193.0","","","","false","","","","","","","","","","null","","906.0999999642372","","2","0","null","null","arrowup","[0.85,0.15,0.325,0.675]","","",""
"sailing-trial","239","1419391","0.0-11.0-194.0","","","","false","","","","","","","","","","1265.8999999761581","","143","","3","1","arrowright","1","arrowright","[0.85,0.15,0.325,0.675]","","",""
"sailing-trial","240","1423290","0.0-11.0-195.0","","","","false","","","","","","","","","","null","","2479.800000011921","","2","0","null","null","arrowup","[0.85,0.15,0.325,0.675]","","",""
"sailing-trial","241","1427689","0.0-11.0-196.0","","","","false","","","","","","","","","","550.5","","218.70000004768372","","3","0","arrowright","1","arrowright","[0.85,0.15,0.325,0.675]","","",""
"sailing-trial","242","1431176","0.0-11.0-197.0","","","","false","","","","","","","","","","null","","1552.5999999642372","","3","1","null","null","arrowup","[0.85,0.15,0.325,0.675]","","",""
"sailing-trial","243","1435128","0.0-11.0-198.0","","","","false","","","","","","","","","","517.5","","443.5","","3","1","arrowright","1","arrowright","[0.85,0.15,0.325,0.675]","","",""
"sailing-trial","244","1437666","0.0-11.0-199.0","","","","false","","","","","","","","","","null","","1102.300000011921","","2","0","null","null","arrowup","[0.85,0.15,0.325,0.675]","","",""
"sailing-trial","245","1442711","0.0-11.0-200.0","","","","false","","","","","","","","","","567","","1553.800000011921","","3","1","arrowright","1","arrowright","[0.85,0.15,0.325,0.675]","","",""
"sailing-trial","246","1446091","0.0-11.0-201.0","","","","false","","","","","","","","","","null","","1405.1000000238419","","0","1","null","null","arrowup","[0.85,0.15,0.325,0.675]","","",""
"sailing-trial","247","1451384","0.0-11.0-202.0","","","","false","","","","","","","","","","638.5","","624.3999999761581","","3","0","arrowright","1","arrowright","[0.325,0.675,0.85,0.15]","","",""
"sailing-trial","248","1455365","0.0-11.0-203.0","","","","false","","","","","","","","","","null","","963.0999999642372","","0","0","null","null","arrowup","[0.325,0.675,0.85,0.15]","","",""
"sailing-trial","249","1459980","0.0-11.0-204.0","","","","false","","","","","","","","","","839.9000000357628","","868.3999999761581","","2","1","arrowright","1","arrowleft","[0.325,0.675,0.85,0.15]","","",""
"sailing-trial","250","1462890","0.0-11.0-205.0","","","","false","","","","","","","","","","null","","1548.5999999642372","","0","0","null","null","arrowup","[0.325,0.675,0.85,0.15]","","",""
"sailing-trial","251","1466692","0.0-11.0-206.0","","","","false","","","","","","","","","","565.8999999761581","","378.60000002384186","","1","1","arrowleft","0","arrowright","[0.325,0.675,0.85,0.15]","","",""
"sailing-trial","252","1472173","0.0-11.0-207.0","","","","false","","","","","","","","","","null","","2475.5","","3","0","null","null","arrowup","[0.325,0.675,0.85,0.15]","","",""
"sailing-trial","253","1476675","0.0-11.0-208.0","","","","false","","","","","","","","","","990.3000000119209","","595.6999999880791","","1","1","arrowleft","0","arrowright","[0.325,0.675,0.85,0.15]","","",""
"sailing-trial","254","1479613","0.0-11.0-209.0","","","","false","","","","","","","","","","null","","1065.300000011921","","2","1","null","null","arrowup","[0.325,0.675,0.85,0.15]","","",""
"sailing-trial","255","1483040","0.0-11.0-210.0","","","","false","","","","","","","","","","717.4000000357628","","525.6999999880791","","1","0","arrowleft","0","arrowright","[0.325,0.675,0.85,0.15]","","",""
"sailing-trial","256","1485556","0.0-11.0-211.0","","","","false","","","","","","","","","","null","","1331","","3","0","null","null","arrowup","[0.325,0.675,0.85,0.15]","","",""
"sailing-trial","257","1490611","0.0-11.0-212.0","","","","false","","","","","","","","","","486","","1596.1000000238419","","1","1","arrowleft","0","arrowright","[0.325,0.675,0.85,0.15]","","",""
"sailing-trial","258","1494307","0.0-11.0-213.0","","","","false","","","","","","","","","","null","","1859.699999988079","","1","1","null","null","arrowup","[0.325,0.675,0.85,0.15]","","",""
"sailing-trial","259","1498235","0.0-11.0-214.0","","","","false","","","","","","","","","","887.9000000357628","","708.0999999642372","","3","0","arrowright","1","arrowright","[0.325,0.675,0.85,0.15]","","",""
"sailing-trial","260","1501198","0.0-11.0-215.0","","","","false","","","","","","","","","","null","","1017","","2","1","null","null","arrowup","[0.325,0.675,0.85,0.15]","","",""
"sailing-trial","261","1506174","0.0-11.0-216.0","","","","false","","","","","","","","","","578.1999999880791","","365.10000002384186","","2","0","arrowright","1","arrowleft","[0.325,0.675,0.85,0.15]","","",""
"sailing-trial","262","1510148","0.0-11.0-217.0","","","","false","","","","","","","","","","null","","950.6000000238419","","3","0","null","null","arrowup","[0.325,0.675,0.85,0.15]","","",""
"sailing-trial","263","1513823","0.0-11.0-218.0","","","","false","","","","","","","","","","978.2000000476837","","378.69999998807907","","2","0","arrowright","1","arrowleft","[0.85,0.15,0.325,0.675]","","",""
"sailing-trial","264","1517987","0.0-11.0-219.0","","","","false","","","","","","","","","","null","","1133.7999999523163","","3","0","null","null","arrowup","[0.85,0.15,0.325,0.675]","","",""
"sailing-trial","265","1521181","0.0-11.0-220.0","","","","false","","","","","","","","","","284.5999999642372","","139.19999998807907","","0","1","arrowleft","0","arrowleft","[0.85,0.15,0.325,0.675]","","",""
"sailing-trial","266","1526125","0.0-11.0-221.0","","","","false","","","","","","","","","","null","","3053.699999988079","","3","1","null","null","arrowup","[0.85,0.15,0.325,0.675]","","",""
"sailing-trial","267","1530575","0.0-11.0-222.0","","","","false","","","","","","","","","","972.9000000357628","","181.39999997615814","","0","1","arrowleft","0","arrowleft","[0.85,0.15,0.325,0.675]","","",""
"sailing-trial","268","1534543","0.0-11.0-223.0","","","","false","","","","","","","","","","null","","1902.800000011921","","2","1","null","null","arrowup","[0.85,0.15,0.325,0.675]","","",""
"sailing-trial","269","1539759","0.0-11.0-224.0","","","","false","","","","","","","","","","806.5","","681.1999999880791","","0","1","arrowleft","0","arrowleft","[0.85,0.15,0.325,0.675]","","",""
"sailing-trial","270","1544458","0.0-11.0-225.0","","","","false","","","","","","","","","","null","","2825.800000011921","","3","1","null","null","arrowup","[0.85,0.15,0.325,0.675]","","",""
"sailing-trial","271","1551601","0.0-11.0-226.0","","","","false","","","","","","","","","","1035.3999999761581","","3150.699999988079","","0","1","arrowleft","0","arrowleft","[0.85,0.15,0.325,0.675]","","",""
"sailing-trial","272","1556070","0.0-11.0-227.0","","","","false","","","","","","","","","","null","","1442.5999999642372","","1","0","null","null","arrowup","[0.85,0.15,0.325,0.675]","","",""
"sailing-trial","273","1562479","0.0-11.0-228.0","","","","false","","","","","","","","","","1807.5999999642372","","2035.2999999523163","","0","1","arrowleft","0","arrowleft","[0.85,0.15,0.325,0.675]","","",""
"sailing-trial","274","1566557","0.0-11.0-229.0","","","","false","","","","","","","","","","null","","2015.2999999523163","","0","1","null","null","arrowup","[0.85,0.15,0.325,0.675]","","",""
"sailing-trial","275","1575009","0.0-11.0-230.0","","","","false","","","","","","","","","","1251.8999999761581","","172.60000002384186","","0","1","arrowleft","0","arrowleft","[0.85,0.15,0.325,0.675]","","",""
"sailing-trial","276","1578673","0.0-11.0-231.0","","","","false","","","","","","","","","","null","","1300.1000000238419","","3","1","null","null","arrowup","[0.85,0.15,0.325,0.675]","","",""
"sailing-trial","277","1582941","0.0-11.0-232.0","","","","false","","","","","","","","","","853.1999999880791","","70.80000001192093","","3","1","arrowright","1","arrowright","[0.85,0.15,0.325,0.675]","","",""
"sailing-trial","278","1587514","0.0-11.0-233.0","","","","false","","","","","","","","","","null","","2697.900000035763","","0","1","null","null","arrowup","[0.85,0.15,0.325,0.675]","","",""
"sailing-trial","279","1591615","0.0-11.0-234.0","","","","false","","","","","","","","","","673","","609","","3","1","arrowright","1","arrowright","[0.85,0.15,0.325,0.675]","","",""
"sailing-trial","280","1594598","0.0-11.0-235.0","","","","false","","","","","","","","","","null","","1825.9000000357628","","2","0","null","null","arrowup","[0.85,0.15,0.325,0.675]","","",""
"sailing-trial","281","1598724","0.0-11.0-236.0","","","","false","","","","","","","","","","573","","676.1000000238419","","3","1","arrowright","1","arrowright","[0.675,0.325,0.15,0.85]","","",""
"sailing-trial","282","1601464","0.0-11.0-237.0","","","","false","","","","","","","","","","null","","1693.8999999761581","","2","0","null","null","arrowup","[0.675,0.325,0.15,0.85]","","",""
"sailing-trial","283","1604898","0.0-11.0-238.0","","","","false","","","","","","","","","","630.8999999761581","","9.800000011920929","","3","1","arrowright","1","arrowright","[0.675,0.325,0.15,0.85]","","",""
"sailing-trial","284","1607996","0.0-11.0-239.0","","","","false","","","","","","","","","","null","","1119","","1","0","null","null","arrowup","[0.675,0.325,0.15,0.85]","","",""
"sailing-trial","285","1612191","0.0-11.0-240.0","","","","false","","","","","","","","","","744.5","","443.2999999523163","","3","1","arrowright","1","arrowright","[0.675,0.325,0.15,0.85]","","",""
"sailing-trial","286","1614516","0.0-11.0-241.0","","","","false","","","","","","","","","","null","","1211.300000011921","","1","0","null","null","arrowup","[0.675,0.325,0.15,0.85]","","",""
"sailing-trial","287","1618540","0.0-11.0-242.0","","","","false","","","","","","","","","","864.5","","355.89999997615814","","3","1","arrowright","1","arrowright","[0.675,0.325,0.15,0.85]","","",""
"sailing-trial","288","1621474","0.0-11.0-243.0","","","","false","","","","","","","","","","null","","870.6999999880791","","0","1","null","null","arrowup","[0.675,0.325,0.15,0.85]","","",""
"sailing-trial","289","1627754","0.0-11.0-244.0","","","","false","","","","","","","","","","2770.2999999523163","","688.7999999523163","","3","1","arrowright","1","arrowright","[0.675,0.325,0.15,0.85]","","",""
"sailing-trial","290","1631587","0.0-11.0-245.0","","","","false","","","","","","","","","","null","","1462.800000011921","","1","1","null","null","arrowup","[0.675,0.325,0.15,0.85]","","",""
"sailing-trial","291","1637288","0.0-11.0-246.0","","","","false","","","","","","","","","","924.3999999761581","","1280.5","","3","1","arrowright","1","arrowright","[0.675,0.325,0.15,0.85]","","",""
"sailing-trial","292","1640288","0.0-11.0-247.0","","","","false","","","","","","","","","","null","","1015.8000000119209","","1","1","null","null","arrowup","[0.675,0.325,0.15,0.85]","","",""
"sailing-trial","293","1643944","0.0-11.0-248.0","","","","false","","","","","","","","","","692.6999999880791","","317.69999998807907","","1","1","arrowleft","0","arrowright","[0.675,0.325,0.15,0.85]","","",""
"sailing-trial","294","1648143","0.0-11.0-249.0","","","","false","","","","","","","","","","null","","1191","","1","0","null","null","arrowup","[0.675,0.325,0.15,0.85]","","",""
"sailing-trial","295","1651658","0.0-11.0-250.0","","","","false","","","","","","","","","","474.2000000476837","","268.69999998807907","","1","0","arrowleft","0","arrowright","[0.675,0.325,0.15,0.85]","","",""
"sailing-trial","296","1655786","0.0-11.0-251.0","","","","false","","","","","","","","","","null","","1122.3999999761581","","2","0","null","null","arrowup","[0.675,0.325,0.15,0.85]","","",""
"sailing-trial","297","1660138","0.0-11.0-252.0","","","","false","","","","","","","","","","657.0999999642372","","1175.0999999642372","","3","1","arrowright","1","arrowright","[0.675,0.325,0.15,0.85]","","",""
"sailing-trial","298","1664467","0.0-11.0-253.0","","","","false","","","","","","","","","","null","","1317.5999999642372","","2","0","null","null","arrowup","[0.675,0.325,0.15,0.85]","","",""
"sailing-trial","299","1668179","0.0-11.0-254.0","","","","false","","","","","","","","","","958.1999999880791","","7.800000011920929","","3","1","arrowright","1","arrowright","[0.675,0.325,0.15,0.85]","","",""
"sailing-trial","300","1673438","0.0-11.0-255.0","","","","false","","","","","","","","","","null","","2663.199999988079","","3","1","null","null","arrowup","[0.675,0.325,0.15,0.85]","","",""
"sailing-trial","301","1679718","0.0-11.0-256.0","","","","false","","","","","","","","","","1571.8999999761581","","853.4000000357628","","3","0","arrowright","1","arrowright","[0.675,0.325,0.15,0.85]","","",""
"sailing-trial","302","1684677","0.0-11.0-257.0","","","","false","","","","","","","","","","null","","1939.3999999761581","","0","0","null","null","arrowup","[0.675,0.325,0.15,0.85]","","",""
"sailing-trial","303","1689872","0.0-11.0-258.0","","","","false","","","","","","","","","","578.6999999880791","","575.1000000238419","","3","1","arrowright","1","arrowright","[0.85,0.15,0.325,0.675]","","",""
"sailing-trial","304","1695804","0.0-11.0-259.0","","","","false","","","","","","","","","","null","","2883.300000011921","","1","0","null","null","arrowup","[0.85,0.15,0.325,0.675]","","",""
"sailing-trial","305","1701355","0.0-11.0-260.0","","","","false","","","","","","","","","","1048.199999988079","","1316","","3","1","arrowright","1","arrowright","[0.85,0.15,0.325,0.675]","","",""
"sailing-trial","306","1705156","0.0-11.0-261.0","","","","false","","","","","","","","","","null","","1545.1000000238419","","3","1","null","null","arrowup","[0.85,0.15,0.325,0.675]","","",""
"sailing-trial","307","1713078","0.0-11.0-262.0","","","","false","","","","","","","","","","1301.699999988079","","2600.7000000476837","","2","0","arrowright","1","arrowleft","[0.85,0.15,0.325,0.675]","","",""
"sailing-trial","308","1722145","0.0-11.0-263.0","","","","false","","","","","","","","","","null","","6779.099999964237","","3","1","null","null","arrowup","[0.85,0.15,0.325,0.675]","","",""
"sailing-trial","309","1728396","0.0-11.0-264.0","","","","false","","","","","","","","","","785.1000000238419","","1424.3999999761581","","3","0","arrowright","1","arrowright","[0.85,0.15,0.325,0.675]","","",""
"sailing-trial","310","1731807","0.0-11.0-265.0","","","","false","","","","","","","","","","null","","1117","","0","1","null","null","arrowup","[0.85,0.15,0.325,0.675]","","",""
"sailing-trial","311","1735810","0.0-11.0-266.0","","","","false","","","","","","","","","","854.8000000119209","","35.39999997615814","","0","1","arrowleft","0","arrowleft","[0.85,0.15,0.325,0.675]","","",""
"sailing-trial","312","1738563","0.0-11.0-267.0","","","","false","","","","","","","","","","null","","1066.7000000476837","","2","0","null","null","arrowup","[0.85,0.15,0.325,0.675]","","",""
"sailing-trial","313","1743172","0.0-11.0-268.0","","","","false","","","","","","","","","","740.6999999880791","","844.8999999761581","","0","1","arrowleft","0","arrowleft","[0.85,0.15,0.325,0.675]","","",""
"sailing-trial","314","1746122","0.0-11.0-269.0","","","","false","","","","","","","","","","null","","1017.0999999642372","","0","1","null","null","arrowup","[0.85,0.15,0.325,0.675]","","",""
"sailing-trial","315","1751996","0.0-11.0-270.0","","","","false","","","","","","","","","","1226.0999999642372","","1647.5","","0","1","arrowleft","0","arrowleft","[0.85,0.15,0.325,0.675]","","",""
"sailing-trial","316","1754938","0.0-11.0-271.0","","","","false","","","","","","","","","","null","","1278.8999999761581","","1","0","null","null","arrowup","[0.85,0.15,0.325,0.675]","","",""
"sailing-trial","317","1760341","0.0-11.0-272.0","","","","false","","","","","","","","","","546.9000000357628","","576","","0","1","arrowleft","0","arrowleft","[0.85,0.15,0.325,0.675]","","",""
"sailing-trial","318","1764430","0.0-11.0-273.0","","","","false","","","","","","","","","","null","","1087.3999999761581","","2","0","null","null","arrowup","[0.85,0.15,0.325,0.675]","","",""
"sailing-trial","319","1769588","0.0-11.0-274.0","","","","false","","","","","","","","","","970.0999999642372","","658.5","","0","1","arrowleft","0","arrowleft","[0.675,0.325,0.15,0.85]","","",""
"sailing-trial","320","1772521","0.0-11.0-275.0","","","","false","","","","","","","","","","null","","966.0999999642372","","0","1","null","null","arrowup","[0.675,0.325,0.15,0.85]","","",""
"sailing-trial","321","1778051","0.0-11.0-276.0","","","","false","","","","","","","","","","858.5","","645.8000000119209","","0","0","arrowleft","0","arrowleft","[0.675,0.325,0.15,0.85]","","",""
"sailing-trial","322","1782954","0.0-11.0-277.0","","","","false","","","","","","","","","","null","","1882.800000011921","","2","0","null","null","arrowup","[0.675,0.325,0.15,0.85]","","",""
"sailing-trial","323","1788420","0.0-11.0-278.0","","","","false","","","","","","","","","","2670.800000011921","","629.2000000476837","","0","0","arrowleft","0","arrowleft","[0.675,0.325,0.15,0.85]","","",""
"sailing-trial","324","1791876","0.0-11.0-279.0","","","","false","","","","","","","","","","null","","1328.199999988079","","0","1","null","null","arrowup","[0.675,0.325,0.15,0.85]","","",""
"sailing-trial","325","1796260","0.0-11.0-280.0","","","","false","","","","","","","","","","1227.8999999761581","","293.10000002384186","","0","1","arrowleft","0","arrowleft","[0.675,0.325,0.15,0.85]","","",""
"sailing-trial","326","1799821","0.0-11.0-281.0","","","","false","","","","","","","","","","null","","1074.8999999761581","","1","1","null","null","arrowup","[0.675,0.325,0.15,0.85]","","",""
"sailing-trial","327","1804902","0.0-11.0-282.0","","","","false","","","","","","","","","","608.1000000238419","","422.5","","0","0","arrowleft","0","arrowleft","[0.675,0.325,0.15,0.85]","","",""
"sailing-trial","328","1809259","0.0-11.0-283.0","","","","false","","","","","","","","","","null","","2012.5","","0","1","null","null","arrowup","[0.675,0.325,0.15,0.85]","","",""
"sailing-trial","329","1814625","0.0-11.0-284.0","","","","false","","","","","","","","","","785.1000000238419","","1288.300000011921","","0","1","arrowleft","0","arrowleft","[0.675,0.325,0.15,0.85]","","",""
"sailing-trial","330","1819542","0.0-11.0-285.0","","","","false","","","","","","","","","","null","","2529.800000011921","","3","1","null","null","arrowup","[0.675,0.325,0.15,0.85]","","",""
"sailing-trial","331","1823728","0.0-11.0-286.0","","","","false","","","","","","","","","","728.0999999642372","","591.8999999761581","","3","1","arrowright","1","arrowright","[0.675,0.325,0.15,0.85]","","",""
"sailing-trial","332","1826922","0.0-11.0-287.0","","","","false","","","","","","","","","","null","","1120.0999999642372","","1","0","null","null","arrowup","[0.675,0.325,0.15,0.85]","","",""
"sailing-trial","333","1831474","0.0-11.0-288.0","","","","false","","","","","","","","","","480.2000000476837","","1129.2000000476837","","3","1","arrowright","1","arrowright","[0.675,0.325,0.15,0.85]","","",""
"sailing-trial","334","1834662","0.0-11.0-289.0","","","","false","","","","","","","","","","null","","1280.300000011921","","2","1","null","null","arrowup","[0.675,0.325,0.15,0.85]","","",""
"sailing-trial","335","1839873","0.0-11.0-290.0","","","","false","","","","","","","","","","820.1999999880791","","381.30000001192093","","3","0","arrowright","1","arrowright","[0.15,0.85,0.675,0.325]","","",""
"sailing-trial","336","1842574","0.0-11.0-291.0","","","","false","","","","","","","","","","null","","1108.199999988079","","0","0","null","null","arrowup","[0.15,0.85,0.675,0.325]","","",""
"sailing-trial","337","1846023","0.0-11.0-292.0","","","","false","","","","","","","","","","444.30000001192093","","266.30000001192093","","3","0","arrowright","1","arrowright","[0.15,0.85,0.675,0.325]","","",""
"sailing-trial","338","1849056","0.0-11.0-293.0","","","","false","","","","","","","","","","null","","1230.800000011921","","2","0","null","null","arrowup","[0.15,0.85,0.675,0.325]","","",""
"sailing-trial","339","1854148","0.0-11.0-294.0","","","","false","","","","","","","","","","1786.6000000238419","","620.8999999761581","","3","1","arrowright","1","arrowright","[0.15,0.85,0.675,0.325]","","",""
"sailing-trial","340","1856458","0.0-11.0-295.0","","","","false","","","","","","","","","","null","","1100.699999988079","","3","0","null","null","arrowup","[0.15,0.85,0.675,0.325]","","",""
"sailing-trial","341","1860781","0.0-11.0-296.0","","","","false","","","","","","","","","","538.3999999761581","","55.69999998807907","","0","0","arrowleft","0","arrowleft","[0.15,0.85,0.675,0.325]","","",""
"sailing-trial","342","1863501","0.0-11.0-297.0","","","","false","","","","","","","","","","null","","1096","","1","1","null","null","arrowup","[0.15,0.85,0.675,0.325]","","",""
"sailing-trial","343","1867360","0.0-11.0-298.0","","","","false","","","","","","","","","","1009.5","","0.8999999761581421","","1","1","arrowleft","0","arrowright","[0.15,0.85,0.675,0.325]","","",""
"sailing-trial","344","1870755","0.0-11.0-299.0","","","","false","","","","","","","","","","null","","1845.300000011921","","0","0","null","null","arrowup","[0.15,0.85,0.675,0.325]","","",""
"sailing-trial","345","1875821","0.0-11.0-300.0","","","","false","","","","","","","","","","491.4000000357628","","539.6999999880791","","1","0","arrowleft","0","arrowright","[0.15,0.85,0.675,0.325]","","",""
"sailing-trial","346","1878894","0.0-11.0-301.0","","","","false","","","","","","","","","","null","","1023.3999999761581","","3","1","null","null","arrowup","[0.15,0.85,0.675,0.325]","","",""
"sailing-trial","347","1882773","0.0-11.0-302.0","","","","false","","","","","","","","","","419.30000001192093","","36","","1","1","arrowleft","0","arrowright","[0.15,0.85,0.675,0.325]","","",""
"sailing-trial","348","1885145","0.0-11.0-303.0","","","","false","","","","","","","","","","null","","1040.9000000357628","","3","0","null","null","arrowup","[0.15,0.85,0.675,0.325]","","",""
"sailing-trial","349","1888973","0.0-11.0-304.0","","","","false","","","","","","","","","","559.1999999880791","","150","","1","1","arrowleft","0","arrowright","[0.15,0.85,0.675,0.325]","","",""
"sailing-trial","350","1892471","0.0-11.0-305.0","","","","false","","","","","","","","","","null","","1317","","1","0","null","null","arrowup","[0.15,0.85,0.675,0.325]","","",""
"sailing-trial","351","1896889","0.0-11.0-306.0","","","","false","","","","","","","","","","794.6999999880791","","700.6999999880791","","1","1","arrowleft","0","arrowright","[0.15,0.85,0.675,0.325]","","",""
"sailing-trial","352","1901208","0.0-11.0-307.0","","","","false","","","","","","","","","","null","","2363.7999999523163","","1","1","null","null","arrowup","[0.15,0.85,0.675,0.325]","","",""
"sailing-trial","353","1908244","0.0-11.0-308.0","","","","false","","","","","","","","","","3545.199999988079","","664.4000000357628","","1","1","arrowleft","0","arrowright","[0.325,0.675,0.85,0.15]","","",""
"sailing-trial","354","1910671","0.0-11.0-309.0","","","","false","","","","","","","","","","null","","1104.7000000476837","","2","0","null","null","arrowup","[0.325,0.675,0.85,0.15]","","",""
"sailing-trial","355","1914906","0.0-11.0-310.0","","","","false","","","","","","","","","","796.8000000119209","","521.6999999880791","","1","1","arrowleft","0","arrowright","[0.325,0.675,0.85,0.15]","","",""
"sailing-trial","356","1917205","0.0-11.0-311.0","","","","false","","","","","","","","","","null","","759.5","","3","0","null","null","arrowup","[0.325,0.675,0.85,0.15]","","",""
"sailing-trial","357","1921126","0.0-11.0-312.0","","","","false","","","","","","","","","","456.60000002384186","","407.69999998807907","","1","1","arrowleft","0","arrowright","[0.325,0.675,0.85,0.15]","","",""
"sailing-trial","358","1925870","0.0-11.0-313.0","","","","false","","","","","","","","","","null","","1724","","3","0","null","null","arrowup","[0.325,0.675,0.85,0.15]","","",""
"sailing-trial","359","1930176","0.0-11.0-314.0","","","","false","","","","","","","","","","1054.300000011921","","89.10000002384186","","1","1","arrowleft","0","arrowright","[0.325,0.675,0.85,0.15]","","",""
"sailing-trial","360","1939489","0.0-11.0-315.0","","","","false","","","","","","","","","","null","","7754.599999964237","","2","1","null","null","arrowup","[0.325,0.675,0.85,0.15]","","",""
"sailing-trial","361","1943305","0.0-11.0-316.0","","","","false","","","","","","","","","","947.1999999880791","","243.39999997615814","","2","1","arrowright","1","arrowleft","[0.325,0.675,0.85,0.15]","","",""
"sailing-trial","362","1945970","0.0-11.0-317.0","","","","false","","","","","","","","","","null","","1430.699999988079","","0","0","null","null","arrowup","[0.325,0.675,0.85,0.15]","","",""
"sailing-trial","363","1949311","0.0-11.0-318.0","","","","false","","","","","","","","","","346.19999998807907","","149.60000002384186","","2","1","arrowright","1","arrowleft","[0.325,0.675,0.85,0.15]","","",""
"sailing-trial","364","1952055","0.0-11.0-319.0","","","","false","","","","","","","","","","null","","821.6999999880791","","1","1","null","null","arrowup","[0.325,0.675,0.85,0.15]","","",""
"sailing-trial","365","1956439","0.0-11.0-320.0","","","","false","","","","","","","","","","1498.199999988079","","206.10000002384186","","2","1","arrowright","1","arrowleft","[0.325,0.675,0.85,0.15]","","",""
"sailing-trial","366","1959134","0.0-11.0-321.0","","","","false","","","","","","","","","","null","","1568.7999999523163","","3","0","null","null","arrowup","[0.325,0.675,0.85,0.15]","","",""
"sailing-trial","367","1963069","0.0-11.0-322.0","","","","false","","","","","","","","","","490.5","","594.9000000357628","","2","0","arrowright","1","arrowleft","[0.325,0.675,0.85,0.15]","","",""
"sailing-trial","368","1965567","0.0-11.0-323.0","","","","false","","","","","","","","","","null","","1051.6000000238419","","0","0","null","null","arrowup","[0.325,0.675,0.85,0.15]","","",""
"sailing-trial","369","1969651","0.0-11.0-324.0","","","","false","","","","","","","","","","514.5","","197.80000001192093","","2","1","arrowright","1","arrowleft","[0.325,0.675,0.85,0.15]","","",""
"sailing-trial","370","1972068","0.0-11.0-325.0","","","","false","","","","","","","","","","null","","1162.7999999523163","","3","0","null","null","arrowup","[0.325,0.675,0.85,0.15]","","",""
"sailing-trial","371","1977239","0.0-11.0-326.0","","","","false","","","","","","","","","","1424.5","","766.1999999880791","","2","1","arrowright","1","arrowleft","[0.325,0.675,0.85,0.15]","","",""
"sailing-trial","372","1980155","0.0-11.0-327.0","","","","false","","","","","","","","","","null","","1408.699999988079","","2","1","null","null","arrowup","[0.325,0.675,0.85,0.15]","","",""
"sailing-trial","373","1985478","0.0-11.0-328.0","","","","false","","","","","","","","","","2068.899999976158","","637.8999999761581","","2","0","arrowright","1","arrowleft","[0.675,0.325,0.15,0.85]","","",""
"sailing-trial","374","1992326","0.0-11.0-329.0","","","","false","","","","","","","","","","null","","4988.300000011921","","0","1","null","null","arrowup","[0.675,0.325,0.15,0.85]","","",""
"sailing-trial","375","1997358","0.0-11.0-330.0","","","","false","","","","","","","","","","1236.3999999761581","","367.5","","0","1","arrowleft","0","arrowleft","[0.675,0.325,0.15,0.85]","","",""
"sailing-trial","376","2000283","0.0-11.0-331.0","","","","false","","","","","","","","","","null","","1862.300000011921","","2","0","null","null","arrowup","[0.675,0.325,0.15,0.85]","","",""
"sailing-trial","377","2004091","0.0-11.0-332.0","","","","false","","","","","","","","","","620.2000000476837","","75.39999997615814","","0","1","arrowleft","0","arrowleft","[0.675,0.325,0.15,0.85]","","",""
"sailing-trial","378","2006876","0.0-11.0-333.0","","","","false","","","","","","","","","","null","","899.5","","3","1","null","null","arrowup","[0.675,0.325,0.15,0.85]","","",""
"sailing-trial","379","2011722","0.0-11.0-334.0","","","","false","","","","","","","","","","368.2999999523163","","451.9000000357628","","0","0","arrowleft","0","arrowleft","[0.675,0.325,0.15,0.85]","","",""
"sailing-trial","380","2016773","0.0-11.0-335.0","","","","false","","","","","","","","","","null","","2011.800000011921","","2","0","null","null","arrowup","[0.675,0.325,0.15,0.85]","","",""
"sailing-trial","381","2022057","0.0-11.0-336.0","","","","false","","","","","","","","","","1033","","242.4000000357628","","0","1","arrowleft","0","arrowleft","[0.675,0.325,0.15,0.85]","","",""
"sailing-trial","382","2031846","0.0-11.0-337.0","","","","false","","","","","","","","","","null","","2733.099999964237","","1","1","null","null","arrowup","[0.675,0.325,0.15,0.85]","","",""
"sailing-trial","383","2036292","0.0-11.0-338.0","","","","false","","","","","","","","","","820.5999999642372","","741.9000000357628","","0","1","arrowleft","0","arrowleft","[0.675,0.325,0.15,0.85]","","",""
"sailing-trial","384","2040423","0.0-11.0-339.0","","","","false","","","","","","","","","","null","","2155.300000011921","","2","0","null","null","arrowup","[0.675,0.325,0.15,0.85]","","",""
"sailing-trial","385","2044093","0.0-11.0-340.0","","","","false","","","","","","","","","","660.5999999642372","","263","","0","1","arrowleft","0","arrowleft","[0.675,0.325,0.15,0.85]","","",""
"sailing-trial","386","2046722","0.0-11.0-341.0","","","","false","","","","","","","","","","null","","1337.4000000357628","","1","0","null","null","arrowup","[0.675,0.325,0.15,0.85]","","",""
"sailing-trial","387","2055168","0.0-11.0-342.0","","","","false","","","","","","","","","","3189.399999976158","","2407.599999964237","","0","1","arrowleft","0","arrowleft","[0.675,0.325,0.15,0.85]","","",""
"sailing-trial","388","2059108","0.0-11.0-343.0","","","","false","","","","","","","","","","null","","2323.399999976158","","3","1","null","null","arrowup","[0.675,0.325,0.15,0.85]","","",""
"sailing-trial","389","2066591","0.0-11.0-344.0","","","","false","","","","","","","","","","2258.699999988079","","1342.699999988079","","0","1","arrowleft","0","arrowleft","[0.85,0.15,0.325,0.675]","","",""
"sailing-trial","390","2071176","0.0-11.0-345.0","","","","false","","","","","","","","","","null","","1460.0999999642372","","3","1","null","null","arrowup","[0.85,0.15,0.325,0.675]","","",""
"sailing-trial","391","2077225","0.0-11.0-346.0","","","","false","","","","","","","","","","1345.4000000357628","","1899.5999999642372","","2","1","arrowright","1","arrowleft","[0.85,0.15,0.325,0.675]","","",""
"sailing-trial","392","2079555","0.0-11.0-347.0","","","","false","","","","","","","","","","null","","931.8999999761581","","2","0","null","null","arrowup","[0.85,0.15,0.325,0.675]","","",""
"sailing-trial","393","2084348","0.0-11.0-348.0","","","","false","","","","","","","","","","538.6999999880791","","221.30000001192093","","2","0","arrowright","1","arrowleft","[0.85,0.15,0.325,0.675]","","",""
"sailing-trial","394","2087642","0.0-11.0-349.0","","","","false","","","","","","","","","","null","","1162","","3","1","null","null","arrowup","[0.85,0.15,0.325,0.675]","","",""
"sailing-trial","395","2095175","0.0-11.0-350.0","","","","false","","","","","","","","","","1757","","3221.2999999523163","","2","1","arrowright","1","arrowleft","[0.85,0.15,0.325,0.675]","","",""
"sailing-trial","396","2097113","0.0-11.0-351.0","","","","false","","","","","","","","","","null","","939","","2","0","null","null","arrowup","[0.85,0.15,0.325,0.675]","","",""
"sailing-trial","397","2100524","0.0-11.0-352.0","","","","false","","","","","","","","","","474.60000002384186","","29.400000035762787","","2","1","arrowright","1","arrowleft","[0.85,0.15,0.325,0.675]","","",""
"sailing-trial","398","2106091","0.0-11.0-353.0","","","","false","","","","","","","","","","null","","3482.099999964237","","0","1","null","null","arrowup","[0.85,0.15,0.325,0.675]","","",""
"sailing-trial","399","2110242","0.0-11.0-354.0","","","","false","","","","","","","","","","1127.800000011921","","129.80000001192093","","2","1","arrowright","1","arrowleft","[0.85,0.15,0.325,0.675]","","",""
"sailing-trial","400","2114363","0.0-11.0-355.0","","","","false","","","","","","","","","","null","","1223.699999988079","","3","0","null","null","arrowup","[0.85,0.15,0.325,0.675]","","",""
"sailing-trial","401","2119388","0.0-11.0-356.0","","","","false","","","","","","","","","","465.5999999642372","","1873","","2","0","arrowright","1","arrowleft","[0.85,0.15,0.325,0.675]","","",""
"sailing-trial","402","2122381","0.0-11.0-357.0","","","","false","","","","","","","","","","null","","1061.2000000476837","","0","1","null","null","arrowup","[0.85,0.15,0.325,0.675]","","",""
"sailing-trial","403","2126241","0.0-11.0-358.0","","","","false","","","","","","","","","","537.1000000238419","","268.9000000357628","","0","1","arrowleft","0","arrowleft","[0.85,0.15,0.325,0.675]","","",""
"sailing-trial","404","2129675","0.0-11.0-359.0","","","","false","","","","","","","","","","null","","1525.699999988079","","0","1","null","null","arrowup","[0.85,0.15,0.325,0.675]","","",""
"sailing-trial","405","2132944","0.0-11.0-360.0","","","","false","","","","","","","","","","805.6000000238419","","114.60000002384186","","0","0","arrowleft","0","arrowleft","[0.675,0.325,0.15,0.85]","","",""
"sailing-trial","406","2135374","0.0-11.0-361.0","","","","false","","","","","","","","","","null","","1013","","1","0","null","null","arrowup","[0.675,0.325,0.15,0.85]","","",""
"sailing-trial","407","2139025","0.0-11.0-362.0","","","","false","","","","","","","","","","408.69999998807907","","47.30000001192093","","0","1","arrowleft","0","arrowleft","[0.675,0.325,0.15,0.85]","","",""
"sailing-trial","408","2142421","0.0-11.0-363.0","","","","false","","","","","","","","","","null","","1968.5","","2","0","null","null","arrowup","[0.675,0.325,0.15,0.85]","","",""
"sailing-trial","409","2148011","0.0-11.0-364.0","","","","false","","","","","","","","","","426.10000002384186","","243.30000001192093","","0","1","arrowleft","0","arrowleft","[0.675,0.325,0.15,0.85]","","",""
"sailing-trial","410","2151043","0.0-11.0-365.0","","","","false","","","","","","","","","","null","","1111.1000000238419","","1","1","null","null","arrowup","[0.675,0.325,0.15,0.85]","","",""
"sailing-trial","411","2155646","0.0-11.0-366.0","","","","false","","","","","","","","","","1130.0999999642372","","714.6999999880791","","0","1","arrowleft","0","arrowleft","[0.675,0.325,0.15,0.85]","","",""
"sailing-trial","412","2158988","0.0-11.0-367.0","","","","false","","","","","","","","","","null","","1856.699999988079","","0","0","null","null","arrowup","[0.675,0.325,0.15,0.85]","","",""
"sailing-trial","413","2163381","0.0-11.0-368.0","","","","false","","","","","","","","","","582.3999999761581","","550.1999999880791","","0","1","arrowleft","0","arrowleft","[0.675,0.325,0.15,0.85]","","",""
"sailing-trial","414","2166160","0.0-11.0-369.0","","","","false","","","","","","","","","","null","","972.7000000476837","","0","1","null","null","arrowup","[0.675,0.325,0.15,0.85]","","",""
"sailing-trial","415","2169440","0.0-11.0-370.0","","","","false","","","","","","","","","","661.4000000357628","","417","","0","0","arrowleft","0","arrowleft","[0.675,0.325,0.15,0.85]","","",""
"sailing-trial","416","2173194","0.0-11.0-371.0","","","","false","","","","","","","","","","null","","1806.0999999642372","","0","1","null","null","arrowup","[0.675,0.325,0.15,0.85]","","",""
"sailing-trial","417","2176939","0.0-11.0-372.0","","","","false","","","","","","","","","","700.1999999880791","","747.8999999761581","","0","0","arrowleft","0","arrowleft","[0.675,0.325,0.15,0.85]","","",""
"sailing-trial","418","2179884","0.0-11.0-373.0","","","","false","","","","","","","","","","null","","1449.699999988079","","1","0","null","null","arrowup","[0.675,0.325,0.15,0.85]","","",""
"sailing-trial","419","2185492","0.0-11.0-374.0","","","","false","","","","","","","","","","980.1999999880791","","1648.8999999761581","","2","1","arrowright","1","arrowleft","[0.675,0.325,0.15,0.85]","","",""
"sailing-trial","420","2190468","0.0-11.0-375.0","","","","false","","","","","","","","","","null","","3799.899999976158","","2","0","null","null","arrowup","[0.675,0.325,0.15,0.85]","","",""
"sailing-trial","421","2193724","0.0-11.0-376.0","","","","false","","","","","","","","","","334.19999998807907","","180.89999997615814","","2","0","arrowright","1","arrowleft","[0.675,0.325,0.15,0.85]","","",""
"sailing-trial","422","2197064","0.0-11.0-377.0","","","","false","","","","","","","","","","null","","1260","","0","1","null","null","arrowup","[0.675,0.325,0.15,0.85]","","",""
"sailing-trial","423","2201726","0.0-11.0-378.0","","","","false","","","","","","","","","","769.7999999523163","","124.30000001192093","","2","0","arrowright","1","arrowleft","[0.675,0.325,0.15,0.85]","","",""
"sailing-trial","424","2205479","0.0-11.0-379.0","","","","false","","","","","","","","","","null","","1824","","3","1","null","null","arrowup","[0.675,0.325,0.15,0.85]","","",""
"sailing-trial","425","2209575","0.0-11.0-380.0","","","","false","","","","","","","","","","563.9000000357628","","512.3000000119209","","3","1","arrowright","1","arrowright","[0.675,0.325,0.15,0.85]","","",""
"sailing-trial","426","2215425","0.0-11.0-381.0","","","","false","","","","","","","","","","null","","3674.199999988079","","0","1","null","null","arrowup","[0.675,0.325,0.15,0.85]","","",""
"sailing-trial","427","2219520","0.0-11.0-382.0","","","","false","","","","","","","","","","1082.300000011921","","724","","2","0","arrowright","1","arrowleft","[0.675,0.325,0.15,0.85]","","",""
"sailing-trial","428","2221961","0.0-11.0-383.0","","","","false","","","","","","","","","","null","","1000.2999999523163","","2","0","null","null","arrowup","[0.675,0.325,0.15,0.85]","","",""
"sailing-trial","429","2226196","0.0-11.0-384.0","","","","false","","","","","","","","","","617.4000000357628","","668.8000000119209","","3","1","arrowright","1","arrowright","[0.85,0.15,0.325,0.675]","","",""
"sailing-trial","430","2230348","0.0-11.0-385.0","","","","false","","","","","","","","","","null","","3065.100000023842","","2","0","null","null","arrowup","[0.85,0.15,0.325,0.675]","","",""
"sailing-trial","431","2234959","0.0-11.0-386.0","","","","false","","","","","","","","","","1279.2999999523163","","179.9000000357628","","3","1","arrowright","1","arrowright","[0.85,0.15,0.325,0.675]","","",""
"sailing-trial","432","2237793","0.0-11.0-387.0","","","","false","","","","","","","","","","null","","1047.5","","0","1","null","null","arrowup","[0.85,0.15,0.325,0.675]","","",""
"sailing-trial","433","2242067","0.0-11.0-388.0","","","","false","","","","","","","","","","588.8000000119209","","1026.3999999761581","","2","1","arrowright","1","arrowleft","[0.85,0.15,0.325,0.675]","","",""
"sailing-trial","434","2244122","0.0-11.0-389.0","","","","false","","","","","","","","","","null","","994.6999999880791","","3","0","null","null","arrowup","[0.85,0.15,0.325,0.675]","","",""
"sailing-trial","435","2247492","0.0-11.0-390.0","","","","false","","","","","","","","","","659.8999999761581","","93.89999997615814","","2","0","arrowright","1","arrowleft","[0.85,0.15,0.325,0.675]","","",""
"sailing-trial","436","2250380","0.0-11.0-391.0","","","","false","","","","","","","","","","null","","1054.3999999761581","","0","1","null","null","arrowup","[0.85,0.15,0.325,0.675]","","",""
"sailing-trial","437","2254226","0.0-11.0-392.0","","","","false","","","","","","","","","","884.3999999761581","","187.29999995231628","","0","1","arrowleft","0","arrowleft","[0.85,0.15,0.325,0.675]","","",""
"sailing-trial","438","2256467","0.0-11.0-393.0","","","","false","","","","","","","","","","null","","1061.699999988079","","2","0","null","null","arrowup","[0.85,0.15,0.325,0.675]","","",""
"sailing-trial","439","2260292","0.0-11.0-394.0","","","","false","","","","","","","","","","656.3000000119209","","327.69999998807907","","0","1","arrowleft","0","arrowleft","[0.85,0.15,0.325,0.675]","","",""
"sailing-trial","440","2263032","0.0-11.0-395.0","","","","false","","","","","","","","","","null","","1607.199999988079","","2","0","null","null","arrowup","[0.85,0.15,0.325,0.675]","","",""
"sailing-trial","441","2266596","0.0-11.0-396.0","","","","false","","","","","","","","","","572.5999999642372","","20","","0","1","arrowleft","0","arrowleft","[0.85,0.15,0.325,0.675]","","",""
"sailing-trial","442","2269459","0.0-11.0-397.0","","","","false","","","","","","","","","","null","","1573.7000000476837","","1","0","null","null","arrowup","[0.85,0.15,0.325,0.675]","","",""
"sailing-trial","443","2273099","0.0-11.0-398.0","","","","false","","","","","","","","","","497.89999997615814","","294.9000000357628","","0","1","arrowleft","0","arrowleft","[0.85,0.15,0.325,0.675]","","",""
"sailing-trial","444","2276559","0.0-11.0-399.0","","","","false","","","","","","","","","","null","","1583","","0","1","null","null","arrowup","[0.85,0.15,0.325,0.675]","","",""
"instructions","445","2283559","0.0-12.0","","","","","","","","","","6998.699999988079","","","","","","","","","","","","","","","","[{""page_index"":0,""viewing_time"":6997.600000023842}]"
"survey-debrief","446","2558510","0.0-13.0","","","","","","","","","","274948.89999997616","","","","","","","","","","","","","","{""difficulty"":""4"",""fun"":""4"",""clarity"":""5"",""strategy"":""I stuck will patterns and responses until I got them incorrect twice in a row to make sure it wasn't a one time thing, to see if each shop's luck had really changed or it was just for a turn."",""feedback"":""""}","",""
