"trial_type","trial_index","time_elapsed","internal_node_id","value","metadata","success","timeout","failed_images","failed_audio","failed_video","browser_interaction","low_quality","rt","stimulus","response","button_pressed","island_rt","island_response","boat_rt","boat_response","boat","reward","island_key","island","boat_key","reward_probabilities","responses","num_errors","view_history"
"pavlovia","0","1","0.0-0.0","","","","","","","","","","","","","","","","","","","","","","","","","",""
"call-function","1","2","0.0-1.0","","{""task_version"":""sailing_part1_v1"",""task_condition"":""good"",""boats"":[""D"",""C"",""A"",""B""],""boats_demo"":[""F"",""H"",""E"",""G""],""islands"":[""A"",""B""],""subject_id"":""13844"",""age"":""11"",""gender"":""Female""}","","","","","","","","","","","","","","","","","","","","","","","",""
"preload","2","1509","0.0-2.0","","","true","false","[]","[]","[]","[{""event"":""fullscreenenter"",""trial"":3,""time"":7005}]","false","","","","","","","","","","","","","","","","",""
"fullscreen","3","7995","0.0-3.0","","","true","","","","","","","","","","","","","","","","","","","","","","",""
"audio-keyboard-response","4","12984","0.0-4.0-0.0","","","","","","","","","","4570.666666666667","audio/beep_loop.wav"," ","","","","","","","","","","","","","",""
"audio-test","5","15236","0.0-4.0-1.0","","","","","","","","","","null","audio/turtle.mp3","","3","","","","","","","","","","","","",""
"audio-test","6","17995","0.0-4.0-2.0","","","","","","","","","","null","audio/shark.mp3","","2","","","","","","","","","","","","",""
"sailing-instructions","7","75106","0.0-5.0-0.0-0.0","","","","","","","","","","","","","","null","null","null","null","null","null","","","","","","",""
"sailing-trial","8","79144","0.0-5.0-0.0-1.0-0.0","","","","false","","","","","","","","","","2923.699999988079","","null","","null","null","arrowleft","0","null","null","","",""
"sailing-trial","9","81289","0.0-5.0-0.0-1.0-1.0","","","","false","","","","","","","","","","1036.699999988079","","null","","null","null","arrowright","1","null","null","","",""
"sailing-trial","10","87962","0.0-5.0-0.0-1.0-2.0","","","","false","","","","","","","","","","5557.199999988079","","null","","null","null","arrowright","1","null","null","","",""
"sailing-instructions","11","273762","0.0-5.0-0.0-2.0","","","","","","","","","","","","","","null","null","null","null","0","null","","","","","","",""
"sailing-trial","12","282921","0.0-5.0-0.0-3.0-0.0","","","","false","","","","","","","","","","null","","4890.600000023842","","2","1","null","null","arrowleft","[1,1,1,1]","","",""
"sailing-trial","13","294442","0.0-5.0-0.0-3.0-1.0","","","","false","","","","","","","","","","null","","6016.599999964237","","3","1","null","null","arrowright","[1,1,1,1]","","",""
"sailing-trial","14","300437","0.0-5.0-0.0-3.0-2.0","","","","false","","","","","","","","","","null","","2489.899999976158","","2","0","null","null","arrowleft","[0,0,0,0]","","",""
"sailing-instructions","15","416292","0.0-5.0-0.0-4.0","","","","","","","","","","","","","","null","null","null","null","null","null","","","","","","",""
"sailing-comprehension","16","436161","0.0-5.0-0.0-5.0","","","","","","","","","","13206.900000035763","","","","","","","","","","","","","","[""true"",""true"",""true"",""true""]","1",""
"sailing-instructions","17","484130","0.0-5.0-0.1-0.1","","","","","","","","","","","","","","null","null","null","null","null","null","","","","","","",""
"sailing-trial","18","489686","0.0-5.0-0.1-1.1-0.1","","","","false","","","","","","","","","","4438.400000035763","","null","","null","null","arrowleft","0","null","null","","",""
"sailing-trial","19","493298","0.0-5.0-0.1-1.1-1.1","","","","false","","","","","","","","","","2504.5","","null","","null","null","arrowright","1","null","null","","",""
"sailing-trial","20","495183","0.0-5.0-0.1-1.1-2.1","","","","false","","","","","","","","","","771.6000000238419","","null","","null","null","arrowright","1","null","null","","",""
"sailing-instructions","21","551853","0.0-5.0-0.1-2.1","","","","","","","","","","","","","","null","null","null","null","0","null","","","","","","",""
"sailing-trial","22","587635","0.0-5.0-0.1-3.1-0.1","","","","false","","","","","","","","","","null","","1333.699999988079","","2","1","null","null","arrowleft","[1,1,1,1]","","",""
"sailing-trial","23","595488","0.0-5.0-0.1-3.1-1.1","","","","false","","","","","","","","","","null","","283.30000001192093","","3","1","null","null","arrowright","[1,1,1,1]","","",""
"sailing-trial","24","599452","0.0-5.0-0.1-3.1-2.1","","","","false","","","","","","","","","","null","","590.1000000238419","","3","0","null","null","arrowright","[0,0,0,0]","","",""
"sailing-instructions","25","609400","0.0-5.0-0.1-4.1","","","","","","","","","","","","","","null","null","null","null","null","null","","","","","","",""
"sailing-comprehension","26","721921","0.0-5.0-0.1-5.1","","","","","","","","","","7106.299999952316","","","","","","","","","","","","","","[""true"",""true"",""false"",""true""]","0",""
"sailing-instructions","27","808152","0.0-6.0-0.0-0.0","","","","","","","","","","","","","","null","null","null","null","null","null","","","","","","",""
"sailing-comprehension","28","835965","0.0-6.0-0.0-1.0","","","","","","","","","","24838.19999998808","","","","","","","","","","","","","","[""true"",""false"",""true""]","0",""
"sailing-instructions","29","849295","0.0-7.0-0.0-0.0","","","","","","","","","","","","","","null","null","null","null","null","null","","","","","","",""
"sailing-trial","30","854069","0.0-7.0-0.0-1.0-0.0","","","","false","","","","","","","","","","null","","1748.3999999761581","","0","0","null","null","arrowup","[0.2,0.8,0.2,0.8]","","",""
"sailing-trial","31","857875","0.0-7.0-0.0-1.0-1.0","","","","false","","","","","","","","","","null","","1002.7000000476837","","1","1","null","null","arrowup","[0.2,0.8,0.2,0.8]","","",""
"sailing-trial","32","862033","0.0-7.0-0.0-1.0-2.0","","","","false","","","","","","","","","","null","","2421.699999988079","","2","0","null","null","arrowup","[0.2,0.8,0.2,0.8]","","",""
"sailing-trial","33","863996","0.0-7.0-0.0-1.0-3.0","","","","false","","","","","","","","","","null","","303.5","","3","1","null","null","arrowup","[0.2,0.8,0.2,0.8]","","",""
"sailing-comprehension","34","876917","0.0-7.0-0.0-2.0","","","","","","","","","","9410.699999988079","","","","","","","","","","","","","","[""false""]","0",""
"sailing-instructions","35","888015","0.0-8.0-0.0-0.0","","","","","","","","","","","","","","null","null","null","null","null","null","","","","","","",""
"sailing-comprehension","36","892737","0.0-8.0-0.0-1.0","","","","","","","","","","2557.399999976158","","","","","","","","","","","","","","[""true""]","0",""
"sailing-instructions","37","917049","0.0-9.0-0.0-0.0","","","","","","","","","","","","","","null","null","null","null","null","null","","","","","","",""
"sailing-trial","38","924135","0.0-9.0-0.0-1.0-0.0","","","","false","","","","","","","","","","2101.900000035763","","370.5","","3","1","arrowright","1","arrowright","[0.2,0.8,0.2,0.8]","","",""
"sailing-trial","39","928365","0.0-9.0-0.0-1.0-1.0","","","","false","","","","","","","","","","715.7999999523163","","636.6000000238419","","1","1","arrowleft","0","arrowright","[0.2,0.8,0.2,0.8]","","",""
"sailing-trial","40","931008","0.0-9.0-0.0-1.0-2.0","","","","false","","","","","","","","","","null","","1033.0999999642372","","0","0","null","null","arrowup","[0.2,0.8,0.2,0.8]","","",""
"sailing-trial","41","934814","0.0-9.0-0.0-1.0-3.0","","","","false","","","","","","","","","","876.5","","528.6999999880791","","2","0","arrowright","1","arrowleft","[0.2,0.8,0.2,0.8]","","",""
"sailing-trial","42","937521","0.0-9.0-0.0-1.0-4.0","","","","false","","","","","","","","","","null","","1005.5999999642372","","3","1","null","null","arrowup","[0.2,0.8,0.2,0.8]","","",""
"sailing-trial","43","941426","0.0-9.0-0.0-1.0-5.0","","","","false","","","","","","","","","","325.2000000476837","","118.09999996423721","","3","1","arrowright","1","arrowright","[0.2,0.8,0.2,0.8]","","",""
"sailing-instructions","44","966657","0.0-10.0","","","","","","","","","","","","","","null","null","null","null","null","null","","","","","","",""
"sailing-trial","45","975492","0.0-11.0-0.0","","","","false","","","","","","","","","","4349.699999988079","","420.5","","2","0","arrowright","1","arrowleft","[0.325,0.675,0.85,0.15]","","",""
"sailing-trial","46","979437","0.0-11.0-1.0","","","","false","","","","","","","","","","null","","927","","0","0","null","null","arrowup","[0.325,0.675,0.85,0.15]","","",""
"sailing-trial","47","984389","0.0-11.0-2.0","","","","false","","","","","","","","","","539.2000000476837","","347.7000000476837","","1","0","arrowleft","0","arrowright","[0.325,0.675,0.85,0.15]","","",""
"sailing-trial","48","986910","0.0-11.0-3.0","","","","false","","","","","","","","","","null","","821.5","","2","1","null","null","arrowup","[0.325,0.675,0.85,0.15]","","",""
"sailing-trial","49","991346","0.0-11.0-4.0","","","","false","","","","","","","","","","501.39999997615814","","495","","2","1","arrowright","1","arrowleft","[0.325,0.675,0.85,0.15]","","",""
"sailing-trial","50","994055","0.0-11.0-5.0","","","","false","","","","","","","","","","null","","1080.9000000357628","","0","0","null","null","arrowup","[0.325,0.675,0.85,0.15]","","",""
"sailing-trial","51","998089","0.0-11.0-6.0","","","","false","","","","","","","","","","600.8000000119209","","2.300000011920929","","1","1","arrowleft","0","arrowright","[0.325,0.675,0.85,0.15]","","",""
"sailing-trial","52","1003526","0.0-11.0-7.0","","","","false","","","","","","","","","","null","","3710.099999964237","","1","1","null","null","arrowup","[0.325,0.675,0.85,0.15]","","",""
"sailing-trial","53","1007210","0.0-11.0-8.0","","","","false","","","","","","","","","","470.0999999642372","","211.30000001192093","","2","1","arrowright","1","arrowleft","[0.325,0.675,0.85,0.15]","","",""
"sailing-trial","54","1009363","0.0-11.0-9.0","","","","false","","","","","","","","","","null","","835.6999999880791","","0","0","null","null","arrowup","[0.325,0.675,0.85,0.15]","","",""
"sailing-trial","55","1012590","0.0-11.0-10.0","","","","false","","","","","","","","","","409","","185.69999998807907","","3","0","arrowright","1","arrowright","[0.325,0.675,0.85,0.15]","","",""
"sailing-trial","56","1014761","0.0-11.0-11.0","","","","false","","","","","","","","","","null","","748","","0","0","null","null","arrowup","[0.325,0.675,0.85,0.15]","","",""
"sailing-trial","57","1019142","0.0-11.0-12.0","","","","false","","","","","","","","","","1779.4000000357628","","88.90000003576279","","1","0","arrowleft","0","arrowright","[0.325,0.675,0.85,0.15]","","",""
"sailing-trial","58","1021180","0.0-11.0-13.0","","","","false","","","","","","","","","","null","","23.599999964237213","","0","1","null","null","arrowup","[0.325,0.675,0.85,0.15]","","",""
"sailing-trial","59","1025508","0.0-11.0-14.0","","","","false","","","","","","","","","","755.8999999761581","","95.29999995231628","","2","1","arrowright","1","arrowleft","[0.325,0.675,0.85,0.15]","","",""
"sailing-trial","60","1028222","0.0-11.0-15.0","","","","false","","","","","","","","","","null","","1046.9000000357628","","2","1","null","null","arrowup","[0.325,0.675,0.85,0.15]","","",""
"sailing-trial","61","1030971","0.0-11.0-16.0","","","","false","","","","","","","","","","396.5","","139.30000001192093","","2","0","arrowright","1","arrowleft","[0.325,0.675,0.85,0.15]","","",""
"sailing-trial","62","1033986","0.0-11.0-17.0","","","","false","","","","","","","","","","null","","840.3999999761581","","2","1","null","null","arrowup","[0.325,0.675,0.85,0.15]","","",""
"sailing-trial","63","1037798","0.0-11.0-18.0","","","","false","","","","","","","","","","800","","193.9000000357628","","1","1","arrowleft","0","arrowright","[0.325,0.675,0.85,0.15]","","",""
"sailing-trial","64","1040404","0.0-11.0-19.0","","","","false","","","","","","","","","","null","","871.1999999880791","","0","1","null","null","arrowup","[0.325,0.675,0.85,0.15]","","",""
"sailing-trial","65","1044155","0.0-11.0-20.0","","","","false","","","","","","","","","","824.1999999880791","","205.19999998807907","","2","1","arrowright","1","arrowleft","[0.325,0.675,0.85,0.15]","","",""
"sailing-trial","66","1045989","0.0-11.0-21.0","","","","false","","","","","","","","","","null","","786.5999999642372","","0","0","null","null","arrowup","[0.325,0.675,0.85,0.15]","","",""
"sailing-trial","67","1049166","0.0-11.0-22.0","","","","false","","","","","","","","","","496.0999999642372","","237.80000001192093","","2","0","arrowright","1","arrowleft","[0.15,0.85,0.675,0.325]","","",""
"sailing-trial","68","1051177","0.0-11.0-23.0","","","","false","","","","","","","","","","null","","928.6999999880791","","3","0","null","null","arrowup","[0.15,0.85,0.675,0.325]","","",""
"sailing-trial","69","1054761","0.0-11.0-24.0","","","","false","","","","","","","","","","462.0999999642372","","44.30000001192093","","0","1","arrowleft","0","arrowleft","[0.15,0.85,0.675,0.325]","","",""
"sailing-trial","70","1058597","0.0-11.0-25.0","","","","false","","","","","","","","","","null","","1334.5999999642372","","0","0","null","null","arrowup","[0.15,0.85,0.675,0.325]","","",""
"sailing-trial","71","1063907","0.0-11.0-26.0","","","","false","","","","","","","","","","546.3999999761581","","318.5","","2","1","arrowright","1","arrowleft","[0.15,0.85,0.675,0.325]","","",""
"sailing-trial","72","1066773","0.0-11.0-27.0","","","","false","","","","","","","","","","null","","1336.5","","2","1","null","null","arrowup","[0.15,0.85,0.675,0.325]","","",""
"sailing-trial","73","1069842","0.0-11.0-28.0","","","","false","","","","","","","","","","383","","490.10000002384186","","1","0","arrowleft","0","arrowright","[0.15,0.85,0.675,0.325]","","",""
"sailing-trial","74","1073373","0.0-11.0-29.0","","","","false","","","","","","","","","","null","","1297.800000011921","","1","1","null","null","arrowup","[0.15,0.85,0.675,0.325]","","",""
"sailing-trial","75","1076991","0.0-11.0-30.0","","","","false","","","","","","","","","","721.8999999761581","","211.89999997615814","","3","1","arrowright","1","arrowright","[0.15,0.85,0.675,0.325]","","",""
"sailing-trial","76","1079662","0.0-11.0-31.0","","","","false","","","","","","","","","","null","","1035.300000011921","","3","0","null","null","arrowup","[0.15,0.85,0.675,0.325]","","",""
"sailing-trial","77","1084815","0.0-11.0-32.0","","","","false","","","","","","","","","","284.5","","427.30000001192093","","1","1","arrowleft","0","arrowright","[0.15,0.85,0.675,0.325]","","",""
"sailing-trial","78","1087608","0.0-11.0-33.0","","","","false","","","","","","","","","","null","","1195.6000000238419","","3","0","null","null","arrowup","[0.15,0.85,0.675,0.325]","","",""
"sailing-trial","79","1091824","0.0-11.0-34.0","","","","false","","","","","","","","","","638.7999999523163","","510.30000001192093","","1","1","arrowleft","0","arrowright","[0.15,0.85,0.675,0.325]","","",""
"sailing-trial","80","1094156","0.0-11.0-35.0","","","","false","","","","","","","","","","null","","996.1000000238419","","0","0","null","null","arrowup","[0.15,0.85,0.675,0.325]","","",""
"sailing-trial","81","1099034","0.0-11.0-36.0","","","","false","","","","","","","","","","668.1999999880791","","1045.6000000238419","","1","1","arrowleft","0","arrowright","[0.15,0.85,0.675,0.325]","","",""
"sailing-trial","82","1102203","0.0-11.0-37.0","","","","false","","","","","","","","","","null","","1161.8999999761581","","1","1","null","null","arrowup","[0.15,0.85,0.675,0.325]","","",""
"sailing-trial","83","1105305","0.0-11.0-38.0","","","","false","","","","","","","","","","569.6999999880791","","109.40000003576279","","0","0","arrowleft","0","arrowleft","[0.15,0.85,0.675,0.325]","","",""
"sailing-trial","84","1108451","0.0-11.0-39.0","","","","false","","","","","","","","","","null","","1128.6000000238419","","1","1","null","null","arrowup","[0.15,0.85,0.675,0.325]","","",""
"sailing-trial","85","1111178","0.0-11.0-40.0","","","","false","","","","","","","","","","233.39999997615814","","211.39999997615814","","3","0","arrowright","1","arrowright","[0.15,0.85,0.675,0.325]","","",""
"sailing-trial","86","1113682","0.0-11.0-41.0","","","","false","","","","","","","","","","null","","892.5","","1","1","null","null","arrowup","[0.15,0.85,0.675,0.325]","","",""
"sailing-trial","87","1116733","0.0-11.0-42.0","","","","false","","","","","","","","","","401.19999998807907","","178.29999995231628","","2","0","arrowright","1","arrowleft","[0.85,0.15,0.325,0.675]","","",""
"sailing-trial","88","1119379","0.0-11.0-43.0","","","","false","","","","","","","","","","null","","1000.9000000357628","","0","1","null","null","arrowup","[0.85,0.15,0.325,0.675]","","",""
"sailing-trial","89","1122078","0.0-11.0-44.0","","","","false","","","","","","","","","","289.60000002384186","","197.30000001192093","","1","0","arrowleft","0","arrowright","[0.85,0.15,0.325,0.675]","","",""
"sailing-trial","90","1126048","0.0-11.0-45.0","","","","false","","","","","","","","","","null","","963.6999999880791","","3","0","null","null","arrowup","[0.85,0.15,0.325,0.675]","","",""
"sailing-trial","91","1129106","0.0-11.0-46.0","","","","false","","","","","","","","","","362.19999998807907","","131","","0","1","arrowleft","0","arrowleft","[0.85,0.15,0.325,0.675]","","",""
"sailing-trial","92","1133802","0.0-11.0-47.0","","","","false","","","","","","","","","","null","","2189.400000035763","","1","0","null","null","arrowup","[0.85,0.15,0.325,0.675]","","",""
"sailing-trial","93","1137563","0.0-11.0-48.0","","","","false","","","","","","","","","","754.3999999761581","","69.70000004768372","","3","0","arrowright","1","arrowright","[0.85,0.15,0.325,0.675]","","",""
"sailing-trial","94","1140161","0.0-11.0-49.0","","","","false","","","","","","","","","","null","","635.7000000476837","","3","1","null","null","arrowup","[0.85,0.15,0.325,0.675]","","",""
"sailing-trial","95","1144648","0.0-11.0-50.0","","","","false","","","","","","","","","","446.19999998807907","","31.80000001192093","","3","0","arrowright","1","arrowright","[0.85,0.15,0.325,0.675]","","",""
"sailing-trial","96","1149737","0.0-11.0-51.0","","","","false","","","","","","","","","","null","","1160.199999988079","","0","1","null","null","arrowup","[0.85,0.15,0.325,0.675]","","",""
"sailing-trial","97","1154427","0.0-11.0-52.0","","","","false","","","","","","","","","","900.8000000119209","","42.40000003576279","","0","1","arrowleft","0","arrowleft","[0.85,0.15,0.325,0.675]","","",""
"sailing-trial","98","1158725","0.0-11.0-53.0","","","","false","","","","","","","","","","null","","1999.199999988079","","2","1","null","null","arrowup","[0.85,0.15,0.325,0.675]","","",""
"sailing-trial","99","1162052","0.0-11.0-54.0","","","","false","","","","","","","","","","365.39999997615814","","85.5","","2","1","arrowright","1","arrowleft","[0.85,0.15,0.325,0.675]","","",""
"sailing-trial","100","1163949","0.0-11.0-55.0","","","","false","","","","","","","","","","null","","166.89999997615814","","3","1","null","null","arrowup","[0.85,0.15,0.325,0.675]","","",""
"sailing-trial","101","1167034","0.0-11.0-56.0","","","","false","","","","","","","","","","205.39999997615814","","149","","0","1","arrowleft","0","arrowleft","[0.85,0.15,0.325,0.675]","","",""
"sailing-trial","102","1168771","0.0-11.0-57.0","","","","false","","","","","","","","","","null","","550.1999999880791","","1","0","null","null","arrowup","[0.85,0.15,0.325,0.675]","","",""
"sailing-trial","103","1171942","0.0-11.0-58.0","","","","false","","","","","","","","","","677.1999999880791","","111","","2","0","arrowright","1","arrowleft","[0.15,0.85,0.675,0.325]","","",""
"sailing-trial","104","1174755","0.0-11.0-59.0","","","","false","","","","","","","","","","null","","695.8000000119209","","0","0","null","null","arrowup","[0.15,0.85,0.675,0.325]","","",""
"sailing-trial","105","1177411","0.0-11.0-60.0","","","","false","","","","","","","","","","137.79999995231628","","463.69999998807907","","0","0","arrowleft","0","arrowleft","[0.15,0.85,0.675,0.325]","","",""
"sailing-trial","106","1179998","0.0-11.0-61.0","","","","false","","","","","","","","","","null","","307.89999997615814","","0","0","null","null","arrowup","[0.15,0.85,0.675,0.325]","","",""
"sailing-trial","107","1183251","0.0-11.0-62.0","","","","false","","","","","","","","","","117.79999995231628","","254.80000001192093","","1","1","arrowleft","0","arrowright","[0.15,0.85,0.675,0.325]","","",""
"sailing-trial","108","1192675","0.0-11.0-63.0","","","","false","","","","","","","","","","null","","4200","","1","1","null","null","arrowup","[0.15,0.85,0.675,0.325]","","",""
"sailing-trial","109","1195199","0.0-11.0-64.0","","","","false","","","","","","","","","","183.60000002384186","","88.09999996423721","","0","0","arrowleft","0","arrowleft","[0.15,0.85,0.675,0.325]","","",""
"sailing-trial","110","1198184","0.0-11.0-65.0","","","","false","","","","","","","","","","null","","1158.800000011921","","1","1","null","null","arrowup","[0.15,0.85,0.675,0.325]","","",""
"sailing-trial","111","1201614","0.0-11.0-66.0","","","","false","","","","","","","","","","87.80000001192093","","634.3000000119209","","2","1","arrowright","1","arrowleft","[0.15,0.85,0.675,0.325]","","",""
"sailing-trial","112","1205408","0.0-11.0-67.0","","","","false","","","","","","","","","","null","","1753.5","","1","1","null","null","arrowup","[0.15,0.85,0.675,0.325]","","",""
"sailing-trial","113","1208924","0.0-11.0-68.0","","","","false","","","","","","","","","","662","","106.39999997615814","","1","1","arrowleft","0","arrowright","[0.15,0.85,0.675,0.325]","","",""
"sailing-trial","114","1212537","0.0-11.0-69.0","","","","false","","","","","","","","","","null","","2189.399999976158","","0","0","null","null","arrowup","[0.15,0.85,0.675,0.325]","","",""
"sailing-trial","115","1215252","0.0-11.0-70.0","","","","false","","","","","","","","","","288.5","","307.7999999523163","","2","0","arrowright","1","arrowleft","[0.15,0.85,0.675,0.325]","","",""
"sailing-trial","116","1217976","0.0-11.0-71.0","","","","false","","","","","","","","","","null","","1403.300000011921","","1","0","null","null","arrowup","[0.15,0.85,0.675,0.325]","","",""
"sailing-trial","117","1221657","0.0-11.0-72.0","","","","false","","","","","","","","","","595.5999999642372","","173.60000002384186","","1","1","arrowleft","0","arrowright","[0.15,0.85,0.675,0.325]","","",""
"sailing-trial","118","1224195","0.0-11.0-73.0","","","","false","","","","","","","","","","null","","798.1999999880791","","2","0","null","null","arrowup","[0.15,0.85,0.675,0.325]","","",""
"sailing-trial","119","1227742","0.0-11.0-74.0","","","","false","","","","","","","","","","119.30000001192093","","251.0999999642372","","1","1","arrowleft","0","arrowright","[0.15,0.85,0.675,0.325]","","",""
"sailing-trial","120","1233965","0.0-11.0-75.0","","","","false","","","","","","","","","","null","","677","","3","1","null","null","arrowup","[0.15,0.85,0.675,0.325]","","",""
"sailing-trial","121","1237843","0.0-11.0-76.0","","","","false","","","","","","","","","","757.8000000119209","","134.80000001192093","","0","0","arrowleft","0","arrowleft","[0.325,0.675,0.85,0.15]","","",""
"sailing-trial","122","1241401","0.0-11.0-77.0","","","","false","","","","","","","","","","null","","976.3000000119209","","2","1","null","null","arrowup","[0.325,0.675,0.85,0.15]","","",""
"sailing-trial","123","1245072","0.0-11.0-78.0","","","","false","","","","","","","","","","507.19999998807907","","229.0999999642372","","3","0","arrowright","1","arrowright","[0.325,0.675,0.85,0.15]","","",""
"sailing-trial","124","1249032","0.0-11.0-79.0","","","","false","","","","","","","","","","null","","1784.199999988079","","0","0","null","null","arrowup","[0.325,0.675,0.85,0.15]","","",""
"sailing-trial","125","1254372","0.0-11.0-80.0","","","","false","","","","","","","","","","949.5","","384.80000001192093","","0","0","arrowleft","0","arrowleft","[0.325,0.675,0.85,0.15]","","",""
"sailing-trial","126","1258137","0.0-11.0-81.0","","","","false","","","","","","","","","","null","","754.8000000119209","","1","0","null","null","arrowup","[0.325,0.675,0.85,0.15]","","",""
"sailing-trial","127","1261322","0.0-11.0-82.0","","","","false","","","","","","","","","","124.30000001192093","","106.80000001192093","","3","0","arrowright","1","arrowright","[0.325,0.675,0.85,0.15]","","",""
"sailing-trial","128","1264025","0.0-11.0-83.0","","","","false","","","","","","","","","","null","","739","","2","1","null","null","arrowup","[0.325,0.675,0.85,0.15]","","",""
"sailing-trial","129","1268980","0.0-11.0-84.0","","","","false","","","","","","","","","","735.3000000119209","","365.10000002384186","","2","0","arrowright","1","arrowleft","[0.325,0.675,0.85,0.15]","","",""
"sailing-trial","130","1272593","0.0-11.0-85.0","","","","false","","","","","","","","","","null","","1033.0999999642372","","1","0","null","null","arrowup","[0.325,0.675,0.85,0.15]","","",""
"sailing-trial","131","1278536","0.0-11.0-86.0","","","","false","","","","","","","","","","1182.1000000238419","","751.9000000357628","","3","0","arrowright","1","arrowright","[0.325,0.675,0.85,0.15]","","",""
"sailing-trial","132","1282332","0.0-11.0-87.0","","","","false","","","","","","","","","","null","","1292.800000011921","","3","0","null","null","arrowup","[0.325,0.675,0.85,0.15]","","",""
"sailing-trial","133","1286758","0.0-11.0-88.0","","","","false","","","","","","","","","","978.5999999642372","","18.69999998807907","","0","1","arrowleft","0","arrowleft","[0.325,0.675,0.85,0.15]","","",""
"sailing-trial","134","1289474","0.0-11.0-89.0","","","","false","","","","","","","","","","null","","1536.5","","1","0","null","null","arrowup","[0.325,0.675,0.85,0.15]","","",""
"sailing-trial","135","1293516","0.0-11.0-90.0","","","","false","","","","","","","","","","358.19999998807907","","522.1999999880791","","2","1","arrowright","1","arrowleft","[0.325,0.675,0.85,0.15]","","",""
"sailing-trial","136","1296496","0.0-11.0-91.0","","","","false","","","","","","","","","","null","","1692.199999988079","","0","0","null","null","arrowup","[0.325,0.675,0.85,0.15]","","",""
"sailing-trial","137","1302529","0.0-11.0-92.0","","","","false","","","","","","","","","","1815.9000000357628","","211","","0","0","arrowleft","0","arrowleft","[0.325,0.675,0.85,0.15]","","",""
"sailing-trial","138","1307789","0.0-11.0-93.0","","","","false","","","","","","","","","","null","","872.3000000119209","","2","1","null","null","arrowup","[0.325,0.675,0.85,0.15]","","",""
"sailing-trial","139","1312824","0.0-11.0-94.0","","","","false","","","","","","","","","","2116","","643.1000000238419","","3","0","arrowright","1","arrowright","[0.325,0.675,0.85,0.15]","","",""
"sailing-trial","140","1315264","0.0-11.0-95.0","","","","false","","","","","","","","","","null","","926.4000000357628","","1","0","null","null","arrowup","[0.325,0.675,0.85,0.15]","","",""
"sailing-trial","141","1319497","0.0-11.0-96.0","","","","false","","","","","","","","","","925.3000000119209","","112.80000001192093","","1","1","arrowleft","0","arrowright","[0.15,0.85,0.675,0.325]","","",""
"sailing-trial","142","1323545","0.0-11.0-97.0","","","","false","","","","","","","","","","null","","1037.0999999642372","","3","0","null","null","arrowup","[0.15,0.85,0.675,0.325]","","",""
"sailing-trial","143","1327945","0.0-11.0-98.0","","","","false","","","","","","","","","","351.19999998807907","","266","","1","1","arrowleft","0","arrowright","[0.15,0.85,0.675,0.325]","","",""
"sailing-trial","144","1330351","0.0-11.0-99.0","","","","false","","","","","","","","","","null","","256.60000002384186","","1","1","null","null","arrowup","[0.15,0.85,0.675,0.325]","","",""
"sailing-trial","145","1334637","0.0-11.0-100.0","","","","false","","","","","","","","","","226.69999998807907","","47.30000001192093","","0","0","arrowleft","0","arrowleft","[0.15,0.85,0.675,0.325]","","",""
"sailing-trial","146","1338581","0.0-11.0-101.0","","","","false","","","","","","","","","","null","","47.19999998807907","","1","1","null","null","arrowup","[0.15,0.85,0.675,0.325]","","",""
"sailing-trial","147","1342363","0.0-11.0-102.0","","","","false","","","","","","","","","","679","","26.599999964237213","","2","0","arrowright","1","arrowleft","[0.15,0.85,0.675,0.325]","","",""
"sailing-trial","148","1345127","0.0-11.0-103.0","","","","false","","","","","","","","","","null","","1081.0999999642372","","2","1","null","null","arrowup","[0.15,0.85,0.675,0.325]","","",""
"sailing-trial","149","1348470","0.0-11.0-104.0","","","","false","","","","","","","","","","432","","242.60000002384186","","3","0","arrowright","1","arrowright","[0.15,0.85,0.675,0.325]","","",""
"sailing-trial","150","1351890","0.0-11.0-105.0","","","","false","","","","","","","","","","null","","562.6999999880791","","2","1","null","null","arrowup","[0.15,0.85,0.675,0.325]","","",""
"sailing-trial","151","1354793","0.0-11.0-106.0","","","","false","","","","","","","","","","159.30000001192093","","25.30000001192093","","2","1","arrowright","1","arrowleft","[0.15,0.85,0.675,0.325]","","",""
"sailing-trial","152","1356539","0.0-11.0-107.0","","","","false","","","","","","","","","","null","","445.69999998807907","","3","0","null","null","arrowup","[0.15,0.85,0.675,0.325]","","",""
"sailing-trial","153","1358904","0.0-11.0-108.0","","","","false","","","","","","","","","","147.89999997615814","","46.10000002384186","","0","0","arrowleft","0","arrowleft","[0.15,0.85,0.675,0.325]","","",""
"sailing-trial","154","1360271","0.0-11.0-109.0","","","","false","","","","","","","","","","null","","297.5","","2","0","null","null","arrowup","[0.15,0.85,0.675,0.325]","","",""
"sailing-trial","155","1362471","0.0-11.0-110.0","","","","false","","","","","","","","","","27.80000001192093","","79.10000002384186","","0","0","arrowleft","0","arrowleft","[0.15,0.85,0.675,0.325]","","",""
"sailing-trial","156","1364442","0.0-11.0-111.0","","","","false","","","","","","","","","","null","","22.19999998807907","","3","1","null","null","arrowup","[0.15,0.85,0.675,0.325]","","",""
"sailing-trial","157","1368293","0.0-11.0-112.0","","","","false","","","","","","","","","","530.2999999523163","","175.5","","2","0","arrowright","1","arrowleft","[0.15,0.85,0.675,0.325]","","",""
"sailing-trial","158","1370704","0.0-11.0-113.0","","","","false","","","","","","","","","","null","","959.6999999880791","","1","0","null","null","arrowup","[0.15,0.85,0.675,0.325]","","",""
"sailing-trial","159","1378118","0.0-11.0-114.0","","","","false","","","","","","","","","","3465","","904.8000000119209","","1","0","arrowleft","0","arrowright","[0.325,0.675,0.85,0.15]","","",""
"sailing-trial","160","1380272","0.0-11.0-115.0","","","","false","","","","","","","","","","null","","793.3000000119209","","0","0","null","null","arrowup","[0.325,0.675,0.85,0.15]","","",""
"sailing-trial","161","1385562","0.0-11.0-116.0","","","","false","","","","","","","","","","649.8999999761581","","634.2000000476837","","0","0","arrowleft","0","arrowleft","[0.325,0.675,0.85,0.15]","","",""
"sailing-trial","162","1388851","0.0-11.0-117.0","","","","false","","","","","","","","","","null","","830.6999999880791","","2","1","null","null","arrowup","[0.325,0.675,0.85,0.15]","","",""
"sailing-trial","163","1392288","0.0-11.0-118.0","","","","false","","","","","","","","","","444.69999998807907","","147.60000002384186","","2","1","arrowright","1","arrowleft","[0.325,0.675,0.85,0.15]","","",""
"sailing-trial","164","1395688","0.0-11.0-119.0","","","","false","","","","","","","","","","null","","1388.300000011921","","3","1","null","null","arrowup","[0.325,0.675,0.85,0.15]","","",""
"sailing-trial","165","1399331","0.0-11.0-120.0","","","","false","","","","","","","","","","500.10000002384186","","97.80000001192093","","1","1","arrowleft","0","arrowright","[0.325,0.675,0.85,0.15]","","",""
"sailing-trial","166","1402960","0.0-11.0-121.0","","","","false","","","","","","","","","","null","","933.1000000238419","","2","1","null","null","arrowup","[0.325,0.675,0.85,0.15]","","",""
"sailing-trial","167","1407931","0.0-11.0-122.0","","","","false","","","","","","","","","","698.7000000476837","","263.7999999523163","","0","0","arrowleft","0","arrowleft","[0.325,0.675,0.85,0.15]","","",""
"sailing-trial","168","1411275","0.0-11.0-123.0","","","","false","","","","","","","","","","null","","1426.6000000238419","","3","1","null","null","arrowup","[0.325,0.675,0.85,0.15]","","",""
"sailing-trial","169","1415542","0.0-11.0-124.0","","","","false","","","","","","","","","","659.8999999761581","","90.30000001192093","","2","1","arrowright","1","arrowleft","[0.325,0.675,0.85,0.15]","","",""
"sailing-trial","170","1418458","0.0-11.0-125.0","","","","false","","","","","","","","","","null","","1048.5","","3","1","null","null","arrowup","[0.325,0.675,0.85,0.15]","","",""
"sailing-trial","171","1423811","0.0-11.0-126.0","","","","false","","","","","","","","","","1024.300000011921","","313","","0","0","arrowleft","0","arrowleft","[0.325,0.675,0.85,0.15]","","",""
"sailing-trial","172","1426645","0.0-11.0-127.0","","","","false","","","","","","","","","","null","","762.9000000357628","","1","1","null","null","arrowup","[0.325,0.675,0.85,0.15]","","",""
"sailing-trial","173","1431490","0.0-11.0-128.0","","","","false","","","","","","","","","","650.6000000238419","","182.0999999642372","","2","0","arrowright","1","arrowleft","[0.325,0.675,0.85,0.15]","","",""
"sailing-trial","174","1435785","0.0-11.0-129.0","","","","false","","","","","","","","","","null","","1719","","0","1","null","null","arrowup","[0.325,0.675,0.85,0.15]","","",""
"sailing-trial","175","1438990","0.0-11.0-130.0","","","","false","","","","","","","","","","621.3000000119209","","249.89999997615814","","3","0","arrowright","1","arrowright","[0.325,0.675,0.85,0.15]","","",""
"sailing-trial","176","1441566","0.0-11.0-131.0","","","","false","","","","","","","","","","null","","997.8999999761581","","2","0","null","null","arrowup","[0.325,0.675,0.85,0.15]","","",""
"sailing-trial","177","1445875","0.0-11.0-132.0","","","","false","","","","","","","","","","521.5","","44.200000047683716","","0","0","arrowleft","0","arrowleft","[0.325,0.675,0.85,0.15]","","",""
"sailing-trial","178","1447673","0.0-11.0-133.0","","","","false","","","","","","","","","","null","","18","","0","1","null","null","arrowup","[0.325,0.675,0.85,0.15]","","",""
"sailing-trial","179","1450030","0.0-11.0-134.0","","","","false","","","","","","","","","","28.099999964237213","","198.80000001192093","","0","0","arrowleft","0","arrowleft","[0.325,0.675,0.85,0.15]","","",""
"sailing-trial","180","1451148","0.0-11.0-135.0","","","","false","","","","","","","","","","null","","27.099999964237213","","3","0","null","null","arrowup","[0.325,0.675,0.85,0.15]","","",""
"sailing-trial","181","1454092","0.0-11.0-136.0","","","","false","","","","","","","","","","210.80000001192093","","215.20000004768372","","1","1","arrowleft","0","arrowright","[0.325,0.675,0.85,0.15]","","",""
"sailing-trial","182","1455371","0.0-11.0-137.0","","","","false","","","","","","","","","","null","","40","","1","0","null","null","arrowup","[0.325,0.675,0.85,0.15]","","",""
"sailing-trial","183","1458087","0.0-11.0-138.0","","","","false","","","","","","","","","","234.5","","183.10000002384186","","0","0","arrowleft","0","arrowleft","[0.15,0.85,0.675,0.325]","","",""
"sailing-trial","184","1459355","0.0-11.0-139.0","","","","false","","","","","","","","","","null","","3.300000011920929","","3","0","null","null","arrowup","[0.15,0.85,0.675,0.325]","","",""
"sailing-trial","185","1462425","0.0-11.0-140.0","","","","false","","","","","","","","","","51.19999998807907","","66","","1","1","arrowleft","0","arrowright","[0.15,0.85,0.675,0.325]","","",""
"sailing-trial","186","1467407","0.0-11.0-141.0","","","","false","","","","","","","","","","null","","191.80000001192093","","2","1","null","null","arrowup","[0.15,0.85,0.675,0.325]","","",""
"sailing-trial","187","1471118","0.0-11.0-142.0","","","","false","","","","","","","","","","751.3000000119209","","237.5999999642372","","2","1","arrowright","1","arrowleft","[0.15,0.85,0.675,0.325]","","",""
"sailing-trial","188","1473710","0.0-11.0-143.0","","","","false","","","","","","","","","","null","","1054","","3","1","null","null","arrowup","[0.15,0.85,0.675,0.325]","","",""
"sailing-trial","189","1477031","0.0-11.0-144.0","","","","false","","","","","","","","","","475.4000000357628","","151.4000000357628","","2","1","arrowright","1","arrowleft","[0.15,0.85,0.675,0.325]","","",""
"sailing-trial","190","1478923","0.0-11.0-145.0","","","","false","","","","","","","","","","null","","867.0999999642372","","0","0","null","null","arrowup","[0.15,0.85,0.675,0.325]","","",""
"sailing-trial","191","1483218","0.0-11.0-146.0","","","","false","","","","","","","","","","1057.300000011921","","183.5999999642372","","1","1","arrowleft","0","arrowright","[0.15,0.85,0.675,0.325]","","",""
"sailing-trial","192","1486249","0.0-11.0-147.0","","","","false","","","","","","","","","","null","","825.5","","1","1","null","null","arrowup","[0.15,0.85,0.675,0.325]","","",""
"sailing-trial","193","1490540","0.0-11.0-148.0","","","","false","","","","","","","","","","846.6999999880791","","190.39999997615814","","2","1","arrowright","1","arrowleft","[0.15,0.85,0.675,0.325]","","",""
"sailing-trial","194","1492561","0.0-11.0-149.0","","","","false","","","","","","","","","","null","","613.8999999761581","","3","0","null","null","arrowup","[0.15,0.85,0.675,0.325]","","",""
"sailing-trial","195","1495129","0.0-11.0-150.0","","","","false","","","","","","","","","","304.39999997615814","","213.29999995231628","","0","0","arrowleft","0","arrowleft","[0.15,0.85,0.675,0.325]","","",""
"sailing-trial","196","1499320","0.0-11.0-151.0","","","","false","","","","","","","","","","null","","1851.7999999523163","","0","0","null","null","arrowup","[0.15,0.85,0.675,0.325]","","",""
"sailing-trial","197","1503446","0.0-11.0-152.0","","","","false","","","","","","","","","","871.1999999880791","","109.69999998807907","","3","1","arrowright","1","arrowright","[0.15,0.85,0.675,0.325]","","",""
"sailing-trial","198","1506362","0.0-11.0-153.0","","","","false","","","","","","","","","","null","","945.9000000357628","","1","1","null","null","arrowup","[0.15,0.85,0.675,0.325]","","",""
"sailing-trial","199","1510119","0.0-11.0-154.0","","","","false","","","","","","","","","","557","","193.39999997615814","","2","1","arrowright","1","arrowleft","[0.325,0.675,0.85,0.15]","","",""
"sailing-trial","200","1512670","0.0-11.0-155.0","","","","false","","","","","","","","","","null","","819.7000000476837","","2","1","null","null","arrowup","[0.325,0.675,0.85,0.15]","","",""
"sailing-trial","201","1516798","0.0-11.0-156.0","","","","false","","","","","","","","","","681.5","","419.0999999642372","","2","0","arrowright","1","arrowleft","[0.325,0.675,0.85,0.15]","","",""
"sailing-trial","202","1519101","0.0-11.0-157.0","","","","false","","","","","","","","","","null","","693.6999999880791","","1","1","null","null","arrowup","[0.325,0.675,0.85,0.15]","","",""
"sailing-trial","203","1523082","0.0-11.0-158.0","","","","false","","","","","","","","","","403.89999997615814","","125.70000004768372","","1","1","arrowleft","0","arrowright","[0.325,0.675,0.85,0.15]","","",""
"sailing-trial","204","1525314","0.0-11.0-159.0","","","","false","","","","","","","","","","null","","651.3000000119209","","1","1","null","null","arrowup","[0.325,0.675,0.85,0.15]","","",""
"sailing-trial","205","1529174","0.0-11.0-160.0","","","","false","","","","","","","","","","455.19999998807907","","118.29999995231628","","2","1","arrowright","1","arrowleft","[0.325,0.675,0.85,0.15]","","",""
"sailing-trial","206","1531961","0.0-11.0-161.0","","","","false","","","","","","","","","","null","","812.8999999761581","","1","1","null","null","arrowup","[0.325,0.675,0.85,0.15]","","",""
"sailing-trial","207","1534906","0.0-11.0-162.0","","","","false","","","","","","","","","","628.1999999880791","","96.80000001192093","","3","0","arrowright","1","arrowright","[0.325,0.675,0.85,0.15]","","",""
"sailing-trial","208","1537452","0.0-11.0-163.0","","","","false","","","","","","","","","","null","","673.3000000119209","","0","1","null","null","arrowup","[0.325,0.675,0.85,0.15]","","",""
"sailing-trial","209","1541125","0.0-11.0-164.0","","","","false","","","","","","","","","","605.2000000476837","","180.5","","1","1","arrowleft","0","arrowright","[0.325,0.675,0.85,0.15]","","",""
"sailing-trial","210","1543290","0.0-11.0-165.0","","","","false","","","","","","","","","","null","","889.3000000119209","","3","0","null","null","arrowup","[0.325,0.675,0.85,0.15]","","",""
"sailing-trial","211","1547483","0.0-11.0-166.0","","","","false","","","","","","","","","","666.8000000119209","","388.19999998807907","","0","0","arrowleft","0","arrowleft","[0.325,0.675,0.85,0.15]","","",""
"sailing-trial","212","1550506","0.0-11.0-167.0","","","","false","","","","","","","","","","null","","998","","0","1","null","null","arrowup","[0.325,0.675,0.85,0.15]","","",""
"sailing-trial","213","1555506","0.0-11.0-168.0","","","","false","","","","","","","","","","1040","","180.29999995231628","","0","1","arrowleft","0","arrowleft","[0.325,0.675,0.85,0.15]","","",""
"sailing-trial","214","1558899","0.0-11.0-169.0","","","","false","","","","","","","","","","null","","804.8000000119209","","3","0","null","null","arrowup","[0.325,0.675,0.85,0.15]","","",""
"sailing-trial","215","1563286","0.0-11.0-170.0","","","","false","","","","","","","","","","998.8999999761581","","596.1000000238419","","2","1","arrowright","1","arrowleft","[0.325,0.675,0.85,0.15]","","",""
"sailing-trial","216","1566232","0.0-11.0-171.0","","","","false","","","","","","","","","","null","","963.5","","3","1","null","null","arrowup","[0.325,0.675,0.85,0.15]","","",""
"sailing-trial","217","1569676","0.0-11.0-172.0","","","","false","","","","","","","","","","413.30000001192093","","653.4000000357628","","0","0","arrowleft","0","arrowleft","[0.15,0.85,0.675,0.325]","","",""
"sailing-trial","218","1572577","0.0-11.0-173.0","","","","false","","","","","","","","","","null","","1216.5","","1","1","null","null","arrowup","[0.15,0.85,0.675,0.325]","","",""
"sailing-trial","219","1576825","0.0-11.0-174.0","","","","false","","","","","","","","","","1023.3000000119209","","157","","1","1","arrowleft","0","arrowright","[0.15,0.85,0.675,0.325]","","",""
"sailing-trial","220","1579583","0.0-11.0-175.0","","","","false","","","","","","","","","","null","","888.4000000357628","","2","1","null","null","arrowup","[0.15,0.85,0.675,0.325]","","",""
"sailing-trial","221","1583365","0.0-11.0-176.0","","","","false","","","","","","","","","","672.9000000357628","","226","","3","1","arrowright","1","arrowright","[0.15,0.85,0.675,0.325]","","",""
"sailing-trial","222","1585880","0.0-11.0-177.0","","","","false","","","","","","","","","","null","","906.2000000476837","","2","1","null","null","arrowup","[0.15,0.85,0.675,0.325]","","",""
"sailing-trial","223","1590826","0.0-11.0-178.0","","","","false","","","","","","","","","","554.8000000119209","","779.3999999761581","","2","1","arrowright","1","arrowleft","[0.15,0.85,0.675,0.325]","","",""
"sailing-trial","224","1596184","0.0-11.0-179.0","","","","false","","","","","","","","","","null","","2356","","0","0","null","null","arrowup","[0.15,0.85,0.675,0.325]","","",""
"sailing-trial","225","1604876","0.0-11.0-180.0","","","","false","","","","","","","","","","3591.300000011921","","1091.1000000238419","","1","0","arrowleft","0","arrowright","[0.15,0.85,0.675,0.325]","","",""
"sailing-trial","226","1610703","0.0-11.0-181.0","","","","false","","","","","","","","","","null","","2090.5","","0","1","null","null","arrowup","[0.15,0.85,0.675,0.325]","","",""
"sailing-trial","227","1619635","0.0-11.0-182.0","","","","false","","","","","","","","","","2627.199999988079","","3607.899999976158","","3","0","arrowright","1","arrowright","[0.15,0.85,0.675,0.325]","","",""
"sailing-trial","228","1621664","0.0-11.0-183.0","","","","false","","","","","","","","","","null","","736.0999999642372","","2","0","null","null","arrowup","[0.15,0.85,0.675,0.325]","","",""
"sailing-trial","229","1624431","0.0-11.0-184.0","","","","false","","","","","","","","","","305.30000001192093","","130.5","","0","0","arrowleft","0","arrowleft","[0.15,0.85,0.675,0.325]","","",""
"sailing-trial","230","1626583","0.0-11.0-185.0","","","","false","","","","","","","","","","null","","885.0999999642372","","0","0","null","null","arrowup","[0.15,0.85,0.675,0.325]","","",""
"sailing-trial","231","1630775","0.0-11.0-186.0","","","","false","","","","","","","","","","466.89999997615814","","93","","2","1","arrowright","1","arrowleft","[0.15,0.85,0.675,0.325]","","",""
"sailing-trial","232","1637400","0.0-11.0-187.0","","","","false","","","","","","","","","","null","","3620","","0","0","null","null","arrowup","[0.15,0.85,0.675,0.325]","","",""
"sailing-trial","233","1641999","0.0-11.0-188.0","","","","false","","","","","","","","","","523.1999999880791","","1153.4000000357628","","2","1","arrowright","1","arrowleft","[0.325,0.675,0.85,0.15]","","",""
"sailing-trial","234","1644063","0.0-11.0-189.0","","","","false","","","","","","","","","","null","","912.1999999880791","","3","0","null","null","arrowup","[0.325,0.675,0.85,0.15]","","",""
"sailing-trial","235","1647611","0.0-11.0-190.0","","","","false","","","","","","","","","","510.19999998807907","","275.7999999523163","","1","1","arrowleft","0","arrowright","[0.325,0.675,0.85,0.15]","","",""
"sailing-trial","236","1649922","0.0-11.0-191.0","","","","false","","","","","","","","","","null","","1106.2000000476837","","3","0","null","null","arrowup","[0.325,0.675,0.85,0.15]","","",""
"sailing-trial","237","1655381","0.0-11.0-192.0","","","","false","","","","","","","","","","556.7000000476837","","323.10000002384186","","2","1","arrowright","1","arrowleft","[0.325,0.675,0.85,0.15]","","",""
"sailing-trial","238","1660290","0.0-11.0-193.0","","","","false","","","","","","","","","","null","","1167.0999999642372","","1","1","null","null","arrowup","[0.325,0.675,0.85,0.15]","","",""
"sailing-trial","239","1665113","0.0-11.0-194.0","","","","false","","","","","","","","","","509.30000001192093","","511.60000002384186","","0","0","arrowleft","0","arrowleft","[0.325,0.675,0.85,0.15]","","",""
"sailing-trial","240","1667750","0.0-11.0-195.0","","","","false","","","","","","","","","","null","","833.1999999880791","","1","1","null","null","arrowup","[0.325,0.675,0.85,0.15]","","",""
"sailing-trial","241","1672824","0.0-11.0-196.0","","","","false","","","","","","","","","","556.1999999880791","","513.6999999880791","","3","0","arrowright","1","arrowright","[0.325,0.675,0.85,0.15]","","",""
"sailing-trial","242","1676302","0.0-11.0-197.0","","","","false","","","","","","","","","","null","","857","","2","1","null","null","arrowup","[0.325,0.675,0.85,0.15]","","",""
"sailing-trial","243","1682611","0.0-11.0-198.0","","","","false","","","","","","","","","","2058.399999976158","","239.29999995231628","","3","0","arrowright","1","arrowright","[0.325,0.675,0.85,0.15]","","",""
"sailing-trial","244","1686742","0.0-11.0-199.0","","","","false","","","","","","","","","","null","","2389.099999964237","","1","1","null","null","arrowup","[0.325,0.675,0.85,0.15]","","",""
"sailing-trial","245","1693111","0.0-11.0-200.0","","","","false","","","","","","","","","","1864.5","","1778","","2","1","arrowright","1","arrowleft","[0.325,0.675,0.85,0.15]","","",""
"sailing-trial","246","1695857","0.0-11.0-201.0","","","","false","","","","","","","","","","null","","1168.800000011921","","2","1","null","null","arrowup","[0.325,0.675,0.85,0.15]","","",""
"sailing-trial","247","1700639","0.0-11.0-202.0","","","","false","","","","","","","","","","780.4000000357628","","526.6999999880791","","0","1","arrowleft","0","arrowleft","[0.325,0.675,0.85,0.15]","","",""
"sailing-trial","248","1703003","0.0-11.0-203.0","","","","false","","","","","","","","","","null","","1216.1000000238419","","0","0","null","null","arrowup","[0.325,0.675,0.85,0.15]","","",""
"sailing-trial","249","1709026","0.0-11.0-204.0","","","","false","","","","","","","","","","716.8000000119209","","1145.800000011921","","2","1","arrowright","1","arrowleft","[0.325,0.675,0.85,0.15]","","",""
"sailing-trial","250","1711972","0.0-11.0-205.0","","","","false","","","","","","","","","","null","","1022.6999999880791","","0","1","null","null","arrowup","[0.325,0.675,0.85,0.15]","","",""
"sailing-trial","251","1715864","0.0-11.0-206.0","","","","false","","","","","","","","","","949.3999999761581","","388.89999997615814","","0","0","arrowleft","0","arrowleft","[0.325,0.675,0.85,0.15]","","",""
"sailing-trial","252","1719244","0.0-11.0-207.0","","","","false","","","","","","","","","","null","","1513.199999988079","","2","1","null","null","arrowup","[0.325,0.675,0.85,0.15]","","",""
"sailing-trial","253","1723802","0.0-11.0-208.0","","","","false","","","","","","","","","","916.6999999880791","","364.5999999642372","","2","1","arrowright","1","arrowleft","[0.15,0.85,0.675,0.325]","","",""
"sailing-trial","254","1728051","0.0-11.0-209.0","","","","false","","","","","","","","","","null","","2512.400000035763","","3","1","null","null","arrowup","[0.15,0.85,0.675,0.325]","","",""
"sailing-trial","255","1732766","0.0-11.0-210.0","","","","false","","","","","","","","","","879.1999999880791","","437.0999999642372","","3","1","arrowright","1","arrowright","[0.15,0.85,0.675,0.325]","","",""
"sailing-trial","256","1736274","0.0-11.0-211.0","","","","false","","","","","","","","","","null","","1630.8999999761581","","2","1","null","null","arrowup","[0.15,0.85,0.675,0.325]","","",""
"sailing-trial","257","1740249","0.0-11.0-212.0","","","","false","","","","","","","","","","712.6000000238419","","470.5","","2","1","arrowright","1","arrowleft","[0.15,0.85,0.675,0.325]","","",""
"sailing-trial","258","1743692","0.0-11.0-213.0","","","","false","","","","","","","","","","null","","1699.9000000357628","","1","1","null","null","arrowup","[0.15,0.85,0.675,0.325]","","",""
"sailing-trial","259","1746992","0.0-11.0-214.0","","","","false","","","","","","","","","","733.5","","443.10000002384186","","2","0","arrowright","1","arrowleft","[0.15,0.85,0.675,0.325]","","",""
"sailing-trial","260","1750795","0.0-11.0-215.0","","","","false","","","","","","","","","","null","","1868.0999999642372","","3","0","null","null","arrowup","[0.15,0.85,0.675,0.325]","","",""
"sailing-trial","261","1756228","0.0-11.0-216.0","","","","false","","","","","","","","","","1135.199999988079","","281.19999998807907","","0","0","arrowleft","0","arrowleft","[0.15,0.85,0.675,0.325]","","",""
"sailing-trial","262","1759996","0.0-11.0-217.0","","","","false","","","","","","","","","","null","","762.8999999761581","","0","0","null","null","arrowup","[0.15,0.85,0.675,0.325]","","",""
"sailing-trial","263","1764885","0.0-11.0-218.0","","","","false","","","","","","","","","","691.8000000119209","","321.9000000357628","","2","1","arrowright","1","arrowleft","[0.15,0.85,0.675,0.325]","","",""
"sailing-trial","264","1768790","0.0-11.0-219.0","","","","false","","","","","","","","","","null","","899.1000000238419","","0","0","null","null","arrowup","[0.15,0.85,0.675,0.325]","","",""
"sailing-trial","265","1771844","0.0-11.0-220.0","","","","false","","","","","","","","","","562.6000000238419","","101.80000001192093","","3","0","arrowright","1","arrowright","[0.15,0.85,0.675,0.325]","","",""
"sailing-trial","266","1774594","0.0-11.0-221.0","","","","false","","","","","","","","","","null","","1190","","3","0","null","null","arrowup","[0.15,0.85,0.675,0.325]","","",""
"sailing-trial","267","1777846","0.0-11.0-222.0","","","","false","","","","","","","","","","1051.5","","54.40000003576279","","0","0","arrowleft","0","arrowleft","[0.15,0.85,0.675,0.325]","","",""
"sailing-trial","268","1780733","0.0-11.0-223.0","","","","false","","","","","","","","","","null","","935.8999999761581","","3","1","null","null","arrowup","[0.15,0.85,0.675,0.325]","","",""
"sailing-trial","269","1783963","0.0-11.0-224.0","","","","false","","","","","","","","","","477.30000001192093","","183.89999997615814","","2","1","arrowright","1","arrowleft","[0.15,0.85,0.675,0.325]","","",""
"sailing-trial","270","1786673","0.0-11.0-225.0","","","","false","","","","","","","","","","null","","965.8999999761581","","2","1","null","null","arrowup","[0.15,0.85,0.675,0.325]","","",""
"sailing-trial","271","1789607","0.0-11.0-226.0","","","","false","","","","","","","","","","289.30000001192093","","69.19999998807907","","1","1","arrowleft","0","arrowright","[0.325,0.675,0.85,0.15]","","",""
"sailing-trial","272","1791734","0.0-11.0-227.0","","","","false","","","","","","","","","","null","","947.6000000238419","","0","0","null","null","arrowup","[0.325,0.675,0.85,0.15]","","",""
"sailing-trial","273","1794831","0.0-11.0-228.0","","","","false","","","","","","","","","","543.5","","503.7000000476837","","2","0","arrowright","1","arrowleft","[0.325,0.675,0.85,0.15]","","",""
"sailing-trial","274","1797357","0.0-11.0-229.0","","","","false","","","","","","","","","","null","","944.5","","1","1","null","null","arrowup","[0.325,0.675,0.85,0.15]","","",""
"sailing-trial","275","1800852","0.0-11.0-230.0","","","","false","","","","","","","","","","551","","185.79999995231628","","1","1","arrowleft","0","arrowright","[0.325,0.675,0.85,0.15]","","",""
"sailing-trial","276","1802730","0.0-11.0-231.0","","","","false","","","","","","","","","","null","","755.5","","0","0","null","null","arrowup","[0.325,0.675,0.85,0.15]","","",""
"sailing-trial","277","1806179","0.0-11.0-232.0","","","","false","","","","","","","","","","504.19999998807907","","263.60000002384186","","2","1","arrowright","1","arrowleft","[0.325,0.675,0.85,0.15]","","",""
"sailing-trial","278","1809216","0.0-11.0-233.0","","","","false","","","","","","","","","","null","","1184.800000011921","","1","1","null","null","arrowup","[0.325,0.675,0.85,0.15]","","",""
"sailing-trial","279","1813373","0.0-11.0-234.0","","","","false","","","","","","","","","","1121","","197.39999997615814","","1","1","arrowleft","0","arrowright","[0.325,0.675,0.85,0.15]","","",""
"sailing-trial","280","1816211","0.0-11.0-235.0","","","","false","","","","","","","","","","null","","788.1000000238419","","1","0","null","null","arrowup","[0.325,0.675,0.85,0.15]","","",""
"sailing-trial","281","1819609","0.0-11.0-236.0","","","","false","","","","","","","","","","396.5","","210.0999999642372","","2","1","arrowright","1","arrowleft","[0.325,0.675,0.85,0.15]","","",""
"sailing-trial","282","1822258","0.0-11.0-237.0","","","","false","","","","","","","","","","null","","928.8000000119209","","1","1","null","null","arrowup","[0.325,0.675,0.85,0.15]","","",""
"sailing-trial","283","1825755","0.0-11.0-238.0","","","","false","","","","","","","","","","719.8999999761581","","5.5","","2","1","arrowright","1","arrowleft","[0.325,0.675,0.85,0.15]","","",""
"sailing-trial","284","1828562","0.0-11.0-239.0","","","","false","","","","","","","","","","null","","1030.800000011921","","1","0","null","null","arrowup","[0.325,0.675,0.85,0.15]","","",""
"sailing-trial","285","1831995","0.0-11.0-240.0","","","","false","","","","","","","","","","744.6999999880791","","63","","0","0","arrowleft","0","arrowleft","[0.325,0.675,0.85,0.15]","","",""
"sailing-trial","286","1835075","0.0-11.0-241.0","","","","false","","","","","","","","","","null","","464.5","","0","1","null","null","arrowup","[0.325,0.675,0.85,0.15]","","",""
"sailing-trial","287","1839192","0.0-11.0-242.0","","","","false","","","","","","","","","","701.3000000119209","","134.60000002384186","","3","0","arrowright","1","arrowright","[0.325,0.675,0.85,0.15]","","",""
"sailing-trial","288","1841585","0.0-11.0-243.0","","","","false","","","","","","","","","","null","","170.19999998807907","","1","1","null","null","arrowup","[0.325,0.675,0.85,0.15]","","",""
"sailing-trial","289","1844192","0.0-11.0-244.0","","","","false","","","","","","","","","","131.0999999642372","","222.69999998807907","","2","0","arrowright","1","arrowleft","[0.85,0.15,0.325,0.675]","","",""
"sailing-trial","290","1846161","0.0-11.0-245.0","","","","false","","","","","","","","","","null","","232.19999998807907","","0","1","null","null","arrowup","[0.85,0.15,0.325,0.675]","","",""
"sailing-trial","291","1848954","0.0-11.0-246.0","","","","false","","","","","","","","","","98.90000003576279","","314.39999997615814","","0","0","arrowleft","0","arrowleft","[0.85,0.15,0.325,0.675]","","",""
"sailing-trial","292","1850942","0.0-11.0-247.0","","","","false","","","","","","","","","","null","","382.5","","3","1","null","null","arrowup","[0.85,0.15,0.325,0.675]","","",""
"sailing-trial","293","1854743","0.0-11.0-248.0","","","","false","","","","","","","","","","443.5","","280.0999999642372","","0","1","arrowleft","0","arrowleft","[0.85,0.15,0.325,0.675]","","",""
"sailing-trial","294","1856792","0.0-11.0-249.0","","","","false","","","","","","","","","","null","","470.30000001192093","","2","0","null","null","arrowup","[0.85,0.15,0.325,0.675]","","",""
"sailing-trial","295","1859257","0.0-11.0-250.0","","","","false","","","","","","","","","","171.0999999642372","","196.39999997615814","","0","0","arrowleft","0","arrowleft","[0.85,0.15,0.325,0.675]","","",""
"sailing-trial","296","1861401","0.0-11.0-251.0","","","","false","","","","","","","","","","null","","14.300000011920929","","0","1","null","null","arrowup","[0.85,0.15,0.325,0.675]","","",""
"sailing-trial","297","1864183","0.0-11.0-252.0","","","","false","","","","","","","","","","24.799999952316284","","104.90000003576279","","0","1","arrowleft","0","arrowleft","[0.85,0.15,0.325,0.675]","","",""
"sailing-trial","298","1865850","0.0-11.0-253.0","","","","false","","","","","","","","","","null","","70.89999997615814","","3","1","null","null","arrowup","[0.85,0.15,0.325,0.675]","","",""
"sailing-trial","299","1868456","0.0-11.0-254.0","","","","false","","","","","","","","","","156.9000000357628","","90.19999998807907","","1","0","arrowleft","0","arrowright","[0.85,0.15,0.325,0.675]","","",""
"sailing-trial","300","1870003","0.0-11.0-255.0","","","","false","","","","","","","","","","null","","421.30000001192093","","1","0","null","null","arrowup","[0.85,0.15,0.325,0.675]","","",""
"sailing-trial","301","1873633","0.0-11.0-256.0","","","","false","","","","","","","","","","522.3999999761581","","231","","0","1","arrowleft","0","arrowleft","[0.85,0.15,0.325,0.675]","","",""
"sailing-trial","302","1875536","0.0-11.0-257.0","","","","false","","","","","","","","","","null","","818.1999999880791","","2","0","null","null","arrowup","[0.85,0.15,0.325,0.675]","","",""
"sailing-trial","303","1879020","0.0-11.0-258.0","","","","false","","","","","","","","","","541.1999999880791","","246.5999999642372","","0","1","arrowleft","0","arrowleft","[0.85,0.15,0.325,0.675]","","",""
"sailing-trial","304","1882044","0.0-11.0-259.0","","","","false","","","","","","","","","","null","","115.19999998807907","","2","1","null","null","arrowup","[0.85,0.15,0.325,0.675]","","",""
"sailing-trial","305","1888081","0.0-11.0-260.0","","","","false","","","","","","","","","","936.3000000119209","","1311","","1","0","arrowleft","0","arrowright","[0.675,0.325,0.15,0.85]","","",""
"sailing-trial","306","1892972","0.0-11.0-261.0","","","","false","","","","","","","","","","null","","3834.399999976158","","2","0","null","null","arrowup","[0.675,0.325,0.15,0.85]","","",""
"sailing-trial","307","1896255","0.0-11.0-262.0","","","","false","","","","","","","","","","558.7000000476837","","5.5","","3","1","arrowright","1","arrowright","[0.675,0.325,0.15,0.85]","","",""
"sailing-trial","308","1898643","0.0-11.0-263.0","","","","false","","","","","","","","","","null","","628.8999999761581","","1","1","null","null","arrowup","[0.675,0.325,0.15,0.85]","","",""
"sailing-trial","309","1902057","0.0-11.0-264.0","","","","false","","","","","","","","","","875.6000000238419","","150.9000000357628","","1","0","arrowleft","0","arrowright","[0.675,0.325,0.15,0.85]","","",""
"sailing-trial","310","1904468","0.0-11.0-265.0","","","","false","","","","","","","","","","null","","659.1000000238419","","3","1","null","null","arrowup","[0.675,0.325,0.15,0.85]","","",""
"sailing-trial","311","1910468","0.0-11.0-266.0","","","","false","","","","","","","","","","792.1999999880791","","1193.300000011921","","1","0","arrowleft","0","arrowright","[0.675,0.325,0.15,0.85]","","",""
"sailing-trial","312","1917364","0.0-11.0-267.0","","","","false","","","","","","","","","","null","","5089.599999964237","","3","1","null","null","arrowup","[0.675,0.325,0.15,0.85]","","",""
"sailing-trial","313","1921847","0.0-11.0-268.0","","","","false","","","","","","","","","","1097.199999988079","","648.2999999523163","","0","1","arrowleft","0","arrowleft","[0.675,0.325,0.15,0.85]","","",""
"sailing-trial","314","1924684","0.0-11.0-269.0","","","","false","","","","","","","","","","null","","1065.0999999642372","","1","1","null","null","arrowup","[0.675,0.325,0.15,0.85]","","",""
"sailing-trial","315","1928629","0.0-11.0-270.0","","","","false","","","","","","","","","","617.6999999880791","","215.80000001192093","","2","1","arrowright","1","arrowleft","[0.675,0.325,0.15,0.85]","","",""
"sailing-trial","316","1933980","0.0-11.0-271.0","","","","false","","","","","","","","","","null","","3513.400000035763","","0","1","null","null","arrowup","[0.675,0.325,0.15,0.85]","","",""
"sailing-trial","317","1938750","0.0-11.0-272.0","","","","false","","","","","","","","","","677.2999999523163","","360.30000001192093","","2","1","arrowright","1","arrowleft","[0.675,0.325,0.15,0.85]","","",""
"sailing-trial","318","1941001","0.0-11.0-273.0","","","","false","","","","","","","","","","null","","1246.199999988079","","1","0","null","null","arrowup","[0.675,0.325,0.15,0.85]","","",""
"sailing-trial","319","1947198","0.0-11.0-274.0","","","","false","","","","","","","","","","763.3999999761581","","509.4000000357628","","2","1","arrowright","1","arrowleft","[0.675,0.325,0.15,0.85]","","",""
"sailing-trial","320","1951301","0.0-11.0-275.0","","","","false","","","","","","","","","","null","","971.5","","1","1","null","null","arrowup","[0.675,0.325,0.15,0.85]","","",""
"sailing-trial","321","1955902","0.0-11.0-276.0","","","","false","","","","","","","","","","956.6999999880791","","52.69999998807907","","2","0","arrowright","1","arrowleft","[0.675,0.325,0.15,0.85]","","",""
"sailing-trial","322","1960780","0.0-11.0-277.0","","","","false","","","","","","","","","","null","","1030.3999999761581","","0","1","null","null","arrowup","[0.675,0.325,0.15,0.85]","","",""
"sailing-trial","323","1965476","0.0-11.0-278.0","","","","false","","","","","","","","","","618.8999999761581","","328","","2","0","arrowright","1","arrowleft","[0.675,0.325,0.15,0.85]","","",""
"sailing-trial","324","1967920","0.0-11.0-279.0","","","","false","","","","","","","","","","null","","561","","2","0","null","null","arrowup","[0.675,0.325,0.15,0.85]","","",""
"sailing-trial","325","1970903","0.0-11.0-280.0","","","","false","","","","","","","","","","394.19999998807907","","223.79999995231628","","0","0","arrowleft","0","arrowleft","[0.675,0.325,0.15,0.85]","","",""
"sailing-trial","326","1974630","0.0-11.0-281.0","","","","false","","","","","","","","","","null","","1414.3999999761581","","2","0","null","null","arrowup","[0.675,0.325,0.15,0.85]","","",""
"sailing-trial","327","1979168","0.0-11.0-282.0","","","","false","","","","","","","","","","859.6000000238419","","217","","3","1","arrowright","1","arrowright","[0.85,0.15,0.325,0.675]","","",""
"sailing-trial","328","1983245","0.0-11.0-283.0","","","","false","","","","","","","","","","null","","1642.0999999642372","","3","1","null","null","arrowup","[0.85,0.15,0.325,0.675]","","",""
"sailing-trial","329","1989584","0.0-11.0-284.0","","","","false","","","","","","","","","","1597.699999988079","","877.3000000119209","","1","1","arrowleft","0","arrowright","[0.85,0.15,0.325,0.675]","","",""
"sailing-trial","330","1994323","0.0-11.0-285.0","","","","false","","","","","","","","","","null","","2939.399999976158","","3","1","null","null","arrowup","[0.85,0.15,0.325,0.675]","","",""
"sailing-trial","331","1998264","0.0-11.0-286.0","","","","false","","","","","","","","","","729.3000000119209","","394.89999997615814","","2","0","arrowright","1","arrowleft","[0.85,0.15,0.325,0.675]","","",""
"sailing-trial","332","2001960","0.0-11.0-287.0","","","","false","","","","","","","","","","null","","1005","","2","0","null","null","arrowup","[0.85,0.15,0.325,0.675]","","",""
"sailing-trial","333","2006893","0.0-11.0-288.0","","","","false","","","","","","","","","","649.6999999880791","","296.5","","3","1","arrowright","1","arrowright","[0.85,0.15,0.325,0.675]","","",""
"sailing-trial","334","2009703","0.0-11.0-289.0","","","","false","","","","","","","","","","null","","1800.199999988079","","2","0","null","null","arrowup","[0.85,0.15,0.325,0.675]","","",""
"sailing-trial","335","2015009","0.0-11.0-290.0","","","","false","","","","","","","","","","1118.300000011921","","173.39999997615814","","1","0","arrowleft","0","arrowright","[0.85,0.15,0.325,0.675]","","",""
"sailing-trial","336","2022167","0.0-11.0-291.0","","","","false","","","","","","","","","","null","","5506.300000011921","","3","0","null","null","arrowup","[0.85,0.15,0.325,0.675]","","",""
"sailing-trial","337","2028040","0.0-11.0-292.0","","","","false","","","","","","","","","","640.5999999642372","","1269.8999999761581","","2","0","arrowright","1","arrowleft","[0.85,0.15,0.325,0.675]","","",""
"sailing-trial","338","2031414","0.0-11.0-293.0","","","","false","","","","","","","","","","null","","1085.3999999761581","","3","1","null","null","arrowup","[0.85,0.15,0.325,0.675]","","",""
"sailing-trial","339","2034718","0.0-11.0-294.0","","","","false","","","","","","","","","","732.7999999523163","","379.19999998807907","","2","0","arrowright","1","arrowleft","[0.85,0.15,0.325,0.675]","","",""
"sailing-trial","340","2040118","0.0-11.0-295.0","","","","false","","","","","","","","","","null","","2395","","1","0","null","null","arrowup","[0.85,0.15,0.325,0.675]","","",""
"sailing-trial","341","2046267","0.0-11.0-296.0","","","","false","","","","","","","","","","960.6999999880791","","1911.1000000238419","","3","0","arrowright","1","arrowright","[0.85,0.15,0.325,0.675]","","",""
"sailing-trial","342","2049843","0.0-11.0-297.0","","","","false","","","","","","","","","","null","","1867.2000000476837","","1","1","null","null","arrowup","[0.85,0.15,0.325,0.675]","","",""
"sailing-trial","343","2052928","0.0-11.0-298.0","","","","false","","","","","","","","","","29.5","","205.19999998807907","","0","1","arrowleft","0","arrowleft","[0.325,0.675,0.85,0.15]","","",""
"sailing-trial","344","2054372","0.0-11.0-299.0","","","","false","","","","","","","","","","null","","404.5","","3","0","null","null","arrowup","[0.325,0.675,0.85,0.15]","","",""
"sailing-trial","345","2056654","0.0-11.0-300.0","","","","false","","","","","","","","","","108.20000004768372","","18.900000035762787","","3","0","arrowright","1","arrowright","[0.325,0.675,0.85,0.15]","","",""
"sailing-trial","346","2058624","0.0-11.0-301.0","","","","false","","","","","","","","","","null","","181.19999998807907","","1","1","null","null","arrowup","[0.325,0.675,0.85,0.15]","","",""
"sailing-trial","347","2061352","0.0-11.0-302.0","","","","false","","","","","","","","","","125.80000001192093","","56.09999996423721","","2","1","arrowright","1","arrowleft","[0.325,0.675,0.85,0.15]","","",""
"sailing-trial","348","2062628","0.0-11.0-303.0","","","","false","","","","","","","","","","null","","53.30000001192093","","3","0","null","null","arrowup","[0.325,0.675,0.85,0.15]","","",""
"sailing-trial","349","2065307","0.0-11.0-304.0","","","","false","","","","","","","","","","178.80000001192093","","165.5999999642372","","0","0","arrowleft","0","arrowleft","[0.325,0.675,0.85,0.15]","","",""
"sailing-trial","350","2067121","0.0-11.0-305.0","","","","false","","","","","","","","","","null","","247.80000001192093","","2","1","null","null","arrowup","[0.325,0.675,0.85,0.15]","","",""
"sailing-trial","351","2070048","0.0-11.0-306.0","","","","false","","","","","","","","","","165.10000002384186","","46.89999997615814","","0","1","arrowleft","0","arrowleft","[0.325,0.675,0.85,0.15]","","",""
"sailing-trial","352","2071897","0.0-11.0-307.0","","","","false","","","","","","","","","","null","","68.89999997615814","","2","1","null","null","arrowup","[0.325,0.675,0.85,0.15]","","",""
"sailing-trial","353","2074781","0.0-11.0-308.0","","","","false","","","","","","","","","","17.799999952316284","","203.5999999642372","","0","1","arrowleft","0","arrowleft","[0.325,0.675,0.85,0.15]","","",""
"sailing-trial","354","2076752","0.0-11.0-309.0","","","","false","","","","","","","","","","null","","222.89999997615814","","2","1","null","null","arrowup","[0.325,0.675,0.85,0.15]","","",""
"sailing-trial","355","2078948","0.0-11.0-310.0","","","","false","","","","","","","","","","38.10000002384186","","56","","3","0","arrowright","1","arrowright","[0.325,0.675,0.85,0.15]","","",""
"sailing-trial","356","2080872","0.0-11.0-311.0","","","","false","","","","","","","","","","null","","211.5999999642372","","2","1","null","null","arrowup","[0.325,0.675,0.85,0.15]","","",""
"sailing-trial","357","2083212","0.0-11.0-312.0","","","","false","","","","","","","","","","30.80000001192093","","122.10000002384186","","0","0","arrowleft","0","arrowleft","[0.325,0.675,0.85,0.15]","","",""
"sailing-trial","358","2085061","0.0-11.0-313.0","","","","false","","","","","","","","","","null","","183.39999997615814","","0","1","null","null","arrowup","[0.325,0.675,0.85,0.15]","","",""
"sailing-trial","359","2088039","0.0-11.0-314.0","","","","false","","","","","","","","","","177.69999998807907","","498.4000000357628","","0","0","arrowleft","0","arrowleft","[0.325,0.675,0.85,0.15]","","",""
"sailing-trial","360","2090024","0.0-11.0-315.0","","","","false","","","","","","","","","","null","","241.9000000357628","","0","1","null","null","arrowup","[0.325,0.675,0.85,0.15]","","",""
"sailing-trial","361","2092852","0.0-11.0-316.0","","","","false","","","","","","","","","","412.2999999523163","","140.9000000357628","","3","0","arrowright","1","arrowright","[0.325,0.675,0.85,0.15]","","",""
"sailing-trial","362","2095711","0.0-11.0-317.0","","","","false","","","","","","","","","","null","","1590.5999999642372","","3","0","null","null","arrowup","[0.325,0.675,0.85,0.15]","","",""
"sailing-trial","363","2099499","0.0-11.0-318.0","","","","false","","","","","","","","","","647.6999999880791","","929.9000000357628","","0","0","arrowleft","0","arrowleft","[0.15,0.85,0.675,0.325]","","",""
"sailing-trial","364","2102270","0.0-11.0-319.0","","","","false","","","","","","","","","","null","","858.3000000119209","","2","1","null","null","arrowup","[0.15,0.85,0.675,0.325]","","",""
"sailing-trial","365","2105567","0.0-11.0-320.0","","","","false","","","","","","","","","","311.5","","103.59999996423721","","2","1","arrowright","1","arrowleft","[0.15,0.85,0.675,0.325]","","",""
"sailing-trial","366","2108349","0.0-11.0-321.0","","","","false","","","","","","","","","","null","","979.3000000119209","","1","1","null","null","arrowup","[0.15,0.85,0.675,0.325]","","",""
"sailing-trial","367","2111718","0.0-11.0-322.0","","","","false","","","","","","","","","","296.30000001192093","","586.6999999880791","","1","0","arrowleft","0","arrowright","[0.15,0.85,0.675,0.325]","","",""
"sailing-trial","368","2113678","0.0-11.0-323.0","","","","false","","","","","","","","","","null","","839.5","","3","0","null","null","arrowup","[0.15,0.85,0.675,0.325]","","",""
"sailing-trial","369","2118253","0.0-11.0-324.0","","","","false","","","","","","","","","","408.39999997615814","","191","","0","0","arrowleft","0","arrowleft","[0.15,0.85,0.675,0.325]","","",""
"sailing-trial","370","2121053","0.0-11.0-325.0","","","","false","","","","","","","","","","null","","1387.2000000476837","","2","0","null","null","arrowup","[0.15,0.85,0.675,0.325]","","",""
"sailing-trial","371","2124718","0.0-11.0-326.0","","","","false","","","","","","","","","","594.6000000238419","","22.69999998807907","","3","1","arrowright","1","arrowright","[0.15,0.85,0.675,0.325]","","",""
"sailing-trial","372","2126838","0.0-11.0-327.0","","","","false","","","","","","","","","","null","","691.6999999880791","","2","0","null","null","arrowup","[0.15,0.85,0.675,0.325]","","",""
"sailing-trial","373","2133252","0.0-11.0-328.0","","","","false","","","","","","","","","","1948.5999999642372","","218.69999998807907","","1","1","arrowleft","0","arrowright","[0.15,0.85,0.675,0.325]","","",""
"sailing-trial","374","2137369","0.0-11.0-329.0","","","","false","","","","","","","","","","null","","1114.9000000357628","","3","0","null","null","arrowup","[0.15,0.85,0.675,0.325]","","",""
"sailing-trial","375","2142943","0.0-11.0-330.0","","","","false","","","","","","","","","","837.5","","407.69999998807907","","2","1","arrowright","1","arrowleft","[0.15,0.85,0.675,0.325]","","",""
"sailing-trial","376","2147888","0.0-11.0-331.0","","","","false","","","","","","","","","","null","","962.1999999880791","","0","1","null","null","arrowup","[0.15,0.85,0.675,0.325]","","",""
"sailing-trial","377","2153672","0.0-11.0-332.0","","","","false","","","","","","","","","","974.0999999642372","","803.3000000119209","","2","0","arrowright","1","arrowleft","[0.15,0.85,0.675,0.325]","","",""
"sailing-trial","378","2159324","0.0-11.0-333.0","","","","false","","","","","","","","","","null","","3500.100000023842","","1","1","null","null","arrowup","[0.15,0.85,0.675,0.325]","","",""
"sailing-trial","379","2164189","0.0-11.0-334.0","","","","false","","","","","","","","","","795.5","","6.800000011920929","","0","1","arrowleft","0","arrowleft","[0.85,0.15,0.325,0.675]","","",""
"sailing-trial","380","2167269","0.0-11.0-335.0","","","","false","","","","","","","","","","null","","1615.2999999523163","","2","0","null","null","arrowup","[0.85,0.15,0.325,0.675]","","",""
"sailing-trial","381","2171667","0.0-11.0-336.0","","","","false","","","","","","","","","","1021.4000000357628","","508.80000001192093","","0","1","arrowleft","0","arrowleft","[0.85,0.15,0.325,0.675]","","",""
"sailing-trial","382","2174389","0.0-11.0-337.0","","","","false","","","","","","","","","","null","","926.1000000238419","","3","1","null","null","arrowup","[0.85,0.15,0.325,0.675]","","",""
"sailing-trial","383","2179170","0.0-11.0-338.0","","","","false","","","","","","","","","","1083.4000000357628","","626.1000000238419","","3","1","arrowright","1","arrowright","[0.85,0.15,0.325,0.675]","","",""
"sailing-trial","384","2181982","0.0-11.0-339.0","","","","false","","","","","","","","","","null","","1004.5999999642372","","2","1","null","null","arrowup","[0.85,0.15,0.325,0.675]","","",""
"sailing-trial","385","2187776","0.0-11.0-340.0","","","","false","","","","","","","","","","1519","","734.6999999880791","","0","1","arrowleft","0","arrowleft","[0.85,0.15,0.325,0.675]","","",""
"sailing-trial","386","2189736","0.0-11.0-341.0","","","","false","","","","","","","","","","null","","637.6000000238419","","1","0","null","null","arrowup","[0.85,0.15,0.325,0.675]","","",""
"sailing-trial","387","2192903","0.0-11.0-342.0","","","","false","","","","","","","","","","577","","178.80000001192093","","1","0","arrowleft","0","arrowright","[0.85,0.15,0.325,0.675]","","",""
"sailing-trial","388","2195352","0.0-11.0-343.0","","","","false","","","","","","","","","","null","","562.8999999761581","","3","1","null","null","arrowup","[0.85,0.15,0.325,0.675]","","",""
"sailing-trial","389","2199176","0.0-11.0-344.0","","","","false","","","","","","","","","","658","","254.9000000357628","","0","1","arrowleft","0","arrowleft","[0.85,0.15,0.325,0.675]","","",""
"sailing-trial","390","2202430","0.0-11.0-345.0","","","","false","","","","","","","","","","null","","1409.8999999761581","","0","1","null","null","arrowup","[0.85,0.15,0.325,0.675]","","",""
"sailing-trial","391","2207293","0.0-11.0-346.0","","","","false","","","","","","","","","","1315.3999999761581","","973.5","","2","0","arrowright","1","arrowleft","[0.85,0.15,0.325,0.675]","","",""
"sailing-trial","392","2210109","0.0-11.0-347.0","","","","false","","","","","","","","","","null","","581.9000000357628","","0","1","null","null","arrowup","[0.85,0.15,0.325,0.675]","","",""
"sailing-trial","393","2215683","0.0-11.0-348.0","","","","false","","","","","","","","","","1238","","1600.7000000476837","","2","0","arrowright","1","arrowleft","[0.85,0.15,0.325,0.675]","","",""
"sailing-trial","394","2218067","0.0-11.0-349.0","","","","false","","","","","","","","","","null","","1210.300000011921","","1","0","null","null","arrowup","[0.85,0.15,0.325,0.675]","","",""
"sailing-trial","395","2221913","0.0-11.0-350.0","","","","false","","","","","","","","","","1086.199999988079","","704.8000000119209","","2","0","arrowright","1","arrowleft","[0.85,0.15,0.325,0.675]","","",""
"sailing-trial","396","2224037","0.0-11.0-351.0","","","","false","","","","","","","","","","null","","1084","","1","0","null","null","arrowup","[0.85,0.15,0.325,0.675]","","",""
"sailing-trial","397","2229940","0.0-11.0-352.0","","","","false","","","","","","","","","","1371.8999999761581","","514.3999999761581","","2","0","arrowright","1","arrowleft","[0.675,0.325,0.15,0.85]","","",""
"sailing-trial","398","2233180","0.0-11.0-353.0","","","","false","","","","","","","","","","null","","806.4000000357628","","0","1","null","null","arrowup","[0.675,0.325,0.15,0.85]","","",""
"sailing-trial","399","2238247","0.0-11.0-354.0","","","","false","","","","","","","","","","628.6999999880791","","509.5","","2","0","arrowright","1","arrowleft","[0.675,0.325,0.15,0.85]","","",""
"sailing-trial","400","2242253","0.0-11.0-355.0","","","","false","","","","","","","","","","null","","1129.300000011921","","3","1","null","null","arrowup","[0.675,0.325,0.15,0.85]","","",""
"sailing-trial","401","2246882","0.0-11.0-356.0","","","","false","","","","","","","","","","873.8000000119209","","269.10000002384186","","2","0","arrowright","1","arrowleft","[0.675,0.325,0.15,0.85]","","",""
"sailing-trial","402","2251956","0.0-11.0-357.0","","","","false","","","","","","","","","","null","","2823.899999976158","","2","1","null","null","arrowup","[0.675,0.325,0.15,0.85]","","",""
"sailing-trial","403","2256622","0.0-11.0-358.0","","","","false","","","","","","","","","","628.5","","322.39999997615814","","0","1","arrowleft","0","arrowleft","[0.675,0.325,0.15,0.85]","","",""
"sailing-trial","404","2259170","0.0-11.0-359.0","","","","false","","","","","","","","","","null","","1308.199999988079","","3","0","null","null","arrowup","[0.675,0.325,0.15,0.85]","","",""
"sailing-trial","405","2262742","0.0-11.0-360.0","","","","false","","","","","","","","","","855.6999999880791","","156.39999997615814","","0","0","arrowleft","0","arrowleft","[0.675,0.325,0.15,0.85]","","",""
"sailing-trial","406","2264723","0.0-11.0-361.0","","","","false","","","","","","","","","","null","","762.9000000357628","","2","0","null","null","arrowup","[0.675,0.325,0.15,0.85]","","",""
"sailing-trial","407","2269745","0.0-11.0-362.0","","","","false","","","","","","","","","","592.3000000119209","","421.5","","2","0","arrowright","1","arrowleft","[0.675,0.325,0.15,0.85]","","",""
"sailing-trial","408","2275853","0.0-11.0-363.0","","","","false","","","","","","","","","","null","","3991.199999988079","","0","1","null","null","arrowup","[0.675,0.325,0.15,0.85]","","",""
"sailing-trial","409","2280087","0.0-11.0-364.0","","","","false","","","","","","","","","","838.3000000119209","","1277","","2","0","arrowright","1","arrowleft","[0.675,0.325,0.15,0.85]","","",""
"sailing-trial","410","2285336","0.0-11.0-365.0","","","","false","","","","","","","","","","null","","3207.5","","2","0","null","null","arrowup","[0.675,0.325,0.15,0.85]","","",""
"sailing-trial","411","2292004","0.0-11.0-366.0","","","","false","","","","","","","","","","1683.199999988079","","1457.5999999642372","","1","0","arrowleft","0","arrowright","[0.675,0.325,0.15,0.85]","","",""
"sailing-trial","412","2296723","0.0-11.0-367.0","","","","false","","","","","","","","","","null","","1932.1000000238419","","2","1","null","null","arrowup","[0.675,0.325,0.15,0.85]","","",""
"sailing-trial","413","2300699","0.0-11.0-368.0","","","","false","","","","","","","","","","681.5","","43","","1","1","arrowleft","0","arrowright","[0.15,0.85,0.675,0.325]","","",""
"sailing-trial","414","2303748","0.0-11.0-369.0","","","","false","","","","","","","","","","null","","832.3999999761581","","3","1","null","null","arrowup","[0.15,0.85,0.675,0.325]","","",""
"sailing-trial","415","2309591","0.0-11.0-370.0","","","","false","","","","","","","","","","403.69999998807907","","1431.699999988079","","3","0","arrowright","1","arrowright","[0.15,0.85,0.675,0.325]","","",""
"sailing-trial","416","2312753","0.0-11.0-371.0","","","","false","","","","","","","","","","null","","1137.2999999523163","","0","0","null","null","arrowup","[0.15,0.85,0.675,0.325]","","",""
"sailing-trial","417","2317020","0.0-11.0-372.0","","","","false","","","","","","","","","","1024.5999999642372","","72.60000002384186","","2","1","arrowright","1","arrowleft","[0.15,0.85,0.675,0.325]","","",""
"sailing-trial","418","2319158","0.0-11.0-373.0","","","","false","","","","","","","","","","null","","778.8999999761581","","0","0","null","null","arrowup","[0.15,0.85,0.675,0.325]","","",""
"sailing-trial","419","2323325","0.0-11.0-374.0","","","","false","","","","","","","","","","850.6000000238419","","634","","0","0","arrowleft","0","arrowleft","[0.15,0.85,0.675,0.325]","","",""
"sailing-trial","420","2326087","0.0-11.0-375.0","","","","false","","","","","","","","","","null","","842.5999999642372","","2","1","null","null","arrowup","[0.15,0.85,0.675,0.325]","","",""
"sailing-trial","421","2330110","0.0-11.0-376.0","","","","false","","","","","","","","","","938.8000000119209","","547.0999999642372","","0","1","arrowleft","0","arrowleft","[0.15,0.85,0.675,0.325]","","",""
"sailing-trial","422","2332341","0.0-11.0-377.0","","","","false","","","","","","","","","","null","","213","","3","1","null","null","arrowup","[0.15,0.85,0.675,0.325]","","",""
"sailing-trial","423","2335830","0.0-11.0-378.0","","","","false","","","","","","","","","","768.6999999880791","","570.1000000238419","","0","0","arrowleft","0","arrowleft","[0.15,0.85,0.675,0.325]","","",""
"sailing-trial","424","2339459","0.0-11.0-379.0","","","","false","","","","","","","","","","null","","2356.699999988079","","3","0","null","null","arrowup","[0.15,0.85,0.675,0.325]","","",""
"sailing-trial","425","2343282","0.0-11.0-380.0","","","","false","","","","","","","","","","957.2999999523163","","646.1999999880791","","0","0","arrowleft","0","arrowleft","[0.15,0.85,0.675,0.325]","","",""
"sailing-trial","426","2346514","0.0-11.0-381.0","","","","false","","","","","","","","","","null","","1192.800000011921","","2","1","null","null","arrowup","[0.15,0.85,0.675,0.325]","","",""
"sailing-trial","427","2351391","0.0-11.0-382.0","","","","false","","","","","","","","","","677.0999999642372","","209.60000002384186","","3","0","arrowright","1","arrowright","[0.15,0.85,0.675,0.325]","","",""
"sailing-trial","428","2353674","0.0-11.0-383.0","","","","false","","","","","","","","","","null","","766.3999999761581","","3","0","null","null","arrowup","[0.15,0.85,0.675,0.325]","","",""
"sailing-trial","429","2357260","0.0-11.0-384.0","","","","false","","","","","","","","","","439.19999998807907","","202.30000001192093","","1","1","arrowleft","0","arrowright","[0.325,0.675,0.85,0.15]","","",""
"sailing-trial","430","2360072","0.0-11.0-385.0","","","","false","","","","","","","","","","null","","893.1000000238419","","0","1","null","null","arrowup","[0.325,0.675,0.85,0.15]","","",""
"sailing-trial","431","2364554","0.0-11.0-386.0","","","","false","","","","","","","","","","2089.199999988079","","119.69999998807907","","0","0","arrowleft","0","arrowleft","[0.325,0.675,0.85,0.15]","","",""
"sailing-trial","432","2368091","0.0-11.0-387.0","","","","false","","","","","","","","","","null","","1409.5999999642372","","3","0","null","null","arrowup","[0.325,0.675,0.85,0.15]","","",""
"sailing-trial","433","2372353","0.0-11.0-388.0","","","","false","","","","","","","","","","1561.3999999761581","","331.80000001192093","","2","0","arrowright","1","arrowleft","[0.325,0.675,0.85,0.15]","","",""
"sailing-trial","434","2374126","0.0-11.0-389.0","","","","false","","","","","","","","","","null","","52.30000001192093","","2","1","null","null","arrowup","[0.325,0.675,0.85,0.15]","","",""
"sailing-trial","435","2377034","0.0-11.0-390.0","","","","false","","","","","","","","","","586.7000000476837","","195.30000001192093","","1","0","arrowleft","0","arrowright","[0.325,0.675,0.85,0.15]","","",""
"sailing-trial","436","2379575","0.0-11.0-391.0","","","","false","","","","","","","","","","null","","626","","2","1","null","null","arrowup","[0.325,0.675,0.85,0.15]","","",""
"sailing-trial","437","2381921","0.0-11.0-392.0","","","","false","","","","","","","","","","68.90000003576279","","128","","0","0","arrowleft","0","arrowleft","[0.325,0.675,0.85,0.15]","","",""
"sailing-trial","438","2383414","0.0-11.0-393.0","","","","false","","","","","","","","","","null","","262.80000001192093","","0","0","null","null","arrowup","[0.325,0.675,0.85,0.15]","","",""
"sailing-trial","439","2385697","0.0-11.0-394.0","","","","false","","","","","","","","","","79.60000002384186","","47.40000003576279","","3","0","arrowright","1","arrowright","[0.325,0.675,0.85,0.15]","","",""
"sailing-trial","440","2388721","0.0-11.0-395.0","","","","false","","","","","","","","","","null","","15.100000023841858","","1","0","null","null","arrowup","[0.325,0.675,0.85,0.15]","","",""
"sailing-trial","441","2392810","0.0-11.0-396.0","","","","false","","","","","","","","","","870.6999999880791","","45.69999998807907","","1","0","arrowleft","0","arrowright","[0.325,0.675,0.85,0.15]","","",""
"sailing-trial","442","2397331","0.0-11.0-397.0","","","","false","","","","","","","","","","null","","1775","","0","0","null","null","arrowup","[0.325,0.675,0.85,0.15]","","",""
"sailing-trial","443","2404504","0.0-11.0-398.0","","","","false","","","","","","","","","","1659.0999999642372","","270","","0","1","arrowleft","0","arrowleft","[0.325,0.675,0.85,0.15]","","",""
"sailing-trial","444","2408747","0.0-11.0-399.0","","","","false","","","","","","","","","","null","","2897","","3","0","null","null","arrowup","[0.325,0.675,0.85,0.15]","","",""
"instructions","445","2411636","0.0-12.0","","","","","","","","","","2888.300000011921","","","","","","","","","","","","","","","","[{""page_index"":0,""viewing_time"":2887.899999976158}]"
"survey-debrief","446","2426824","0.0-13.0","","","","","","","","","","15187.299999952316","","","","","","","","","","","","","","{""difficulty"":""5"",""fun"":""1"",""clarity"":""4"",""strategy"":"""",""feedback"":""""}","",""
