"trial_type","trial_index","time_elapsed","internal_node_id","value","metadata","success","timeout","failed_images","failed_audio","failed_video","browser_interaction","low_quality","rt","stimulus","response","button_pressed","island_rt","island_response","boat_rt","boat_response","boat","reward","island_key","island","boat_key","reward_probabilities","responses","num_errors","view_history"
"pavlovia","0","3","0.0-0.0","","","","","","","","","","","","","","","","","","","","","","","","","",""
"call-function","1","4","0.0-1.0","","{""task_version"":""sailing_part1_v1"",""task_condition"":""good"",""boats"":[""B"",""C"",""D"",""A""],""boats_demo"":[""E"",""H"",""G"",""F""],""islands"":[""A"",""B""],""subject_id"":""14595"",""age"":""13"",""gender"":""Female""}","","","","","","","","","","","","","","","","","","","","","","","",""
"preload","2","1827","0.0-2.0","","","true","false","[]","[]","[]","[{""event"":""fullscreenenter"",""trial"":3,""time"":4399}]","false","","","","","","","","","","","","","","","","",""
"fullscreen","3","5362","0.0-3.0","","","true","","","","","","","","","","","","","","","","","","","","","","",""
"audio-keyboard-response","4","7891","0.0-4.0-0.0","","","","","","","","","","2078.185941043084","audio/beep_loop.wav"," ","","","","","","","","","","","","","",""
"audio-test","5","9217","0.0-4.0-1.0","","","","","","","","","","null","audio/turtle.mp3","","3","","","","","","","","","","","","",""
"audio-test","6","11158","0.0-4.0-2.0","","","","","","","","","","null","audio/shark.mp3","","2","","","","","","","","","","","","",""
"sailing-instructions","7","40136","0.0-5.0-0.0-0.0","","","","","","","","","","","","","","null","null","null","null","null","null","","","","","","",""
"sailing-trial","8","43924","0.0-5.0-0.0-1.0-0.0","","","","false","","","","","","","","","","2500.5","","null","","null","null","arrowleft","0","null","null","","",""
"sailing-trial","9","46090","0.0-5.0-0.0-1.0-1.0","","","","false","","","","","","","","","","935.0999999940395","","null","","null","null","arrowright","1","null","null","","",""
"sailing-trial","10","48840","0.0-5.0-0.0-1.0-2.0","","","","false","","","","","","","","","","1521.2000000029802","","null","","null","null","arrowleft","0","null","null","","",""
"sailing-instructions","11","90445","0.0-5.0-0.0-2.0","","","","","","","","","","","","","","null","null","null","null","0","null","","","","","","",""
"sailing-trial","12","95379","0.0-5.0-0.0-3.0-0.0","","","","false","","","","","","","","","","null","","1685.5","","2","1","null","null","arrowleft","[1,1,1,1]","","",""
"sailing-trial","13","99263","0.0-5.0-0.0-3.0-1.0","","","","false","","","","","","","","","","null","","1005.6999999880791","","3","1","null","null","arrowright","[1,1,1,1]","","",""
"sailing-trial","14","102067","0.0-5.0-0.0-3.0-2.0","","","","false","","","","","","","","","","null","","953.8000000119209","","2","0","null","null","arrowleft","[0,0,0,0]","","",""
"sailing-instructions","15","109132","0.0-5.0-0.0-4.0","","","","","","","","","","","","","","null","null","null","null","null","null","","","","","","",""
"sailing-comprehension","16","120671","0.0-5.0-0.0-5.0","","","","","","","","","","8436.199999988079","","","","","","","","","","","","","","[""true"",""true"",""false"",""true""]","0",""
"sailing-instructions","17","178113","0.0-6.0-0.0-0.0","","","","","","","","","","","","","","null","null","null","null","null","null","","","","","","",""
"sailing-comprehension","18","189410","0.0-6.0-0.0-1.0","","","","","","","","","","10775.40000000596","","","","","","","","","","","","","","[""true"",""false"",""true""]","0",""
"sailing-instructions","19","202409","0.0-7.0-0.0-0.0","","","","","","","","","","","","","","null","null","null","null","null","null","","","","","","",""
"sailing-trial","20","207113","0.0-7.0-0.0-1.0-0.0","","","","false","","","","","","","","","","null","","2318.4000000059605","","0","1","null","null","arrowup","[0.2,0.8,0.2,0.8]","","",""
"sailing-trial","21","210647","0.0-7.0-0.0-1.0-1.0","","","","false","","","","","","","","","","null","","1319.1000000089407","","1","1","null","null","arrowup","[0.2,0.8,0.2,0.8]","","",""
"sailing-trial","22","213855","0.0-7.0-0.0-1.0-2.0","","","","false","","","","","","","","","","null","","937.2000000029802","","2","0","null","null","arrowup","[0.2,0.8,0.2,0.8]","","",""
"sailing-trial","23","216631","0.0-7.0-0.0-1.0-3.0","","","","false","","","","","","","","","","null","","937.7999999970198","","3","1","null","null","arrowup","[0.2,0.8,0.2,0.8]","","",""
"sailing-comprehension","24","227715","0.0-7.0-0.0-2.0","","","","","","","","","","6077.100000008941","","","","","","","","","","","","","","[""false""]","0",""
"sailing-instructions","25","237262","0.0-8.0-0.0-0.0","","","","","","","","","","","","","","null","null","null","null","null","null","","","","","","",""
"sailing-comprehension","26","243219","0.0-8.0-0.0-1.0","","","","","","","","","","2314.4000000059605","","","","","","","","","","","","","","[""true""]","0",""
"sailing-instructions","27","275056","0.0-9.0-0.0-0.0","","","","","","","","","","","","","","null","null","null","null","null","null","","","","","","",""
"sailing-trial","28","278962","0.0-9.0-0.0-1.0-0.0","","","","false","","","","","","","","","","1113.9000000059605","","453.70000000298023","","2","0","arrowright","1","arrowleft","[0.2,0.8,0.2,0.8]","","",""
"sailing-trial","29","283892","0.0-9.0-0.0-1.0-1.0","","","","false","","","","","","","","","","616.8999999910593","","54.900000005960464","","0","0","arrowleft","0","arrowleft","[0.2,0.8,0.2,0.8]","","",""
"sailing-trial","30","287074","0.0-9.0-0.0-1.0-2.0","","","","false","","","","","","","","","","null","","1198","","0","1","null","null","arrowup","[0.2,0.8,0.2,0.8]","","",""
"sailing-trial","31","291275","0.0-9.0-0.0-1.0-3.0","","","","false","","","","","","","","","","816.8000000119209","","233.5","","3","1","arrowright","1","arrowright","[0.2,0.8,0.2,0.8]","","",""
"sailing-trial","32","294726","0.0-9.0-0.0-1.0-4.0","","","","false","","","","","","","","","","null","","1639.5","","3","1","null","null","arrowup","[0.2,0.8,0.2,0.8]","","",""
"sailing-trial","33","298759","0.0-9.0-0.0-1.0-5.0","","","","false","","","","","","","","","","660.7999999970198","","133.6000000089407","","1","1","arrowleft","0","arrowright","[0.2,0.8,0.2,0.8]","","",""
"sailing-instructions","34","323175","0.0-10.0","","","","","","","","","","","","","","null","null","null","null","null","null","","","","","","",""
"sailing-trial","35","328867","0.0-11.0-0.0","","","","false","","","","","","","","","","1380.5999999940395","","14.199999988079071","","1","0","arrowleft","0","arrowright","[0.85,0.15,0.325,0.675]","","",""
"sailing-trial","36","331916","0.0-11.0-1.0","","","","false","","","","","","","","","","null","","1192.2999999970198","","0","1","null","null","arrowup","[0.85,0.15,0.325,0.675]","","",""
"sailing-trial","37","335933","0.0-11.0-2.0","","","","false","","","","","","","","","","599.8000000119209","","206.79999999701977","","2","1","arrowright","1","arrowleft","[0.85,0.15,0.325,0.675]","","",""
"sailing-trial","38","339803","0.0-11.0-3.0","","","","false","","","","","","","","","","null","","830.3999999910593","","1","0","null","null","arrowup","[0.85,0.15,0.325,0.675]","","",""
"sailing-trial","39","342386","0.0-11.0-4.0","","","","false","","","","","","","","","","24.599999994039536","","30.400000005960464","","0","0","arrowleft","0","arrowleft","[0.85,0.15,0.325,0.675]","","",""
"sailing-trial","40","345450","0.0-11.0-5.0","","","","false","","","","","","","","","","null","","1234.2999999970198","","2","1","null","null","arrowup","[0.85,0.15,0.325,0.675]","","",""
"sailing-trial","41","348885","0.0-11.0-6.0","","","","false","","","","","","","","","","433.90000000596046","","60.400000005960464","","2","1","arrowright","1","arrowleft","[0.85,0.15,0.325,0.675]","","",""
"sailing-trial","42","351584","0.0-11.0-7.0","","","","false","","","","","","","","","","null","","911.7999999970198","","0","1","null","null","arrowup","[0.85,0.15,0.325,0.675]","","",""
"sailing-trial","43","356837","0.0-11.0-8.0","","","","false","","","","","","","","","","628.0999999940395","","421","","2","0","arrowright","1","arrowleft","[0.85,0.15,0.325,0.675]","","",""
"sailing-trial","44","359275","0.0-11.0-9.0","","","","false","","","","","","","","","","null","","975.7999999970198","","3","0","null","null","arrowup","[0.85,0.15,0.325,0.675]","","",""
"sailing-trial","45","364023","0.0-11.0-10.0","","","","false","","","","","","","","","","553.8000000119209","","13.099999994039536","","1","0","arrowleft","0","arrowright","[0.85,0.15,0.325,0.675]","","",""
"sailing-trial","46","366787","0.0-11.0-11.0","","","","false","","","","","","","","","","null","","918","","2","1","null","null","arrowup","[0.85,0.15,0.325,0.675]","","",""
"sailing-trial","47","372325","0.0-11.0-12.0","","","","false","","","","","","","","","","898.1000000089407","","441.90000000596046","","2","0","arrowright","1","arrowleft","[0.85,0.15,0.325,0.675]","","",""
"sailing-trial","48","374921","0.0-11.0-13.0","","","","false","","","","","","","","","","null","","895.7000000029802","","0","1","null","null","arrowup","[0.85,0.15,0.325,0.675]","","",""
"sailing-trial","49","378290","0.0-11.0-14.0","","","","false","","","","","","","","","","260.3999999910593","","148.70000000298023","","3","1","arrowright","1","arrowright","[0.85,0.15,0.325,0.675]","","",""
"sailing-trial","50","380747","0.0-11.0-15.0","","","","false","","","","","","","","","","null","","907.6000000089407","","1","0","null","null","arrowup","[0.85,0.15,0.325,0.675]","","",""
"sailing-trial","51","384124","0.0-11.0-16.0","","","","false","","","","","","","","","","481.5","","145.90000000596046","","3","1","arrowright","1","arrowright","[0.85,0.15,0.325,0.675]","","",""
"sailing-trial","52","386323","0.0-11.0-17.0","","","","false","","","","","","","","","","null","","1009.3999999910593","","3","0","null","null","arrowup","[0.85,0.15,0.325,0.675]","","",""
"sailing-trial","53","388891","0.0-11.0-18.0","","","","false","","","","","","","","","","10.600000008940697","","181.6000000089407","","3","0","arrowright","1","arrowright","[0.15,0.85,0.675,0.325]","","",""
"sailing-trial","54","390924","0.0-11.0-19.0","","","","false","","","","","","","","","","null","","866.1000000089407","","2","0","null","null","arrowup","[0.15,0.85,0.675,0.325]","","",""
"sailing-trial","55","393572","0.0-11.0-20.0","","","","false","","","","","","","","","","353.69999998807907","","46.900000005960464","","0","0","arrowleft","0","arrowleft","[0.15,0.85,0.675,0.325]","","",""
"sailing-trial","56","395484","0.0-11.0-21.0","","","","false","","","","","","","","","","null","","881.5","","0","0","null","null","arrowup","[0.15,0.85,0.675,0.325]","","",""
"sailing-trial","57","399875","0.0-11.0-22.0","","","","false","","","","","","","","","","945.1999999880791","","70.90000000596046","","1","1","arrowleft","0","arrowright","[0.15,0.85,0.675,0.325]","","",""
"sailing-trial","58","401725","0.0-11.0-23.0","","","","false","","","","","","","","","","null","","226","","3","1","null","null","arrowup","[0.15,0.85,0.675,0.325]","","",""
"sailing-trial","59","406127","0.0-11.0-24.0","","","","false","","","","","","","","","","152.8999999910593","","4.199999988079071","","0","0","arrowleft","0","arrowleft","[0.15,0.85,0.675,0.325]","","",""
"sailing-trial","60","409992","0.0-11.0-25.0","","","","false","","","","","","","","","","null","","2103.2000000029802","","2","1","null","null","arrowup","[0.15,0.85,0.675,0.325]","","",""
"sailing-trial","61","413960","0.0-11.0-26.0","","","","false","","","","","","","","","","566.0999999940395","","385.80000001192093","","3","1","arrowright","1","arrowright","[0.15,0.85,0.675,0.325]","","",""
"sailing-trial","62","416206","0.0-11.0-27.0","","","","false","","","","","","","","","","null","","958.3999999910593","","0","0","null","null","arrowup","[0.15,0.85,0.675,0.325]","","",""
"sailing-trial","63","419924","0.0-11.0-28.0","","","","false","","","","","","","","","","1168.7000000029802","","119.29999999701977","","3","0","arrowright","1","arrowright","[0.15,0.85,0.675,0.325]","","",""
"sailing-trial","64","425181","0.0-11.0-29.0","","","","false","","","","","","","","","","null","","4106.100000008941","","3","0","null","null","arrowup","[0.15,0.85,0.675,0.325]","","",""
"sailing-trial","65","428254","0.0-11.0-30.0","","","","false","","","","","","","","","","593.7999999970198","","124.79999999701977","","0","0","arrowleft","0","arrowleft","[0.15,0.85,0.675,0.325]","","",""
"sailing-trial","66","430501","0.0-11.0-31.0","","","","false","","","","","","","","","","null","","1080.7000000029802","","3","0","null","null","arrowup","[0.15,0.85,0.675,0.325]","","",""
"sailing-trial","67","434263","0.0-11.0-32.0","","","","false","","","","","","","","","","546.2000000029802","","91.5","","3","1","arrowright","1","arrowright","[0.15,0.85,0.675,0.325]","","",""
"sailing-trial","68","436278","0.0-11.0-33.0","","","","false","","","","","","","","","","null","","879.5","","3","0","null","null","arrowup","[0.15,0.85,0.675,0.325]","","",""
"sailing-trial","69","439413","0.0-11.0-34.0","","","","false","","","","","","","","","","488.40000000596046","","342.59999999403954","","0","0","arrowleft","0","arrowleft","[0.15,0.85,0.675,0.325]","","",""
"sailing-trial","70","441848","0.0-11.0-35.0","","","","false","","","","","","","","","","null","","809.8999999910593","","2","1","null","null","arrowup","[0.15,0.85,0.675,0.325]","","",""
"sailing-trial","71","445133","0.0-11.0-36.0","","","","false","","","","","","","","","","487.5","","247","","2","0","arrowright","1","arrowleft","[0.85,0.15,0.325,0.675]","","",""
"sailing-trial","72","451532","0.0-11.0-37.0","","","","false","","","","","","","","","","null","","4401.9000000059605","","2","1","null","null","arrowup","[0.85,0.15,0.325,0.675]","","",""
"sailing-trial","73","457853","0.0-11.0-38.0","","","","false","","","","","","","","","","1523.1000000089407","","583.5","","2","0","arrowright","1","arrowleft","[0.85,0.15,0.325,0.675]","","",""
"sailing-trial","74","460615","0.0-11.0-39.0","","","","false","","","","","","","","","","null","","970.7000000029802","","2","0","null","null","arrowup","[0.85,0.15,0.325,0.675]","","",""
"sailing-trial","75","464268","0.0-11.0-40.0","","","","false","","","","","","","","","","552.2999999970198","","12.099999994039536","","3","1","arrowright","1","arrowright","[0.85,0.15,0.325,0.675]","","",""
"sailing-trial","76","467418","0.0-11.0-41.0","","","","false","","","","","","","","","","null","","1507.9000000059605","","2","1","null","null","arrowup","[0.85,0.15,0.325,0.675]","","",""
"sailing-trial","77","470936","0.0-11.0-42.0","","","","false","","","","","","","","","","541.7000000029802","","106.6000000089407","","1","1","arrowleft","0","arrowright","[0.85,0.15,0.325,0.675]","","",""
"sailing-trial","78","473702","0.0-11.0-43.0","","","","false","","","","","","","","","","null","","832.5","","3","1","null","null","arrowup","[0.85,0.15,0.325,0.675]","","",""
"sailing-trial","79","476822","0.0-11.0-44.0","","","","false","","","","","","","","","","537.9000000059605","","47.1000000089407","","1","0","arrowleft","0","arrowright","[0.85,0.15,0.325,0.675]","","",""
"sailing-trial","80","479288","0.0-11.0-45.0","","","","false","","","","","","","","","","null","","818","","2","1","null","null","arrowup","[0.85,0.15,0.325,0.675]","","",""
"sailing-trial","81","482711","0.0-11.0-46.0","","","","false","","","","","","","","","","536.1000000089407","","311.20000000298023","","2","0","arrowright","1","arrowleft","[0.85,0.15,0.325,0.675]","","",""
"sailing-trial","82","486558","0.0-11.0-47.0","","","","false","","","","","","","","","","null","","801.4000000059605","","2","0","null","null","arrowup","[0.85,0.15,0.325,0.675]","","",""
"sailing-trial","83","490488","0.0-11.0-48.0","","","","false","","","","","","","","","","114.3999999910593","","140.6000000089407","","3","1","arrowright","1","arrowright","[0.85,0.15,0.325,0.675]","","",""
"sailing-trial","84","494359","0.0-11.0-49.0","","","","false","","","","","","","","","","null","","856.2999999970198","","2","0","null","null","arrowup","[0.85,0.15,0.325,0.675]","","",""
"sailing-trial","85","497543","0.0-11.0-50.0","","","","false","","","","","","","","","","370.20000000298023","","384","","1","0","arrowleft","0","arrowright","[0.85,0.15,0.325,0.675]","","",""
"sailing-trial","86","500006","0.0-11.0-51.0","","","","false","","","","","","","","","","null","","922.0999999940395","","3","1","null","null","arrowup","[0.85,0.15,0.325,0.675]","","",""
"sailing-trial","87","502976","0.0-11.0-52.0","","","","false","","","","","","","","","","403","","109.8999999910593","","0","0","arrowleft","0","arrowleft","[0.85,0.15,0.325,0.675]","","",""
"sailing-trial","88","505216","0.0-11.0-53.0","","","","false","","","","","","","","","","null","","865.6000000089407","","2","0","null","null","arrowup","[0.85,0.15,0.325,0.675]","","",""
"sailing-trial","89","509308","0.0-11.0-54.0","","","","false","","","","","","","","","","904.6000000089407","","257.20000000298023","","1","1","arrowleft","0","arrowright","[0.325,0.675,0.85,0.15]","","",""
"sailing-trial","90","512925","0.0-11.0-55.0","","","","false","","","","","","","","","","null","","1901.0999999940395","","2","1","null","null","arrowup","[0.325,0.675,0.85,0.15]","","",""
"sailing-trial","91","517075","0.0-11.0-56.0","","","","false","","","","","","","","","","676.2999999970198","","99.20000000298023","","3","1","arrowright","1","arrowright","[0.325,0.675,0.85,0.15]","","",""
"sailing-trial","92","519208","0.0-11.0-57.0","","","","false","","","","","","","","","","null","","1086.5","","0","0","null","null","arrowup","[0.325,0.675,0.85,0.15]","","",""
"sailing-trial","93","522648","0.0-11.0-58.0","","","","false","","","","","","","","","","545.3999999910593","","228.90000000596046","","3","0","arrowright","1","arrowright","[0.325,0.675,0.85,0.15]","","",""
"sailing-trial","94","524600","0.0-11.0-59.0","","","","false","","","","","","","","","","null","","793.5","","0","0","null","null","arrowup","[0.325,0.675,0.85,0.15]","","",""
"sailing-trial","95","529580","0.0-11.0-60.0","","","","false","","","","","","","","","","537.5","","236.69999998807907","","3","0","arrowright","1","arrowright","[0.325,0.675,0.85,0.15]","","",""
"sailing-trial","96","532427","0.0-11.0-61.0","","","","false","","","","","","","","","","null","","813.7000000029802","","2","1","null","null","arrowup","[0.325,0.675,0.85,0.15]","","",""
"sailing-trial","97","536058","0.0-11.0-62.0","","","","false","","","","","","","","","","575","","177.1000000089407","","3","0","arrowright","1","arrowright","[0.325,0.675,0.85,0.15]","","",""
"sailing-trial","98","539564","0.0-11.0-63.0","","","","false","","","","","","","","","","null","","496.09999999403954","","1","0","null","null","arrowup","[0.325,0.675,0.85,0.15]","","",""
"sailing-trial","99","543180","0.0-11.0-64.0","","","","false","","","","","","","","","","526.2999999970198","","158.70000000298023","","0","1","arrowleft","0","arrowleft","[0.325,0.675,0.85,0.15]","","",""
"sailing-trial","100","545673","0.0-11.0-65.0","","","","false","","","","","","","","","","null","","1142.5","","1","0","null","null","arrowup","[0.325,0.675,0.85,0.15]","","",""
"sailing-trial","101","548457","0.0-11.0-66.0","","","","false","","","","","","","","","","185.5","","53.5","","0","0","arrowleft","0","arrowleft","[0.325,0.675,0.85,0.15]","","",""
"sailing-trial","102","550377","0.0-11.0-67.0","","","","false","","","","","","","","","","null","","609","","3","0","null","null","arrowup","[0.325,0.675,0.85,0.15]","","",""
"sailing-trial","103","553201","0.0-11.0-68.0","","","","false","","","","","","","","","","273.59999999403954","","150.3999999910593","","0","0","arrowleft","0","arrowleft","[0.325,0.675,0.85,0.15]","","",""
"sailing-trial","104","555999","0.0-11.0-69.0","","","","false","","","","","","","","","","null","","425","","0","1","null","null","arrowup","[0.325,0.675,0.85,0.15]","","",""
"sailing-trial","105","559515","0.0-11.0-70.0","","","","false","","","","","","","","","","100.30000001192093","","107.5","","3","1","arrowright","1","arrowright","[0.325,0.675,0.85,0.15]","","",""
"sailing-trial","106","563450","0.0-11.0-71.0","","","","false","","","","","","","","","","null","","2279.2000000029802","","1","1","null","null","arrowup","[0.325,0.675,0.85,0.15]","","",""
"sailing-trial","107","568052","0.0-11.0-72.0","","","","false","","","","","","","","","","288.09999999403954","","120.29999999701977","","3","0","arrowright","1","arrowright","[0.15,0.85,0.675,0.325]","","",""
"sailing-trial","108","572284","0.0-11.0-73.0","","","","false","","","","","","","","","","null","","2374.5","","2","1","null","null","arrowup","[0.15,0.85,0.675,0.325]","","",""
"sailing-trial","109","576283","0.0-11.0-74.0","","","","false","","","","","","","","","","511","","277.70000000298023","","3","1","arrowright","1","arrowright","[0.15,0.85,0.675,0.325]","","",""
"sailing-trial","110","579118","0.0-11.0-75.0","","","","false","","","","","","","","","","null","","1271.5999999940395","","3","1","null","null","arrowup","[0.15,0.85,0.675,0.325]","","",""
"sailing-trial","111","582138","0.0-11.0-76.0","","","","false","","","","","","","","","","501.20000000298023","","188.8999999910593","","3","0","arrowright","1","arrowright","[0.15,0.85,0.675,0.325]","","",""
"sailing-trial","112","584786","0.0-11.0-77.0","","","","false","","","","","","","","","","null","","945.5999999940395","","3","1","null","null","arrowup","[0.15,0.85,0.675,0.325]","","",""
"sailing-trial","113","587835","0.0-11.0-78.0","","","","false","","","","","","","","","","370","","125.19999998807907","","0","0","arrowleft","0","arrowleft","[0.15,0.85,0.675,0.325]","","",""
"sailing-trial","114","590658","0.0-11.0-79.0","","","","false","","","","","","","","","","null","","1472.5999999940395","","0","0","null","null","arrowup","[0.15,0.85,0.675,0.325]","","",""
"sailing-trial","115","597154","0.0-11.0-80.0","","","","false","","","","","","","","","","2532.2000000029802","","573.8999999910593","","2","1","arrowright","1","arrowleft","[0.15,0.85,0.675,0.325]","","",""
"sailing-trial","116","601771","0.0-11.0-81.0","","","","false","","","","","","","","","","null","","3329.4000000059605","","3","0","null","null","arrowup","[0.15,0.85,0.675,0.325]","","",""
"sailing-trial","117","607706","0.0-11.0-82.0","","","","false","","","","","","","","","","1057.7000000029802","","1140.9000000059605","","3","1","arrowright","1","arrowright","[0.15,0.85,0.675,0.325]","","",""
"sailing-trial","118","611459","0.0-11.0-83.0","","","","false","","","","","","","","","","null","","737.5","","0","0","null","null","arrowup","[0.15,0.85,0.675,0.325]","","",""
"sailing-trial","119","614790","0.0-11.0-84.0","","","","false","","","","","","","","","","280.70000000298023","","42","","0","1","arrowleft","0","arrowleft","[0.15,0.85,0.675,0.325]","","",""
"sailing-trial","120","617425","0.0-11.0-85.0","","","","false","","","","","","","","","","null","","949.7999999970198","","3","1","null","null","arrowup","[0.15,0.85,0.675,0.325]","","",""
"sailing-trial","121","621624","0.0-11.0-86.0","","","","false","","","","","","","","","","644","","426.20000000298023","","2","1","arrowright","1","arrowleft","[0.15,0.85,0.675,0.325]","","",""
"sailing-trial","122","624158","0.0-11.0-87.0","","","","false","","","","","","","","","","null","","676.7999999970198","","2","1","null","null","arrowup","[0.15,0.85,0.675,0.325]","","",""
"sailing-trial","123","629145","0.0-11.0-88.0","","","","false","","","","","","","","","","654.7000000029802","","136.19999998807907","","1","0","arrowleft","0","arrowright","[0.15,0.85,0.675,0.325]","","",""
"sailing-trial","124","631860","0.0-11.0-89.0","","","","false","","","","","","","","","","null","","891.5","","1","1","null","null","arrowup","[0.15,0.85,0.675,0.325]","","",""
"sailing-trial","125","635777","0.0-11.0-90.0","","","","false","","","","","","","","","","537.0999999940395","","359.79999999701977","","3","1","arrowright","1","arrowright","[0.15,0.85,0.675,0.325]","","",""
"sailing-trial","126","638115","0.0-11.0-91.0","","","","false","","","","","","","","","","null","","883.7999999970198","","2","0","null","null","arrowup","[0.15,0.85,0.675,0.325]","","",""
"sailing-trial","127","641960","0.0-11.0-92.0","","","","false","","","","","","","","","","569.5","","155.09999999403954","","1","1","arrowleft","0","arrowright","[0.325,0.675,0.85,0.15]","","",""
"sailing-trial","128","644344","0.0-11.0-93.0","","","","false","","","","","","","","","","null","","780.7000000029802","","2","1","null","null","arrowup","[0.325,0.675,0.85,0.15]","","",""
"sailing-trial","129","647780","0.0-11.0-94.0","","","","false","","","","","","","","","","541.8999999910593","","337.1000000089407","","1","0","arrowleft","0","arrowright","[0.325,0.675,0.85,0.15]","","",""
"sailing-trial","130","650763","0.0-11.0-95.0","","","","false","","","","","","","","","","null","","1001.0999999940395","","1","1","null","null","arrowup","[0.325,0.675,0.85,0.15]","","",""
"sailing-trial","131","654495","0.0-11.0-96.0","","","","false","","","","","","","","","","314.79999999701977","","137.1000000089407","","2","1","arrowright","1","arrowleft","[0.325,0.675,0.85,0.15]","","",""
"sailing-trial","132","659463","0.0-11.0-97.0","","","","false","","","","","","","","","","null","","1246.0999999940395","","1","1","null","null","arrowup","[0.325,0.675,0.85,0.15]","","",""
"sailing-trial","133","664865","0.0-11.0-98.0","","","","false","","","","","","","","","","926.5","","201.59999999403954","","1","0","arrowleft","0","arrowright","[0.325,0.675,0.85,0.15]","","",""
"sailing-trial","134","667548","0.0-11.0-99.0","","","","false","","","","","","","","","","null","","908.3999999910593","","2","1","null","null","arrowup","[0.325,0.675,0.85,0.15]","","",""
"sailing-trial","135","672635","0.0-11.0-100.0","","","","false","","","","","","","","","","858.2999999970198","","43.599999994039536","","3","0","arrowright","1","arrowright","[0.325,0.675,0.85,0.15]","","",""
"sailing-trial","136","674932","0.0-11.0-101.0","","","","false","","","","","","","","","","null","","930.7000000029802","","0","0","null","null","arrowup","[0.325,0.675,0.85,0.15]","","",""
"sailing-trial","137","678774","0.0-11.0-102.0","","","","false","","","","","","","","","","1209.7000000029802","","115","","1","0","arrowleft","0","arrowright","[0.325,0.675,0.85,0.15]","","",""
"sailing-trial","138","685702","0.0-11.0-103.0","","","","false","","","","","","","","","","null","","4928.70000000298","","0","1","null","null","arrowup","[0.325,0.675,0.85,0.15]","","",""
"sailing-trial","139","693974","0.0-11.0-104.0","","","","false","","","","","","","","","","5368.699999988079","","139.59999999403954","","3","0","arrowright","1","arrowright","[0.325,0.675,0.85,0.15]","","",""
"sailing-trial","140","697501","0.0-11.0-105.0","","","","false","","","","","","","","","","null","","2417.800000011921","","0","0","null","null","arrowup","[0.325,0.675,0.85,0.15]","","",""
"sailing-trial","141","701387","0.0-11.0-106.0","","","","false","","","","","","","","","","570.1000000089407","","2.7000000029802322","","1","1","arrowleft","0","arrowright","[0.325,0.675,0.85,0.15]","","",""
"sailing-trial","142","704005","0.0-11.0-107.0","","","","false","","","","","","","","","","null","","1267.699999988079","","3","0","null","null","arrowup","[0.325,0.675,0.85,0.15]","","",""
"sailing-trial","143","709307","0.0-11.0-108.0","","","","false","","","","","","","","","","770.2000000029802","","302.70000000298023","","0","0","arrowleft","0","arrowleft","[0.15,0.85,0.675,0.325]","","",""
"sailing-trial","144","712406","0.0-11.0-109.0","","","","false","","","","","","","","","","null","","1108.5","","1","1","null","null","arrowup","[0.15,0.85,0.675,0.325]","","",""
"sailing-trial","145","716172","0.0-11.0-110.0","","","","false","","","","","","","","","","489.6000000089407","","129.59999999403954","","1","1","arrowleft","0","arrowright","[0.15,0.85,0.675,0.325]","","",""
"sailing-trial","146","718856","0.0-11.0-111.0","","","","false","","","","","","","","","","null","","1075.5","","1","1","null","null","arrowup","[0.15,0.85,0.675,0.325]","","",""
"sailing-trial","147","722791","0.0-11.0-112.0","","","","false","","","","","","","","","","592.0999999940395","","258.70000000298023","","2","1","arrowright","1","arrowleft","[0.15,0.85,0.675,0.325]","","",""
"sailing-trial","148","724702","0.0-11.0-113.0","","","","false","","","","","","","","","","null","","600.7000000029802","","3","0","null","null","arrowup","[0.15,0.85,0.675,0.325]","","",""
"sailing-trial","149","729526","0.0-11.0-114.0","","","","false","","","","","","","","","","465.40000000596046","","141.29999999701977","","2","0","arrowright","1","arrowleft","[0.15,0.85,0.675,0.325]","","",""
"sailing-trial","150","731526","0.0-11.0-115.0","","","","false","","","","","","","","","","null","","809.5","","0","0","null","null","arrowup","[0.15,0.85,0.675,0.325]","","",""
"sailing-trial","151","735309","0.0-11.0-116.0","","","","false","","","","","","","","","","513.9000000059605","","195","","2","1","arrowright","1","arrowleft","[0.15,0.85,0.675,0.325]","","",""
"sailing-trial","152","737558","0.0-11.0-117.0","","","","false","","","","","","","","","","null","","666.6000000089407","","1","1","null","null","arrowup","[0.15,0.85,0.675,0.325]","","",""
"sailing-trial","153","740704","0.0-11.0-118.0","","","","false","","","","","","","","","","441.5","","243.29999999701977","","2","0","arrowright","1","arrowleft","[0.15,0.85,0.675,0.325]","","",""
"sailing-trial","154","742735","0.0-11.0-119.0","","","","false","","","","","","","","","","null","","736.5","","0","0","null","null","arrowup","[0.15,0.85,0.675,0.325]","","",""
"sailing-trial","155","745927","0.0-11.0-120.0","","","","false","","","","","","","","","","545.4000000059605","","143","","2","0","arrowright","1","arrowleft","[0.15,0.85,0.675,0.325]","","",""
"sailing-trial","156","749880","0.0-11.0-121.0","","","","false","","","","","","","","","","null","","921.2000000029802","","0","0","null","null","arrowup","[0.15,0.85,0.675,0.325]","","",""
"sailing-trial","157","752767","0.0-11.0-122.0","","","","false","","","","","","","","","","424.1000000089407","","132.30000001192093","","1","0","arrowleft","0","arrowright","[0.15,0.85,0.675,0.325]","","",""
"sailing-trial","158","754503","0.0-11.0-123.0","","","","false","","","","","","","","","","null","","697.1999999880791","","3","0","null","null","arrowup","[0.15,0.85,0.675,0.325]","","",""
"sailing-trial","159","757343","0.0-11.0-124.0","","","","false","","","","","","","","","","321.40000000596046","","16.19999998807907","","0","0","arrowleft","0","arrowleft","[0.15,0.85,0.675,0.325]","","",""
"sailing-trial","160","759045","0.0-11.0-125.0","","","","false","","","","","","","","","","null","","153.70000000298023","","1","1","null","null","arrowup","[0.15,0.85,0.675,0.325]","","",""
"sailing-trial","161","761703","0.0-11.0-126.0","","","","false","","","","","","","","","","307.69999998807907","","3.7000000029802322","","2","0","arrowright","1","arrowleft","[0.325,0.675,0.85,0.15]","","",""
"sailing-trial","162","764680","0.0-11.0-127.0","","","","false","","","","","","","","","","null","","913.5","","1","1","null","null","arrowup","[0.325,0.675,0.85,0.15]","","",""
"sailing-trial","163","769424","0.0-11.0-128.0","","","","false","","","","","","","","","","992.8999999910593","","180.40000000596046","","1","0","arrowleft","0","arrowright","[0.325,0.675,0.85,0.15]","","",""
"sailing-trial","164","771797","0.0-11.0-129.0","","","","false","","","","","","","","","","null","","769","","2","1","null","null","arrowup","[0.325,0.675,0.85,0.15]","","",""
"sailing-trial","165","774752","0.0-11.0-130.0","","","","false","","","","","","","","","","404","","78.19999998807907","","0","0","arrowleft","0","arrowleft","[0.325,0.675,0.85,0.15]","","",""
"sailing-trial","166","777581","0.0-11.0-131.0","","","","false","","","","","","","","","","null","","1097.5","","0","1","null","null","arrowup","[0.325,0.675,0.85,0.15]","","",""
"sailing-trial","167","780663","0.0-11.0-132.0","","","","false","","","","","","","","","","516.5999999940395","","170","","3","0","arrowright","1","arrowright","[0.325,0.675,0.85,0.15]","","",""
"sailing-trial","168","782456","0.0-11.0-133.0","","","","false","","","","","","","","","","null","","738.3999999910593","","0","0","null","null","arrowup","[0.325,0.675,0.85,0.15]","","",""
"sailing-trial","169","786127","0.0-11.0-134.0","","","","false","","","","","","","","","","769.5999999940395","","549.5","","0","0","arrowleft","0","arrowleft","[0.325,0.675,0.85,0.15]","","",""
"sailing-trial","170","789100","0.0-11.0-135.0","","","","false","","","","","","","","","","null","","1066.2000000029802","","1","1","null","null","arrowup","[0.325,0.675,0.85,0.15]","","",""
"sailing-trial","171","794170","0.0-11.0-136.0","","","","false","","","","","","","","","","860.9000000059605","","6.399999991059303","","3","0","arrowright","1","arrowright","[0.325,0.675,0.85,0.15]","","",""
"sailing-trial","172","795816","0.0-11.0-137.0","","","","false","","","","","","","","","","null","","183.5","","0","0","null","null","arrowup","[0.325,0.675,0.85,0.15]","","",""
"sailing-trial","173","800269","0.0-11.0-138.0","","","","false","","","","","","","","","","657.6000000089407","","200","","1","1","arrowleft","0","arrowright","[0.325,0.675,0.85,0.15]","","",""
"sailing-trial","174","804556","0.0-11.0-139.0","","","","false","","","","","","","","","","null","","1261.2000000029802","","0","0","null","null","arrowup","[0.325,0.675,0.85,0.15]","","",""
"sailing-trial","175","807837","0.0-11.0-140.0","","","","false","","","","","","","","","","5.299999997019768","","100.6000000089407","","2","1","arrowright","1","arrowleft","[0.325,0.675,0.85,0.15]","","",""
"sailing-trial","176","811722","0.0-11.0-141.0","","","","false","","","","","","","","","","null","","853.3000000119209","","2","0","null","null","arrowup","[0.325,0.675,0.85,0.15]","","",""
"sailing-trial","177","816525","0.0-11.0-142.0","","","","false","","","","","","","","","","560.2999999970198","","6","","3","0","arrowright","1","arrowright","[0.325,0.675,0.85,0.15]","","",""
"sailing-trial","178","820688","0.0-11.0-143.0","","","","false","","","","","","","","","","null","","1029.5999999940395","","2","1","null","null","arrowup","[0.325,0.675,0.85,0.15]","","",""
"sailing-trial","179","825808","0.0-11.0-144.0","","","","false","","","","","","","","","","818.5","","93.59999999403954","","3","0","arrowright","1","arrowright","[0.325,0.675,0.85,0.15]","","",""
"sailing-trial","180","828571","0.0-11.0-145.0","","","","false","","","","","","","","","","null","","858.6000000089407","","2","1","null","null","arrowup","[0.325,0.675,0.85,0.15]","","",""
"sailing-trial","181","831955","0.0-11.0-146.0","","","","false","","","","","","","","","","671.5999999940395","","182.1000000089407","","1","0","arrowleft","0","arrowright","[0.325,0.675,0.85,0.15]","","",""
"sailing-trial","182","835843","0.0-11.0-147.0","","","","false","","","","","","","","","","null","","872.6000000089407","","0","0","null","null","arrowup","[0.325,0.675,0.85,0.15]","","",""
"sailing-trial","183","840662","0.0-11.0-148.0","","","","false","","","","","","","","","","519.7000000029802","","80.40000000596046","","3","0","arrowright","1","arrowright","[0.15,0.85,0.675,0.325]","","",""
"sailing-trial","184","843744","0.0-11.0-149.0","","","","false","","","","","","","","","","null","","55.29999999701977","","0","0","null","null","arrowup","[0.15,0.85,0.675,0.325]","","",""
"sailing-trial","185","847026","0.0-11.0-150.0","","","","false","","","","","","","","","","106.59999999403954","","734.7000000029802","","3","0","arrowright","1","arrowright","[0.15,0.85,0.675,0.325]","","",""
"sailing-trial","186","850193","0.0-11.0-151.0","","","","false","","","","","","","","","","null","","1265.4000000059605","","1","1","null","null","arrowup","[0.15,0.85,0.675,0.325]","","",""
"sailing-trial","187","855629","0.0-11.0-152.0","","","","false","","","","","","","","","","1042.300000011921","","112.70000000298023","","3","0","arrowright","1","arrowright","[0.15,0.85,0.675,0.325]","","",""
"sailing-trial","188","859581","0.0-11.0-153.0","","","","false","","","","","","","","","","null","","919.2999999970198","","0","0","null","null","arrowup","[0.15,0.85,0.675,0.325]","","",""
"sailing-trial","189","865482","0.0-11.0-154.0","","","","false","","","","","","","","","","1118.7000000029802","","460.09999999403954","","1","0","arrowleft","0","arrowright","[0.15,0.85,0.675,0.325]","","",""
"sailing-trial","190","869211","0.0-11.0-155.0","","","","false","","","","","","","","","","null","","1250.7999999970198","","1","1","null","null","arrowup","[0.15,0.85,0.675,0.325]","","",""
"sailing-trial","191","873363","0.0-11.0-156.0","","","","false","","","","","","","","","","872.5999999940395","","206.70000000298023","","1","1","arrowleft","0","arrowright","[0.15,0.85,0.675,0.325]","","",""
"sailing-trial","192","875830","0.0-11.0-157.0","","","","false","","","","","","","","","","null","","736.5","","0","1","null","null","arrowup","[0.15,0.85,0.675,0.325]","","",""
"sailing-trial","193","880565","0.0-11.0-158.0","","","","false","","","","","","","","","","510.20000000298023","","5.699999988079071","","0","0","arrowleft","0","arrowleft","[0.15,0.85,0.675,0.325]","","",""
"sailing-trial","194","882843","0.0-11.0-159.0","","","","false","","","","","","","","","","null","","1223.2999999970198","","3","0","null","null","arrowup","[0.15,0.85,0.675,0.325]","","",""
"sailing-trial","195","886035","0.0-11.0-160.0","","","","false","","","","","","","","","","457.20000000298023","","342","","3","0","arrowright","1","arrowright","[0.15,0.85,0.675,0.325]","","",""
"sailing-trial","196","888481","0.0-11.0-161.0","","","","false","","","","","","","","","","null","","777.4000000059605","","1","1","null","null","arrowup","[0.15,0.85,0.675,0.325]","","",""
"sailing-trial","197","891762","0.0-11.0-162.0","","","","false","","","","","","","","","","603.5","","271.3999999910593","","1","0","arrowleft","0","arrowright","[0.15,0.85,0.675,0.325]","","",""
"sailing-trial","198","895487","0.0-11.0-163.0","","","","false","","","","","","","","","","null","","682.4000000059605","","3","0","null","null","arrowup","[0.15,0.85,0.675,0.325]","","",""
"sailing-trial","199","899832","0.0-11.0-164.0","","","","false","","","","","","","","","","870","","98.29999999701977","","1","1","arrowleft","0","arrowright","[0.15,0.85,0.675,0.325]","","",""
"sailing-trial","200","902804","0.0-11.0-165.0","","","","false","","","","","","","","","","null","","1732.0999999940395","","2","0","null","null","arrowup","[0.15,0.85,0.675,0.325]","","",""
"sailing-trial","201","906108","0.0-11.0-166.0","","","","false","","","","","","","","","","673","","35.20000000298023","","0","0","arrowleft","0","arrowleft","[0.325,0.675,0.85,0.15]","","",""
"sailing-trial","202","908901","0.0-11.0-167.0","","","","false","","","","","","","","","","null","","1008.3999999910593","","2","1","null","null","arrowup","[0.325,0.675,0.85,0.15]","","",""
"sailing-trial","203","913653","0.0-11.0-168.0","","","","false","","","","","","","","","","408.1000000089407","","123.6000000089407","","3","0","arrowright","1","arrowright","[0.325,0.675,0.85,0.15]","","",""
"sailing-trial","204","916385","0.0-11.0-169.0","","","","false","","","","","","","","","","null","","936.2000000029802","","2","1","null","null","arrowup","[0.325,0.675,0.85,0.15]","","",""
"sailing-trial","205","921523","0.0-11.0-170.0","","","","false","","","","","","","","","","732.5999999940395","","218.80000001192093","","3","0","arrowright","1","arrowright","[0.325,0.675,0.85,0.15]","","",""
"sailing-trial","206","924087","0.0-11.0-171.0","","","","false","","","","","","","","","","null","","610.5999999940395","","1","1","null","null","arrowup","[0.325,0.675,0.85,0.15]","","",""
"sailing-trial","207","927886","0.0-11.0-172.0","","","","false","","","","","","","","","","646.7000000029802","","103.70000000298023","","1","1","arrowleft","0","arrowright","[0.325,0.675,0.85,0.15]","","",""
"sailing-trial","208","930871","0.0-11.0-173.0","","","","false","","","","","","","","","","null","","807","","0","1","null","null","arrowup","[0.325,0.675,0.85,0.15]","","",""
"sailing-trial","209","934770","0.0-11.0-174.0","","","","false","","","","","","","","","","606.7999999970198","","313.8999999910593","","2","1","arrowright","1","arrowleft","[0.325,0.675,0.85,0.15]","","",""
"sailing-trial","210","937273","0.0-11.0-175.0","","","","false","","","","","","","","","","null","","587.5","","2","1","null","null","arrowup","[0.325,0.675,0.85,0.15]","","",""
"sailing-trial","211","942175","0.0-11.0-176.0","","","","false","","","","","","","","","","413.20000000298023","","313.5","","0","0","arrowleft","0","arrowleft","[0.325,0.675,0.85,0.15]","","",""
"sailing-trial","212","944806","0.0-11.0-177.0","","","","false","","","","","","","","","","null","","719","","0","1","null","null","arrowup","[0.325,0.675,0.85,0.15]","","",""
"sailing-trial","213","947861","0.0-11.0-178.0","","","","false","","","","","","","","","","528.2000000029802","","76.29999999701977","","0","0","arrowleft","0","arrowleft","[0.325,0.675,0.85,0.15]","","",""
"sailing-trial","214","951074","0.0-11.0-179.0","","","","false","","","","","","","","","","null","","889.4000000059605","","1","1","null","null","arrowup","[0.325,0.675,0.85,0.15]","","",""
"sailing-trial","215","956928","0.0-11.0-180.0","","","","false","","","","","","","","","","1292.800000011921","","347.70000000298023","","3","0","arrowright","1","arrowright","[0.325,0.675,0.85,0.15]","","",""
"sailing-trial","216","958837","0.0-11.0-181.0","","","","false","","","","","","","","","","null","","622.1999999880791","","3","0","null","null","arrowup","[0.325,0.675,0.85,0.15]","","",""
"sailing-trial","217","963326","0.0-11.0-182.0","","","","false","","","","","","","","","","761.3999999910593","","146.20000000298023","","1","1","arrowleft","0","arrowright","[0.15,0.85,0.675,0.325]","","",""
"sailing-trial","218","966076","0.0-11.0-183.0","","","","false","","","","","","","","","","null","","840.5","","0","1","null","null","arrowup","[0.15,0.85,0.675,0.325]","","",""
"sailing-trial","219","971129","0.0-11.0-184.0","","","","false","","","","","","","","","","771.2000000029802","","29.100000008940697","","3","0","arrowright","1","arrowright","[0.15,0.85,0.675,0.325]","","",""
"sailing-trial","220","973444","0.0-11.0-185.0","","","","false","","","","","","","","","","null","","742.2000000029802","","1","1","null","null","arrowup","[0.15,0.85,0.675,0.325]","","",""
"sailing-trial","221","978431","0.0-11.0-186.0","","","","false","","","","","","","","","","691.7999999970198","","98.09999999403954","","0","0","arrowleft","0","arrowleft","[0.15,0.85,0.675,0.325]","","",""
"sailing-trial","222","980285","0.0-11.0-187.0","","","","false","","","","","","","","","","null","","768.7000000029802","","2","0","null","null","arrowup","[0.15,0.85,0.675,0.325]","","",""
"sailing-trial","223","985299","0.0-11.0-188.0","","","","false","","","","","","","","","","490.30000001192093","","294.69999998807907","","3","0","arrowright","1","arrowright","[0.15,0.85,0.675,0.325]","","",""
"sailing-trial","224","987502","0.0-11.0-189.0","","","","false","","","","","","","","","","null","","965.7000000029802","","3","0","null","null","arrowup","[0.15,0.85,0.675,0.325]","","",""
"sailing-trial","225","992319","0.0-11.0-190.0","","","","false","","","","","","","","","","656.9000000059605","","998.7000000029802","","0","0","arrowleft","0","arrowleft","[0.15,0.85,0.675,0.325]","","",""
"sailing-trial","226","995497","0.0-11.0-191.0","","","","false","","","","","","","","","","null","","1008.5999999940395","","3","1","null","null","arrowup","[0.15,0.85,0.675,0.325]","","",""
"sailing-trial","227","1001330","0.0-11.0-192.0","","","","false","","","","","","","","","","2535.1000000089407","","9.299999997019768","","1","1","arrowleft","0","arrowright","[0.15,0.85,0.675,0.325]","","",""
"sailing-trial","228","1005095","0.0-11.0-193.0","","","","false","","","","","","","","","","null","","1157.8999999910593","","2","0","null","null","arrowup","[0.15,0.85,0.675,0.325]","","",""
"sailing-trial","229","1008632","0.0-11.0-194.0","","","","false","","","","","","","","","","337.29999999701977","","75.20000000298023","","3","1","arrowright","1","arrowright","[0.15,0.85,0.675,0.325]","","",""
"sailing-trial","230","1011833","0.0-11.0-195.0","","","","false","","","","","","","","","","null","","1119.7999999970198","","1","1","null","null","arrowup","[0.15,0.85,0.675,0.325]","","",""
"sailing-trial","231","1015883","0.0-11.0-196.0","","","","false","","","","","","","","","","847","","120.5","","1","1","arrowleft","0","arrowright","[0.15,0.85,0.675,0.325]","","",""
"sailing-trial","232","1020917","0.0-11.0-197.0","","","","false","","","","","","","","","","null","","2461.9000000059605","","1","1","null","null","arrowup","[0.15,0.85,0.675,0.325]","","",""
"sailing-trial","233","1026936","0.0-11.0-198.0","","","","false","","","","","","","","","","2091.199999988079","","106.1000000089407","","3","1","arrowright","1","arrowright","[0.675,0.325,0.15,0.85]","","",""
"sailing-trial","234","1028934","0.0-11.0-199.0","","","","false","","","","","","","","","","null","","889","","1","0","null","null","arrowup","[0.675,0.325,0.15,0.85]","","",""
"sailing-trial","235","1032535","0.0-11.0-200.0","","","","false","","","","","","","","","","579.1000000089407","","36.099999994039536","","0","1","arrowleft","0","arrowleft","[0.675,0.325,0.15,0.85]","","",""
"sailing-trial","236","1035303","0.0-11.0-201.0","","","","false","","","","[{""event"":""fullscreenenter"",""trial"":3,""time"":4399},{""event"":""blur"",""trial"":237,""time"":1038521},{""event"":""focus"",""trial"":237,""time"":1041301}]","false","","","","","null","","834.7000000029802","","2","1","null","null","arrowup","[0.675,0.325,0.15,0.85]","","",""
"sailing-trial","237","1046657","0.0-11.0-202.0","","","","false","","","","","","","","","","6641.29999999702","","373.59999999403954","","2","0","arrowright","1","arrowleft","[0.675,0.325,0.15,0.85]","","",""
"sailing-trial","238","1048560","0.0-11.0-203.0","","","","false","","","","","","","","","","null","","640.5","","1","0","null","null","arrowup","[0.675,0.325,0.15,0.85]","","",""
"sailing-trial","239","1052389","0.0-11.0-204.0","","","","false","","","","","","","","","","536.7000000029802","","19.299999997019768","","1","1","arrowleft","0","arrowright","[0.675,0.325,0.15,0.85]","","",""
"sailing-trial","240","1056507","0.0-11.0-205.0","","","","false","","","","","","","","","","null","","1916.1000000089407","","3","1","null","null","arrowup","[0.675,0.325,0.15,0.85]","","",""
"sailing-trial","241","1060088","0.0-11.0-206.0","","","","false","","","","","","","","","","942.6000000089407","","131.6000000089407","","0","0","arrowleft","0","arrowleft","[0.675,0.325,0.15,0.85]","","",""
"sailing-trial","242","1063191","0.0-11.0-207.0","","","","false","","","","","","","","","","null","","1081.0999999940395","","3","1","null","null","arrowup","[0.675,0.325,0.15,0.85]","","",""
"sailing-trial","243","1066908","0.0-11.0-208.0","","","","false","","","","","","","","","","514.5","","82.69999998807907","","3","1","arrowright","1","arrowright","[0.675,0.325,0.15,0.85]","","",""
"sailing-trial","244","1069791","0.0-11.0-209.0","","","","false","","","","","","","","","","null","","1118","","1","1","null","null","arrowup","[0.675,0.325,0.15,0.85]","","",""
"sailing-trial","245","1073959","0.0-11.0-210.0","","","","false","","","","","","","","","","706.8999999910593","","167.79999999701977","","1","1","arrowleft","0","arrowright","[0.675,0.325,0.15,0.85]","","",""
"sailing-trial","246","1076927","0.0-11.0-211.0","","","","false","","","","","","","","","","null","","1027.4000000059605","","3","1","null","null","arrowup","[0.675,0.325,0.15,0.85]","","",""
"sailing-trial","247","1081730","0.0-11.0-212.0","","","","false","","","","","","","","","","595.3000000119209","","32","","1","0","arrowleft","0","arrowright","[0.675,0.325,0.15,0.85]","","",""
"sailing-trial","248","1085312","0.0-11.0-213.0","","","","false","","","","","","","","","","null","","936.4000000059605","","0","1","null","null","arrowup","[0.675,0.325,0.15,0.85]","","",""
"sailing-trial","249","1090602","0.0-11.0-214.0","","","","false","","","","","","","","","","915.0999999940395","","2162.3999999910593","","3","0","arrowright","1","arrowright","[0.85,0.15,0.325,0.675]","","",""
"sailing-trial","250","1096129","0.0-11.0-215.0","","","","false","","","","","","","","","","null","","3569.2000000029802","","0","1","null","null","arrowup","[0.85,0.15,0.325,0.675]","","",""
"sailing-trial","251","1102334","0.0-11.0-216.0","","","","false","","","","","","","","","","1754.0999999940395","","187.5","","1","0","arrowleft","0","arrowright","[0.85,0.15,0.325,0.675]","","",""
"sailing-trial","252","1105380","0.0-11.0-217.0","","","","false","","","","","","","","","","null","","996.8999999910593","","3","1","null","null","arrowup","[0.85,0.15,0.325,0.675]","","",""
"sailing-trial","253","1110866","0.0-11.0-218.0","","","","false","","","","","","","","","","839.6999999880791","","449.1000000089407","","1","0","arrowleft","0","arrowright","[0.85,0.15,0.325,0.675]","","",""
"sailing-trial","254","1114064","0.0-11.0-219.0","","","","false","","","","","","","","","","null","","888.6999999880791","","1","1","null","null","arrowup","[0.85,0.15,0.325,0.675]","","",""
"sailing-trial","255","1119553","0.0-11.0-220.0","","","","false","","","","","","","","","","1003.2999999970198","","294.20000000298023","","1","0","arrowleft","0","arrowright","[0.85,0.15,0.325,0.675]","","",""
"sailing-trial","256","1122300","0.0-11.0-221.0","","","","false","","","","","","","","","","null","","786.4000000059605","","0","1","null","null","arrowup","[0.85,0.15,0.325,0.675]","","",""
"sailing-trial","257","1126233","0.0-11.0-222.0","","","","false","","","","","","","","","","615.7000000029802","","128.40000000596046","","3","1","arrowright","1","arrowright","[0.85,0.15,0.325,0.675]","","",""
"sailing-trial","258","1130188","0.0-11.0-223.0","","","","false","","","","","","","","","","null","","922.5999999940395","","1","0","null","null","arrowup","[0.85,0.15,0.325,0.675]","","",""
"sailing-trial","259","1133434","0.0-11.0-224.0","","","","false","","","","","","","","","","407.5","","30.299999997019768","","0","1","arrowleft","0","arrowleft","[0.85,0.15,0.325,0.675]","","",""
"sailing-trial","260","1135868","0.0-11.0-225.0","","","","false","","","","","","","","","","null","","553.4000000059605","","1","1","null","null","arrowup","[0.85,0.15,0.325,0.675]","","",""
"sailing-trial","261","1138986","0.0-11.0-226.0","","","","false","","","","","","","","","","447.79999999701977","","159.80000001192093","","3","0","arrowright","1","arrowright","[0.85,0.15,0.325,0.675]","","",""
"sailing-trial","262","1141601","0.0-11.0-227.0","","","","false","","","","","","","","","","null","","938.0999999940395","","2","1","null","null","arrowup","[0.85,0.15,0.325,0.675]","","",""
"sailing-trial","263","1144860","0.0-11.0-228.0","","","","false","","","","","","","","","","387","","422.29999999701977","","1","0","arrowleft","0","arrowright","[0.85,0.15,0.325,0.675]","","",""
"sailing-trial","264","1148502","0.0-11.0-229.0","","","","false","","","","","","","","","","null","","1968.5999999940395","","0","1","null","null","arrowup","[0.85,0.15,0.325,0.675]","","",""
"sailing-trial","265","1153455","0.0-11.0-230.0","","","","false","","","","","","","","","","1304.9000000059605","","544.5","","0","1","arrowleft","0","arrowleft","[0.85,0.15,0.325,0.675]","","",""
"sailing-trial","266","1156136","0.0-11.0-231.0","","","","false","","","","","","","","","","null","","789.7000000029802","","1","1","null","null","arrowup","[0.85,0.15,0.325,0.675]","","",""
"sailing-trial","267","1160804","0.0-11.0-232.0","","","","false","","","","","","","","","","1284.2999999970198","","362.5","","3","1","arrowright","1","arrowright","[0.85,0.15,0.325,0.675]","","",""
"sailing-trial","268","1163254","0.0-11.0-233.0","","","","false","","","","","","","","","","null","","816.5999999940395","","3","1","null","null","arrowup","[0.85,0.15,0.325,0.675]","","",""
"sailing-trial","269","1166789","0.0-11.0-234.0","","","","false","","","","","","","","","","798.5","","18","","0","1","arrowleft","0","arrowleft","[0.675,0.325,0.15,0.85]","","",""
"sailing-trial","270","1169859","0.0-11.0-235.0","","","","false","","","","","","","","","","null","","1711.9000000059605","","3","0","null","null","arrowup","[0.675,0.325,0.15,0.85]","","",""
"sailing-trial","271","1176525","0.0-11.0-236.0","","","","false","","","","","","","","","","2114.5","","337.19999998807907","","2","0","arrowright","1","arrowleft","[0.675,0.325,0.15,0.85]","","",""
"sailing-trial","272","1179257","0.0-11.0-237.0","","","","false","","","","","","","","","","null","","1032.300000011921","","3","1","null","null","arrowup","[0.675,0.325,0.15,0.85]","","",""
"sailing-trial","273","1183475","0.0-11.0-238.0","","","","false","","","","","","","","","","683.7000000029802","","35.20000000298023","","0","1","arrowleft","0","arrowleft","[0.675,0.325,0.15,0.85]","","",""
"sailing-trial","274","1188492","0.0-11.0-239.0","","","","false","","","","","","","","","","null","","1978","","1","0","null","null","arrowup","[0.675,0.325,0.15,0.85]","","",""
"sailing-trial","275","1194063","0.0-11.0-240.0","","","","false","","","","","","","","","","1025.2000000029802","","247.09999999403954","","2","0","arrowright","1","arrowleft","[0.675,0.325,0.15,0.85]","","",""
"sailing-trial","276","1196711","0.0-11.0-241.0","","","","false","","","","","","","","","","null","","790.3000000119209","","0","1","null","null","arrowup","[0.675,0.325,0.15,0.85]","","",""
"sailing-trial","277","1200695","0.0-11.0-242.0","","","","false","","","","","","","","","","990.2000000029802","","203","","0","1","arrowleft","0","arrowleft","[0.675,0.325,0.15,0.85]","","",""
"sailing-trial","278","1202761","0.0-11.0-243.0","","","","false","","","","","","","","","","null","","518.4000000059605","","3","1","null","null","arrowup","[0.675,0.325,0.15,0.85]","","",""
"sailing-trial","279","1205284","0.0-11.0-244.0","","","","false","","","","","","","","","","133","","41.5","","2","0","arrowright","1","arrowleft","[0.675,0.325,0.15,0.85]","","",""
"sailing-trial","280","1207516","0.0-11.0-245.0","","","","false","","","","","","","","","","null","","753.5","","0","0","null","null","arrowup","[0.675,0.325,0.15,0.85]","","",""
"sailing-trial","281","1210447","0.0-11.0-246.0","","","","false","","","","","","","","","","50.20000000298023","","126.3999999910593","","0","1","arrowleft","0","arrowleft","[0.675,0.325,0.15,0.85]","","",""
"sailing-trial","282","1211620","0.0-11.0-247.0","","","","false","","","","","","","","","","null","","32.5","","2","0","null","null","arrowup","[0.675,0.325,0.15,0.85]","","",""
"sailing-trial","283","1214325","0.0-11.0-248.0","","","","false","","","","","","","","","","193.69999998807907","","113.79999999701977","","2","0","arrowright","1","arrowleft","[0.675,0.325,0.15,0.85]","","",""
"sailing-trial","284","1216621","0.0-11.0-249.0","","","","false","","","","","","","","","","null","","1049.0999999940395","","3","0","null","null","arrowup","[0.675,0.325,0.15,0.85]","","",""
"sailing-trial","285","1219036","0.0-11.0-250.0","","","","false","","","","","","","","","","129.3999999910593","","7.5","","1","0","arrowleft","0","arrowright","[0.85,0.15,0.325,0.675]","","",""
"sailing-trial","286","1221447","0.0-11.0-251.0","","","","false","","","","","","","","","","null","","786.1999999880791","","2","1","null","null","arrowup","[0.85,0.15,0.325,0.675]","","",""
"sailing-trial","287","1224900","0.0-11.0-252.0","","","","false","","","","","","","","","","735.4000000059605","","203.70000000298023","","3","0","arrowright","1","arrowright","[0.85,0.15,0.325,0.675]","","",""
"sailing-trial","288","1226964","0.0-11.0-253.0","","","","false","","","","","","","","","","null","","834.2999999970198","","1","0","null","null","arrowup","[0.85,0.15,0.325,0.675]","","",""
"sailing-trial","289","1230349","0.0-11.0-254.0","","","","false","","","","","","","","","","610.2000000029802","","52.599999994039536","","0","1","arrowleft","0","arrowleft","[0.85,0.15,0.325,0.675]","","",""
"sailing-trial","290","1233406","0.0-11.0-255.0","","","","false","","","","","","","","","","null","","1834","","2","0","null","null","arrowup","[0.85,0.15,0.325,0.675]","","",""
"sailing-trial","291","1235973","0.0-11.0-256.0","","","","false","","","","","","","","","","248.79999999701977","","56.5","","2","0","arrowright","1","arrowleft","[0.85,0.15,0.325,0.675]","","",""
"sailing-trial","292","1239534","0.0-11.0-257.0","","","","false","","","","","","","","","","null","","1353","","3","1","null","null","arrowup","[0.85,0.15,0.325,0.675]","","",""
"sailing-trial","293","1243301","0.0-11.0-258.0","","","","false","","","","","","","","","","457.5","","324.90000000596046","","3","1","arrowright","1","arrowright","[0.85,0.15,0.325,0.675]","","",""
"sailing-trial","294","1246068","0.0-11.0-259.0","","","","false","","","","","","","","","","null","","1058","","2","1","null","null","arrowup","[0.85,0.15,0.325,0.675]","","",""
"sailing-trial","295","1249601","0.0-11.0-260.0","","","","false","","","","","","","","","","379.70000000298023","","376.5","","1","1","arrowleft","0","arrowright","[0.85,0.15,0.325,0.675]","","",""
"sailing-trial","296","1251986","0.0-11.0-261.0","","","","false","","","","","","","","","","null","","493.90000000596046","","0","1","null","null","arrowup","[0.85,0.15,0.325,0.675]","","",""
"sailing-trial","297","1255269","0.0-11.0-262.0","","","","false","","","","","","","","","","365.29999999701977","","185.79999999701977","","0","1","arrowleft","0","arrowleft","[0.85,0.15,0.325,0.675]","","",""
"sailing-trial","298","1258070","0.0-11.0-263.0","","","","false","","","","","","","","","","null","","1058.7000000029802","","3","1","null","null","arrowup","[0.85,0.15,0.325,0.675]","","",""
"sailing-trial","299","1263182","0.0-11.0-264.0","","","","false","","","","","","","","","","978.2999999970198","","76.8999999910593","","2","0","arrowright","1","arrowleft","[0.85,0.15,0.325,0.675]","","",""
"sailing-trial","300","1265431","0.0-11.0-265.0","","","","false","","","","","","","","","","null","","633.1000000089407","","3","0","null","null","arrowup","[0.85,0.15,0.325,0.675]","","",""
"sailing-trial","301","1268830","0.0-11.0-266.0","","","","false","","","","","","","","","","817.3999999910593","","84.19999998807907","","1","0","arrowleft","0","arrowright","[0.85,0.15,0.325,0.675]","","",""
"sailing-trial","302","1271406","0.0-11.0-267.0","","","","false","","","","","","","","","","null","","745.5","","0","1","null","null","arrowup","[0.85,0.15,0.325,0.675]","","",""
"sailing-trial","303","1274454","0.0-11.0-268.0","","","","false","","","","","","","","","","466","","98.29999999701977","","3","0","arrowright","1","arrowright","[0.85,0.15,0.325,0.675]","","",""
"sailing-trial","304","1276519","0.0-11.0-269.0","","","","false","","","","","","","","","","null","","970","","1","0","null","null","arrowup","[0.85,0.15,0.325,0.675]","","",""
"sailing-trial","305","1280255","0.0-11.0-270.0","","","","false","","","","","","","","","","705.5","","90.5","","0","1","arrowleft","0","arrowleft","[0.85,0.15,0.325,0.675]","","",""
"sailing-trial","306","1283188","0.0-11.0-271.0","","","","false","","","","","","","","","","null","","1089","","0","1","null","null","arrowup","[0.85,0.15,0.325,0.675]","","",""
"sailing-trial","307","1286303","0.0-11.0-272.0","","","","false","","","","","","","","","","371.59999999403954","","213.30000001192093","","1","0","arrowleft","0","arrowright","[0.675,0.325,0.15,0.85]","","",""
"sailing-trial","308","1289140","0.0-11.0-273.0","","","","false","","","","","","","","","","null","","1001.2999999970198","","0","1","null","null","arrowup","[0.675,0.325,0.15,0.85]","","",""
"sailing-trial","309","1292824","0.0-11.0-274.0","","","","false","","","","","","","","","","44.19999998807907","","740.7999999970198","","2","1","arrowright","1","arrowleft","[0.675,0.325,0.15,0.85]","","",""
"sailing-trial","310","1295676","0.0-11.0-275.0","","","","false","","","","","","","","","","null","","944","","1","1","null","null","arrowup","[0.675,0.325,0.15,0.85]","","",""
"sailing-trial","311","1298936","0.0-11.0-276.0","","","","false","","","","","","","","","","981","","33.099999994039536","","1","0","arrowleft","0","arrowright","[0.675,0.325,0.15,0.85]","","",""
"sailing-trial","312","1300919","0.0-11.0-277.0","","","","false","","","","","","","","","","null","","705.4000000059605","","1","0","null","null","arrowup","[0.675,0.325,0.15,0.85]","","",""
"sailing-trial","313","1303551","0.0-11.0-278.0","","","","false","","","","","","","","","","209.09999999403954","","117.40000000596046","","2","0","arrowright","1","arrowleft","[0.675,0.325,0.15,0.85]","","",""
"sailing-trial","314","1305994","0.0-11.0-279.0","","","","false","","","","","","","","","","null","","690.4000000059605","","3","1","null","null","arrowup","[0.675,0.325,0.15,0.85]","","",""
"sailing-trial","315","1309440","0.0-11.0-280.0","","","","false","","","","","","","","","","670.9000000059605","","208.40000000596046","","0","0","arrowleft","0","arrowleft","[0.675,0.325,0.15,0.85]","","",""
"sailing-trial","316","1311827","0.0-11.0-281.0","","","","false","","","","","","","","","","null","","761","","3","1","null","null","arrowup","[0.675,0.325,0.15,0.85]","","",""
"sailing-trial","317","1315895","0.0-11.0-282.0","","","","false","","","","","","","","","","997.4000000059605","","160.59999999403954","","3","1","arrowright","1","arrowright","[0.675,0.325,0.15,0.85]","","",""
"sailing-trial","318","1320246","0.0-11.0-283.0","","","","false","","","","","","","","","","null","","1386.6000000089407","","1","1","null","null","arrowup","[0.675,0.325,0.15,0.85]","","",""
"sailing-trial","319","1326597","0.0-11.0-284.0","","","","false","","","","","","","","","","2052.9000000059605","","14.799999997019768","","0","1","arrowleft","0","arrowleft","[0.675,0.325,0.15,0.85]","","",""
"sailing-trial","320","1331097","0.0-11.0-285.0","","","","false","","","","[{""event"":""fullscreenenter"",""trial"":3,""time"":4399},{""event"":""blur"",""trial"":237,""time"":1038521},{""event"":""focus"",""trial"":237,""time"":1041301},{""event"":""blur"",""trial"":321,""time"":1331422},{""event"":""focus"",""trial"":321,""time"":1335113},{""event"":""fullscreenexit"",""trial"":321,""time"":1335257}]","false","","","","","null","","2516.2999999970198","","1","1","null","null","arrowup","[0.675,0.325,0.15,0.85]","","",""
"sailing-trial","321","1341233","0.0-11.0-286.0","","","","false","","","","","","","","","","5833","","72.79999999701977","","2","0","arrowright","1","arrowleft","[0.675,0.325,0.15,0.85]","","",""
"sailing-trial","322","1346532","0.0-11.0-287.0","","","","false","","","","","","","","","","null","","1481.4000000059605","","0","1","null","null","arrowup","[0.675,0.325,0.15,0.85]","","",""
"sailing-trial","323","1353334","0.0-11.0-288.0","","","","false","","","","","","","","","","2558.7999999970198","","559.8000000119209","","0","1","arrowleft","0","arrowleft","[0.675,0.325,0.15,0.85]","","",""
"sailing-trial","324","1358484","0.0-11.0-289.0","","","","false","","","","","","","","","","null","","2532.7999999970198","","1","1","null","null","arrowup","[0.675,0.325,0.15,0.85]","","",""
"sailing-trial","325","1365186","0.0-11.0-290.0","","","","false","","","","","","","","","","3982.3999999910593","","303.80000001192093","","0","0","arrowleft","0","arrowleft","[0.675,0.325,0.15,0.85]","","",""
"sailing-trial","326","1368087","0.0-11.0-291.0","","","","false","","","","","","","","","","null","","953.0999999940395","","3","1","null","null","arrowup","[0.675,0.325,0.15,0.85]","","",""
"sailing-trial","327","1371129","0.0-11.0-292.0","","","","false","","","","","","","","","","508.79999999701977","","106","","2","0","arrowright","1","arrowleft","[0.675,0.325,0.15,0.85]","","",""
"sailing-trial","328","1374003","0.0-11.0-293.0","","","","false","","","","","","","","","","null","","986","","3","1","null","null","arrowup","[0.675,0.325,0.15,0.85]","","",""
"sailing-trial","329","1376870","0.0-11.0-294.0","","","","false","","","","","","","","","","47.5","","64.70000000298023","","1","1","arrowleft","0","arrowright","[0.675,0.325,0.15,0.85]","","",""
"sailing-trial","330","1379487","0.0-11.0-295.0","","","","false","","","","","","","","","","null","","884.2999999970198","","2","1","null","null","arrowup","[0.675,0.325,0.15,0.85]","","",""
"sailing-trial","331","1382451","0.0-11.0-296.0","","","","false","","","","","","","","","","676","","3.5999999940395355","","3","0","arrowright","1","arrowright","[0.15,0.85,0.675,0.325]","","",""
"sailing-trial","332","1384537","0.0-11.0-297.0","","","","false","","","","","","","","","","null","","839.9000000059605","","0","0","null","null","arrowup","[0.15,0.85,0.675,0.325]","","",""
"sailing-trial","333","1387706","0.0-11.0-298.0","","","","false","","","","","","","","","","321.69999998807907","","13.799999997019768","","1","1","arrowleft","0","arrowright","[0.15,0.85,0.675,0.325]","","",""
"sailing-trial","334","1390639","0.0-11.0-299.0","","","","false","","","","","","","","","","null","","1113.5","","2","1","null","null","arrowup","[0.15,0.85,0.675,0.325]","","",""
"sailing-trial","335","1393806","0.0-11.0-300.0","","","","false","","","","","","","","","","300.5","","50.599999994039536","","2","1","arrowright","1","arrowleft","[0.15,0.85,0.675,0.325]","","",""
"sailing-trial","336","1396074","0.0-11.0-301.0","","","","false","","","","","","","","","","null","","877.7999999970198","","2","0","null","null","arrowup","[0.15,0.85,0.675,0.325]","","",""
"sailing-trial","337","1399675","0.0-11.0-302.0","","","","false","","","","","","","","","","698.5","","361","","3","0","arrowright","1","arrowright","[0.15,0.85,0.675,0.325]","","",""
"sailing-trial","338","1402057","0.0-11.0-303.0","","","","false","","","","","","","","","","null","","449.3999999910593","","1","1","null","null","arrowup","[0.15,0.85,0.675,0.325]","","",""
"sailing-trial","339","1405219","0.0-11.0-304.0","","","","false","","","","","","","","","","587.2999999970198","","20.69999998807907","","0","0","arrowleft","0","arrowleft","[0.15,0.85,0.675,0.325]","","",""
"sailing-trial","340","1407657","0.0-11.0-305.0","","","","false","","","","","","","","","","null","","752.7000000029802","","3","1","null","null","arrowup","[0.15,0.85,0.675,0.325]","","",""
"sailing-trial","341","1411225","0.0-11.0-306.0","","","","false","","","","","","","","","","467.09999999403954","","66.5","","1","1","arrowleft","0","arrowright","[0.15,0.85,0.675,0.325]","","",""
"sailing-trial","342","1413975","0.0-11.0-307.0","","","","false","","","","","","","","","","null","","923.4000000059605","","3","1","null","null","arrowup","[0.15,0.85,0.675,0.325]","","",""
"sailing-trial","343","1417426","0.0-11.0-308.0","","","","false","","","","","","","","","","613","","76.8999999910593","","3","1","arrowright","1","arrowright","[0.15,0.85,0.675,0.325]","","",""
"sailing-trial","344","1419267","0.0-11.0-309.0","","","","false","","","","","","","","","","null","","569.9000000059605","","0","0","null","null","arrowup","[0.15,0.85,0.675,0.325]","","",""
"sailing-trial","345","1423227","0.0-11.0-310.0","","","","false","","","","","","","","","","913.5","","54.79999999701977","","2","1","arrowright","1","arrowleft","[0.15,0.85,0.675,0.325]","","",""
"sailing-trial","346","1426847","0.0-11.0-311.0","","","","false","","","","","","","","","","null","","593.1000000089407","","3","0","null","null","arrowup","[0.15,0.85,0.675,0.325]","","",""
"sailing-trial","347","1429843","0.0-11.0-312.0","","","","false","","","","","","","","","","429.79999999701977","","138.09999999403954","","1","0","arrowleft","0","arrowright","[0.325,0.675,0.85,0.15]","","",""
"sailing-trial","348","1432229","0.0-11.0-313.0","","","","false","","","","","","","","","","null","","553.2000000029802","","2","1","null","null","arrowup","[0.325,0.675,0.85,0.15]","","",""
"sailing-trial","349","1435988","0.0-11.0-314.0","","","","false","","","","","","","","","","503.70000000298023","","11.700000002980232","","0","0","arrowleft","0","arrowleft","[0.325,0.675,0.85,0.15]","","",""
"sailing-trial","350","1437946","0.0-11.0-315.0","","","","false","","","","","","","","","","null","","722.5","","0","0","null","null","arrowup","[0.325,0.675,0.85,0.15]","","",""
"sailing-trial","351","1442247","0.0-11.0-316.0","","","","false","","","","","","","","","","850.5","","40.099999994039536","","2","1","arrowright","1","arrowleft","[0.325,0.675,0.85,0.15]","","",""
"sailing-trial","352","1444396","0.0-11.0-317.0","","","","false","","","","","","","","","","null","","1070.5","","0","0","null","null","arrowup","[0.325,0.675,0.85,0.15]","","",""
"sailing-trial","353","1447068","0.0-11.0-318.0","","","","false","","","","","","","","","","353","","44.1000000089407","","3","0","arrowright","1","arrowright","[0.325,0.675,0.85,0.15]","","",""
"sailing-trial","354","1449565","0.0-11.0-319.0","","","","false","","","","","","","","","","null","","753.5999999940395","","0","1","null","null","arrowup","[0.325,0.675,0.85,0.15]","","",""
"sailing-trial","355","1452391","0.0-11.0-320.0","","","","false","","","","","","","","","","408.70000000298023","","204.59999999403954","","0","0","arrowleft","0","arrowleft","[0.325,0.675,0.85,0.15]","","",""
"sailing-trial","356","1455149","0.0-11.0-321.0","","","","false","","","","","","","","","","null","","862.7000000029802","","0","1","null","null","arrowup","[0.325,0.675,0.85,0.15]","","",""
"sailing-trial","357","1458650","0.0-11.0-322.0","","","","false","","","","","","","","","","472.40000000596046","","55.900000005960464","","1","1","arrowleft","0","arrowright","[0.325,0.675,0.85,0.15]","","",""
"sailing-trial","358","1460772","0.0-11.0-323.0","","","","false","","","","","","","","","","null","","683.9000000059605","","3","0","null","null","arrowup","[0.325,0.675,0.85,0.15]","","",""
"sailing-trial","359","1464950","0.0-11.0-324.0","","","","false","","","","","","","","","","994.4000000059605","","59","","2","1","arrowright","1","arrowleft","[0.325,0.675,0.85,0.15]","","",""
"sailing-trial","360","1469119","0.0-11.0-325.0","","","","false","","","","","","","","","","null","","2183.7999999970198","","1","1","null","null","arrowup","[0.325,0.675,0.85,0.15]","","",""
"sailing-trial","361","1472418","0.0-11.0-326.0","","","","false","","","","","","","","","","551.2999999970198","","20.5","","1","1","arrowleft","0","arrowright","[0.325,0.675,0.85,0.15]","","",""
"sailing-trial","362","1475452","0.0-11.0-327.0","","","","false","","","","","","","","","","null","","852.4000000059605","","2","1","null","null","arrowup","[0.325,0.675,0.85,0.15]","","",""
"sailing-trial","363","1480170","0.0-11.0-328.0","","","","false","","","","","","","","","","1618.4000000059605","","169.79999999701977","","2","1","arrowright","1","arrowleft","[0.325,0.675,0.85,0.15]","","",""
"sailing-trial","364","1482252","0.0-11.0-329.0","","","","false","","","","","","","","","","null","","859.9000000059605","","0","0","null","null","arrowup","[0.325,0.675,0.85,0.15]","","",""
"sailing-trial","365","1485737","0.0-11.0-330.0","","","","false","","","","","","","","","","682.3999999910593","","81","","1","1","arrowleft","0","arrowright","[0.325,0.675,0.85,0.15]","","",""
"sailing-trial","366","1488955","0.0-11.0-331.0","","","","false","","","","","","","","","","null","","917.7999999970198","","1","1","null","null","arrowup","[0.325,0.675,0.85,0.15]","","",""
"sailing-trial","367","1492341","0.0-11.0-332.0","","","","false","","","","","","","","","","939.4000000059605","","18.200000002980232","","0","0","arrowleft","0","arrowleft","[0.15,0.85,0.675,0.325]","","",""
"sailing-trial","368","1495439","0.0-11.0-333.0","","","","false","","","","","","","","","","null","","954.0999999940395","","1","1","null","null","arrowup","[0.15,0.85,0.675,0.325]","","",""
"sailing-trial","369","1499822","0.0-11.0-334.0","","","","false","","","","","","","","","","567.5999999940395","","35.8999999910593","","1","1","arrowleft","0","arrowright","[0.15,0.85,0.675,0.325]","","",""
"sailing-trial","370","1502589","0.0-11.0-335.0","","","","false","","","","","","","","","","null","","664.2999999970198","","2","1","null","null","arrowup","[0.15,0.85,0.675,0.325]","","",""
"sailing-trial","371","1509193","0.0-11.0-336.0","","","","false","","","","","","","","","","2010","","379.5","","3","0","arrowright","1","arrowright","[0.15,0.85,0.675,0.325]","","",""
"sailing-trial","372","1513010","0.0-11.0-337.0","","","","false","","","","","","","","","","null","","798","","1","0","null","null","arrowup","[0.15,0.85,0.675,0.325]","","",""
"sailing-trial","373","1517824","0.0-11.0-338.0","","","","false","","","","","","","","","","741.3999999910593","","449.1000000089407","","1","1","arrowleft","0","arrowright","[0.15,0.85,0.675,0.325]","","",""
"sailing-trial","374","1520742","0.0-11.0-339.0","","","","false","","","","","","","","","","null","","855","","1","1","null","null","arrowup","[0.15,0.85,0.675,0.325]","","",""
"sailing-trial","375","1525476","0.0-11.0-340.0","","","","false","","","","","","","","","","1209.5","","130.29999999701977","","1","1","arrowleft","0","arrowright","[0.15,0.85,0.675,0.325]","","",""
"sailing-trial","376","1528076","0.0-11.0-341.0","","","","false","","","","","","","","","","null","","939.9000000059605","","1","1","null","null","arrowup","[0.15,0.85,0.675,0.325]","","",""
"sailing-trial","377","1531518","0.0-11.0-342.0","","","","false","","","","","","","","","","707.8999999910593","","226.8999999910593","","0","0","arrowleft","0","arrowleft","[0.15,0.85,0.675,0.325]","","",""
"sailing-trial","378","1534260","0.0-11.0-343.0","","","","false","","","","","","","","","","null","","801.4000000059605","","0","1","null","null","arrowup","[0.15,0.85,0.675,0.325]","","",""
"sailing-trial","379","1539131","0.0-11.0-344.0","","","","false","","","","","","","","","","596.5","","79.20000000298023","","3","0","arrowright","1","arrowright","[0.15,0.85,0.675,0.325]","","",""
"sailing-trial","380","1541127","0.0-11.0-345.0","","","","false","","","","","","","","","","null","","789","","0","0","null","null","arrowup","[0.15,0.85,0.675,0.325]","","",""
"sailing-trial","381","1546097","0.0-11.0-346.0","","","","false","","","","","","","","","","849","","311.5","","1","1","arrowleft","0","arrowright","[0.15,0.85,0.675,0.325]","","",""
"sailing-trial","382","1549164","0.0-11.0-347.0","","","","false","","","","","","","","","","null","","935.3999999910593","","3","1","null","null","arrowup","[0.15,0.85,0.675,0.325]","","",""
"sailing-trial","383","1552897","0.0-11.0-348.0","","","","false","","","","","","","","","","868.4000000059605","","77.69999998807907","","2","1","arrowright","1","arrowleft","[0.325,0.675,0.85,0.15]","","",""
"sailing-trial","384","1557882","0.0-11.0-349.0","","","","false","","","","","","","","","","null","","1943.2999999970198","","3","0","null","null","arrowup","[0.325,0.675,0.85,0.15]","","",""
"sailing-trial","385","1561681","0.0-11.0-350.0","","","","false","","","","","","","","","","639","","151.8999999910593","","1","1","arrowleft","0","arrowright","[0.325,0.675,0.85,0.15]","","",""
"sailing-trial","386","1564349","0.0-11.0-351.0","","","","false","","","","","","","","","","null","","959.7000000029802","","2","1","null","null","arrowup","[0.325,0.675,0.85,0.15]","","",""
"sailing-trial","387","1567560","0.0-11.0-352.0","","","","false","","","","","","","","","","660.5999999940395","","27.399999991059303","","3","0","arrowright","1","arrowright","[0.325,0.675,0.85,0.15]","","",""
"sailing-trial","388","1569655","0.0-11.0-353.0","","","","false","","","","","","","","","","null","","777","","3","0","null","null","arrowup","[0.325,0.675,0.85,0.15]","","",""
"sailing-trial","389","1574836","0.0-11.0-354.0","","","","false","","","","","","","","","","945.3999999910593","","61.19999998807907","","0","0","arrowleft","0","arrowleft","[0.325,0.675,0.85,0.15]","","",""
"sailing-trial","390","1577350","0.0-11.0-355.0","","","","false","","","","","","","","","","null","","772.7999999970198","","2","1","null","null","arrowup","[0.325,0.675,0.85,0.15]","","",""
"sailing-trial","391","1581535","0.0-11.0-356.0","","","","false","","","","","","","","","","891.2000000029802","","66.29999999701977","","2","1","arrowright","1","arrowleft","[0.325,0.675,0.85,0.15]","","",""
"sailing-trial","392","1584786","0.0-11.0-357.0","","","","false","","","","","","","","","","null","","1314","","1","1","null","null","arrowup","[0.325,0.675,0.85,0.15]","","",""
"sailing-trial","393","1588520","0.0-11.0-358.0","","","","false","","","","","","","","","","551.7999999970198","","68.90000000596046","","1","1","arrowleft","0","arrowright","[0.325,0.675,0.85,0.15]","","",""
"sailing-trial","394","1591704","0.0-11.0-359.0","","","","false","","","","","","","","","","null","","1081.800000011921","","2","1","null","null","arrowup","[0.325,0.675,0.85,0.15]","","",""
"sailing-trial","395","1596271","0.0-11.0-360.0","","","","false","","","","","","","","","","522.2000000029802","","168.20000000298023","","3","1","arrowright","1","arrowright","[0.325,0.675,0.85,0.15]","","",""
"sailing-trial","396","1601656","0.0-11.0-361.0","","","","false","","","","","","","","","","null","","2818.800000011921","","3","0","null","null","arrowup","[0.325,0.675,0.85,0.15]","","",""
"sailing-trial","397","1606740","0.0-11.0-362.0","","","","false","","","","","","","","","","841.5","","19.899999991059303","","1","0","arrowleft","0","arrowright","[0.325,0.675,0.85,0.15]","","",""
"sailing-trial","398","1610675","0.0-11.0-363.0","","","","false","","","","","","","","","","null","","917.8000000119209","","2","0","null","null","arrowup","[0.325,0.675,0.85,0.15]","","",""
"sailing-trial","399","1614961","0.0-11.0-364.0","","","","false","","","","","","","","","","583","","118.70000000298023","","3","0","arrowright","1","arrowright","[0.325,0.675,0.85,0.15]","","",""
"sailing-trial","400","1618792","0.0-11.0-365.0","","","","false","","","","","","","","","","null","","801.9000000059605","","0","0","null","null","arrowup","[0.325,0.675,0.85,0.15]","","",""
"sailing-trial","401","1623554","0.0-11.0-366.0","","","","false","","","","","","","","","","842.5999999940395","","45.6000000089407","","1","0","arrowleft","0","arrowright","[0.325,0.675,0.85,0.15]","","",""
"sailing-trial","402","1626307","0.0-11.0-367.0","","","","false","","","","","","","","","","null","","680.7999999970198","","1","1","null","null","arrowup","[0.325,0.675,0.85,0.15]","","",""
"sailing-trial","403","1630808","0.0-11.0-368.0","","","","false","","","","","","","","","","1079.2999999970198","","22.900000005960464","","0","1","arrowleft","0","arrowleft","[0.675,0.325,0.15,0.85]","","",""
"sailing-trial","404","1634018","0.0-11.0-369.0","","","","false","","","","","","","","","","null","","1410.699999988079","","1","0","null","null","arrowup","[0.675,0.325,0.15,0.85]","","",""
"sailing-trial","405","1639258","0.0-11.0-370.0","","","","false","","","","","","","","","","601.2000000029802","","140.40000000596046","","3","1","arrowright","1","arrowright","[0.675,0.325,0.15,0.85]","","",""
"sailing-trial","406","1641011","0.0-11.0-371.0","","","","false","","","","","","","","","","null","","112.6000000089407","","1","1","null","null","arrowup","[0.675,0.325,0.15,0.85]","","",""
"sailing-trial","407","1645497","0.0-11.0-372.0","","","","false","","","","","","","","","","256.09999999403954","","42.29999999701977","","2","0","arrowright","1","arrowleft","[0.675,0.325,0.15,0.85]","","",""
"sailing-trial","408","1650080","0.0-11.0-373.0","","","","false","","","","","","","","","","null","","1538.8999999910593","","0","0","null","null","arrowup","[0.675,0.325,0.15,0.85]","","",""
"sailing-trial","409","1654145","0.0-11.0-374.0","","","","false","","","","","","","","","","675.1000000089407","","92.70000000298023","","3","1","arrowright","1","arrowright","[0.675,0.325,0.15,0.85]","","",""
"sailing-trial","410","1657128","0.0-11.0-375.0","","","","false","","","","","","","","","","null","","1370.2000000029802","","3","1","null","null","arrowup","[0.675,0.325,0.15,0.85]","","",""
"sailing-trial","411","1661986","0.0-11.0-376.0","","","","false","","","","","","","","","","803.6000000089407","","134.3999999910593","","1","0","arrowleft","0","arrowright","[0.675,0.325,0.15,0.85]","","",""
"sailing-trial","412","1665830","0.0-11.0-377.0","","","","false","","","","","","","","","","null","","1633.0999999940395","","0","1","null","null","arrowup","[0.675,0.325,0.15,0.85]","","",""
"sailing-trial","413","1672416","0.0-11.0-378.0","","","","false","","","","","","","","","","1622.5999999940395","","118.5","","3","1","arrowright","1","arrowright","[0.675,0.325,0.15,0.85]","","",""
"sailing-trial","414","1679084","0.0-11.0-379.0","","","","false","","","","","","","","","","null","","3668.3999999910593","","1","0","null","null","arrowup","[0.675,0.325,0.15,0.85]","","",""
"sailing-trial","415","1683983","0.0-11.0-380.0","","","","false","","","","","","","","","","591.3999999910593","","92.8999999910593","","3","0","arrowright","1","arrowright","[0.675,0.325,0.15,0.85]","","",""
"sailing-trial","416","1687333","0.0-11.0-381.0","","","","false","","","","","","","","","","null","","949.4000000059605","","3","1","null","null","arrowup","[0.675,0.325,0.15,0.85]","","",""
"sailing-trial","417","1694770","0.0-11.0-382.0","","","","false","","","","","","","","","","1551.2000000029802","","1693.1000000089407","","3","0","arrowright","1","arrowright","[0.675,0.325,0.15,0.85]","","",""
"sailing-trial","418","1697013","0.0-11.0-383.0","","","","false","","","","","","","","","","null","","898.6000000089407","","2","0","null","null","arrowup","[0.675,0.325,0.15,0.85]","","",""
"sailing-trial","419","1702422","0.0-11.0-384.0","","","","false","","","","","","","","","","744.2000000029802","","439","","1","0","arrowleft","0","arrowright","[0.85,0.15,0.325,0.675]","","",""
"sailing-trial","420","1705253","0.0-11.0-385.0","","","","false","","","","","","","","","","null","","822","","3","1","null","null","arrowup","[0.85,0.15,0.325,0.675]","","",""
"sailing-trial","421","1708828","0.0-11.0-386.0","","","","false","","","","","","","","","","944.2999999970198","","60.5","","2","0","arrowright","1","arrowleft","[0.85,0.15,0.325,0.675]","","",""
"sailing-trial","422","1711404","0.0-11.0-387.0","","","","false","","","","","","","","","","null","","913.0999999940395","","2","1","null","null","arrowup","[0.85,0.15,0.325,0.675]","","",""
"sailing-trial","423","1716474","0.0-11.0-388.0","","","","false","","","","","","","","","","842","","19.5","","3","0","arrowright","1","arrowright","[0.85,0.15,0.325,0.675]","","",""
"sailing-trial","424","1720888","0.0-11.0-389.0","","","","false","","","","","","","","","","null","","1787.1000000089407","","3","1","null","null","arrowup","[0.85,0.15,0.325,0.675]","","",""
"sailing-trial","425","1727025","0.0-11.0-390.0","","","","false","","","","","","","","","","1869","","2.7000000029802322","","1","0","arrowleft","0","arrowright","[0.85,0.15,0.325,0.675]","","",""
"sailing-trial","426","1730890","0.0-11.0-391.0","","","","false","","","","","","","","","","null","","2172.5999999940395","","2","1","null","null","arrowup","[0.85,0.15,0.325,0.675]","","",""
"sailing-trial","427","1736407","0.0-11.0-392.0","","","","false","","","","","","","","","","1316.2000000029802","","232.3999999910593","","3","1","arrowright","1","arrowright","[0.85,0.15,0.325,0.675]","","",""
"sailing-trial","428","1739091","0.0-11.0-393.0","","","","false","","","","","","","","","","null","","903.2000000029802","","2","1","null","null","arrowup","[0.85,0.15,0.325,0.675]","","",""
"sailing-trial","429","1744592","0.0-11.0-394.0","","","","false","","","","","","","","","","1114.5999999940395","","65.20000000298023","","3","1","arrowright","1","arrowright","[0.85,0.15,0.325,0.675]","","",""
"sailing-trial","430","1747242","0.0-11.0-395.0","","","","false","","","","","","","","","","null","","1006","","1","1","null","null","arrowup","[0.85,0.15,0.325,0.675]","","",""
"sailing-trial","431","1750869","0.0-11.0-396.0","","","","false","","","","","","","","","","836.1000000089407","","317.59999999403954","","1","0","arrowleft","0","arrowright","[0.85,0.15,0.325,0.675]","","",""
"sailing-trial","432","1753994","0.0-11.0-397.0","","","","false","","","","","","","","","","null","","1040.300000011921","","2","1","null","null","arrowup","[0.85,0.15,0.325,0.675]","","",""
"sailing-trial","433","1758411","0.0-11.0-398.0","","","","false","","","","","","","","","","684.9000000059605","","139.5","","3","1","arrowright","1","arrowright","[0.85,0.15,0.325,0.675]","","",""
"sailing-trial","434","1762227","0.0-11.0-399.0","","","","false","","","","","","","","","","null","","1652.0999999940395","","3","1","null","null","arrowup","[0.85,0.15,0.325,0.675]","","",""
"instructions","435","1775325","0.0-12.0","","","","","","","","","","13097.09999999404","","","","","","","","","","","","","","","","[{""page_index"":0,""viewing_time"":13097}]"
"survey-debrief","436","1795215","0.0-13.0","","","","","","","","","","19866.80000001192","","","","","","","","","","","","","","{""difficulty"":""4"",""fun"":""4"",""clarity"":""5"",""strategy"":""i remembered which colors were best"",""feedback"":""no""}","",""
