"trial_type","trial_index","time_elapsed","internal_node_id","value","metadata","success","timeout","failed_images","failed_audio","failed_video","browser_interaction","low_quality","rt","stimulus","response","button_pressed","island_rt","island_response","boat_rt","boat_response","boat","reward","island_key","island","boat_key","reward_probabilities","responses","num_errors","view_history"
"pavlovia","0","1","0.0-0.0","","","","","","","","","","","","","","","","","","","","","","","","","",""
"call-function","1","1","0.0-1.0","","{""task_version"":""sailing_part1_v1"",""task_condition"":""good"",""boats"":[""C"",""A"",""B"",""D""],""boats_demo"":[""E"",""G"",""F"",""H""],""islands"":[""B"",""A""],""subject_id"":""13906"",""age"":""15"",""gender"":""Male""}","","","","","","","","","","","","","","","","","","","","","","","",""
"preload","2","1062","0.0-2.0","","","true","false","[]","[]","[]","[{""event"":""fullscreenenter"",""trial"":3,""time"":2662}]","false","","","","","","","","","","","","","","","","",""
"fullscreen","3","3655","0.0-3.0","","","true","","","","","","","","","","","","","","","","","","","","","","",""
"audio-keyboard-response","4","5176","0.0-4.0-0.0","","","","","","","","","","1440","audio/beep_loop.wav"," ","","","","","","","","","","","","","",""
"audio-test","5","25246","0.0-4.0-1.0","","","","","","","","","","null","audio/turtle.mp3","","3","","","","","","","","","","","","",""
"audio-test","6","27930","0.0-4.0-2.0","","","","","","","","","","null","audio/shark.mp3","","2","","","","","","","","","","","","",""
"sailing-instructions","7","61518","0.0-5.0-0.0-0.0","","","","","","","","","","","","","","null","null","null","null","null","null","","","","","","",""
"sailing-trial","8","66206","0.0-5.0-0.0-1.0-0.0","","","","false","","","","","","","","","","3565.300000011921","","null","","null","null","arrowleft","0","null","null","","",""
"sailing-trial","9","68154","0.0-5.0-0.0-1.0-1.0","","","","false","","","","","","","","","","830.6999999880791","","null","","null","null","arrowright","1","null","null","","",""
"sailing-trial","10","69981","0.0-5.0-0.0-1.0-2.0","","","","false","","","","","","","","","","707","","null","","null","null","arrowright","1","null","null","","",""
"sailing-instructions","11","111917","0.0-5.0-0.0-2.0","","","","","","","","","","","","","","null","null","null","null","0","null","","","","","","",""
"sailing-trial","12","117384","0.0-5.0-0.0-3.0-0.0","","","","false","","","","","","","","","","null","","1943","","2","1","null","null","arrowleft","[1,1,1,1]","","",""
"sailing-trial","13","120145","0.0-5.0-0.0-3.0-1.0","","","","false","","","","","","","","","","null","","170","","3","1","null","null","arrowright","[1,1,1,1]","","",""
"sailing-trial","14","123306","0.0-5.0-0.0-3.0-2.0","","","","false","","","","","","","","","","null","","880.8999999761581","","2","0","null","null","arrowleft","[0,0,0,0]","","",""
"sailing-instructions","15","130653","0.0-5.0-0.0-4.0","","","","","","","","","","","","","","null","null","null","null","null","null","","","","","","",""
"sailing-comprehension","16","148813","0.0-5.0-0.0-5.0","","","","","","","","","","14845.300000011921","","","","","","","","","","","","","","[""true"",""true"",""false"",""true""]","0",""
"sailing-instructions","17","208009","0.0-6.0-0.0-0.0","","","","","","","","","","","","","","null","null","null","null","null","null","","","","","","",""
"sailing-comprehension","18","223308","0.0-6.0-0.0-1.0","","","","","","","","","","11309.5","","","","","","","","","","","","","","[""true"",""false"",""true""]","0",""
"sailing-instructions","19","245723","0.0-7.0-0.0-0.0","","","","","","","","","","","","","","null","null","null","null","null","null","","","","","","",""
"sailing-trial","20","250683","0.0-7.0-0.0-1.0-0.0","","","","false","","","","","","","","","","null","","2607","","0","0","null","null","arrowup","[0.2,0.8,0.2,0.8]","","",""
"sailing-trial","21","256152","0.0-7.0-0.0-1.0-1.0","","","","false","","","","","","","","","","null","","3183.300000011921","","1","1","null","null","arrowup","[0.2,0.8,0.2,0.8]","","",""
"sailing-trial","22","259073","0.0-7.0-0.0-1.0-2.0","","","","false","","","","","","","","","","null","","1554.0999999642372","","2","0","null","null","arrowup","[0.2,0.8,0.2,0.8]","","",""
"sailing-trial","23","262741","0.0-7.0-0.0-1.0-3.0","","","","false","","","","","","","","","","null","","1672.800000011921","","3","1","null","null","arrowup","[0.2,0.8,0.2,0.8]","","",""
"sailing-comprehension","24","273403","0.0-7.0-0.0-2.0","","","","","","","","","","8961.899999976158","","","","","","","","","","","","","","[""false""]","0",""
"sailing-instructions","25","283867","0.0-8.0-0.0-0.0","","","","","","","","","","","","","","null","null","null","null","null","null","","","","","","",""
"sailing-comprehension","26","287834","0.0-8.0-0.0-1.0","","","","","","","","","","2809.5","","","","","","","","","","","","","","[""true""]","0",""
"sailing-instructions","27","318752","0.0-9.0-0.0-0.0","","","","","","","","","","","","","","null","null","null","null","null","null","","","","","","",""
"sailing-trial","28","325909","0.0-9.0-0.0-1.0-0.0","","","","false","","","","","","","","","","1433.2999999523163","","1288.5999999642372","","1","1","arrowleft","0","arrowright","[0.2,0.8,0.2,0.8]","","",""
"sailing-trial","29","330137","0.0-9.0-0.0-1.0-1.0","","","","false","","","","","","","","","","1364","","435.60000002384186","","2","0","arrowright","1","arrowleft","[0.2,0.8,0.2,0.8]","","",""
"sailing-trial","30","332898","0.0-9.0-0.0-1.0-2.0","","","","false","","","","","","","","","","null","","1359.300000011921","","0","0","null","null","arrowup","[0.2,0.8,0.2,0.8]","","",""
"sailing-trial","31","336833","0.0-9.0-0.0-1.0-3.0","","","","false","","","","","","","","","","1014.3999999761581","","379.5999999642372","","0","0","arrowleft","0","arrowleft","[0.2,0.8,0.2,0.8]","","",""
"sailing-trial","32","339941","0.0-9.0-0.0-1.0-4.0","","","","false","","","","","","","","","","null","","1126.800000011921","","3","1","null","null","arrowup","[0.2,0.8,0.2,0.8]","","",""
"sailing-trial","33","343942","0.0-9.0-0.0-1.0-5.0","","","","false","","","","","","","","","","755.6999999880791","","468","","2","0","arrowright","1","arrowleft","[0.2,0.8,0.2,0.8]","","",""
"sailing-instructions","34","371216","0.0-10.0","","","","","","","","","","","","","","null","null","null","null","null","null","","","","","","",""
"sailing-trial","35","381329","0.0-11.0-0.0","","","","false","","","","","","","","","","4375.099999964237","","2260.5","","3","0","arrowright","1","arrowright","[0.325,0.675,0.85,0.15]","","",""
"sailing-trial","36","384833","0.0-11.0-1.0","","","","false","","","","","","","","","","null","","1415.4000000357628","","1","1","null","null","arrowup","[0.325,0.675,0.85,0.15]","","",""
"sailing-trial","37","390572","0.0-11.0-2.0","","","","false","","","","","","","","","","822.3999999761581","","1936.5","","3","0","arrowright","1","arrowright","[0.325,0.675,0.85,0.15]","","",""
"sailing-trial","38","395694","0.0-11.0-3.0","","","","false","","","","","","","","","","null","","2795.800000011921","","0","0","null","null","arrowup","[0.325,0.675,0.85,0.15]","","",""
"sailing-trial","39","402330","0.0-11.0-4.0","","","","false","","","","","","","","","","826.1000000238419","","2586.300000011921","","2","1","arrowright","1","arrowleft","[0.325,0.675,0.85,0.15]","","",""
"sailing-trial","40","404630","0.0-11.0-5.0","","","","false","","","","","","","","","","null","","1021.3999999761581","","0","0","null","null","arrowup","[0.325,0.675,0.85,0.15]","","",""
"sailing-trial","41","410039","0.0-11.0-6.0","","","","false","","","","","","","","","","1345.8999999761581","","956.3000000119209","","2","1","arrowright","1","arrowleft","[0.325,0.675,0.85,0.15]","","",""
"sailing-trial","42","414575","0.0-11.0-7.0","","","","false","","","","","","","","","","null","","1904.800000011921","","3","1","null","null","arrowup","[0.325,0.675,0.85,0.15]","","",""
"sailing-trial","43","422604","0.0-11.0-8.0","","","","false","","","","","","","","","","2441.300000011921","","1448.300000011921","","1","1","arrowleft","0","arrowright","[0.325,0.675,0.85,0.15]","","",""
"sailing-trial","44","426757","0.0-11.0-9.0","","","","false","","","","","","","","","","null","","1483.6000000238419","","0","0","null","null","arrowup","[0.325,0.675,0.85,0.15]","","",""
"sailing-trial","45","431647","0.0-11.0-10.0","","","","false","","","","","","","","","","994.8999999761581","","721.7000000476837","","0","1","arrowleft","0","arrowleft","[0.325,0.675,0.85,0.15]","","",""
"sailing-trial","46","435249","0.0-11.0-11.0","","","","false","","","","","","","","","","null","","1656.5","","1","1","null","null","arrowup","[0.325,0.675,0.85,0.15]","","",""
"sailing-trial","47","439269","0.0-11.0-12.0","","","","false","","","","","","","","","","678.6000000238419","","721.6000000238419","","0","0","arrowleft","0","arrowleft","[0.325,0.675,0.85,0.15]","","",""
"sailing-trial","48","442213","0.0-11.0-13.0","","","","false","","","","","","","","","","null","","1666.5","","0","0","null","null","arrowup","[0.325,0.675,0.85,0.15]","","",""
"sailing-trial","49","445622","0.0-11.0-14.0","","","","false","","","","","","","","","","849.8000000119209","","97.20000004768372","","0","0","arrowleft","0","arrowleft","[0.325,0.675,0.85,0.15]","","",""
"sailing-trial","50","449121","0.0-11.0-15.0","","","","false","","","","","","","","","","null","","1618.0999999642372","","3","1","null","null","arrowup","[0.325,0.675,0.85,0.15]","","",""
"sailing-trial","51","453077","0.0-11.0-16.0","","","","false","","","","","","","","","","870","","780.5","","1","0","arrowleft","0","arrowright","[0.325,0.675,0.85,0.15]","","",""
"sailing-trial","52","456580","0.0-11.0-17.0","","","","false","","","","","","","","","","null","","2242.399999976158","","3","0","null","null","arrowup","[0.325,0.675,0.85,0.15]","","",""
"sailing-trial","53","461404","0.0-11.0-18.0","","","","false","","","","","","","","","","882.8000000119209","","812.3000000119209","","1","1","arrowleft","0","arrowright","[0.675,0.325,0.15,0.85]","","",""
"sailing-trial","54","463908","0.0-11.0-19.0","","","","false","","","","","","","","","","null","","1195.300000011921","","0","0","null","null","arrowup","[0.675,0.325,0.15,0.85]","","",""
"sailing-trial","55","467604","0.0-11.0-20.0","","","","false","","","","","","","","","","738.0999999642372","","596.5","","1","0","arrowleft","0","arrowright","[0.675,0.325,0.15,0.85]","","",""
"sailing-trial","56","471500","0.0-11.0-21.0","","","","false","","","","","","","","","","null","","1986.7999999523163","","3","1","null","null","arrowup","[0.675,0.325,0.15,0.85]","","",""
"sailing-trial","57","475755","0.0-11.0-22.0","","","","false","","","","","","","","","","777.6999999880791","","476","","1","1","arrowleft","0","arrowright","[0.675,0.325,0.15,0.85]","","",""
"sailing-trial","58","479781","0.0-11.0-23.0","","","","false","","","","","","","","","","null","","2123.300000011921","","2","0","null","null","arrowup","[0.675,0.325,0.15,0.85]","","",""
"sailing-trial","59","485108","0.0-11.0-24.0","","","","false","","","","","","","","","","1537.699999988079","","1171.300000011921","","1","0","arrowleft","0","arrowright","[0.675,0.325,0.15,0.85]","","",""
"sailing-trial","60","488693","0.0-11.0-25.0","","","","false","","","","","","","","","","null","","1826.4000000357628","","3","1","null","null","arrowup","[0.675,0.325,0.15,0.85]","","",""
"sailing-trial","61","492659","0.0-11.0-26.0","","","","false","","","","","","","","","","801.6999999880791","","515.3000000119209","","1","0","arrowleft","0","arrowright","[0.675,0.325,0.15,0.85]","","",""
"sailing-trial","62","495172","0.0-11.0-27.0","","","","false","","","","","","","","","","null","","1250.7000000476837","","1","0","null","null","arrowup","[0.675,0.325,0.15,0.85]","","",""
"sailing-trial","63","499204","0.0-11.0-28.0","","","","false","","","","","","","","","","706.3999999761581","","174.19999998807907","","0","1","arrowleft","0","arrowleft","[0.675,0.325,0.15,0.85]","","",""
"sailing-trial","64","502308","0.0-11.0-29.0","","","","false","","","","","","","","","","null","","1634","","2","0","null","null","arrowup","[0.675,0.325,0.15,0.85]","","",""
"sailing-trial","65","506979","0.0-11.0-30.0","","","","false","","","","","","","","","","562.3000000119209","","1571.4000000357628","","2","0","arrowright","1","arrowleft","[0.675,0.325,0.15,0.85]","","",""
"sailing-trial","66","511101","0.0-11.0-31.0","","","","false","","","","","","","","","","null","","2226.600000023842","","3","1","null","null","arrowup","[0.675,0.325,0.15,0.85]","","",""
"sailing-trial","67","515677","0.0-11.0-32.0","","","","false","","","","","","","","","","665.5","","433.10000002384186","","3","1","arrowright","1","arrowright","[0.675,0.325,0.15,0.85]","","",""
"sailing-trial","68","519220","0.0-11.0-33.0","","","","false","","","","","","","","","","null","","1513.5999999642372","","1","0","null","null","arrowup","[0.675,0.325,0.15,0.85]","","",""
"sailing-trial","69","523892","0.0-11.0-34.0","","","","false","","","","","","","","","","657.5","","1299.0999999642372","","2","0","arrowright","1","arrowleft","[0.85,0.15,0.325,0.675]","","",""
"sailing-trial","70","526836","0.0-11.0-35.0","","","","false","","","","","","","","","","null","","1330.1000000238419","","1","0","null","null","arrowup","[0.85,0.15,0.325,0.675]","","",""
"sailing-trial","71","531699","0.0-11.0-36.0","","","","false","","","","","","","","","","578","","1603.1000000238419","","3","0","arrowright","1","arrowright","[0.85,0.15,0.325,0.675]","","",""
"sailing-trial","72","534915","0.0-11.0-37.0","","","","false","","","","","","","","","","null","","1890","","3","0","null","null","arrowup","[0.85,0.15,0.325,0.675]","","",""
"sailing-trial","73","539097","0.0-11.0-38.0","","","","false","","","","","","","","","","562.8000000119209","","557.1000000238419","","3","1","arrowright","1","arrowright","[0.85,0.15,0.325,0.675]","","",""
"sailing-trial","74","542308","0.0-11.0-39.0","","","","false","","","","","","","","","","null","","1708.699999988079","","1","0","null","null","arrowup","[0.85,0.15,0.325,0.675]","","",""
"sailing-trial","75","546900","0.0-11.0-40.0","","","","false","","","","","","","","","","658.3000000119209","","914.6000000238419","","3","1","arrowright","1","arrowright","[0.85,0.15,0.325,0.675]","","",""
"sailing-trial","76","549796","0.0-11.0-41.0","","","","false","","","","","","","","","","null","","1105.8999999761581","","3","1","null","null","arrowup","[0.85,0.15,0.325,0.675]","","",""
"sailing-trial","77","553516","0.0-11.0-42.0","","","","false","","","","","","","","","","609.6999999880791","","95.80000001192093","","3","1","arrowright","1","arrowright","[0.85,0.15,0.325,0.675]","","",""
"sailing-trial","78","556024","0.0-11.0-43.0","","","","false","","","","","","","","","","null","","745.3000000119209","","1","1","null","null","arrowup","[0.85,0.15,0.325,0.675]","","",""
"sailing-trial","79","559625","0.0-11.0-44.0","","","","false","","","","","","","","","","541.3999999761581","","285.60000002384186","","3","1","arrowright","1","arrowright","[0.85,0.15,0.325,0.675]","","",""
"sailing-trial","80","562493","0.0-11.0-45.0","","","","false","","","","","","","","","","null","","876.1999999880791","","0","1","null","null","arrowup","[0.85,0.15,0.325,0.675]","","",""
"sailing-trial","81","566427","0.0-11.0-46.0","","","","false","","","","","","","","","","408.19999998807907","","702.1999999880791","","2","1","arrowright","1","arrowleft","[0.85,0.15,0.325,0.675]","","",""
"sailing-trial","82","568659","0.0-11.0-47.0","","","","false","","","","","","","","","","null","","938.7000000476837","","2","0","null","null","arrowup","[0.85,0.15,0.325,0.675]","","",""
"sailing-trial","83","571635","0.0-11.0-48.0","","","","false","","","","","","","","","","610.0999999642372","","67.79999995231628","","2","0","arrowright","1","arrowleft","[0.85,0.15,0.325,0.675]","","",""
"sailing-trial","84","575244","0.0-11.0-49.0","","","","false","","","","","","","","","","null","","1058.199999988079","","0","1","null","null","arrowup","[0.85,0.15,0.325,0.675]","","",""
"sailing-trial","85","579338","0.0-11.0-50.0","","","","false","","","","","","","","","","649.3000000119209","","462.89999997615814","","3","1","arrowright","1","arrowright","[0.85,0.15,0.325,0.675]","","",""
"sailing-trial","86","581251","0.0-11.0-51.0","","","","false","","","","","","","","","","null","","635.4000000357628","","2","0","null","null","arrowup","[0.85,0.15,0.325,0.675]","","",""
"sailing-trial","87","585059","0.0-11.0-52.0","","","","false","","","","","","","","","","641.6999999880791","","108.89999997615814","","3","1","arrowright","1","arrowright","[0.85,0.15,0.325,0.675]","","",""
"sailing-trial","88","587282","0.0-11.0-53.0","","","","false","","","","","","","","","","null","","865.2000000476837","","1","0","null","null","arrowup","[0.85,0.15,0.325,0.675]","","",""
"sailing-trial","89","590865","0.0-11.0-54.0","","","","false","","","","","","","","","","738","","466.30000001192093","","0","0","arrowleft","0","arrowleft","[0.85,0.15,0.325,0.675]","","",""
"sailing-trial","90","592978","0.0-11.0-55.0","","","","false","","","","","","","","","","null","","1027","","2","0","null","null","arrowup","[0.85,0.15,0.325,0.675]","","",""
"sailing-trial","91","598331","0.0-11.0-56.0","","","","false","","","","","","","","","","498.30000001192093","","1987.199999988079","","1","1","arrowleft","0","arrowright","[0.325,0.675,0.85,0.15]","","",""
"sailing-trial","92","600691","0.0-11.0-57.0","","","","false","","","","","","","","","","null","","552.7000000476837","","1","1","null","null","arrowup","[0.325,0.675,0.85,0.15]","","",""
"sailing-trial","93","604973","0.0-11.0-58.0","","","","false","","","","","","","","","","528.5","","877.3000000119209","","1","1","arrowleft","0","arrowright","[0.325,0.675,0.85,0.15]","","",""
"sailing-trial","94","607560","0.0-11.0-59.0","","","","false","","","","","","","","","","null","","742.3999999761581","","1","1","null","null","arrowup","[0.325,0.675,0.85,0.15]","","",""
"sailing-trial","95","611922","0.0-11.0-60.0","","","","false","","","","","","","","","","1323.5","","277.30000001192093","","1","1","arrowleft","0","arrowright","[0.325,0.675,0.85,0.15]","","",""
"sailing-trial","96","614456","0.0-11.0-61.0","","","","false","","","","","","","","","","null","","433.60000002384186","","2","1","null","null","arrowup","[0.325,0.675,0.85,0.15]","","",""
"sailing-trial","97","618034","0.0-11.0-62.0","","","","false","","","","","","","","","","572","","65.09999996423721","","1","0","arrowleft","0","arrowright","[0.325,0.675,0.85,0.15]","","",""
"sailing-trial","98","620645","0.0-11.0-63.0","","","","false","","","","","","","","","","null","","801.6999999880791","","1","1","null","null","arrowup","[0.325,0.675,0.85,0.15]","","",""
"sailing-trial","99","624780","0.0-11.0-64.0","","","","false","","","","","","","","","","687","","635.8999999761581","","2","1","arrowright","1","arrowleft","[0.325,0.675,0.85,0.15]","","",""
"sailing-trial","100","626562","0.0-11.0-65.0","","","","false","","","","","","","","","","null","","455.7000000476837","","2","0","null","null","arrowup","[0.325,0.675,0.85,0.15]","","",""
"sailing-trial","101","630236","0.0-11.0-66.0","","","","false","","","","","","","","","","578.5","","145.69999998807907","","3","1","arrowright","1","arrowright","[0.325,0.675,0.85,0.15]","","",""
"sailing-trial","102","632558","0.0-11.0-67.0","","","","false","","","","","","","","","","null","","504","","0","1","null","null","arrowup","[0.325,0.675,0.85,0.15]","","",""
"sailing-trial","103","636891","0.0-11.0-68.0","","","","false","","","","","","","","","","662.4000000357628","","767.1000000238419","","1","1","arrowleft","0","arrowright","[0.325,0.675,0.85,0.15]","","",""
"sailing-trial","104","639345","0.0-11.0-69.0","","","","false","","","","","","","","","","null","","456.80000001192093","","2","1","null","null","arrowup","[0.325,0.675,0.85,0.15]","","",""
"sailing-trial","105","643107","0.0-11.0-70.0","","","","false","","","","","","","","","","642.1999999880791","","197.19999998807907","","0","1","arrowleft","0","arrowleft","[0.325,0.675,0.85,0.15]","","",""
"sailing-trial","106","645891","0.0-11.0-71.0","","","","false","","","","","","","","","","null","","1152.7999999523163","","0","0","null","null","arrowup","[0.325,0.675,0.85,0.15]","","",""
"sailing-trial","107","650004","0.0-11.0-72.0","","","","false","","","","","","","","","","593.3000000119209","","586.9000000357628","","1","1","arrowleft","0","arrowright","[0.325,0.675,0.85,0.15]","","",""
"sailing-trial","108","652283","0.0-11.0-73.0","","","","false","","","","","","","","","","null","","479.69999998807907","","0","1","null","null","arrowup","[0.325,0.675,0.85,0.15]","","",""
"sailing-trial","109","656565","0.0-11.0-74.0","","","","false","","","","","","","","","","568.6000000238419","","237.39999997615814","","1","1","arrowleft","0","arrowright","[0.325,0.675,0.85,0.15]","","",""
"sailing-trial","110","658530","0.0-11.0-75.0","","","","false","","","","","","","","","","null","","687.4000000357628","","0","0","null","null","arrowup","[0.325,0.675,0.85,0.15]","","",""
"sailing-trial","111","662567","0.0-11.0-76.0","","","","false","","","","","","","","","","625.6000000238419","","539.5999999642372","","0","1","arrowleft","0","arrowleft","[0.15,0.85,0.675,0.325]","","",""
"sailing-trial","112","664882","0.0-11.0-77.0","","","","false","","","","","","","","","","null","","508.60000002384186","","0","0","null","null","arrowup","[0.15,0.85,0.675,0.325]","","",""
"sailing-trial","113","667729","0.0-11.0-78.0","","","","false","","","","","","","","","","481.2000000476837","","19.700000047683716","","3","0","arrowright","1","arrowright","[0.15,0.85,0.675,0.325]","","",""
"sailing-trial","114","670169","0.0-11.0-79.0","","","","false","","","","","","","","","","null","","626.5999999642372","","3","1","null","null","arrowup","[0.15,0.85,0.675,0.325]","","",""
"sailing-trial","115","673910","0.0-11.0-80.0","","","","false","","","","","","","","","","538.3999999761581","","876.6999999880791","","3","0","arrowright","1","arrowright","[0.15,0.85,0.675,0.325]","","",""
"sailing-trial","116","675857","0.0-11.0-81.0","","","","false","","","","","","","","","","null","","557.5999999642372","","3","0","null","null","arrowup","[0.15,0.85,0.675,0.325]","","",""
"sailing-trial","117","679813","0.0-11.0-82.0","","","","false","","","","","","","","","","578.3000000119209","","591.5","","2","1","arrowright","1","arrowleft","[0.15,0.85,0.675,0.325]","","",""
"sailing-trial","118","682481","0.0-11.0-83.0","","","","false","","","","","","","","","","null","","446.4000000357628","","0","0","null","null","arrowup","[0.15,0.85,0.675,0.325]","","",""
"sailing-trial","119","686148","0.0-11.0-84.0","","","","false","","","","","","","","","","530.1000000238419","","96.30000001192093","","2","1","arrowright","1","arrowleft","[0.15,0.85,0.675,0.325]","","",""
"sailing-trial","120","688550","0.0-11.0-85.0","","","","false","","","","","","","","","","null","","639.1000000238419","","1","1","null","null","arrowup","[0.15,0.85,0.675,0.325]","","",""
"sailing-trial","121","691809","0.0-11.0-86.0","","","","false","","","","","","","","","","525","","171.5","","3","0","arrowright","1","arrowright","[0.15,0.85,0.675,0.325]","","",""
"sailing-trial","122","695364","0.0-11.0-87.0","","","","false","","","","","","","","","","null","","1507","","1","1","null","null","arrowup","[0.15,0.85,0.675,0.325]","","",""
"sailing-trial","123","698833","0.0-11.0-88.0","","","","false","","","","","","","","","","815","","339.19999998807907","","3","0","arrowright","1","arrowright","[0.15,0.85,0.675,0.325]","","",""
"sailing-trial","124","700769","0.0-11.0-89.0","","","","false","","","","","","","","","","null","","657.7000000476837","","2","0","null","null","arrowup","[0.15,0.85,0.675,0.325]","","",""
"sailing-trial","125","704822","0.0-11.0-90.0","","","","false","","","","","","","","","","465.80000001192093","","132.39999997615814","","2","1","arrowright","1","arrowleft","[0.15,0.85,0.675,0.325]","","",""
"sailing-trial","126","706944","0.0-11.0-91.0","","","","false","","","","","","","","","","null","","813.3000000119209","","2","0","null","null","arrowup","[0.15,0.85,0.675,0.325]","","",""
"sailing-trial","127","710930","0.0-11.0-92.0","","","","false","","","","","","","","","","499","","348.5","","3","1","arrowright","1","arrowright","[0.85,0.15,0.325,0.675]","","",""
"sailing-trial","128","713264","0.0-11.0-93.0","","","","false","","","","","","","","","","null","","784.3000000119209","","2","0","null","null","arrowup","[0.85,0.15,0.325,0.675]","","",""
"sailing-trial","129","716384","0.0-11.0-94.0","","","","false","","","","","","","","","","498","","250.30000001192093","","2","0","arrowright","1","arrowleft","[0.85,0.15,0.325,0.675]","","",""
"sailing-trial","130","718586","0.0-11.0-95.0","","","","false","","","","","","","","","","null","","514.5","","0","1","null","null","arrowup","[0.85,0.15,0.325,0.675]","","",""
"sailing-trial","131","722360","0.0-11.0-96.0","","","","false","","","","","","","","","","520.3000000119209","","450.89999997615814","","3","1","arrowright","1","arrowright","[0.85,0.15,0.325,0.675]","","",""
"sailing-trial","132","724801","0.0-11.0-97.0","","","","false","","","","","","","","","","null","","602.5","","3","1","null","null","arrowup","[0.85,0.15,0.325,0.675]","","",""
"sailing-trial","133","728575","0.0-11.0-98.0","","","","false","","","","","","","","","","577","","438.60000002384186","","3","1","arrowright","1","arrowright","[0.85,0.15,0.325,0.675]","","",""
"sailing-trial","134","730481","0.0-11.0-99.0","","","","false","","","","","","","","","","null","","562.8000000119209","","3","0","null","null","arrowup","[0.85,0.15,0.325,0.675]","","",""
"sailing-trial","135","734780","0.0-11.0-100.0","","","","false","","","","","","","","","","545.2000000476837","","830.4000000357628","","3","1","arrowright","1","arrowright","[0.85,0.15,0.325,0.675]","","",""
"sailing-trial","136","737621","0.0-11.0-101.0","","","","false","","","","","","","","","","null","","742.5","","0","1","null","null","arrowup","[0.85,0.15,0.325,0.675]","","",""
"sailing-trial","137","742487","0.0-11.0-102.0","","","","false","","","","","","","","","","701.2999999523163","","398.7000000476837","","3","1","arrowright","1","arrowright","[0.85,0.15,0.325,0.675]","","",""
"sailing-trial","138","744623","0.0-11.0-103.0","","","","false","","","","","","","","","","null","","650.6999999880791","","1","0","null","null","arrowup","[0.85,0.15,0.325,0.675]","","",""
"sailing-trial","139","748783","0.0-11.0-104.0","","","","false","","","","","","","","","","1171.199999988079","","17.100000023841858","","3","1","arrowright","1","arrowright","[0.85,0.15,0.325,0.675]","","",""
"sailing-trial","140","752611","0.0-11.0-105.0","","","","false","","","","","","","","","","null","","994.8000000119209","","0","1","null","null","arrowup","[0.85,0.15,0.325,0.675]","","",""
"sailing-trial","141","758511","0.0-11.0-106.0","","","","false","","","","","","","","","","1311.1000000238419","","2198.300000011921","","1","0","arrowleft","0","arrowright","[0.85,0.15,0.325,0.675]","","",""
"sailing-trial","142","760480","0.0-11.0-107.0","","","","false","","","","","","","","","","null","","642.5","","3","0","null","null","arrowup","[0.85,0.15,0.325,0.675]","","",""
"sailing-trial","143","764281","0.0-11.0-108.0","","","","false","","","","","","","","","","418.19999998807907","","523.8999999761581","","0","1","arrowleft","0","arrowleft","[0.85,0.15,0.325,0.675]","","",""
"sailing-trial","144","767443","0.0-11.0-109.0","","","","false","","","","","","","","","","null","","1400.300000011921","","0","1","null","null","arrowup","[0.85,0.15,0.325,0.675]","","",""
"sailing-trial","145","771750","0.0-11.0-110.0","","","","false","","","","","","","","","","495","","883.9000000357628","","0","1","arrowleft","0","arrowleft","[0.85,0.15,0.325,0.675]","","",""
"sailing-trial","146","774178","0.0-11.0-111.0","","","","false","","","","","","","","","","null","","954.8000000119209","","1","0","null","null","arrowup","[0.85,0.15,0.325,0.675]","","",""
"sailing-trial","147","777779","0.0-11.0-112.0","","","","false","","","","","","","","","","399.80000001192093","","401.5","","3","1","arrowright","1","arrowright","[0.675,0.325,0.15,0.85]","","",""
"sailing-trial","148","779631","0.0-11.0-113.0","","","","false","","","","","","","","","","null","","461.80000001192093","","2","0","null","null","arrowup","[0.675,0.325,0.15,0.85]","","",""
"sailing-trial","149","783462","0.0-11.0-114.0","","","","false","","","","","","","","","","546.0999999642372","","191.80000001192093","","3","1","arrowright","1","arrowright","[0.675,0.325,0.15,0.85]","","",""
"sailing-trial","150","786223","0.0-11.0-115.0","","","","false","","","","","","","","","","null","","956","","3","1","null","null","arrowup","[0.675,0.325,0.15,0.85]","","",""
"sailing-trial","151","790051","0.0-11.0-116.0","","","","false","","","","","","","","","","578.0999999642372","","138.5","","3","1","arrowright","1","arrowright","[0.675,0.325,0.15,0.85]","","",""
"sailing-trial","152","793503","0.0-11.0-117.0","","","","false","","","","","","","","","","null","","1902.6000000238419","","3","0","null","null","arrowup","[0.675,0.325,0.15,0.85]","","",""
"sailing-trial","153","797480","0.0-11.0-118.0","","","","false","","","","","","","","","","802.1999999880791","","50.5","","0","1","arrowleft","0","arrowleft","[0.675,0.325,0.15,0.85]","","",""
"sailing-trial","154","800041","0.0-11.0-119.0","","","","false","","","","","","","","","","null","","713","","3","1","null","null","arrowup","[0.675,0.325,0.15,0.85]","","",""
"sailing-trial","155","803439","0.0-11.0-120.0","","","","false","","","","","","","","","","487.80000001192093","","269.80000001192093","","1","0","arrowleft","0","arrowright","[0.675,0.325,0.15,0.85]","","",""
"sailing-trial","156","805534","0.0-11.0-121.0","","","","false","","","","","","","","","","null","","689.6999999880791","","1","0","null","null","arrowup","[0.675,0.325,0.15,0.85]","","",""
"sailing-trial","157","810004","0.0-11.0-122.0","","","","false","","","","","","","","","","818.5","","507.5","","0","1","arrowleft","0","arrowleft","[0.675,0.325,0.15,0.85]","","",""
"sailing-trial","158","812391","0.0-11.0-123.0","","","","false","","","","","","","","","","null","","476.5999999642372","","0","1","null","null","arrowup","[0.675,0.325,0.15,0.85]","","",""
"sailing-trial","159","816113","0.0-11.0-124.0","","","","false","","","","","","","","","","489.9000000357628","","14.800000011920929","","0","1","arrowleft","0","arrowleft","[0.675,0.325,0.15,0.85]","","",""
"sailing-trial","160","818687","0.0-11.0-125.0","","","","false","","","","","","","","","","null","","1023.8000000119209","","1","0","null","null","arrowup","[0.675,0.325,0.15,0.85]","","",""
"sailing-trial","161","822570","0.0-11.0-126.0","","","","false","","","","","","","","","","497.60000002384186","","476.39999997615814","","0","1","arrowleft","0","arrowleft","[0.675,0.325,0.15,0.85]","","",""
"sailing-trial","162","824673","0.0-11.0-127.0","","","","false","","","","","","","","","","null","","679.3999999761581","","2","0","null","null","arrowup","[0.675,0.325,0.15,0.85]","","",""
"sailing-trial","163","829146","0.0-11.0-128.0","","","","false","","","","","","","","","","1361.1000000238419","","191.39999997615814","","0","1","arrowleft","0","arrowleft","[0.675,0.325,0.15,0.85]","","",""
"sailing-trial","164","832783","0.0-11.0-129.0","","","","false","","","","","","","","","","null","","2375.900000035763","","2","0","null","null","arrowup","[0.675,0.325,0.15,0.85]","","",""
"sailing-trial","165","836319","0.0-11.0-130.0","","","","false","","","","","","","","","","898.5999999642372","","20.099999964237213","","0","0","arrowleft","0","arrowleft","[0.675,0.325,0.15,0.85]","","",""
"sailing-trial","166","838703","0.0-11.0-131.0","","","","false","","","","","","","","","","null","","706.5","","0","0","null","null","arrowup","[0.675,0.325,0.15,0.85]","","",""
"sailing-trial","167","842416","0.0-11.0-132.0","","","","false","","","","","","","","","","466.10000002384186","","333.19999998807907","","1","1","arrowleft","0","arrowright","[0.15,0.85,0.675,0.325]","","",""
"sailing-trial","168","844367","0.0-11.0-133.0","","","","false","","","","","","","","","","null","","705.1000000238419","","3","0","null","null","arrowup","[0.15,0.85,0.675,0.325]","","",""
"sailing-trial","169","848085","0.0-11.0-134.0","","","","false","","","","","","","","","","547","","91","","3","1","arrowright","1","arrowright","[0.15,0.85,0.675,0.325]","","",""
"sailing-trial","170","850726","0.0-11.0-135.0","","","","false","","","","","","","","","","null","","572.0999999642372","","2","1","null","null","arrowup","[0.15,0.85,0.675,0.325]","","",""
"sailing-trial","171","854994","0.0-11.0-136.0","","","","false","","","","","","","","","","539.5","","555","","1","1","arrowleft","0","arrowright","[0.15,0.85,0.675,0.325]","","",""
"sailing-trial","172","858463","0.0-11.0-137.0","","","","false","","","","","","","","","","null","","1934.800000011921","","0","0","null","null","arrowup","[0.15,0.85,0.675,0.325]","","",""
"sailing-trial","173","862209","0.0-11.0-138.0","","","","false","","","","","","","","","","546.6000000238419","","162.89999997615814","","3","1","arrowright","1","arrowright","[0.15,0.85,0.675,0.325]","","",""
"sailing-trial","174","864664","0.0-11.0-139.0","","","","false","","","","","","","","","","null","","639.8000000119209","","3","1","null","null","arrowup","[0.15,0.85,0.675,0.325]","","",""
"sailing-trial","175","868080","0.0-11.0-140.0","","","","false","","","","","","","","","","920.5999999642372","","131.39999997615814","","3","0","arrowright","1","arrowright","[0.15,0.85,0.675,0.325]","","",""
"sailing-trial","176","870143","0.0-11.0-141.0","","","","false","","","","","","","","","","null","","737","","0","0","null","null","arrowup","[0.15,0.85,0.675,0.325]","","",""
"sailing-trial","177","873599","0.0-11.0-142.0","","","","false","","","","","","","","","","466.10000002384186","","639","","2","0","arrowright","1","arrowleft","[0.15,0.85,0.675,0.325]","","",""
"sailing-trial","178","875961","0.0-11.0-143.0","","","","false","","","","","","","","","","null","","514.8000000119209","","1","1","null","null","arrowup","[0.15,0.85,0.675,0.325]","","",""
"sailing-trial","179","880136","0.0-11.0-144.0","","","","false","","","","","","","","","","968.1000000238419","","364.5","","1","1","arrowleft","0","arrowright","[0.15,0.85,0.675,0.325]","","",""
"sailing-trial","180","883017","0.0-11.0-145.0","","","","false","","","","","","","","","","null","","521.1999999880791","","2","1","null","null","arrowup","[0.15,0.85,0.675,0.325]","","",""
"sailing-trial","181","886551","0.0-11.0-146.0","","","","false","","","","","","","","","","535.8000000119209","","133","","1","1","arrowleft","0","arrowright","[0.15,0.85,0.675,0.325]","","",""
"sailing-trial","182","889398","0.0-11.0-147.0","","","","false","","","","","","","","","","null","","889.3999999761581","","1","1","null","null","arrowup","[0.15,0.85,0.675,0.325]","","",""
"sailing-trial","183","893180","0.0-11.0-148.0","","","","false","","","","","","","","","","618.5","","111.79999995231628","","1","1","arrowleft","0","arrowright","[0.15,0.85,0.675,0.325]","","",""
"sailing-trial","184","895848","0.0-11.0-149.0","","","","false","","","","","","","","","","null","","676","","2","1","null","null","arrowup","[0.15,0.85,0.675,0.325]","","",""
"sailing-trial","185","898958","0.0-11.0-150.0","","","","false","","","","","","","","","","504.4000000357628","","16.099999964237213","","3","0","arrowright","1","arrowright","[0.325,0.675,0.85,0.15]","","",""
"sailing-trial","186","902623","0.0-11.0-151.0","","","","false","","","","","","","","","","null","","2354.300000011921","","0","0","null","null","arrowup","[0.325,0.675,0.85,0.15]","","",""
"sailing-trial","187","907064","0.0-11.0-152.0","","","","false","","","","","","","","","","1185.800000011921","","159.89999997615814","","2","1","arrowright","1","arrowleft","[0.325,0.675,0.85,0.15]","","",""
"sailing-trial","188","909422","0.0-11.0-153.0","","","","false","","","","","","","","","","null","","1079.699999988079","","3","0","null","null","arrowup","[0.325,0.675,0.85,0.15]","","",""
"sailing-trial","189","913454","0.0-11.0-154.0","","","","false","","","","","","","","","","930","","42.89999997615814","","3","1","arrowright","1","arrowright","[0.325,0.675,0.85,0.15]","","",""
"sailing-trial","190","915693","0.0-11.0-155.0","","","","false","","","","","","","","","","null","","818.1999999880791","","0","0","null","null","arrowup","[0.325,0.675,0.85,0.15]","","",""
"sailing-trial","191","919037","0.0-11.0-156.0","","","","false","","","","","","","","","","803.0999999642372","","131.9000000357628","","0","0","arrowleft","0","arrowleft","[0.325,0.675,0.85,0.15]","","",""
"sailing-trial","192","920878","0.0-11.0-157.0","","","","false","","","","","","","","","","null","","530.8000000119209","","2","0","null","null","arrowup","[0.325,0.675,0.85,0.15]","","",""
"sailing-trial","193","924471","0.0-11.0-158.0","","","","false","","","","","","","","","","322","","417.69999998807907","","1","1","arrowleft","0","arrowright","[0.325,0.675,0.85,0.15]","","",""
"sailing-trial","194","926686","0.0-11.0-159.0","","","","false","","","","","","","","","","null","","328.60000002384186","","1","1","null","null","arrowup","[0.325,0.675,0.85,0.15]","","",""
"sailing-trial","195","929807","0.0-11.0-160.0","","","","false","","","","","","","","","","130.4000000357628","","34.5","","1","1","arrowleft","0","arrowright","[0.325,0.675,0.85,0.15]","","",""
"sailing-trial","196","931725","0.0-11.0-161.0","","","","false","","","","","","","","","","null","","640.6000000238419","","1","0","null","null","arrowup","[0.325,0.675,0.85,0.15]","","",""
"sailing-trial","197","935601","0.0-11.0-162.0","","","","false","","","","","","","","","","819","","667.2999999523163","","1","0","arrowleft","0","arrowright","[0.325,0.675,0.85,0.15]","","",""
"sailing-trial","198","938447","0.0-11.0-163.0","","","","false","","","","","","","","","","null","","1311","","1","0","null","null","arrowup","[0.325,0.675,0.85,0.15]","","",""
"sailing-trial","199","943934","0.0-11.0-164.0","","","","false","","","","","","","","","","609.3000000119209","","1499.5","","0","0","arrowleft","0","arrowleft","[0.325,0.675,0.85,0.15]","","",""
"sailing-trial","200","946541","0.0-11.0-165.0","","","","false","","","","","","","","","","null","","1329.800000011921","","3","0","null","null","arrowup","[0.325,0.675,0.85,0.15]","","",""
"sailing-trial","201","953053","0.0-11.0-166.0","","","","false","","","","","","","","","","1586.199999988079","","989.3999999761581","","3","0","arrowright","1","arrowright","[0.325,0.675,0.85,0.15]","","",""
"sailing-trial","202","955681","0.0-11.0-167.0","","","","false","","","","","","","","","","null","","850.5","","1","1","null","null","arrowup","[0.325,0.675,0.85,0.15]","","",""
"sailing-trial","203","959949","0.0-11.0-168.0","","","","false","","","","","","","","","","542.3000000119209","","797.3000000119209","","3","1","arrowright","1","arrowright","[0.325,0.675,0.85,0.15]","","",""
"sailing-trial","204","961805","0.0-11.0-169.0","","","","false","","","","","","","","","","null","","513.6000000238419","","3","0","null","null","arrowup","[0.325,0.675,0.85,0.15]","","",""
"sailing-trial","205","965981","0.0-11.0-170.0","","","","false","","","","","","","","","","1202.0999999642372","","421","","0","0","arrowleft","0","arrowleft","[0.325,0.675,0.85,0.15]","","",""
"sailing-trial","206","968445","0.0-11.0-171.0","","","","false","","","","","","","","","","null","","658.1999999880791","","3","1","null","null","arrowup","[0.325,0.675,0.85,0.15]","","",""
"sailing-trial","207","972461","0.0-11.0-172.0","","","","false","","","","","","","","","","785.7000000476837","","704.5","","3","0","arrowright","1","arrowright","[0.85,0.15,0.325,0.675]","","",""
"sailing-trial","208","975020","0.0-11.0-173.0","","","","false","","","","","","","","","","null","","962.5","","1","0","null","null","arrowup","[0.85,0.15,0.325,0.675]","","",""
"sailing-trial","209","979358","0.0-11.0-174.0","","","","false","","","","","","","","","","738.3999999761581","","779.6000000238419","","2","1","arrowright","1","arrowleft","[0.85,0.15,0.325,0.675]","","",""
"sailing-trial","210","981566","0.0-11.0-175.0","","","","false","","","","","","","","","","null","","833.3999999761581","","3","0","null","null","arrowup","[0.85,0.15,0.325,0.675]","","",""
"sailing-trial","211","985039","0.0-11.0-176.0","","","","false","","","","","","","","","","705.1999999880791","","108","","2","0","arrowright","1","arrowleft","[0.85,0.15,0.325,0.675]","","",""
"sailing-trial","212","987230","0.0-11.0-177.0","","","","false","","","","","","","","","","null","","911.9000000357628","","3","0","null","null","arrowup","[0.85,0.15,0.325,0.675]","","",""
"sailing-trial","213","991027","0.0-11.0-178.0","","","","false","","","","","","","","","","609.1000000238419","","401.89999997615814","","3","1","arrowright","1","arrowright","[0.85,0.15,0.325,0.675]","","",""
"sailing-trial","214","993575","0.0-11.0-179.0","","","","false","","","","","","","","","","null","","731.5","","0","1","null","null","arrowup","[0.85,0.15,0.325,0.675]","","",""
"sailing-trial","215","997749","0.0-11.0-180.0","","","","false","","","","","","","","","","503.69999998807907","","720.9000000357628","","3","1","arrowright","1","arrowright","[0.85,0.15,0.325,0.675]","","",""
"sailing-trial","216","1000140","0.0-11.0-181.0","","","","false","","","","","","","","","","null","","712.9000000357628","","2","0","null","null","arrowup","[0.85,0.15,0.325,0.675]","","",""
"sailing-trial","217","1003500","0.0-11.0-182.0","","","","false","","","","","","","","","","594.6999999880791","","95.30000001192093","","3","0","arrowright","1","arrowright","[0.85,0.15,0.325,0.675]","","",""
"sailing-trial","218","1005859","0.0-11.0-183.0","","","","false","","","","","","","","","","null","","530.5","","0","1","null","null","arrowup","[0.85,0.15,0.325,0.675]","","",""
"sailing-trial","219","1010368","0.0-11.0-184.0","","","","false","","","","","","","","","","507.9000000357628","","1235","","3","1","arrowright","1","arrowright","[0.85,0.15,0.325,0.675]","","",""
"sailing-trial","220","1012768","0.0-11.0-185.0","","","","false","","","","","","","","","","null","","799","","3","1","null","null","arrowup","[0.85,0.15,0.325,0.675]","","",""
"sailing-trial","221","1015980","0.0-11.0-186.0","","","","false","","","","","","","","","","702.9000000357628","","190.19999998807907","","0","0","arrowleft","0","arrowleft","[0.85,0.15,0.325,0.675]","","",""
"sailing-trial","222","1018508","0.0-11.0-187.0","","","","false","","","","","","","","","","null","","802.4000000357628","","2","0","null","null","arrowup","[0.85,0.15,0.325,0.675]","","",""
"sailing-trial","223","1022620","0.0-11.0-188.0","","","","false","","","","","","","","","","658.5999999642372","","142.4000000357628","","1","0","arrowleft","0","arrowright","[0.85,0.15,0.325,0.675]","","",""
"sailing-trial","224","1024381","0.0-11.0-189.0","","","","false","","","","","","","","","","null","","418.80000001192093","","3","0","null","null","arrowup","[0.85,0.15,0.325,0.675]","","",""
"sailing-trial","225","1027884","0.0-11.0-190.0","","","","false","","","","","","","","","","545.4000000357628","","636.1999999880791","","1","0","arrowleft","0","arrowright","[0.85,0.15,0.325,0.675]","","",""
"sailing-trial","226","1029773","0.0-11.0-191.0","","","","false","","","","","","","","","","null","","626.5","","0","0","null","null","arrowup","[0.85,0.15,0.325,0.675]","","",""
"sailing-trial","227","1033616","0.0-11.0-192.0","","","","false","","","","","","","","","","481.80000001192093","","594.1999999880791","","0","1","arrowleft","0","arrowleft","[0.85,0.15,0.325,0.675]","","",""
"sailing-trial","228","1036190","0.0-11.0-193.0","","","","false","","","","","","","","","","null","","750.3000000119209","","3","1","null","null","arrowup","[0.85,0.15,0.325,0.675]","","",""
"sailing-trial","229","1040019","0.0-11.0-194.0","","","","false","","","","","","","","","","608.6999999880791","","366.4000000357628","","0","1","arrowleft","0","arrowleft","[0.85,0.15,0.325,0.675]","","",""
"sailing-trial","230","1042779","0.0-11.0-195.0","","","","false","","","","","","","","","","null","","939.0999999642372","","0","1","null","null","arrowup","[0.85,0.15,0.325,0.675]","","",""
"sailing-trial","231","1046286","0.0-11.0-196.0","","","","false","","","","","","","","","","627.3000000119209","","19","","0","1","arrowleft","0","arrowleft","[0.675,0.325,0.15,0.85]","","",""
"sailing-trial","232","1049381","0.0-11.0-197.0","","","","false","","","","","","","","","","null","","1215.3999999761581","","3","1","null","null","arrowup","[0.675,0.325,0.15,0.85]","","",""
"sailing-trial","233","1053988","0.0-11.0-198.0","","","","false","","","","","","","","","","1160.9000000357628","","1026.699999988079","","0","0","arrowleft","0","arrowleft","[0.675,0.325,0.15,0.85]","","",""
"sailing-trial","234","1056028","0.0-11.0-199.0","","","","false","","","","","","","","","","null","","761.3999999761581","","3","0","null","null","arrowup","[0.675,0.325,0.15,0.85]","","",""
"sailing-trial","235","1059660","0.0-11.0-200.0","","","","false","","","","","","","","","","546.5","","619.8000000119209","","1","0","arrowleft","0","arrowright","[0.675,0.325,0.15,0.85]","","",""
"sailing-trial","236","1061756","0.0-11.0-201.0","","","","false","","","","","","","","","","null","","690.3000000119209","","1","0","null","null","arrowup","[0.675,0.325,0.15,0.85]","","",""
"sailing-trial","237","1065515","0.0-11.0-202.0","","","","false","","","","","","","","","","962","","513.4000000357628","","1","0","arrowleft","0","arrowright","[0.675,0.325,0.15,0.85]","","",""
"sailing-trial","238","1067419","0.0-11.0-203.0","","","","false","","","","","","","","","","null","","545.8000000119209","","2","0","null","null","arrowup","[0.675,0.325,0.15,0.85]","","",""
"sailing-trial","239","1070975","0.0-11.0-204.0","","","","false","","","","","","","","","","466.2999999523163","","314.30000001192093","","0","1","arrowleft","0","arrowleft","[0.675,0.325,0.15,0.85]","","",""
"sailing-trial","240","1072812","0.0-11.0-205.0","","","","false","","","","","","","","","","null","","445.60000002384186","","2","0","null","null","arrowup","[0.675,0.325,0.15,0.85]","","",""
"sailing-trial","241","1078684","0.0-11.0-206.0","","","","false","","","","","","","","","","1729.5","","765.1999999880791","","3","1","arrowright","1","arrowright","[0.675,0.325,0.15,0.85]","","",""
"sailing-trial","242","1081391","0.0-11.0-207.0","","","","false","","","","","","","","","","null","","896.6999999880791","","0","1","null","null","arrowup","[0.675,0.325,0.15,0.85]","","",""
"sailing-trial","243","1085714","0.0-11.0-208.0","","","","false","","","","","","","","","","590.3000000119209","","309.30000001192093","","3","1","arrowright","1","arrowright","[0.675,0.325,0.15,0.85]","","",""
"sailing-trial","244","1087771","0.0-11.0-209.0","","","","false","","","","","","","","","","null","","699.5","","1","0","null","null","arrowup","[0.675,0.325,0.15,0.85]","","",""
"sailing-trial","245","1091568","0.0-11.0-210.0","","","","false","","","","","","","","","","706.1999999880791","","267","","3","1","arrowright","1","arrowright","[0.675,0.325,0.15,0.85]","","",""
"sailing-trial","246","1094369","0.0-11.0-211.0","","","","false","","","","","","","","","","null","","828.7000000476837","","3","1","null","null","arrowup","[0.675,0.325,0.15,0.85]","","",""
"sailing-trial","247","1099787","0.0-11.0-212.0","","","","false","","","","","","","","","","2444.2999999523163","","566","","3","0","arrowright","1","arrowright","[0.85,0.15,0.325,0.675]","","",""
"sailing-trial","248","1102373","0.0-11.0-213.0","","","","false","","","","","","","","","","null","","769.6999999880791","","2","1","null","null","arrowup","[0.85,0.15,0.325,0.675]","","",""
"sailing-trial","249","1105850","0.0-11.0-214.0","","","","false","","","","","","","","","","648","","397.60000002384186","","2","0","arrowright","1","arrowleft","[0.85,0.15,0.325,0.675]","","",""
"sailing-trial","250","1108123","0.0-11.0-215.0","","","","false","","","","","","","","","","null","","898.6999999880791","","1","0","null","null","arrowup","[0.85,0.15,0.325,0.675]","","",""
"sailing-trial","251","1111643","0.0-11.0-216.0","","","","false","","","","","","","","","","434","","237.9000000357628","","3","1","arrowright","1","arrowright","[0.85,0.15,0.325,0.675]","","",""
"sailing-trial","252","1114269","0.0-11.0-217.0","","","","false","","","","","","","","","","null","","802.1999999880791","","2","1","null","null","arrowup","[0.85,0.15,0.325,0.675]","","",""
"sailing-trial","253","1118191","0.0-11.0-218.0","","","","false","","","","","","","","","","559.1999999880791","","289","","3","1","arrowright","1","arrowright","[0.85,0.15,0.325,0.675]","","",""
"sailing-trial","254","1120606","0.0-11.0-219.0","","","","false","","","","","","","","","","null","","621.3999999761581","","0","1","null","null","arrowup","[0.85,0.15,0.325,0.675]","","",""
"sailing-trial","255","1123562","0.0-11.0-220.0","","","","false","","","","","","","","","","591.3000000119209","","28.80000001192093","","3","0","arrowright","1","arrowright","[0.85,0.15,0.325,0.675]","","",""
"sailing-trial","256","1126221","0.0-11.0-221.0","","","","false","","","","","","","","","","null","","866.3000000119209","","3","1","null","null","arrowup","[0.85,0.15,0.325,0.675]","","",""
"sailing-trial","257","1130142","0.0-11.0-222.0","","","","false","","","","","","","","","","527.6999999880791","","588.6999999880791","","2","1","arrowright","1","arrowleft","[0.85,0.15,0.325,0.675]","","",""
"sailing-trial","258","1132756","0.0-11.0-223.0","","","","false","","","","","","","","","","null","","733.7000000476837","","0","1","null","null","arrowup","[0.85,0.15,0.325,0.675]","","",""
"sailing-trial","259","1136959","0.0-11.0-224.0","","","","false","","","","","","","","","","728.7000000476837","","349.19999998807907","","2","1","arrowright","1","arrowleft","[0.85,0.15,0.325,0.675]","","",""
"sailing-trial","260","1138986","0.0-11.0-225.0","","","","false","","","","","","","","","","null","","685.5","","3","0","null","null","arrowup","[0.85,0.15,0.325,0.675]","","",""
"sailing-trial","261","1143450","0.0-11.0-226.0","","","","false","","","","","","","","","","963.1000000238419","","1029.5","","2","0","arrowright","1","arrowleft","[0.85,0.15,0.325,0.675]","","",""
"sailing-trial","262","1146108","0.0-11.0-227.0","","","","false","","","","","","","","","","null","","882.6000000238419","","2","1","null","null","arrowup","[0.85,0.15,0.325,0.675]","","",""
"sailing-trial","263","1149962","0.0-11.0-228.0","","","","false","","","","","","","","","","640.4000000357628","","440.5","","0","0","arrowleft","0","arrowleft","[0.675,0.325,0.15,0.85]","","",""
"sailing-trial","264","1152964","0.0-11.0-229.0","","","","false","","","","","","","","","","null","","834","","3","1","null","null","arrowup","[0.675,0.325,0.15,0.85]","","",""
"sailing-trial","265","1157472","0.0-11.0-230.0","","","","false","","","","","","","","","","856.5","","741.6000000238419","","0","1","arrowleft","0","arrowleft","[0.675,0.325,0.15,0.85]","","",""
"sailing-trial","266","1160259","0.0-11.0-231.0","","","","false","","","","","","","","","","null","","860.3999999761581","","0","1","null","null","arrowup","[0.675,0.325,0.15,0.85]","","",""
"sailing-trial","267","1164821","0.0-11.0-232.0","","","","false","","","","","","","","","","617.5","","1083.5","","0","1","arrowleft","0","arrowleft","[0.675,0.325,0.15,0.85]","","",""
"sailing-trial","268","1167794","0.0-11.0-233.0","","","","false","","","","","","","","","","null","","886.8999999761581","","3","1","null","null","arrowup","[0.675,0.325,0.15,0.85]","","",""
"sailing-trial","269","1173490","0.0-11.0-234.0","","","","false","","","","","","","","","","905.5","","1648.199999988079","","0","1","arrowleft","0","arrowleft","[0.675,0.325,0.15,0.85]","","",""
"sailing-trial","270","1176345","0.0-11.0-235.0","","","","false","","","","","","","","","","null","","985.3000000119209","","2","1","null","null","arrowup","[0.675,0.325,0.15,0.85]","","",""
"sailing-trial","271","1180159","0.0-11.0-236.0","","","","false","","","","","","","","","","771.1000000238419","","159.69999998807907","","0","1","arrowleft","0","arrowleft","[0.675,0.325,0.15,0.85]","","",""
"sailing-trial","272","1182730","0.0-11.0-237.0","","","","false","","","","","","","","","","null","","1020.9000000357628","","2","0","null","null","arrowup","[0.675,0.325,0.15,0.85]","","",""
"sailing-trial","273","1186815","0.0-11.0-238.0","","","","false","","","","","","","","","","657.6999999880791","","386.69999998807907","","0","1","arrowleft","0","arrowleft","[0.675,0.325,0.15,0.85]","","",""
"sailing-trial","274","1189456","0.0-11.0-239.0","","","","false","","","","","","","","","","null","","765.1000000238419","","0","1","null","null","arrowup","[0.675,0.325,0.15,0.85]","","",""
"sailing-trial","275","1193524","0.0-11.0-240.0","","","","false","","","","","","","","","","699.4000000357628","","523.2999999523163","","0","1","arrowleft","0","arrowleft","[0.675,0.325,0.15,0.85]","","",""
"sailing-trial","276","1195433","0.0-11.0-241.0","","","","false","","","","","","","","","","null","","600.3000000119209","","2","0","null","null","arrowup","[0.675,0.325,0.15,0.85]","","",""
"sailing-trial","277","1199540","0.0-11.0-242.0","","","","false","","","","","","","","","","882.5","","347.5","","0","1","arrowleft","0","arrowleft","[0.675,0.325,0.15,0.85]","","",""
"sailing-trial","278","1202410","0.0-11.0-243.0","","","","false","","","","","","","","","","null","","904","","2","0","null","null","arrowup","[0.675,0.325,0.15,0.85]","","",""
"sailing-trial","279","1207489","0.0-11.0-244.0","","","","false","","","","","","","","","","690.3000000119209","","1521.5","","0","1","arrowleft","0","arrowleft","[0.85,0.15,0.325,0.675]","","",""
"sailing-trial","280","1209930","0.0-11.0-245.0","","","","false","","","","","","","","","","null","","794.5999999642372","","1","0","null","null","arrowup","[0.85,0.15,0.325,0.675]","","",""
"sailing-trial","281","1213481","0.0-11.0-246.0","","","","false","","","","","","","","","","738.0999999642372","","508.19999998807907","","0","0","arrowleft","0","arrowleft","[0.85,0.15,0.325,0.675]","","",""
"sailing-trial","282","1215498","0.0-11.0-247.0","","","","false","","","","","","","","","","null","","691.1000000238419","","1","0","null","null","arrowup","[0.85,0.15,0.325,0.675]","","",""
"sailing-trial","283","1219600","0.0-11.0-248.0","","","","false","","","","","","","","","","913.8000000119209","","273.80000001192093","","1","1","arrowleft","0","arrowright","[0.85,0.15,0.325,0.675]","","",""
"sailing-trial","284","1222308","0.0-11.0-249.0","","","","false","","","","","","","","","","null","","651.4000000357628","","0","1","null","null","arrowup","[0.85,0.15,0.325,0.675]","","",""
"sailing-trial","285","1225881","0.0-11.0-250.0","","","","false","","","","","","","","","","839.6000000238419","","450","","1","0","arrowleft","0","arrowright","[0.85,0.15,0.325,0.675]","","",""
"sailing-trial","286","1227832","0.0-11.0-251.0","","","","false","","","","","","","","","","null","","675","","2","0","null","null","arrowup","[0.85,0.15,0.325,0.675]","","",""
"sailing-trial","287","1232178","0.0-11.0-252.0","","","","false","","","","","","","","","","531.1999999880791","","712.4000000357628","","3","1","arrowright","1","arrowright","[0.85,0.15,0.325,0.675]","","",""
"sailing-trial","288","1234056","0.0-11.0-253.0","","","","false","","","","","","","","","","null","","553.5999999642372","","1","0","null","null","arrowup","[0.85,0.15,0.325,0.675]","","",""
"sailing-trial","289","1237001","0.0-11.0-254.0","","","","false","","","","","","","","","","562.8999999761581","","51","","3","0","arrowright","1","arrowright","[0.85,0.15,0.325,0.675]","","",""
"sailing-trial","290","1239674","0.0-11.0-255.0","","","","false","","","","","","","","","","null","","914","","3","1","null","null","arrowup","[0.85,0.15,0.325,0.675]","","",""
"sailing-trial","291","1242905","0.0-11.0-256.0","","","","false","","","","","","","","","","673.1999999880791","","236","","2","0","arrowright","1","arrowleft","[0.85,0.15,0.325,0.675]","","",""
"sailing-trial","292","1245193","0.0-11.0-257.0","","","","false","","","","","","","","","","null","","738.8000000119209","","2","0","null","null","arrowup","[0.85,0.15,0.325,0.675]","","",""
"sailing-trial","293","1251024","0.0-11.0-258.0","","","","false","","","","","","","","","","2626.300000011921","","174.4000000357628","","3","1","arrowright","1","arrowright","[0.85,0.15,0.325,0.675]","","",""
"sailing-trial","294","1253932","0.0-11.0-259.0","","","","false","","","","","","","","","","null","","683","","0","1","null","null","arrowup","[0.85,0.15,0.325,0.675]","","",""
"sailing-trial","295","1257385","0.0-11.0-260.0","","","","false","","","","","","","","","","558.8000000119209","","49.5","","3","0","arrowright","1","arrowright","[0.675,0.325,0.15,0.85]","","",""
"sailing-trial","296","1259853","0.0-11.0-261.0","","","","false","","","","","","","","","","null","","674","","2","1","null","null","arrowup","[0.675,0.325,0.15,0.85]","","",""
"sailing-trial","297","1263775","0.0-11.0-262.0","","","","false","","","","","","","","","","654","","49.299999952316284","","3","1","arrowright","1","arrowright","[0.675,0.325,0.15,0.85]","","",""
"sailing-trial","298","1265560","0.0-11.0-263.0","","","","false","","","","","","","","","","null","","572.4000000357628","","2","0","null","null","arrowup","[0.675,0.325,0.15,0.85]","","",""
"sailing-trial","299","1269458","0.0-11.0-264.0","","","","false","","","","","","","","","","658.5","","389.2999999523163","","3","1","arrowright","1","arrowright","[0.675,0.325,0.15,0.85]","","",""
"sailing-trial","300","1271497","0.0-11.0-265.0","","","","false","","","","","","","","","","null","","713.1999999880791","","1","0","null","null","arrowup","[0.675,0.325,0.15,0.85]","","",""
"sailing-trial","301","1274984","0.0-11.0-266.0","","","","false","","","","","","","","","","610.1000000238419","","589.6999999880791","","2","0","arrowright","1","arrowleft","[0.675,0.325,0.15,0.85]","","",""
"sailing-trial","302","1277500","0.0-11.0-267.0","","","","false","","","","","","","","","","null","","722.7999999523163","","1","1","null","null","arrowup","[0.675,0.325,0.15,0.85]","","",""
"sailing-trial","303","1280904","0.0-11.0-268.0","","","","false","","","","","","","","","","606.5","","251.5","","2","0","arrowright","1","arrowleft","[0.675,0.325,0.15,0.85]","","",""
"sailing-trial","304","1283096","0.0-11.0-269.0","","","","false","","","","","","","","","","null","","755.0999999642372","","1","0","null","null","arrowup","[0.675,0.325,0.15,0.85]","","",""
"sailing-trial","305","1287024","0.0-11.0-270.0","","","","false","","","","","","","","","","594.3000000119209","","52.30000001192093","","3","1","arrowright","1","arrowright","[0.675,0.325,0.15,0.85]","","",""
"sailing-trial","306","1289143","0.0-11.0-271.0","","","","false","","","","","","","","","","null","","586.6999999880791","","0","0","null","null","arrowup","[0.675,0.325,0.15,0.85]","","",""
"sailing-trial","307","1292706","0.0-11.0-272.0","","","","false","","","","","","","","","","691.3000000119209","","14.899999976158142","","3","1","arrowright","1","arrowright","[0.675,0.325,0.15,0.85]","","",""
"sailing-trial","308","1294521","0.0-11.0-273.0","","","","false","","","","","","","","","","null","","504.39999997615814","","2","0","null","null","arrowup","[0.675,0.325,0.15,0.85]","","",""
"sailing-trial","309","1298424","0.0-11.0-274.0","","","","false","","","","","","","","","","1105.199999988079","","498.10000002384186","","3","0","arrowright","1","arrowright","[0.675,0.325,0.15,0.85]","","",""
"sailing-trial","310","1300842","0.0-11.0-275.0","","","","false","","","","","","","","","","null","","626.2000000476837","","1","1","null","null","arrowup","[0.675,0.325,0.15,0.85]","","",""
"sailing-trial","311","1303768","0.0-11.0-276.0","","","","false","","","","","","","","","","528.7000000476837","","157.80000001192093","","3","0","arrowright","1","arrowright","[0.85,0.15,0.325,0.675]","","",""
"sailing-trial","312","1305704","0.0-11.0-277.0","","","","false","","","","","","","","","","null","","658.6000000238419","","2","0","null","null","arrowup","[0.85,0.15,0.325,0.675]","","",""
"sailing-trial","313","1309144","0.0-11.0-278.0","","","","false","","","","","","","","","","642.6999999880791","","542.8999999761581","","2","0","arrowright","1","arrowleft","[0.85,0.15,0.325,0.675]","","",""
"sailing-trial","314","1311579","0.0-11.0-279.0","","","","false","","","","","","","","","","null","","690.3999999761581","","3","1","null","null","arrowup","[0.85,0.15,0.325,0.675]","","",""
"sailing-trial","315","1315673","0.0-11.0-280.0","","","","false","","","","","","","","","","559.3000000119209","","770.0999999642372","","0","1","arrowleft","0","arrowleft","[0.85,0.15,0.325,0.675]","","",""
"sailing-trial","316","1318140","0.0-11.0-281.0","","","","false","","","","","","","","","","null","","689.2000000476837","","3","1","null","null","arrowup","[0.85,0.15,0.325,0.675]","","",""
"sailing-trial","317","1322475","0.0-11.0-282.0","","","","false","","","","","","","","","","541.8000000119209","","972.8000000119209","","0","1","arrowleft","0","arrowleft","[0.85,0.15,0.325,0.675]","","",""
"sailing-trial","318","1324408","0.0-11.0-283.0","","","","false","","","","","","","","","","null","","622.6999999880791","","3","0","null","null","arrowup","[0.85,0.15,0.325,0.675]","","",""
"sailing-trial","319","1328464","0.0-11.0-284.0","","","","false","","","","","","","","","","1234.300000011921","","12.900000035762787","","0","1","arrowleft","0","arrowleft","[0.85,0.15,0.325,0.675]","","",""
"sailing-trial","320","1330360","0.0-11.0-285.0","","","","false","","","","","","","","","","null","","634","","1","0","null","null","arrowup","[0.85,0.15,0.325,0.675]","","",""
"sailing-trial","321","1333752","0.0-11.0-286.0","","","","false","","","","","","","","","","721.7000000476837","","197.5","","1","0","arrowleft","0","arrowright","[0.85,0.15,0.325,0.675]","","",""
"sailing-trial","322","1335624","0.0-11.0-287.0","","","","false","","","","","","","","","","null","","594.1000000238419","","3","0","null","null","arrowup","[0.85,0.15,0.325,0.675]","","",""
"sailing-trial","323","1339722","0.0-11.0-288.0","","","","false","","","","","","","","","","529.7000000476837","","811.4000000357628","","0","1","arrowleft","0","arrowleft","[0.85,0.15,0.325,0.675]","","",""
"sailing-trial","324","1341802","0.0-11.0-289.0","","","","false","","","","","","","","","","null","","128.10000002384186","","3","1","null","null","arrowup","[0.85,0.15,0.325,0.675]","","",""
"sailing-trial","325","1345244","0.0-11.0-290.0","","","","false","","","","","","","","","","527.6999999880791","","92.5","","0","1","arrowleft","0","arrowleft","[0.85,0.15,0.325,0.675]","","",""
"sailing-trial","326","1347575","0.0-11.0-291.0","","","","false","","","","","","","","","","null","","573.3000000119209","","1","0","null","null","arrowup","[0.85,0.15,0.325,0.675]","","",""
"sailing-trial","327","1350926","0.0-11.0-292.0","","","","false","","","","","","","","","","546.9000000357628","","15.099999964237213","","0","1","arrowleft","0","arrowleft","[0.85,0.15,0.325,0.675]","","",""
"sailing-trial","328","1353446","0.0-11.0-293.0","","","","false","","","","","","","","","","null","","539.5999999642372","","0","1","null","null","arrowup","[0.85,0.15,0.325,0.675]","","",""
"sailing-trial","329","1358167","0.0-11.0-294.0","","","","false","","","","","","","","","","547","","1138.8999999761581","","0","0","arrowleft","0","arrowleft","[0.675,0.325,0.15,0.85]","","",""
"sailing-trial","330","1360542","0.0-11.0-295.0","","","","false","","","","","","","","","","null","","530.6999999880791","","1","1","null","null","arrowup","[0.675,0.325,0.15,0.85]","","",""
"sailing-trial","331","1364477","0.0-11.0-296.0","","","","false","","","","","","","","","","458.7999999523163","","640.4000000357628","","3","1","arrowright","1","arrowright","[0.675,0.325,0.15,0.85]","","",""
"sailing-trial","332","1367184","0.0-11.0-297.0","","","","false","","","","","","","","","","null","","907.8000000119209","","3","1","null","null","arrowup","[0.675,0.325,0.15,0.85]","","",""
"sailing-trial","333","1370865","0.0-11.0-298.0","","","","false","","","","","","","","","","584.3999999761581","","240.70000004768372","","3","1","arrowright","1","arrowright","[0.675,0.325,0.15,0.85]","","",""
"sailing-trial","334","1372885","0.0-11.0-299.0","","","","false","","","","","","","","","","null","","631.3000000119209","","2","0","null","null","arrowup","[0.675,0.325,0.15,0.85]","","",""
"sailing-trial","335","1377160","0.0-11.0-300.0","","","","false","","","","","","","","","","866.8999999761581","","427.80000001192093","","3","1","arrowright","1","arrowright","[0.675,0.325,0.15,0.85]","","",""
"sailing-trial","336","1379481","0.0-11.0-301.0","","","","false","","","","","","","","","","null","","528.0999999642372","","1","1","null","null","arrowup","[0.675,0.325,0.15,0.85]","","",""
"sailing-trial","337","1383069","0.0-11.0-302.0","","","","false","","","","","","","","","","639.1999999880791","","81.5","","3","1","arrowright","1","arrowright","[0.675,0.325,0.15,0.85]","","",""
"sailing-trial","338","1385158","0.0-11.0-303.0","","","","false","","","","","","","","","","null","","619.3999999761581","","2","0","null","null","arrowup","[0.675,0.325,0.15,0.85]","","",""
"sailing-trial","339","1388912","0.0-11.0-304.0","","","","false","","","","","","","","","","785.8999999761581","","156.4000000357628","","3","1","arrowright","1","arrowright","[0.675,0.325,0.15,0.85]","","",""
"sailing-trial","340","1392326","0.0-11.0-305.0","","","","false","","","","","","","","","","null","","1640.4000000357628","","3","1","null","null","arrowup","[0.675,0.325,0.15,0.85]","","",""
"sailing-trial","341","1395806","0.0-11.0-306.0","","","","false","","","","","","","","","","562.3000000119209","","100.80000001192093","","3","1","arrowright","1","arrowright","[0.675,0.325,0.15,0.85]","","",""
"sailing-trial","342","1397958","0.0-11.0-307.0","","","","false","","","","","","","","","","null","","937.6000000238419","","0","0","null","null","arrowup","[0.675,0.325,0.15,0.85]","","",""
"sailing-trial","343","1401503","0.0-11.0-308.0","","","","false","","","","","","","","","","642","","75.10000002384186","","3","1","arrowright","1","arrowright","[0.675,0.325,0.15,0.85]","","",""
"sailing-trial","344","1404356","0.0-11.0-309.0","","","","false","","","","","","","","","","null","","1048.6000000238419","","0","1","null","null","arrowup","[0.675,0.325,0.15,0.85]","","",""
"sailing-trial","345","1408134","0.0-11.0-310.0","","","","false","","","","","","","","","","883.6999999880791","","85.59999996423721","","3","0","arrowright","1","arrowright","[0.325,0.675,0.85,0.15]","","",""
"sailing-trial","346","1410959","0.0-11.0-311.0","","","","false","","","","","","","","","","null","","961.5","","2","1","null","null","arrowup","[0.325,0.675,0.85,0.15]","","",""
"sailing-trial","347","1416668","0.0-11.0-312.0","","","","false","","","","","","","","","","872.6999999880791","","539.0999999642372","","2","1","arrowright","1","arrowleft","[0.325,0.675,0.85,0.15]","","",""
"sailing-trial","348","1419228","0.0-11.0-313.0","","","","false","","","","","","","","","","null","","747.8000000119209","","3","1","null","null","arrowup","[0.325,0.675,0.85,0.15]","","",""
"sailing-trial","349","1422789","0.0-11.0-314.0","","","","false","","","","","","","","","","667.2000000476837","","307.2999999523163","","3","0","arrowright","1","arrowright","[0.325,0.675,0.85,0.15]","","",""
"sailing-trial","350","1426138","0.0-11.0-315.0","","","","false","","","","","","","","","","null","","1379.2000000476837","","1","1","null","null","arrowup","[0.325,0.675,0.85,0.15]","","",""
"sailing-trial","351","1430526","0.0-11.0-316.0","","","","false","","","","","","","","","","558.5","","624.5999999642372","","3","1","arrowright","1","arrowright","[0.325,0.675,0.85,0.15]","","",""
"sailing-trial","352","1433340","0.0-11.0-317.0","","","","false","","","","","","","","","","null","","698.5","","1","1","null","null","arrowup","[0.325,0.675,0.85,0.15]","","",""
"sailing-trial","353","1437195","0.0-11.0-318.0","","","","false","","","","","","","","","","539.8999999761581","","411.19999998807907","","2","1","arrowright","1","arrowleft","[0.325,0.675,0.85,0.15]","","",""
"sailing-trial","354","1440064","0.0-11.0-319.0","","","","false","","","","","","","","","","null","","989.8999999761581","","2","1","null","null","arrowup","[0.325,0.675,0.85,0.15]","","",""
"sailing-trial","355","1443879","0.0-11.0-320.0","","","","false","","","","","","","","","","873.1000000238419","","298.80000001192093","","2","1","arrowright","1","arrowleft","[0.325,0.675,0.85,0.15]","","",""
"sailing-trial","356","1446311","0.0-11.0-321.0","","","","false","","","","","","","","","","null","","881","","2","0","null","null","arrowup","[0.325,0.675,0.85,0.15]","","",""
"sailing-trial","357","1451627","0.0-11.0-322.0","","","","false","","","","","","","","","","1521.5","","480.9000000357628","","0","1","arrowleft","0","arrowleft","[0.325,0.675,0.85,0.15]","","",""
"sailing-trial","358","1454121","0.0-11.0-323.0","","","","false","","","","","","","","","","null","","493.19999998807907","","2","1","null","null","arrowup","[0.325,0.675,0.85,0.15]","","",""
"sailing-trial","359","1456902","0.0-11.0-324.0","","","","false","","","","","","","","","","512.1000000238419","","11.699999988079071","","0","0","arrowleft","0","arrowleft","[0.325,0.675,0.85,0.15]","","",""
"sailing-trial","360","1458822","0.0-11.0-325.0","","","","false","","","","","","","","","","null","","642.6999999880791","","1","0","null","null","arrowup","[0.325,0.675,0.85,0.15]","","",""
"sailing-trial","361","1462470","0.0-11.0-326.0","","","","false","","","","","","","","","","754.5999999642372","","465.60000002384186","","1","0","arrowleft","0","arrowright","[0.325,0.675,0.85,0.15]","","",""
"sailing-trial","362","1464229","0.0-11.0-327.0","","","","false","","","","","","","","","","null","","482.69999998807907","","3","0","null","null","arrowup","[0.325,0.675,0.85,0.15]","","",""
"sailing-trial","363","1467829","0.0-11.0-328.0","","","","false","","","","","","","","","","914.8999999761581","","490.7000000476837","","0","0","arrowleft","0","arrowleft","[0.15,0.85,0.675,0.325]","","",""
"sailing-trial","364","1471273","0.0-11.0-329.0","","","","false","","","","","","","","","","null","","1683","","3","1","null","null","arrowup","[0.15,0.85,0.675,0.325]","","",""
"sailing-trial","365","1478453","0.0-11.0-330.0","","","","false","","","","","","","","","","1678.2999999523163","","3007.599999964237","","3","0","arrowright","1","arrowright","[0.15,0.85,0.675,0.325]","","",""
"sailing-trial","366","1482229","0.0-11.0-331.0","","","","false","","","","","","","","","","null","","1618.800000011921","","1","0","null","null","arrowup","[0.15,0.85,0.675,0.325]","","",""
"sailing-trial","367","1487439","0.0-11.0-332.0","","","","false","","","","","","","","","","1266.9000000357628","","700","","0","1","arrowleft","0","arrowleft","[0.15,0.85,0.675,0.325]","","",""
"sailing-trial","368","1490774","0.0-11.0-333.0","","","","false","","","","","","","","","","null","","856.0999999642372","","2","1","null","null","arrowup","[0.15,0.85,0.675,0.325]","","",""
"sailing-trial","369","1496900","0.0-11.0-334.0","","","","false","","","","","","","","","","2257.300000011921","","1462.1000000238419","","3","0","arrowright","1","arrowright","[0.15,0.85,0.675,0.325]","","",""
"sailing-trial","370","1499476","0.0-11.0-335.0","","","","false","","","","","","","","","","null","","738.6000000238419","","1","0","null","null","arrowup","[0.15,0.85,0.675,0.325]","","",""
"sailing-trial","371","1503165","0.0-11.0-336.0","","","","false","","","","","","","","","","482.80000001192093","","110.30000001192093","","2","1","arrowright","1","arrowleft","[0.15,0.85,0.675,0.325]","","",""
"sailing-trial","372","1505094","0.0-11.0-337.0","","","","false","","","","","","","","","","null","","585.8000000119209","","2","0","null","null","arrowup","[0.15,0.85,0.675,0.325]","","",""
"sailing-trial","373","1509420","0.0-11.0-338.0","","","","false","","","","","","","","","","609.0999999642372","","838.3999999761581","","2","1","arrowright","1","arrowleft","[0.15,0.85,0.675,0.325]","","",""
"sailing-trial","374","1512648","0.0-11.0-339.0","","","","false","","","","","","","","","","null","","1162.699999988079","","1","1","null","null","arrowup","[0.15,0.85,0.675,0.325]","","",""
"sailing-trial","375","1516693","0.0-11.0-340.0","","","","false","","","","","","","","","","847.5","","683.6999999880791","","2","0","arrowright","1","arrowleft","[0.15,0.85,0.675,0.325]","","",""
"sailing-trial","376","1519845","0.0-11.0-341.0","","","","false","","","","","","","","","","null","","1281.300000011921","","2","0","null","null","arrowup","[0.15,0.85,0.675,0.325]","","",""
"sailing-trial","377","1528014","0.0-11.0-342.0","","","","false","","","","","","","","","","2849.800000011921","","741.7000000476837","","2","1","arrowright","1","arrowleft","[0.15,0.85,0.675,0.325]","","",""
"sailing-trial","378","1530827","0.0-11.0-343.0","","","","false","","","","","","","","","","null","","904.8999999761581","","2","1","null","null","arrowup","[0.15,0.85,0.675,0.325]","","",""
"sailing-trial","379","1535348","0.0-11.0-344.0","","","","false","","","","","","","","","","1259.9000000357628","","762.5999999642372","","2","0","arrowright","1","arrowleft","[0.15,0.85,0.675,0.325]","","",""
"sailing-trial","380","1537300","0.0-11.0-345.0","","","","false","","","","","","","","","","null","","594.3999999761581","","3","0","null","null","arrowup","[0.15,0.85,0.675,0.325]","","",""
"sailing-trial","381","1540725","0.0-11.0-346.0","","","","false","","","","","","","","","","482.19999998807907","","522.8999999761581","","3","0","arrowright","1","arrowright","[0.325,0.675,0.85,0.15]","","",""
"sailing-trial","382","1544286","0.0-11.0-347.0","","","","false","","","","","","","","","","null","","497.80000001192093","","2","1","null","null","arrowup","[0.325,0.675,0.85,0.15]","","",""
"sailing-trial","383","1549348","0.0-11.0-348.0","","","","false","","","","","","","","","","1272.5999999642372","","1248.5","","0","0","arrowleft","0","arrowleft","[0.325,0.675,0.85,0.15]","","",""
"sailing-trial","384","1551350","0.0-11.0-349.0","","","","false","","","","","","","","","","null","","706.6000000238419","","0","0","null","null","arrowup","[0.325,0.675,0.85,0.15]","","",""
"sailing-trial","385","1555076","0.0-11.0-350.0","","","","false","","","","","","","","","","496.69999998807907","","384.30000001192093","","1","1","arrowleft","0","arrowright","[0.325,0.675,0.85,0.15]","","",""
"sailing-trial","386","1557925","0.0-11.0-351.0","","","","false","","","","","","","","","","null","","770.5","","0","0","null","null","arrowup","[0.325,0.675,0.85,0.15]","","",""
"sailing-trial","387","1563306","0.0-11.0-352.0","","","","false","","","","","","","","","","1394.300000011921","","659.3000000119209","","0","1","arrowleft","0","arrowleft","[0.325,0.675,0.85,0.15]","","",""
"sailing-trial","388","1566454","0.0-11.0-353.0","","","","false","","","","","","","","","","null","","1020.2999999523163","","1","1","null","null","arrowup","[0.325,0.675,0.85,0.15]","","",""
"sailing-trial","389","1571562","0.0-11.0-354.0","","","","false","","","","","","","","","","1264.5","","352.2000000476837","","0","1","arrowleft","0","arrowleft","[0.325,0.675,0.85,0.15]","","",""
"sailing-trial","390","1575389","0.0-11.0-355.0","","","","false","","","","","","","","","","null","","1339.8999999761581","","2","1","null","null","arrowup","[0.325,0.675,0.85,0.15]","","",""
"sailing-trial","391","1580325","0.0-11.0-356.0","","","","false","","","","","","","","","","1465.5","","575.5","","0","1","arrowleft","0","arrowleft","[0.325,0.675,0.85,0.15]","","",""
"sailing-trial","392","1582548","0.0-11.0-357.0","","","","false","","","","","","","","","","null","","640.8000000119209","","1","0","null","null","arrowup","[0.325,0.675,0.85,0.15]","","",""
"sailing-trial","393","1585860","0.0-11.0-358.0","","","","false","","","","","","","","","","658.6999999880791","","146.60000002384186","","0","0","arrowleft","0","arrowleft","[0.325,0.675,0.85,0.15]","","",""
"sailing-trial","394","1588131","0.0-11.0-359.0","","","","false","","","","","","","","","","null","","850.1999999880791","","3","0","null","null","arrowup","[0.325,0.675,0.85,0.15]","","",""
"sailing-trial","395","1592611","0.0-11.0-360.0","","","","false","","","","","","","","","","1107","","138.9000000357628","","3","0","arrowright","1","arrowright","[0.325,0.675,0.85,0.15]","","",""
"sailing-trial","396","1595187","0.0-11.0-361.0","","","","false","","","","","","","","","","null","","626.6000000238419","","3","0","null","null","arrowup","[0.325,0.675,0.85,0.15]","","",""
"sailing-trial","397","1598880","0.0-11.0-362.0","","","","false","","","","","","","","","","514.9000000357628","","81","","3","1","arrowright","1","arrowright","[0.15,0.85,0.675,0.325]","","",""
"sailing-trial","398","1600906","0.0-11.0-363.0","","","","false","","","","","","","","","","null","","246","","2","1","null","null","arrowup","[0.15,0.85,0.675,0.325]","","",""
"sailing-trial","399","1604644","0.0-11.0-364.0","","","","false","","","","","","","","","","636.0999999642372","","494.80000001192093","","3","0","arrowright","1","arrowright","[0.15,0.85,0.675,0.325]","","",""
"sailing-trial","400","1607001","0.0-11.0-365.0","","","","false","","","","","","","","","","null","","593.7999999523163","","2","1","null","null","arrowup","[0.15,0.85,0.675,0.325]","","",""
"sailing-trial","401","1610035","0.0-11.0-366.0","","","","false","","","","","","","","","","524.9000000357628","","172.30000001192093","","3","0","arrowright","1","arrowright","[0.15,0.85,0.675,0.325]","","",""
"sailing-trial","402","1612003","0.0-11.0-367.0","","","","false","","","","","","","","","","null","","674.6999999880791","","0","0","null","null","arrowup","[0.15,0.85,0.675,0.325]","","",""
"sailing-trial","403","1615253","0.0-11.0-368.0","","","","false","","","","","","","","","","546.9000000357628","","434.19999998807907","","0","0","arrowleft","0","arrowleft","[0.15,0.85,0.675,0.325]","","",""
"sailing-trial","404","1617044","0.0-11.0-369.0","","","","false","","","","","","","","","","null","","512.5","","0","0","null","null","arrowup","[0.15,0.85,0.675,0.325]","","",""
"sailing-trial","405","1620886","0.0-11.0-370.0","","","","false","","","","","","","","","","658.3000000119209","","379.30000001192093","","2","1","arrowright","1","arrowleft","[0.15,0.85,0.675,0.325]","","",""
"sailing-trial","406","1622739","0.0-11.0-371.0","","","","false","","","","","","","","","","null","","575.6999999880791","","0","0","null","null","arrowup","[0.15,0.85,0.675,0.325]","","",""
"sailing-trial","407","1626794","0.0-11.0-372.0","","","","false","","","","","","","","","","578.5","","603.7999999523163","","2","1","arrowright","1","arrowleft","[0.15,0.85,0.675,0.325]","","",""
"sailing-trial","408","1629315","0.0-11.0-373.0","","","","false","","","","","","","","","","null","","731.5999999642372","","3","1","null","null","arrowup","[0.15,0.85,0.675,0.325]","","",""
"sailing-trial","409","1632997","0.0-11.0-374.0","","","","false","","","","","","","","","","529.7999999523163","","351","","2","1","arrowright","1","arrowleft","[0.15,0.85,0.675,0.325]","","",""
"sailing-trial","410","1635398","0.0-11.0-375.0","","","","false","","","","","","","","","","null","","544.0999999642372","","1","1","null","null","arrowup","[0.15,0.85,0.675,0.325]","","",""
"sailing-trial","411","1639252","0.0-11.0-376.0","","","","false","","","","","","","","","","574.8000000119209","","500.80000001192093","","2","1","arrowright","1","arrowleft","[0.15,0.85,0.675,0.325]","","",""
"sailing-trial","412","1641733","0.0-11.0-377.0","","","","false","","","","","","","","","","null","","673.1999999880791","","1","1","null","null","arrowup","[0.15,0.85,0.675,0.325]","","",""
"sailing-trial","413","1645139","0.0-11.0-378.0","","","","false","","","","","","","","","","880","","258.5","","2","0","arrowright","1","arrowleft","[0.15,0.85,0.675,0.325]","","",""
"sailing-trial","414","1647709","0.0-11.0-379.0","","","","false","","","","","","","","","","null","","754.1999999880791","","0","1","null","null","arrowup","[0.15,0.85,0.675,0.325]","","",""
"sailing-trial","415","1651283","0.0-11.0-380.0","","","","false","","","","","","","","","","536.3000000119209","","246.19999998807907","","2","1","arrowright","1","arrowleft","[0.15,0.85,0.675,0.325]","","",""
"sailing-trial","416","1653139","0.0-11.0-381.0","","","","false","","","","","","","","","","null","","530.6000000238419","","0","0","null","null","arrowup","[0.15,0.85,0.675,0.325]","","",""
"sailing-trial","417","1656872","0.0-11.0-382.0","","","","false","","","","","","","","","","595.1000000238419","","398.2999999523163","","2","1","arrowright","1","arrowleft","[0.325,0.675,0.85,0.15]","","",""
"sailing-trial","418","1659058","0.0-11.0-383.0","","","","false","","","","","","","","","","null","","845.3000000119209","","0","0","null","null","arrowup","[0.325,0.675,0.85,0.15]","","",""
"sailing-trial","419","1662660","0.0-11.0-384.0","","","","false","","","","","","","","","","706.8999999761581","","97.5","","2","1","arrowright","1","arrowleft","[0.325,0.675,0.85,0.15]","","",""
"sailing-trial","420","1664930","0.0-11.0-385.0","","","","false","","","","","","","","","","null","","993.1000000238419","","0","0","null","null","arrowup","[0.325,0.675,0.85,0.15]","","",""
"sailing-trial","421","1668916","0.0-11.0-386.0","","","","false","","","","","","","","","","578.6000000238419","","397.10000002384186","","2","1","arrowright","1","arrowleft","[0.325,0.675,0.85,0.15]","","",""
"sailing-trial","422","1671303","0.0-11.0-387.0","","","","false","","","","","","","","","","null","","577.1000000238419","","1","1","null","null","arrowup","[0.325,0.675,0.85,0.15]","","",""
"sailing-trial","423","1674852","0.0-11.0-388.0","","","","false","","","","","","","","","","542","","205.30000001192093","","2","1","arrowright","1","arrowleft","[0.325,0.675,0.85,0.15]","","",""
"sailing-trial","424","1677466","0.0-11.0-389.0","","","","false","","","","","","","","","","null","","817.1999999880791","","2","1","null","null","arrowup","[0.325,0.675,0.85,0.15]","","",""
"sailing-trial","425","1681187","0.0-11.0-390.0","","","","false","","","","","","","","","","586.8999999761581","","259.10000002384186","","2","1","arrowright","1","arrowleft","[0.325,0.675,0.85,0.15]","","",""
"sailing-trial","426","1685361","0.0-11.0-391.0","","","","false","","","","","","","","","","null","","1058","","1","1","null","null","arrowup","[0.325,0.675,0.85,0.15]","","",""
"sailing-trial","427","1689511","0.0-11.0-392.0","","","","false","","","","","","","","","","1123.5","","101.5","","2","1","arrowright","1","arrowleft","[0.325,0.675,0.85,0.15]","","",""
"sailing-trial","428","1691570","0.0-11.0-393.0","","","","false","","","","","","","","","","null","","749.6000000238419","","0","0","null","null","arrowup","[0.325,0.675,0.85,0.15]","","",""
"sailing-trial","429","1694994","0.0-11.0-394.0","","","","false","","","","","","","","","","818.8000000119209","","352","","3","0","arrowright","1","arrowright","[0.325,0.675,0.85,0.15]","","",""
"sailing-trial","430","1696849","0.0-11.0-395.0","","","","false","","","","","","","","","","null","","594.5999999642372","","0","0","null","null","arrowup","[0.325,0.675,0.85,0.15]","","",""
"sailing-trial","431","1700393","0.0-11.0-396.0","","","","false","","","","","","","","","","467","","411.69999998807907","","2","1","arrowright","1","arrowleft","[0.325,0.675,0.85,0.15]","","",""
"sailing-trial","432","1702274","0.0-11.0-397.0","","","","false","","","","","","","","","","null","","555.5999999642372","","3","0","null","null","arrowup","[0.325,0.675,0.85,0.15]","","",""
"sailing-trial","433","1706677","0.0-11.0-398.0","","","","false","","","","","","","","","","562.1999999880791","","564.5","","2","1","arrowright","1","arrowleft","[0.325,0.675,0.85,0.15]","","",""
"sailing-trial","434","1708930","0.0-11.0-399.0","","","","false","","","","","","","","","","null","","464.2000000476837","","0","1","null","null","arrowup","[0.325,0.675,0.85,0.15]","","",""
"instructions","435","1717701","0.0-12.0","","","","","","","","","","8770.399999976158","","","","","","","","","","","","","","","","[{""page_index"":0,""viewing_time"":8769.899999976158}]"
"survey-debrief","436","1753002","0.0-13.0","","","","","","","","","","35300.69999998808","","","","","","","","","","","","","","{""difficulty"":""4"",""fun"":""1"",""clarity"":""2"",""strategy"":""started to write but stopped when it appeared too random"",""feedback"":""""}","",""
