"trial_type","trial_index","time_elapsed","internal_node_id","value","metadata","success","timeout","failed_images","failed_audio","failed_video","browser_interaction","low_quality","rt","stimulus","response","button_pressed","island_rt","island_response","boat_rt","boat_response","boat","reward","island_key","island","boat_key","reward_probabilities","responses","num_errors","view_history"
"pavlovia","0","17","0.0-0.0","","","","","","","","","","","","","","","","","","","","","","","","","",""
"call-function","1","18","0.0-1.0","","{""task_version"":""sailing_part1_v1"",""task_condition"":""good"",""boats"":[""C"",""D"",""B"",""A""],""boats_demo"":[""F"",""E"",""G"",""H""],""islands"":[""A"",""B""],""subject_id"":""15195"",""age"":""21"",""gender"":""Other""}","","","","","","","","","","","","","","","","","","","","","","","",""
"preload","2","3496","0.0-2.0","","","true","false","[]","[]","[]","[{""event"":""focus"",""trial"":0,""time"":1},{""event"":""fullscreenenter"",""trial"":3,""time"":7990}]","false","","","","","","","","","","","","","","","","",""
"fullscreen","3","8750","0.0-3.0","","","true","","","","","","","","","","","","","","","","","","","","","","",""
"audio-keyboard-response","4","11457","0.0-4.0-0.0","","","","","","","","","","2452.6077097505668","audio/beep_loop.wav"," ","","","","","","","","","","","","","",""
"audio-test","5","13198","0.0-4.0-1.0","","","","","","","","","","null","audio/turtle.mp3","","3","","","","","","","","","","","","",""
"audio-test","6","15543","0.0-4.0-2.0","","","","","","","","","","null","audio/shark.mp3","","2","","","","","","","","","","","","",""
"sailing-instructions","7","69862","0.0-5.0-0.0-0.0","","","","","","","","","","","","","","null","null","null","null","null","null","","","","","","",""
"sailing-trial","8","73631","0.0-5.0-0.0-1.0-0.0","","","","false","","","","","","","","","","2627","","null","","null","null","arrowleft","0","null","null","","",""
"sailing-trial","9","75860","0.0-5.0-0.0-1.0-1.0","","","","false","","","","","","","","","","1083","","null","","null","null","arrowright","1","null","null","","",""
"sailing-trial","10","78900","0.0-5.0-0.0-1.0-2.0","","","","false","","","","","","","","","","1889","","null","","null","null","arrowright","1","null","null","","",""
"sailing-instructions","11","120617","0.0-5.0-0.0-2.0","","","","","","","","","","","","","","null","null","null","null","0","null","","","","","","",""
"sailing-trial","12","125555","0.0-5.0-0.0-3.0-0.0","","","","false","","","","","","","","","","null","","1995","","2","1","null","null","arrowleft","[1,1,1,1]","","",""
"sailing-trial","13","129159","0.0-5.0-0.0-3.0-1.0","","","","false","","","","","","","","","","null","","959","","3","1","null","null","arrowright","[1,1,1,1]","","",""
"sailing-trial","14","133523","0.0-5.0-0.0-3.0-2.0","","","","false","","","","","","","","","","null","","944","","3","0","null","null","arrowright","[0,0,0,0]","","",""
"sailing-instructions","15","140817","0.0-5.0-0.0-4.0","","","","","","","","","","","","","","null","null","null","null","null","null","","","","","","",""
"sailing-comprehension","16","154701","0.0-5.0-0.0-5.0","","","","","","","","","","9737","","","","","","","","","","","","","","[""true"",""true"",""false"",""true""]","0",""
"sailing-instructions","17","216484","0.0-6.0-0.0-0.0","","","","","","","","","","","","","","null","null","null","null","null","null","","","","","","",""
"sailing-comprehension","18","228291","0.0-6.0-0.0-1.0","","","","","","","","","","9946","","","","","","","","","","","","","","[""true"",""false"",""true""]","0",""
"sailing-instructions","19","242294","0.0-7.0-0.0-0.0","","","","","","","","","","","","","","null","null","null","null","null","null","","","","","","",""
"sailing-trial","20","247503","0.0-7.0-0.0-1.0-0.0","","","","false","","","","","","","","","","null","","3424","","0","0","null","null","arrowup","[0.2,0.8,0.2,0.8]","","",""
"sailing-trial","21","251537","0.0-7.0-0.0-1.0-1.0","","","","false","","","","","","","","","","null","","1983","","1","1","null","null","arrowup","[0.2,0.8,0.2,0.8]","","",""
"sailing-trial","22","254071","0.0-7.0-0.0-1.0-2.0","","","","false","","","","","","","","","","null","","1148","","2","0","null","null","arrowup","[0.2,0.8,0.2,0.8]","","",""
"sailing-trial","23","256608","0.0-7.0-0.0-1.0-3.0","","","","false","","","","","","","","","","null","","791","","3","1","null","null","arrowup","[0.2,0.8,0.2,0.8]","","",""
"sailing-comprehension","24","263391","0.0-7.0-0.0-2.0","","","","","","","","","","3705","","","","","","","","","","","","","","[""false""]","0",""
"sailing-instructions","25","273508","0.0-8.0-0.0-0.0","","","","","","","","","","","","","","null","null","null","null","null","null","","","","","","",""
"sailing-comprehension","26","277730","0.0-8.0-0.0-1.0","","","","","","","","","","3262","","","","","","","","","","","","","","[""true""]","0",""
"sailing-instructions","27","310159","0.0-9.0-0.0-0.0","","","","","","","","","","","","","","null","null","null","null","null","null","","","","","","",""
"sailing-trial","28","315643","0.0-9.0-0.0-1.0-0.0","","","","false","","","","","","","","","","1352","","845","","3","1","arrowright","1","arrowright","[0.2,0.8,0.2,0.8]","","",""
"sailing-trial","29","319608","0.0-9.0-0.0-1.0-1.0","","","","false","","","","","","","","","","606","","550","","2","0","arrowright","1","arrowleft","[0.2,0.8,0.2,0.8]","","",""
"sailing-trial","30","322386","0.0-9.0-0.0-1.0-2.0","","","","false","","","","","","","","","","null","","1192","","0","0","null","null","arrowup","[0.2,0.8,0.2,0.8]","","",""
"sailing-trial","31","327209","0.0-9.0-0.0-1.0-3.0","","","","false","","","","","","","","","","1431","","59","","1","1","arrowleft","0","arrowright","[0.2,0.8,0.2,0.8]","","",""
"sailing-trial","32","330607","0.0-9.0-0.0-1.0-4.0","","","","false","","","","","","","","","","null","","1313","","3","1","null","null","arrowup","[0.2,0.8,0.2,0.8]","","",""
"sailing-trial","33","334543","0.0-9.0-0.0-1.0-5.0","","","","false","","","","","","","","","","702","","147","","2","1","arrowright","1","arrowleft","[0.2,0.8,0.2,0.8]","","",""
"sailing-instructions","34","366587","0.0-10.0","","","","","","","","","","","","","","null","null","null","null","null","null","","","","","","",""
"sailing-trial","35","370260","0.0-11.0-0.0","","","","false","","","","","","","","","","991","","217","","3","0","arrowright","1","arrowright","[0.325,0.675,0.85,0.15]","","",""
"sailing-trial","36","372607","0.0-11.0-1.0","","","","false","","","","","","","","","","null","","1164","","0","0","null","null","arrowup","[0.325,0.675,0.85,0.15]","","",""
"sailing-trial","37","376850","0.0-11.0-2.0","","","","false","","","","","","","","","","853","","504","","2","1","arrowright","1","arrowleft","[0.325,0.675,0.85,0.15]","","",""
"sailing-trial","38","379851","0.0-11.0-3.0","","","","false","","","","","","","","","","null","","1087","","0","1","null","null","arrowup","[0.325,0.675,0.85,0.15]","","",""
"sailing-trial","39","384173","0.0-11.0-4.0","","","","false","","","","","","","","","","760","","546","","1","1","arrowleft","0","arrowright","[0.325,0.675,0.85,0.15]","","",""
"sailing-trial","40","387250","0.0-11.0-5.0","","","","false","","","","","","","","","","null","","1000","","2","1","null","null","arrowup","[0.325,0.675,0.85,0.15]","","",""
"sailing-trial","41","391634","0.0-11.0-6.0","","","","false","","","","","","","","","","697","","1028","","3","0","arrowright","1","arrowright","[0.325,0.675,0.85,0.15]","","",""
"sailing-trial","42","394000","0.0-11.0-7.0","","","","false","","","","","","","","","","null","","1011","","3","0","null","null","arrowup","[0.325,0.675,0.85,0.15]","","",""
"sailing-trial","43","397850","0.0-11.0-8.0","","","","false","","","","","","","","","","1021","","329","","2","0","arrowright","1","arrowleft","[0.325,0.675,0.85,0.15]","","",""
"sailing-trial","44","400247","0.0-11.0-9.0","","","","false","","","","","","","","","","null","","950","","0","0","null","null","arrowup","[0.325,0.675,0.85,0.15]","","",""
"sailing-trial","45","403830","0.0-11.0-10.0","","","","false","","","","","","","","","","678","","63","","1","1","arrowleft","0","arrowright","[0.325,0.675,0.85,0.15]","","",""
"sailing-trial","46","406685","0.0-11.0-11.0","","","","false","","","","","","","","","","null","","928","","2","1","null","null","arrowup","[0.325,0.675,0.85,0.15]","","",""
"sailing-trial","47","410877","0.0-11.0-12.0","","","","false","","","","","","","","","","790","","419","","1","1","arrowleft","0","arrowright","[0.325,0.675,0.85,0.15]","","",""
"sailing-trial","48","414040","0.0-11.0-13.0","","","","false","","","","","","","","","","null","","1614","","0","0","null","null","arrowup","[0.325,0.675,0.85,0.15]","","",""
"sailing-trial","49","418200","0.0-11.0-14.0","","","","false","","","","","","","","","","747","","322","","2","1","arrowright","1","arrowleft","[0.325,0.675,0.85,0.15]","","",""
"sailing-trial","50","420984","0.0-11.0-15.0","","","","false","","","","","","","","","","null","","827","","3","1","null","null","arrowup","[0.325,0.675,0.85,0.15]","","",""
"sailing-trial","51","424517","0.0-11.0-16.0","","","","false","","","","","","","","","","929","","293","","1","0","arrowleft","0","arrowright","[0.325,0.675,0.85,0.15]","","",""
"sailing-trial","52","427084","0.0-11.0-17.0","","","","false","","","","","","","","","","null","","1153","","0","0","null","null","arrowup","[0.325,0.675,0.85,0.15]","","",""
"sailing-trial","53","430762","0.0-11.0-18.0","","","","false","","","","","","","","","","633","","48","","2","1","arrowright","1","arrowleft","[0.325,0.675,0.85,0.15]","","",""
"sailing-trial","54","433569","0.0-11.0-19.0","","","","false","","","","","","","","","","null","","863","","0","1","null","null","arrowup","[0.325,0.675,0.85,0.15]","","",""
"sailing-trial","55","437613","0.0-11.0-20.0","","","","false","","","","","","","","","","615","","437","","2","1","arrowright","1","arrowleft","[0.15,0.85,0.675,0.325]","","",""
"sailing-trial","56","440136","0.0-11.0-21.0","","","","false","","","","","","","","","","null","","1126","","3","0","null","null","arrowup","[0.15,0.85,0.675,0.325]","","",""
"sailing-trial","57","444085","0.0-11.0-22.0","","","","false","","","","","","","","","","980","","20","","2","1","arrowright","1","arrowleft","[0.15,0.85,0.675,0.325]","","",""
"sailing-trial","58","446438","0.0-11.0-23.0","","","","false","","","","","","","","","","null","","872","","2","0","null","null","arrowup","[0.15,0.85,0.675,0.325]","","",""
"sailing-trial","59","450646","0.0-11.0-24.0","","","","false","","","","","","","","","","715","","423","","1","1","arrowleft","0","arrowright","[0.15,0.85,0.675,0.325]","","",""
"sailing-trial","60","452741","0.0-11.0-25.0","","","","false","","","","","","","","","","null","","684","","3","0","null","null","arrowup","[0.15,0.85,0.675,0.325]","","",""
"sailing-trial","61","456318","0.0-11.0-26.0","","","","false","","","","","","","","","","590","","67","","1","1","arrowleft","0","arrowright","[0.15,0.85,0.675,0.325]","","",""
"sailing-trial","62","459133","0.0-11.0-27.0","","","","false","","","","","","","","","","null","","866","","1","1","null","null","arrowup","[0.15,0.85,0.675,0.325]","","",""
"sailing-trial","63","462650","0.0-11.0-28.0","","","","false","","","","","","","","","","581","","144","","1","1","arrowleft","0","arrowright","[0.15,0.85,0.675,0.325]","","",""
"sailing-trial","64","464862","0.0-11.0-29.0","","","","false","","","","","","","","","","null","","875","","0","0","null","null","arrowup","[0.15,0.85,0.675,0.325]","","",""
"sailing-trial","65","468062","0.0-11.0-30.0","","","","false","","","","","","","","","","544","","4","","1","1","arrowleft","0","arrowright","[0.15,0.85,0.675,0.325]","","",""
"sailing-trial","66","470548","0.0-11.0-31.0","","","","false","","","","","","","","","","null","","719","","1","1","null","null","arrowup","[0.15,0.85,0.675,0.325]","","",""
"sailing-trial","67","474268","0.0-11.0-32.0","","","","false","","","","","","","","","","534","","418","","1","1","arrowleft","0","arrowright","[0.15,0.85,0.675,0.325]","","",""
"sailing-trial","68","477009","0.0-11.0-33.0","","","","false","","","","","","","","","","null","","821","","3","1","null","null","arrowup","[0.15,0.85,0.675,0.325]","","",""
"sailing-trial","69","481667","0.0-11.0-34.0","","","","false","","","","","","","","","","1338","","550","","2","1","arrowright","1","arrowleft","[0.15,0.85,0.675,0.325]","","",""
"sailing-trial","70","484295","0.0-11.0-35.0","","","","false","","","","","","","","","","null","","640","","1","1","null","null","arrowup","[0.15,0.85,0.675,0.325]","","",""
"sailing-trial","71","488020","0.0-11.0-36.0","","","","false","","","","","","","","","","680","","238","","1","1","arrowleft","0","arrowright","[0.15,0.85,0.675,0.325]","","",""
"sailing-trial","72","490139","0.0-11.0-37.0","","","","false","","","","","","","","","","null","","766","","0","0","null","null","arrowup","[0.15,0.85,0.675,0.325]","","",""
"sailing-trial","73","493879","0.0-11.0-38.0","","","","false","","","","","","","","","","701","","316","","1","1","arrowleft","0","arrowright","[0.15,0.85,0.675,0.325]","","",""
"sailing-trial","74","496787","0.0-11.0-39.0","","","","false","","","","","","","","","","null","","1089","","1","1","null","null","arrowup","[0.15,0.85,0.675,0.325]","","",""
"sailing-trial","75","500633","0.0-11.0-40.0","","","","false","","","","","","","","","","618","","511","","1","1","arrowleft","0","arrowright","[0.15,0.85,0.675,0.325]","","",""
"sailing-trial","76","502732","0.0-11.0-41.0","","","","false","","","","","","","","","","null","","762","","0","0","null","null","arrowup","[0.15,0.85,0.675,0.325]","","",""
"sailing-trial","77","506486","0.0-11.0-42.0","","","","false","","","","","","","","","","752","","49","","1","1","arrowleft","0","arrowright","[0.325,0.675,0.85,0.15]","","",""
"sailing-trial","78","509413","0.0-11.0-43.0","","","","false","","","","","","","","","","null","","957","","2","1","null","null","arrowup","[0.325,0.675,0.85,0.15]","","",""
"sailing-trial","79","512385","0.0-11.0-44.0","","","","false","","","","","","","","","","571","","60","","1","0","arrowleft","0","arrowright","[0.325,0.675,0.85,0.15]","","",""
"sailing-trial","80","515021","0.0-11.0-45.0","","","","false","","","","","","","","","","null","","858","","1","1","null","null","arrowup","[0.325,0.675,0.85,0.15]","","",""
"sailing-trial","81","518404","0.0-11.0-46.0","","","","false","","","","","","","","","","548","","82","","1","1","arrowleft","0","arrowright","[0.325,0.675,0.85,0.15]","","",""
"sailing-trial","82","521049","0.0-11.0-47.0","","","","false","","","","","","","","","","null","","826","","2","1","null","null","arrowup","[0.325,0.675,0.85,0.15]","","",""
"sailing-trial","83","524878","0.0-11.0-48.0","","","","false","","","","","","","","","","563","","379","","1","1","arrowleft","0","arrowright","[0.325,0.675,0.85,0.15]","","",""
"sailing-trial","84","527813","0.0-11.0-49.0","","","","false","","","","","","","","","","null","","1148","","1","1","null","null","arrowup","[0.325,0.675,0.85,0.15]","","",""
"sailing-trial","85","531258","0.0-11.0-50.0","","","","false","","","","","","","","","","573","","9","","1","1","arrowleft","0","arrowright","[0.325,0.675,0.85,0.15]","","",""
"sailing-trial","86","533441","0.0-11.0-51.0","","","","false","","","","","","","","","","null","","915","","3","0","null","null","arrowup","[0.325,0.675,0.85,0.15]","","",""
"sailing-trial","87","536322","0.0-11.0-52.0","","","","false","","","","","","","","","","674","","29","","1","0","arrowleft","0","arrowright","[0.325,0.675,0.85,0.15]","","",""
"sailing-trial","88","538372","0.0-11.0-53.0","","","","false","","","","","","","","","","null","","848","","3","0","null","null","arrowup","[0.325,0.675,0.85,0.15]","","",""
"sailing-trial","89","542837","0.0-11.0-54.0","","","","false","","","","","","","","","","689","","25","","1","1","arrowleft","0","arrowright","[0.325,0.675,0.85,0.15]","","",""
"sailing-trial","90","545172","0.0-11.0-55.0","","","","false","","","","","","","","","","null","","831","","3","0","null","null","arrowup","[0.325,0.675,0.85,0.15]","","",""
"sailing-trial","91","548722","0.0-11.0-56.0","","","","false","","","","","","","","","","626","","138","","1","1","arrowleft","0","arrowright","[0.325,0.675,0.85,0.15]","","",""
"sailing-trial","92","550825","0.0-11.0-57.0","","","","false","","","","","","","","","","null","","800","","0","0","null","null","arrowup","[0.325,0.675,0.85,0.15]","","",""
"sailing-trial","93","554080","0.0-11.0-58.0","","","","false","","","","","","","","","","630","","239","","1","0","arrowleft","0","arrowright","[0.325,0.675,0.85,0.15]","","",""
"sailing-trial","94","557240","0.0-11.0-59.0","","","","false","","","","","","","","","","null","","1091","","0","1","null","null","arrowup","[0.325,0.675,0.85,0.15]","","",""
"sailing-trial","95","560957","0.0-11.0-60.0","","","","false","","","","","","","","","","846","","47","","1","1","arrowleft","0","arrowright","[0.325,0.675,0.85,0.15]","","",""
"sailing-trial","96","563089","0.0-11.0-61.0","","","","false","","","","","","","","","","null","","806","","3","0","null","null","arrowup","[0.325,0.675,0.85,0.15]","","",""
"sailing-trial","97","567122","0.0-11.0-62.0","","","","false","","","","","","","","","","849","","435","","1","1","arrowleft","0","arrowright","[0.15,0.85,0.675,0.325]","","",""
"sailing-trial","98","569410","0.0-11.0-63.0","","","","false","","","","","","","","","","null","","636","","1","1","null","null","arrowup","[0.15,0.85,0.675,0.325]","","",""
"sailing-trial","99","572714","0.0-11.0-64.0","","","","false","","","","","","","","","","531","","3","","1","1","arrowleft","0","arrowright","[0.15,0.85,0.675,0.325]","","",""
"sailing-trial","100","575126","0.0-11.0-65.0","","","","false","","","","","","","","","","null","","897","","3","0","null","null","arrowup","[0.15,0.85,0.675,0.325]","","",""
"sailing-trial","101","578624","0.0-11.0-66.0","","","","false","","","","","","","","","","595","","23","","1","1","arrowleft","0","arrowright","[0.15,0.85,0.675,0.325]","","",""
"sailing-trial","102","580786","0.0-11.0-67.0","","","","false","","","","","","","","","","null","","833","","3","0","null","null","arrowup","[0.15,0.85,0.675,0.325]","","",""
"sailing-trial","103","584754","0.0-11.0-68.0","","","","false","","","","","","","","","","705","","369","","1","1","arrowleft","0","arrowright","[0.15,0.85,0.675,0.325]","","",""
"sailing-trial","104","587267","0.0-11.0-69.0","","","","false","","","","","","","","","","null","","1193","","0","0","null","null","arrowup","[0.15,0.85,0.675,0.325]","","",""
"sailing-trial","105","591571","0.0-11.0-70.0","","","","false","","","","","","","","","","749","","351","","1","1","arrowleft","0","arrowright","[0.15,0.85,0.675,0.325]","","",""
"sailing-trial","106","594282","0.0-11.0-71.0","","","","false","","","","","","","","","","null","","1302","","0","0","null","null","arrowup","[0.15,0.85,0.675,0.325]","","",""
"sailing-trial","107","598415","0.0-11.0-72.0","","","","false","","","","","","","","","","668","","483","","1","1","arrowleft","0","arrowright","[0.15,0.85,0.675,0.325]","","",""
"sailing-trial","108","601470","0.0-11.0-73.0","","","","false","","","","","","","","","","null","","917","","0","1","null","null","arrowup","[0.15,0.85,0.675,0.325]","","",""
"sailing-trial","109","605748","0.0-11.0-74.0","","","","false","","","","","","","","","","1116","","462","","1","1","arrowleft","0","arrowright","[0.15,0.85,0.675,0.325]","","",""
"sailing-trial","110","608332","0.0-11.0-75.0","","","","false","","","","","","","","","","null","","950","","2","1","null","null","arrowup","[0.15,0.85,0.675,0.325]","","",""
"sailing-trial","111","612126","0.0-11.0-76.0","","","","false","","","","","","","","","","607","","60","","1","1","arrowleft","0","arrowright","[0.15,0.85,0.675,0.325]","","",""
"sailing-trial","112","614678","0.0-11.0-77.0","","","","false","","","","","","","","","","null","","807","","1","1","null","null","arrowup","[0.15,0.85,0.675,0.325]","","",""
"sailing-trial","113","618287","0.0-11.0-78.0","","","","false","","","","","","","","","","556","","46","","1","1","arrowleft","0","arrowright","[0.325,0.675,0.85,0.15]","","",""
"sailing-trial","114","621286","0.0-11.0-79.0","","","","false","","","","","","","","","","null","","1151","","2","1","null","null","arrowup","[0.325,0.675,0.85,0.15]","","",""
"sailing-trial","115","625473","0.0-11.0-80.0","","","","false","","","","","","","","","","987","","132","","1","1","arrowleft","0","arrowright","[0.325,0.675,0.85,0.15]","","",""
"sailing-trial","116","627976","0.0-11.0-81.0","","","","false","","","","","","","","","","null","","1023","","3","0","null","null","arrowup","[0.325,0.675,0.85,0.15]","","",""
"sailing-trial","117","631881","0.0-11.0-82.0","","","","false","","","","","","","","","","688","","309","","1","1","arrowleft","0","arrowright","[0.325,0.675,0.85,0.15]","","",""
"sailing-trial","118","633989","0.0-11.0-83.0","","","","false","","","","","","","","","","null","","805","","0","0","null","null","arrowup","[0.325,0.675,0.85,0.15]","","",""
"sailing-trial","119","637818","0.0-11.0-84.0","","","","false","","","","","","","","","","666","","101","","1","1","arrowleft","0","arrowright","[0.325,0.675,0.85,0.15]","","",""
"sailing-trial","120","639980","0.0-11.0-85.0","","","","false","","","","","","","","","","null","","816","","0","0","null","null","arrowup","[0.325,0.675,0.85,0.15]","","",""
"sailing-trial","121","643823","0.0-11.0-86.0","","","","false","","","","","","","","","","751","","68","","1","0","arrowleft","0","arrowright","[0.325,0.675,0.85,0.15]","","",""
"sailing-trial","122","646722","0.0-11.0-87.0","","","","false","","","","","","","","","","null","","1018","","1","1","null","null","arrowup","[0.325,0.675,0.85,0.15]","","",""
"sailing-trial","123","650603","0.0-11.0-88.0","","","","false","","","","","","","","","","590","","46","","1","1","arrowleft","0","arrowright","[0.325,0.675,0.85,0.15]","","",""
"sailing-trial","124","653519","0.0-11.0-89.0","","","","false","","","","","","","","","","null","","1214","","2","1","null","null","arrowup","[0.325,0.675,0.85,0.15]","","",""
"sailing-trial","125","657251","0.0-11.0-90.0","","","","false","","","","","","","","","","859","","90","","2","1","arrowright","1","arrowleft","[0.325,0.675,0.85,0.15]","","",""
"sailing-trial","126","660005","0.0-11.0-91.0","","","","false","","","","","","","","","","null","","903","","2","1","null","null","arrowup","[0.325,0.675,0.85,0.15]","","",""
"sailing-trial","127","664045","0.0-11.0-92.0","","","","false","","","","","","","","","","699","","375","","2","1","arrowright","1","arrowleft","[0.325,0.675,0.85,0.15]","","",""
"sailing-trial","128","666972","0.0-11.0-93.0","","","","false","","","","","","","","","","null","","1061","","3","1","null","null","arrowup","[0.325,0.675,0.85,0.15]","","",""
"sailing-trial","129","670966","0.0-11.0-94.0","","","","false","","","","","","","","","","669","","420","","2","1","arrowright","1","arrowleft","[0.325,0.675,0.85,0.15]","","",""
"sailing-trial","130","672866","0.0-11.0-95.0","","","","false","","","","","","","","","","null","","795","","1","0","null","null","arrowup","[0.325,0.675,0.85,0.15]","","",""
"sailing-trial","131","676500","0.0-11.0-96.0","","","","false","","","","","","","","","","566","","341","","2","1","arrowright","1","arrowleft","[0.325,0.675,0.85,0.15]","","",""
"sailing-trial","132","678788","0.0-11.0-97.0","","","","false","","","","","","","","","","null","","617","","2","1","null","null","arrowup","[0.325,0.675,0.85,0.15]","","",""
"sailing-trial","133","682412","0.0-11.0-98.0","","","","false","","","","","","","","","","520","","354","","2","0","arrowright","1","arrowleft","[0.325,0.675,0.85,0.15]","","",""
"sailing-trial","134","684597","0.0-11.0-99.0","","","","false","","","","","","","","","","null","","860","","1","0","null","null","arrowup","[0.325,0.675,0.85,0.15]","","",""
"sailing-trial","135","687996","0.0-11.0-100.0","","","","false","","","","","","","","","","637","","51","","2","1","arrowright","1","arrowleft","[0.675,0.325,0.15,0.85]","","",""
"sailing-trial","136","689848","0.0-11.0-101.0","","","","false","","","","","","","","","","null","","783","","1","0","null","null","arrowup","[0.675,0.325,0.15,0.85]","","",""
"sailing-trial","137","692604","0.0-11.0-102.0","","","","false","","","","","","","","","","547","","4","","2","0","arrowright","1","arrowleft","[0.675,0.325,0.15,0.85]","","",""
"sailing-trial","138","695335","0.0-11.0-103.0","","","","false","","","","","","","","","","null","","1125","","1","0","null","null","arrowup","[0.675,0.325,0.15,0.85]","","",""
"sailing-trial","139","698184","0.0-11.0-104.0","","","","false","","","","","","","","","","596","","156","","2","0","arrowright","1","arrowleft","[0.675,0.325,0.15,0.85]","","",""
"sailing-trial","140","700292","0.0-11.0-105.0","","","","false","","","","","","","","","","null","","807","","1","0","null","null","arrowup","[0.675,0.325,0.15,0.85]","","",""
"sailing-trial","141","703075","0.0-11.0-106.0","","","","false","","","","","","","","","","491","","67","","3","0","arrowright","1","arrowright","[0.675,0.325,0.15,0.85]","","",""
"sailing-trial","142","705627","0.0-11.0-107.0","","","","false","","","","","","","","","","null","","819","","3","1","null","null","arrowup","[0.675,0.325,0.15,0.85]","","",""
"sailing-trial","143","709651","0.0-11.0-108.0","","","","false","","","","","","","","","","596","","554","","3","1","arrowright","1","arrowright","[0.675,0.325,0.15,0.85]","","",""
"sailing-trial","144","714230","0.0-11.0-109.0","","","","false","","","","","","","","","","null","","1531","","2","0","null","null","arrowup","[0.675,0.325,0.15,0.85]","","",""
"sailing-trial","145","718868","0.0-11.0-110.0","","","","false","","","","","","","","","","901","","782","","3","1","arrowright","1","arrowright","[0.675,0.325,0.15,0.85]","","",""
"sailing-trial","146","721664","0.0-11.0-111.0","","","","false","","","","","","","","","","null","","1523","","2","0","null","null","arrowup","[0.675,0.325,0.15,0.85]","","",""
"sailing-trial","147","725752","0.0-11.0-112.0","","","","false","","","","","","","","","","984","","393","","3","1","arrowright","1","arrowright","[0.675,0.325,0.15,0.85]","","",""
"sailing-trial","148","728047","0.0-11.0-113.0","","","","false","","","","","","","","","","null","","847","","1","0","null","null","arrowup","[0.675,0.325,0.15,0.85]","","",""
"sailing-trial","149","731677","0.0-11.0-114.0","","","","false","","","","","","","","","","695","","36","","3","1","arrowright","1","arrowright","[0.675,0.325,0.15,0.85]","","",""
"sailing-trial","150","734282","0.0-11.0-115.0","","","","false","","","","","","","","","","null","","803","","1","1","null","null","arrowup","[0.675,0.325,0.15,0.85]","","",""
"sailing-trial","151","737577","0.0-11.0-116.0","","","","false","","","","","","","","","","651","","12","","3","1","arrowright","1","arrowright","[0.675,0.325,0.15,0.85]","","",""
"sailing-trial","152","740203","0.0-11.0-117.0","","","","false","","","","","","","","","","null","","833","","0","1","null","null","arrowup","[0.675,0.325,0.15,0.85]","","",""
"sailing-trial","153","745872","0.0-11.0-118.0","","","","false","","","","","","","","","","1245","","1541","","3","1","arrowright","1","arrowright","[0.675,0.325,0.15,0.85]","","",""
"sailing-trial","154","748453","0.0-11.0-119.0","","","","false","","","","","","","","","","null","","1160","","2","0","null","null","arrowup","[0.675,0.325,0.15,0.85]","","",""
"sailing-trial","155","752313","0.0-11.0-120.0","","","","false","","","","","","","","","","900","","13","","3","1","arrowright","1","arrowright","[0.675,0.325,0.15,0.85]","","",""
"sailing-trial","156","755462","0.0-11.0-121.0","","","","false","","","","","","","","","","null","","1741","","2","0","null","null","arrowup","[0.675,0.325,0.15,0.85]","","",""
"sailing-trial","157","759934","0.0-11.0-122.0","","","","false","","","","","","","","","","1776","","334","","3","0","arrowright","1","arrowright","[0.675,0.325,0.15,0.85]","","",""
"sailing-trial","158","762613","0.0-11.0-123.0","","","","false","","","","","","","","","","null","","899","","3","1","null","null","arrowup","[0.675,0.325,0.15,0.85]","","",""
"sailing-trial","159","767331","0.0-11.0-124.0","","","","false","","","","","","","","","","1164","","326","","0","1","arrowleft","0","arrowleft","[0.85,0.15,0.325,0.675]","","",""
"sailing-trial","160","771311","0.0-11.0-125.0","","","","false","","","","","","","","","","null","","2093","","3","1","null","null","arrowup","[0.85,0.15,0.325,0.675]","","",""
"sailing-trial","161","775147","0.0-11.0-126.0","","","","false","","","","","","","","","","863","","577","","0","0","arrowleft","0","arrowleft","[0.85,0.15,0.325,0.675]","","",""
"sailing-trial","162","778563","0.0-11.0-127.0","","","","false","","","","","","","","","","null","","1686","","3","1","null","null","arrowup","[0.85,0.15,0.325,0.675]","","",""
"sailing-trial","163","782933","0.0-11.0-128.0","","","","false","","","","","","","","","","798","","269","","3","1","arrowright","1","arrowright","[0.85,0.15,0.325,0.675]","","",""
"sailing-trial","164","785332","0.0-11.0-129.0","","","","false","","","","","","","","","","null","","846","","1","0","null","null","arrowup","[0.85,0.15,0.325,0.675]","","",""
"sailing-trial","165","789273","0.0-11.0-130.0","","","","false","","","","","","","","","","620","","348","","3","1","arrowright","1","arrowright","[0.85,0.15,0.325,0.675]","","",""
"sailing-trial","166","791731","0.0-11.0-131.0","","","","false","","","","","","","","","","null","","1223","","1","0","null","null","arrowup","[0.85,0.15,0.325,0.675]","","",""
"sailing-trial","167","795684","0.0-11.0-132.0","","","","false","","","","","","","","","","573","","323","","3","1","arrowright","1","arrowright","[0.85,0.15,0.325,0.675]","","",""
"sailing-trial","168","799522","0.0-11.0-133.0","","","","false","","","","","","","","","","null","","1996","","2","1","null","null","arrowup","[0.85,0.15,0.325,0.675]","","",""
"sailing-trial","169","804396","0.0-11.0-134.0","","","","false","","","","","","","","","","1717","","326","","3","1","arrowright","1","arrowright","[0.85,0.15,0.325,0.675]","","",""
"sailing-trial","170","807632","0.0-11.0-135.0","","","","false","","","","","","","","","","null","","1580","","3","1","null","null","arrowup","[0.85,0.15,0.325,0.675]","","",""
"sailing-trial","171","811876","0.0-11.0-136.0","","","","false","","","","","","","","","","428","","389","","3","1","arrowright","1","arrowright","[0.85,0.15,0.325,0.675]","","",""
"sailing-trial","172","814207","0.0-11.0-137.0","","","","false","","","","","","","","","","null","","1088","","1","0","null","null","arrowup","[0.85,0.15,0.325,0.675]","","",""
"sailing-trial","173","817752","0.0-11.0-138.0","","","","false","","","","","","","","","","671","","262","","3","0","arrowright","1","arrowright","[0.85,0.15,0.325,0.675]","","",""
"sailing-trial","174","819839","0.0-11.0-139.0","","","","false","","","","","","","","","","null","","956","","2","0","null","null","arrowup","[0.85,0.15,0.325,0.675]","","",""
"sailing-trial","175","823894","0.0-11.0-140.0","","","","false","","","","","","","","","","622","","404","","0","1","arrowleft","0","arrowleft","[0.85,0.15,0.325,0.675]","","",""
"sailing-trial","176","827459","0.0-11.0-141.0","","","","false","","","","","","","","","","null","","1234","","1","1","null","null","arrowup","[0.85,0.15,0.325,0.675]","","",""
"sailing-trial","177","831545","0.0-11.0-142.0","","","","false","","","","","","","","","","760","","308","","0","1","arrowleft","0","arrowleft","[0.325,0.675,0.85,0.15]","","",""
"sailing-trial","178","834330","0.0-11.0-143.0","","","","false","","","","","","","","","","null","","1505","","3","0","null","null","arrowup","[0.325,0.675,0.85,0.15]","","",""
"sailing-trial","179","837692","0.0-11.0-144.0","","","","false","","","","","","","","","","588","","390","","0","0","arrowleft","0","arrowleft","[0.325,0.675,0.85,0.15]","","",""
"sailing-trial","180","840394","0.0-11.0-145.0","","","","false","","","","","","","","","","null","","1003","","2","1","null","null","arrowup","[0.325,0.675,0.85,0.15]","","",""
"sailing-trial","181","843846","0.0-11.0-146.0","","","","false","","","","","","","","","","732","","71","","2","1","arrowright","1","arrowleft","[0.325,0.675,0.85,0.15]","","",""
"sailing-trial","182","846549","0.0-11.0-147.0","","","","false","","","","","","","","","","null","","1246","","0","0","null","null","arrowup","[0.325,0.675,0.85,0.15]","","",""
"sailing-trial","183","851086","0.0-11.0-148.0","","","","false","","","","","","","","","","816","","384","","2","1","arrowright","1","arrowleft","[0.325,0.675,0.85,0.15]","","",""
"sailing-trial","184","853511","0.0-11.0-149.0","","","","false","","","","","","","","","","null","","776","","2","1","null","null","arrowup","[0.325,0.675,0.85,0.15]","","",""
"sailing-trial","185","857529","0.0-11.0-150.0","","","","false","","","","","","","","","","576","","425","","2","1","arrowright","1","arrowleft","[0.325,0.675,0.85,0.15]","","",""
"sailing-trial","186","859913","0.0-11.0-151.0","","","","false","","","","","","","","","","null","","898","","3","0","null","null","arrowup","[0.325,0.675,0.85,0.15]","","",""
"sailing-trial","187","862796","0.0-11.0-152.0","","","","false","","","","","","","","","","642","","5","","2","0","arrowright","1","arrowleft","[0.325,0.675,0.85,0.15]","","",""
"sailing-trial","188","864847","0.0-11.0-153.0","","","","false","","","","","","","","","","null","","929","","0","0","null","null","arrowup","[0.325,0.675,0.85,0.15]","","",""
"sailing-trial","189","868288","0.0-11.0-154.0","","","","false","","","","","","","","","","676","","55","","2","1","arrowright","1","arrowleft","[0.325,0.675,0.85,0.15]","","",""
"sailing-trial","190","871324","0.0-11.0-155.0","","","","false","","","","","","","","","","null","","954","","2","1","null","null","arrowup","[0.325,0.675,0.85,0.15]","","",""
"sailing-trial","191","875133","0.0-11.0-156.0","","","","false","","","","","","","","","","542","","422","","2","1","arrowright","1","arrowleft","[0.325,0.675,0.85,0.15]","","",""
"sailing-trial","192","877187","0.0-11.0-157.0","","","","false","","","","","","","","","","null","","759","","3","0","null","null","arrowup","[0.325,0.675,0.85,0.15]","","",""
"sailing-trial","193","881104","0.0-11.0-158.0","","","","false","","","","","","","","","","722","","399","","2","1","arrowright","1","arrowleft","[0.15,0.85,0.675,0.325]","","",""
"sailing-trial","194","883285","0.0-11.0-159.0","","","","false","","","","","","","","","","null","","1008","","3","0","null","null","arrowup","[0.15,0.85,0.675,0.325]","","",""
"sailing-trial","195","886585","0.0-11.0-160.0","","","","false","","","","","","","","","","552","","11","","2","1","arrowright","1","arrowleft","[0.15,0.85,0.675,0.325]","","",""
"sailing-trial","196","888749","0.0-11.0-161.0","","","","false","","","","","","","","","","null","","994","","3","0","null","null","arrowup","[0.15,0.85,0.675,0.325]","","",""
"sailing-trial","197","892589","0.0-11.0-162.0","","","","false","","","","","","","","","","567","","436","","2","1","arrowright","1","arrowleft","[0.15,0.85,0.675,0.325]","","",""
"sailing-trial","198","894896","0.0-11.0-163.0","","","","false","","","","","","","","","","null","","919","","2","0","null","null","arrowup","[0.15,0.85,0.675,0.325]","","",""
"sailing-trial","199","899576","0.0-11.0-164.0","","","","false","","","","","","","","","","1343","","168","","1","1","arrowleft","0","arrowright","[0.15,0.85,0.675,0.325]","","",""
"sailing-trial","200","901611","0.0-11.0-165.0","","","","false","","","","","","","","","","null","","878","","3","0","null","null","arrowup","[0.15,0.85,0.675,0.325]","","",""
"sailing-trial","201","905083","0.0-11.0-166.0","","","","false","","","","","","","","","","549","","297","","1","1","arrowleft","0","arrowright","[0.15,0.85,0.675,0.325]","","",""
"sailing-trial","202","907168","0.0-11.0-167.0","","","","false","","","","","","","","","","null","","914","","3","0","null","null","arrowup","[0.15,0.85,0.675,0.325]","","",""
"sailing-trial","203","911177","0.0-11.0-168.0","","","","false","","","","","","","","","","552","","578","","1","1","arrowleft","0","arrowright","[0.15,0.85,0.675,0.325]","","",""
"sailing-trial","204","914125","0.0-11.0-169.0","","","","false","","","","","","","","","","null","","916","","1","1","null","null","arrowup","[0.15,0.85,0.675,0.325]","","",""
"sailing-trial","205","917908","0.0-11.0-170.0","","","","false","","","","","","","","","","645","","298","","1","1","arrowleft","0","arrowright","[0.15,0.85,0.675,0.325]","","",""
"sailing-trial","206","921210","0.0-11.0-171.0","","","","false","","","","","","","","","","null","","1606","","2","1","null","null","arrowup","[0.15,0.85,0.675,0.325]","","",""
"sailing-trial","207","924884","0.0-11.0-172.0","","","","false","","","","","","","","","","553","","376","","1","1","arrowleft","0","arrowright","[0.15,0.85,0.675,0.325]","","",""
"sailing-trial","208","927885","0.0-11.0-173.0","","","","false","","","","","","","","","","null","","1166","","1","1","null","null","arrowup","[0.15,0.85,0.675,0.325]","","",""
"sailing-trial","209","931654","0.0-11.0-174.0","","","","false","","","","","","","","","","750","","287","","1","1","arrowleft","0","arrowright","[0.325,0.675,0.85,0.15]","","",""
"sailing-trial","210","934266","0.0-11.0-175.0","","","","false","","","","","","","","","","null","","1352","","1","0","null","null","arrowup","[0.325,0.675,0.85,0.15]","","",""
"sailing-trial","211","939157","0.0-11.0-176.0","","","","false","","","","","","","","","","537","","393","","1","0","arrowleft","0","arrowright","[0.325,0.675,0.85,0.15]","","",""
"sailing-trial","212","941336","0.0-11.0-177.0","","","","false","","","","","","","","","","null","","977","","1","0","null","null","arrowup","[0.325,0.675,0.85,0.15]","","",""
"sailing-trial","213","945089","0.0-11.0-178.0","","","","false","","","","","","","","","","547","","557","","2","1","arrowright","1","arrowleft","[0.325,0.675,0.85,0.15]","","",""
"sailing-trial","214","947111","0.0-11.0-179.0","","","","false","","","","","","","","","","null","","891","","0","0","null","null","arrowup","[0.325,0.675,0.85,0.15]","","",""
"sailing-trial","215","950597","0.0-11.0-180.0","","","","false","","","","","","","","","","596","","3","","2","1","arrowright","1","arrowleft","[0.325,0.675,0.85,0.15]","","",""
"sailing-trial","216","953182","0.0-11.0-181.0","","","","false","","","","","","","","","","null","","908","","2","1","null","null","arrowup","[0.325,0.675,0.85,0.15]","","",""
"sailing-trial","217","956375","0.0-11.0-182.0","","","","false","","","","","","","","","","564","","7","","2","1","arrowright","1","arrowleft","[0.325,0.675,0.85,0.15]","","",""
"sailing-trial","218","958973","0.0-11.0-183.0","","","","false","","","","","","","","","","null","","881","","2","1","null","null","arrowup","[0.325,0.675,0.85,0.15]","","",""
"sailing-trial","219","962958","0.0-11.0-184.0","","","","false","","","","","","","","","","577","","346","","2","1","arrowright","1","arrowleft","[0.325,0.675,0.85,0.15]","","",""
"sailing-trial","220","965575","0.0-11.0-185.0","","","","false","","","","","","","","","","null","","802","","0","1","null","null","arrowup","[0.325,0.675,0.85,0.15]","","",""
"sailing-trial","221","969198","0.0-11.0-186.0","","","","false","","","","","","","","","","558","","325","","2","1","arrowright","1","arrowleft","[0.325,0.675,0.85,0.15]","","",""
"sailing-trial","222","971174","0.0-11.0-187.0","","","","false","","","","","","","","","","null","","813","","3","0","null","null","arrowup","[0.325,0.675,0.85,0.15]","","",""
"sailing-trial","223","974509","0.0-11.0-188.0","","","","false","","","","","","","","","","570","","85","","2","1","arrowright","1","arrowleft","[0.325,0.675,0.85,0.15]","","",""
"sailing-trial","224","977214","0.0-11.0-189.0","","","","false","","","","","","","","","","null","","887","","3","0","null","null","arrowup","[0.325,0.675,0.85,0.15]","","",""
"sailing-trial","225","980804","0.0-11.0-190.0","","","","false","","","","","","","","","","654","","216","","2","1","arrowright","1","arrowleft","[0.325,0.675,0.85,0.15]","","",""
"sailing-trial","226","983505","0.0-11.0-191.0","","","","false","","","","","","","","","","null","","966","","0","1","null","null","arrowup","[0.325,0.675,0.85,0.15]","","",""
"sailing-trial","227","986332","0.0-11.0-192.0","","","","false","","","","","","","","","","566","","52","","2","0","arrowright","1","arrowleft","[0.15,0.85,0.675,0.325]","","",""
"sailing-trial","228","989443","0.0-11.0-193.0","","","","false","","","","","","","","","","null","","1339","","3","1","null","null","arrowup","[0.15,0.85,0.675,0.325]","","",""
"sailing-trial","229","992897","0.0-11.0-194.0","","","","false","","","","","","","","","","509","","330","","2","1","arrowright","1","arrowleft","[0.15,0.85,0.675,0.325]","","",""
"sailing-trial","230","995697","0.0-11.0-195.0","","","","false","","","","","","","","","","null","","735","","1","1","null","null","arrowup","[0.15,0.85,0.675,0.325]","","",""
"sailing-trial","231","999381","0.0-11.0-196.0","","","","false","","","","","","","","","","564","","382","","2","1","arrowright","1","arrowleft","[0.15,0.85,0.675,0.325]","","",""
"sailing-trial","232","1002223","0.0-11.0-197.0","","","","false","","","","","","","","","","null","","786","","1","1","null","null","arrowup","[0.15,0.85,0.675,0.325]","","",""
"sailing-trial","233","1004941","0.0-11.0-198.0","","","","false","","","","","","","","","","536","","32","","2","0","arrowright","1","arrowleft","[0.15,0.85,0.675,0.325]","","",""
"sailing-trial","234","1007014","0.0-11.0-199.0","","","","false","","","","","","","","","","null","","1006","","0","0","null","null","arrowup","[0.15,0.85,0.675,0.325]","","",""
"sailing-trial","235","1010723","0.0-11.0-200.0","","","","false","","","","","","","","","","560","","458","","1","1","arrowleft","0","arrowright","[0.15,0.85,0.675,0.325]","","",""
"sailing-trial","236","1013007","0.0-11.0-201.0","","","","false","","","","","","","","","","null","","707","","1","1","null","null","arrowup","[0.15,0.85,0.675,0.325]","","",""
"sailing-trial","237","1017046","0.0-11.0-202.0","","","","false","","","","","","","","","","818","","60","","1","1","arrowleft","0","arrowright","[0.15,0.85,0.675,0.325]","","",""
"sailing-trial","238","1019739","0.0-11.0-203.0","","","","false","","","","","","","","","","null","","956","","1","1","null","null","arrowup","[0.15,0.85,0.675,0.325]","","",""
"sailing-trial","239","1023880","0.0-11.0-204.0","","","","false","","","","","","","","","","561","","390","","1","1","arrowleft","0","arrowright","[0.15,0.85,0.675,0.325]","","",""
"sailing-trial","240","1026245","0.0-11.0-205.0","","","","false","","","","","","","","","","null","","849","","0","0","null","null","arrowup","[0.15,0.85,0.675,0.325]","","",""
"sailing-trial","241","1030304","0.0-11.0-206.0","","","","false","","","","","","","","","","668","","330","","1","1","arrowleft","0","arrowright","[0.15,0.85,0.675,0.325]","","",""
"sailing-trial","242","1032975","0.0-11.0-207.0","","","","false","","","","","","","","","","null","","843","","1","1","null","null","arrowup","[0.15,0.85,0.675,0.325]","","",""
"sailing-trial","243","1036660","0.0-11.0-208.0","","","","false","","","","","","","","","","750","","19","","1","1","arrowleft","0","arrowright","[0.15,0.85,0.675,0.325]","","",""
"sailing-trial","244","1039168","0.0-11.0-209.0","","","","false","","","","","","","","","","null","","1194","","0","0","null","null","arrowup","[0.15,0.85,0.675,0.325]","","",""
"sailing-trial","245","1043170","0.0-11.0-210.0","","","","false","","","","","","","","","","669","","22","","1","1","arrowleft","0","arrowright","[0.675,0.325,0.15,0.85]","","",""
"sailing-trial","246","1045368","0.0-11.0-211.0","","","","false","","","","","","","","","","null","","830","","2","0","null","null","arrowup","[0.675,0.325,0.15,0.85]","","",""
"sailing-trial","247","1049026","0.0-11.0-212.0","","","","false","","","","","","","","","","789","","30","","1","0","arrowleft","0","arrowright","[0.675,0.325,0.15,0.85]","","",""
"sailing-trial","248","1051692","0.0-11.0-213.0","","","","false","","","","","","","","","","null","","843","","0","1","null","null","arrowup","[0.675,0.325,0.15,0.85]","","",""
"sailing-trial","249","1055161","0.0-11.0-214.0","","","","false","","","","","","","","","","603","","425","","1","0","arrowleft","0","arrowright","[0.675,0.325,0.15,0.85]","","",""
"sailing-trial","250","1057225","0.0-11.0-215.0","","","","false","","","","","","","","","","null","","873","","1","0","null","null","arrowup","[0.675,0.325,0.15,0.85]","","",""
"sailing-trial","251","1060919","0.0-11.0-216.0","","","","false","","","","","","","","","","504","","362","","0","1","arrowleft","0","arrowleft","[0.675,0.325,0.15,0.85]","","",""
"sailing-trial","252","1063521","0.0-11.0-217.0","","","","false","","","","","","","","","","null","","944","","0","1","null","null","arrowup","[0.675,0.325,0.15,0.85]","","",""
"sailing-trial","253","1067625","0.0-11.0-218.0","","","","false","","","","","","","","","","601","","310","","0","1","arrowleft","0","arrowleft","[0.675,0.325,0.15,0.85]","","",""
"sailing-trial","254","1069912","0.0-11.0-219.0","","","","false","","","","","","","","","","null","","638","","3","1","null","null","arrowup","[0.675,0.325,0.15,0.85]","","",""
"sailing-trial","255","1072965","0.0-11.0-220.0","","","","false","","","","","","","","","","565","","310","","0","0","arrowleft","0","arrowleft","[0.675,0.325,0.15,0.85]","","",""
"sailing-trial","256","1075146","0.0-11.0-221.0","","","","false","","","","","","","","","","null","","1110","","1","0","null","null","arrowup","[0.675,0.325,0.15,0.85]","","",""
"sailing-trial","257","1078507","0.0-11.0-222.0","","","","false","","","","","","","","","","581","","151","","0","1","arrowleft","0","arrowleft","[0.675,0.325,0.15,0.85]","","",""
"sailing-trial","258","1080750","0.0-11.0-223.0","","","","false","","","","","","","","","","null","","782","","2","0","null","null","arrowup","[0.675,0.325,0.15,0.85]","","",""
"sailing-trial","259","1086204","0.0-11.0-224.0","","","","false","","","","","","","","","","748","","2321","","0","0","arrowleft","0","arrowleft","[0.675,0.325,0.15,0.85]","","",""
"sailing-trial","260","1088913","0.0-11.0-225.0","","","","false","","","","","","","","","","null","","1215","","2","0","null","null","arrowup","[0.675,0.325,0.15,0.85]","","",""
"sailing-trial","261","1093893","0.0-11.0-226.0","","","","false","","","","","","","","","","724","","158","","3","0","arrowright","1","arrowright","[0.85,0.15,0.325,0.675]","","",""
"sailing-trial","262","1095901","0.0-11.0-227.0","","","","false","","","","","","","","","","null","","855","","2","0","null","null","arrowup","[0.85,0.15,0.325,0.675]","","",""
"sailing-trial","263","1099484","0.0-11.0-228.0","","","","false","","","","","","","","","","544","","298","","3","1","arrowright","1","arrowright","[0.85,0.15,0.325,0.675]","","",""
"sailing-trial","264","1102786","0.0-11.0-229.0","","","","false","","","","","","","","","","null","","1324","","0","1","null","null","arrowup","[0.85,0.15,0.325,0.675]","","",""
"sailing-trial","265","1106175","0.0-11.0-230.0","","","","false","","","","","","","","","","508","","128","","3","1","arrowright","1","arrowright","[0.85,0.15,0.325,0.675]","","",""
"sailing-trial","266","1108909","0.0-11.0-231.0","","","","false","","","","","","","","","","null","","974","","1","1","null","null","arrowup","[0.85,0.15,0.325,0.675]","","",""
"sailing-trial","267","1112864","0.0-11.0-232.0","","","","false","","","","","","","","","","578","","701","","3","1","arrowright","1","arrowright","[0.85,0.15,0.325,0.675]","","",""
"sailing-trial","268","1115276","0.0-11.0-233.0","","","","false","","","","","","","","","","null","","966","","3","0","null","null","arrowup","[0.85,0.15,0.325,0.675]","","",""
"sailing-trial","269","1119275","0.0-11.0-234.0","","","","false","","","","","","","","","","588","","486","","3","1","arrowright","1","arrowright","[0.85,0.15,0.325,0.675]","","",""
"sailing-trial","270","1121237","0.0-11.0-235.0","","","","false","","","","","","","","","","null","","903","","1","0","null","null","arrowup","[0.85,0.15,0.325,0.675]","","",""
"sailing-trial","271","1124911","0.0-11.0-236.0","","","","false","","","","","","","","","","720","","333","","3","1","arrowright","1","arrowright","[0.85,0.15,0.325,0.675]","","",""
"sailing-trial","272","1127796","0.0-11.0-237.0","","","","false","","","","","","","","","","null","","1077","","0","1","null","null","arrowup","[0.85,0.15,0.325,0.675]","","",""
"sailing-trial","273","1131536","0.0-11.0-238.0","","","","false","","","","","","","","","","522","","129","","3","1","arrowright","1","arrowright","[0.85,0.15,0.325,0.675]","","",""
"sailing-trial","274","1133625","0.0-11.0-239.0","","","","false","","","","","","","","","","null","","1018","","3","0","null","null","arrowup","[0.85,0.15,0.325,0.675]","","",""
"sailing-trial","275","1137222","0.0-11.0-240.0","","","","false","","","","","","","","","","609","","324","","3","0","arrowright","1","arrowright","[0.85,0.15,0.325,0.675]","","",""
"sailing-trial","276","1139655","0.0-11.0-241.0","","","","false","","","","","","","","","","null","","929","","3","0","null","null","arrowup","[0.85,0.15,0.325,0.675]","","",""
"sailing-trial","277","1143537","0.0-11.0-242.0","","","","false","","","","","","","","","","502","","315","","0","1","arrowleft","0","arrowleft","[0.675,0.325,0.15,0.85]","","",""
"sailing-trial","278","1145761","0.0-11.0-243.0","","","","false","","","","","","","","","","null","","773","","1","0","null","null","arrowup","[0.675,0.325,0.15,0.85]","","",""
"sailing-trial","279","1149146","0.0-11.0-244.0","","","","false","","","","","","","","","","453","","261","","0","1","arrowleft","0","arrowleft","[0.675,0.325,0.15,0.85]","","",""
"sailing-trial","280","1151650","0.0-11.0-245.0","","","","false","","","","","","","","","","null","","924","","0","1","null","null","arrowup","[0.675,0.325,0.15,0.85]","","",""
"sailing-trial","281","1154670","0.0-11.0-246.0","","","","false","","","","","","","","","","442","","362","","0","0","arrowleft","0","arrowleft","[0.675,0.325,0.15,0.85]","","",""
"sailing-trial","282","1156612","0.0-11.0-247.0","","","","false","","","","","","","","","","null","","826","","3","0","null","null","arrowup","[0.675,0.325,0.15,0.85]","","",""
"sailing-trial","283","1160473","0.0-11.0-248.0","","","","false","","","","","","","","","","551","","296","","0","1","arrowleft","0","arrowleft","[0.675,0.325,0.15,0.85]","","",""
"sailing-trial","284","1162229","0.0-11.0-249.0","","","","false","","","","","","","","","","null","","716","","2","0","null","null","arrowup","[0.675,0.325,0.15,0.85]","","",""
"sailing-trial","285","1165428","0.0-11.0-250.0","","","","false","","","","","","","","","","547","","439","","0","0","arrowleft","0","arrowleft","[0.675,0.325,0.15,0.85]","","",""
"sailing-trial","286","1168188","0.0-11.0-251.0","","","","false","","","","","","","","","","null","","783","","3","1","null","null","arrowup","[0.675,0.325,0.15,0.85]","","",""
"sailing-trial","287","1171089","0.0-11.0-252.0","","","","false","","","","","","","","","","619","","39","","0","0","arrowleft","0","arrowleft","[0.675,0.325,0.15,0.85]","","",""
"sailing-trial","288","1173765","0.0-11.0-253.0","","","","false","","","","","","","","","","null","","864","","2","1","null","null","arrowup","[0.675,0.325,0.15,0.85]","","",""
"sailing-trial","289","1177876","0.0-11.0-254.0","","","","false","","","","","","","","","","572","","248","","0","1","arrowleft","0","arrowleft","[0.675,0.325,0.15,0.85]","","",""
"sailing-trial","290","1180188","0.0-11.0-255.0","","","","false","","","","","","","","","","null","","836","","2","0","null","null","arrowup","[0.675,0.325,0.15,0.85]","","",""
"sailing-trial","291","1183658","0.0-11.0-256.0","","","","false","","","","","","","","","","565","","192","","0","1","arrowleft","0","arrowleft","[0.675,0.325,0.15,0.85]","","",""
"sailing-trial","292","1186086","0.0-11.0-257.0","","","","false","","","","","","","","","","null","","764","","2","1","null","null","arrowup","[0.675,0.325,0.15,0.85]","","",""
"sailing-trial","293","1189733","0.0-11.0-258.0","","","","false","","","","","","","","","","451","","312","","0","1","arrowleft","0","arrowleft","[0.675,0.325,0.15,0.85]","","",""
"sailing-trial","294","1192544","0.0-11.0-259.0","","","","false","","","","","","","","","","null","","1241","","0","1","null","null","arrowup","[0.675,0.325,0.15,0.85]","","",""
"sailing-trial","295","1195975","0.0-11.0-260.0","","","","false","","","","","","","","","","508","","127","","0","1","arrowleft","0","arrowleft","[0.85,0.15,0.325,0.675]","","",""
"sailing-trial","296","1198754","0.0-11.0-261.0","","","","false","","","","","","","","","","null","","939","","0","1","null","null","arrowup","[0.85,0.15,0.325,0.675]","","",""
"sailing-trial","297","1202488","0.0-11.0-262.0","","","","false","","","","","","","","","","583","","283","","0","1","arrowleft","0","arrowleft","[0.85,0.15,0.325,0.675]","","",""
"sailing-trial","298","1205208","0.0-11.0-263.0","","","","false","","","","","","","","","","null","","1623","","1","0","null","null","arrowup","[0.85,0.15,0.325,0.675]","","",""
"sailing-trial","299","1209240","0.0-11.0-264.0","","","","false","","","","","","","","","","875","","249","","0","1","arrowleft","0","arrowleft","[0.85,0.15,0.325,0.675]","","",""
"sailing-trial","300","1212824","0.0-11.0-265.0","","","","false","","","","","","","","","","null","","1762","","3","1","null","null","arrowup","[0.85,0.15,0.325,0.675]","","",""
"sailing-trial","301","1217669","0.0-11.0-266.0","","","","false","","","","","","","","","","1394","","415","","0","1","arrowleft","0","arrowleft","[0.85,0.15,0.325,0.675]","","",""
"sailing-trial","302","1221042","0.0-11.0-267.0","","","","false","","","","","","","","","","null","","1079","","0","1","null","null","arrowup","[0.85,0.15,0.325,0.675]","","",""
"sailing-trial","303","1224719","0.0-11.0-268.0","","","","false","","","","","","","","","","619","","209","","0","1","arrowleft","0","arrowleft","[0.85,0.15,0.325,0.675]","","",""
"sailing-trial","304","1228579","0.0-11.0-269.0","","","","false","","","","","","","","","","null","","2014","","1","1","null","null","arrowup","[0.85,0.15,0.325,0.675]","","",""
"sailing-trial","305","1232411","0.0-11.0-270.0","","","","false","","","","","","","","","","584","","290","","0","1","arrowleft","0","arrowleft","[0.85,0.15,0.325,0.675]","","",""
"sailing-trial","306","1235218","0.0-11.0-271.0","","","","false","","","","","","","","","","null","","1495","","1","0","null","null","arrowup","[0.85,0.15,0.325,0.675]","","",""
"sailing-trial","307","1238421","0.0-11.0-272.0","","","","false","","","","","","","","","","604","","372","","0","0","arrowleft","0","arrowleft","[0.85,0.15,0.325,0.675]","","",""
"sailing-trial","308","1240304","0.0-11.0-273.0","","","","false","","","","","","","","","","null","","803","","3","0","null","null","arrowup","[0.85,0.15,0.325,0.675]","","",""
"sailing-trial","309","1243581","0.0-11.0-274.0","","","","false","","","","","","","","","","1074","","70","","2","0","arrowright","1","arrowleft","[0.85,0.15,0.325,0.675]","","",""
"sailing-trial","310","1246137","0.0-11.0-275.0","","","","false","","","","","","","","","","null","","964","","0","1","null","null","arrowup","[0.85,0.15,0.325,0.675]","","",""
"sailing-trial","311","1249443","0.0-11.0-276.0","","","","false","","","","","","","","","","458","","141","","0","1","arrowleft","0","arrowleft","[0.85,0.15,0.325,0.675]","","",""
"sailing-trial","312","1252089","0.0-11.0-277.0","","","","false","","","","","","","","","","null","","753","","3","1","null","null","arrowup","[0.85,0.15,0.325,0.675]","","",""
"sailing-trial","313","1255518","0.0-11.0-278.0","","","","false","","","","","","","","","","590","","145","","0","1","arrowleft","0","arrowleft","[0.675,0.325,0.15,0.85]","","",""
"sailing-trial","314","1258506","0.0-11.0-279.0","","","","false","","","","","","","","","","null","","1019","","0","1","null","null","arrowup","[0.675,0.325,0.15,0.85]","","",""
"sailing-trial","315","1262078","0.0-11.0-280.0","","","","false","","","","","","","","","","555","","132","","0","1","arrowleft","0","arrowleft","[0.675,0.325,0.15,0.85]","","",""
"sailing-trial","316","1264926","0.0-11.0-281.0","","","","false","","","","","","","","","","null","","952","","1","1","null","null","arrowup","[0.675,0.325,0.15,0.85]","","",""
"sailing-trial","317","1268673","0.0-11.0-282.0","","","","false","","","","","","","","","","645","","240","","0","1","arrowleft","0","arrowleft","[0.675,0.325,0.15,0.85]","","",""
"sailing-trial","318","1271401","0.0-11.0-283.0","","","","false","","","","","","","","","","null","","1032","","0","1","null","null","arrowup","[0.675,0.325,0.15,0.85]","","",""
"sailing-trial","319","1274671","0.0-11.0-284.0","","","","false","","","","","","","","","","521","","29","","0","1","arrowleft","0","arrowleft","[0.675,0.325,0.15,0.85]","","",""
"sailing-trial","320","1276860","0.0-11.0-285.0","","","","false","","","","","","","","","","null","","887","","2","0","null","null","arrowup","[0.675,0.325,0.15,0.85]","","",""
"sailing-trial","321","1280438","0.0-11.0-286.0","","","","false","","","","","","","","","","551","","320","","0","1","arrowleft","0","arrowleft","[0.675,0.325,0.15,0.85]","","",""
"sailing-trial","322","1283534","0.0-11.0-287.0","","","","false","","","","","","","","","","null","","1049","","1","1","null","null","arrowup","[0.675,0.325,0.15,0.85]","","",""
"sailing-trial","323","1287533","0.0-11.0-288.0","","","","false","","","","","","","","","","634","","247","","0","1","arrowleft","0","arrowleft","[0.675,0.325,0.15,0.85]","","",""
"sailing-trial","324","1291205","0.0-11.0-289.0","","","","false","","","","","","","","","","null","","1438","","1","0","null","null","arrowup","[0.675,0.325,0.15,0.85]","","",""
"sailing-trial","325","1296308","0.0-11.0-290.0","","","","false","","","","","","","","","","721","","944","","0","1","arrowleft","0","arrowleft","[0.675,0.325,0.15,0.85]","","",""
"sailing-trial","326","1299821","0.0-11.0-291.0","","","","false","","","","","","","","","","null","","1667","","3","1","null","null","arrowup","[0.675,0.325,0.15,0.85]","","",""
"sailing-trial","327","1302747","0.0-11.0-292.0","","","","false","","","","","","","","","","566","","183","","0","0","arrowleft","0","arrowleft","[0.675,0.325,0.15,0.85]","","",""
"sailing-trial","328","1305432","0.0-11.0-293.0","","","","false","","","","","","","","","","null","","1285","","3","0","null","null","arrowup","[0.675,0.325,0.15,0.85]","","",""
"sailing-trial","329","1308910","0.0-11.0-294.0","","","","false","","","","","","","","","","598","","199","","0","1","arrowleft","0","arrowleft","[0.85,0.15,0.325,0.675]","","",""
"sailing-trial","330","1311288","0.0-11.0-295.0","","","","false","","","","","","","","","","null","","759","","2","1","null","null","arrowup","[0.85,0.15,0.325,0.675]","","",""
"sailing-trial","331","1314634","0.0-11.0-296.0","","","","false","","","","","","","","","","449","","179","","0","1","arrowleft","0","arrowleft","[0.85,0.15,0.325,0.675]","","",""
"sailing-trial","332","1316930","0.0-11.0-297.0","","","","false","","","","","","","","","","null","","989","","1","0","null","null","arrowup","[0.85,0.15,0.325,0.675]","","",""
"sailing-trial","333","1320700","0.0-11.0-298.0","","","","false","","","","","","","","","","606","","408","","0","1","arrowleft","0","arrowleft","[0.85,0.15,0.325,0.675]","","",""
"sailing-trial","334","1323275","0.0-11.0-299.0","","","","false","","","","","","","","","","null","","1298","","1","0","null","null","arrowup","[0.85,0.15,0.325,0.675]","","",""
"sailing-trial","335","1326867","0.0-11.0-300.0","","","","false","","","","","","","","","","654","","121","","0","1","arrowleft","0","arrowleft","[0.85,0.15,0.325,0.675]","","",""
"sailing-trial","336","1332354","0.0-11.0-301.0","","","","false","","","","","","","","","","null","","3568","","0","1","null","null","arrowup","[0.85,0.15,0.325,0.675]","","",""
"sailing-trial","337","1335913","0.0-11.0-302.0","","","","false","","","","","","","","","","570","","270","","0","1","arrowleft","0","arrowleft","[0.85,0.15,0.325,0.675]","","",""
"sailing-trial","338","1339100","0.0-11.0-303.0","","","","false","","","","","","","","","","null","","1145","","1","1","null","null","arrowup","[0.85,0.15,0.325,0.675]","","",""
"sailing-trial","339","1342886","0.0-11.0-304.0","","","","false","","","","","","","","","","689","","225","","0","1","arrowleft","0","arrowleft","[0.85,0.15,0.325,0.675]","","",""
"sailing-trial","340","1346620","0.0-11.0-305.0","","","","false","","","","","","","","","","null","","1826","","0","1","null","null","arrowup","[0.85,0.15,0.325,0.675]","","",""
"sailing-trial","341","1350174","0.0-11.0-306.0","","","","false","","","","","","","","","","1016","","302","","0","0","arrowleft","0","arrowleft","[0.85,0.15,0.325,0.675]","","",""
"sailing-trial","342","1352257","0.0-11.0-307.0","","","","false","","","","","","","","","","null","","751","","2","0","null","null","arrowup","[0.85,0.15,0.325,0.675]","","",""
"sailing-trial","343","1356035","0.0-11.0-308.0","","","","false","","","","","","","","","","678","","323","","0","1","arrowleft","0","arrowleft","[0.85,0.15,0.325,0.675]","","",""
"sailing-trial","344","1358231","0.0-11.0-309.0","","","","false","","","","","","","","","","null","","837","","1","0","null","null","arrowup","[0.85,0.15,0.325,0.675]","","",""
"sailing-trial","345","1362056","0.0-11.0-310.0","","","","false","","","","","","","","","","635","","88","","0","0","arrowleft","0","arrowleft","[0.85,0.15,0.325,0.675]","","",""
"sailing-trial","346","1364250","0.0-11.0-311.0","","","","false","","","","","","","","","","null","","1058","","1","0","null","null","arrowup","[0.85,0.15,0.325,0.675]","","",""
"sailing-trial","347","1367833","0.0-11.0-312.0","","","","false","","","","","","","","","","957","","515","","2","0","arrowright","1","arrowleft","[0.85,0.15,0.325,0.675]","","",""
"sailing-trial","348","1369872","0.0-11.0-313.0","","","","false","","","","","","","","","","null","","909","","1","0","null","null","arrowup","[0.85,0.15,0.325,0.675]","","",""
"sailing-trial","349","1373037","0.0-11.0-314.0","","","","false","","","","","","","","","","513","","35","","0","0","arrowleft","0","arrowleft","[0.15,0.85,0.675,0.325]","","",""
"sailing-trial","350","1375884","0.0-11.0-315.0","","","","false","","","","","","","","","","null","","1043","","0","1","null","null","arrowup","[0.15,0.85,0.675,0.325]","","",""
"sailing-trial","351","1379325","0.0-11.0-316.0","","","","false","","","","","","","","","","768","","88","","3","0","arrowright","1","arrowright","[0.15,0.85,0.675,0.325]","","",""
"sailing-trial","352","1381693","0.0-11.0-317.0","","","","false","","","","","","","","","","null","","639","","2","1","null","null","arrowup","[0.15,0.85,0.675,0.325]","","",""
"sailing-trial","353","1385269","0.0-11.0-318.0","","","","false","","","","","","","","","","550","","393","","2","1","arrowright","1","arrowleft","[0.15,0.85,0.675,0.325]","","",""
"sailing-trial","354","1387511","0.0-11.0-319.0","","","","false","","","","","","","","","","null","","945","","0","0","null","null","arrowup","[0.15,0.85,0.675,0.325]","","",""
"sailing-trial","355","1390963","0.0-11.0-320.0","","","","false","","","","","","","","","","538","","190","","2","1","arrowright","1","arrowleft","[0.15,0.85,0.675,0.325]","","",""
"sailing-trial","356","1393574","0.0-11.0-321.0","","","","false","","","","","","","","","","null","","888","","2","1","null","null","arrowup","[0.15,0.85,0.675,0.325]","","",""
"sailing-trial","357","1396975","0.0-11.0-322.0","","","","false","","","","","","","","","","544","","95","","2","1","arrowright","1","arrowleft","[0.15,0.85,0.675,0.325]","","",""
"sailing-trial","358","1399206","0.0-11.0-323.0","","","","false","","","","","","","","","","null","","921","","2","0","null","null","arrowup","[0.15,0.85,0.675,0.325]","","",""
"sailing-trial","359","1402181","0.0-11.0-324.0","","","","false","","","","","","","","","","526","","340","","2","0","arrowright","1","arrowleft","[0.15,0.85,0.675,0.325]","","",""
"sailing-trial","360","1405141","0.0-11.0-325.0","","","","false","","","","","","","","","","null","","1069","","3","1","null","null","arrowup","[0.15,0.85,0.675,0.325]","","",""
"sailing-trial","361","1410072","0.0-11.0-326.0","","","","false","","","","","","","","","","1761","","394","","2","1","arrowright","1","arrowleft","[0.15,0.85,0.675,0.325]","","",""
"sailing-trial","362","1413146","0.0-11.0-327.0","","","","false","","","","","","","","","","null","","1114","","2","1","null","null","arrowup","[0.15,0.85,0.675,0.325]","","",""
"sailing-trial","363","1416983","0.0-11.0-328.0","","","","false","","","","","","","","","","734","","199","","2","1","arrowright","1","arrowleft","[0.15,0.85,0.675,0.325]","","",""
"sailing-trial","364","1419931","0.0-11.0-329.0","","","","false","","","","","","","","","","null","","898","","0","0","null","null","arrowup","[0.15,0.85,0.675,0.325]","","",""
"sailing-trial","365","1423906","0.0-11.0-330.0","","","","false","","","","","","","","","","636","","387","","2","1","arrowright","1","arrowleft","[0.325,0.675,0.85,0.15]","","",""
"sailing-trial","366","1426518","0.0-11.0-331.0","","","","false","","","","","","","","","","null","","1123","","3","0","null","null","arrowup","[0.325,0.675,0.85,0.15]","","",""
"sailing-trial","367","1431027","0.0-11.0-332.0","","","","false","","","","","","","","","","982","","394","","2","1","arrowright","1","arrowleft","[0.325,0.675,0.85,0.15]","","",""
"sailing-trial","368","1433485","0.0-11.0-333.0","","","","false","","","","","","","","","","null","","932","","3","0","null","null","arrowup","[0.325,0.675,0.85,0.15]","","",""
"sailing-trial","369","1437301","0.0-11.0-334.0","","","","false","","","","","","","","","","711","","215","","2","1","arrowright","1","arrowleft","[0.325,0.675,0.85,0.15]","","",""
"sailing-trial","370","1440549","0.0-11.0-335.0","","","","false","","","","","","","","","","null","","1450","","2","1","null","null","arrowup","[0.325,0.675,0.85,0.15]","","",""
"sailing-trial","371","1445731","0.0-11.0-336.0","","","","false","","","","","","","","","","672","","1831","","2","1","arrowright","1","arrowleft","[0.325,0.675,0.85,0.15]","","",""
"sailing-trial","372","1448401","0.0-11.0-337.0","","","","false","","","","","","","","","","null","","870","","2","1","null","null","arrowup","[0.325,0.675,0.85,0.15]","","",""
"sailing-trial","373","1452018","0.0-11.0-338.0","","","","false","","","","","","","","","","832","","1","","2","1","arrowright","1","arrowleft","[0.325,0.675,0.85,0.15]","","",""
"sailing-trial","374","1454020","0.0-11.0-339.0","","","","false","","","","","","","","","","null","","932","","3","0","null","null","arrowup","[0.325,0.675,0.85,0.15]","","",""
"sailing-trial","375","1457999","0.0-11.0-340.0","","","","false","","","","","","","","","","718","","402","","2","1","arrowright","1","arrowleft","[0.325,0.675,0.85,0.15]","","",""
"sailing-trial","376","1460300","0.0-11.0-341.0","","","","false","","","","","","","","","","null","","955","","0","0","null","null","arrowup","[0.325,0.675,0.85,0.15]","","",""
"sailing-trial","377","1463804","0.0-11.0-342.0","","","","false","","","","","","","","","","540","","98","","2","1","arrowright","1","arrowleft","[0.325,0.675,0.85,0.15]","","",""
"sailing-trial","378","1466855","0.0-11.0-343.0","","","","false","","","","","","","","","","null","","849","","2","1","null","null","arrowup","[0.325,0.675,0.85,0.15]","","",""
"sailing-trial","379","1470526","0.0-11.0-344.0","","","","false","","","","","","","","","","566","","108","","2","1","arrowright","1","arrowleft","[0.325,0.675,0.85,0.15]","","",""
"sailing-trial","380","1472740","0.0-11.0-345.0","","","","false","","","","","","","","","","null","","859","","2","0","null","null","arrowup","[0.325,0.675,0.85,0.15]","","",""
"sailing-trial","381","1476157","0.0-11.0-346.0","","","","false","","","","","","","","","","555","","24","","2","1","arrowright","1","arrowleft","[0.325,0.675,0.85,0.15]","","",""
"sailing-trial","382","1478803","0.0-11.0-347.0","","","","false","","","","","","","","","","null","","945","","2","1","null","null","arrowup","[0.325,0.675,0.85,0.15]","","",""
"sailing-trial","383","1483955","0.0-11.0-348.0","","","","false","","","","","","","","","","628","","352","","2","1","arrowright","1","arrowleft","[0.325,0.675,0.85,0.15]","","",""
"sailing-trial","384","1486451","0.0-11.0-349.0","","","","false","","","","","","","","","","null","","774","","2","1","null","null","arrowup","[0.325,0.675,0.85,0.15]","","",""
"sailing-trial","385","1489731","0.0-11.0-350.0","","","","false","","","","","","","","","","468","","40","","2","1","arrowright","1","arrowleft","[0.675,0.325,0.15,0.85]","","",""
"sailing-trial","386","1492203","0.0-11.0-351.0","","","","false","","","","","","","","","","null","","788","","3","1","null","null","arrowup","[0.675,0.325,0.15,0.85]","","",""
"sailing-trial","387","1495162","0.0-11.0-352.0","","","","false","","","","","","","","","","528","","316","","2","0","arrowright","1","arrowleft","[0.675,0.325,0.15,0.85]","","",""
"sailing-trial","388","1497853","0.0-11.0-353.0","","","","false","","","","","","","","","","null","","979","","3","1","null","null","arrowup","[0.675,0.325,0.15,0.85]","","",""
"sailing-trial","389","1502239","0.0-11.0-354.0","","","","false","","","","","","","","","","1137","","617","","3","1","arrowright","1","arrowright","[0.675,0.325,0.15,0.85]","","",""
"sailing-trial","390","1505130","0.0-11.0-355.0","","","","false","","","","","","","","","","null","","816","","0","1","null","null","arrowup","[0.675,0.325,0.15,0.85]","","",""
"sailing-trial","391","1508537","0.0-11.0-356.0","","","","false","","","","","","","","","","524","","152","","3","1","arrowright","1","arrowright","[0.675,0.325,0.15,0.85]","","",""
"sailing-trial","392","1511076","0.0-11.0-357.0","","","","false","","","","","","","","","","null","","681","","0","1","null","null","arrowup","[0.675,0.325,0.15,0.85]","","",""
"sailing-trial","393","1515434","0.0-11.0-358.0","","","","false","","","","","","","","","","991","","491","","3","1","arrowright","1","arrowright","[0.675,0.325,0.15,0.85]","","",""
"sailing-trial","394","1517690","0.0-11.0-359.0","","","","false","","","","","","","","","","null","","951","","2","0","null","null","arrowup","[0.675,0.325,0.15,0.85]","","",""
"sailing-trial","395","1521673","0.0-11.0-360.0","","","","false","","","","","","","","","","655","","338","","3","1","arrowright","1","arrowright","[0.675,0.325,0.15,0.85]","","",""
"sailing-trial","396","1523476","0.0-11.0-361.0","","","","false","","","","","","","","","","null","","683","","3","0","null","null","arrowup","[0.675,0.325,0.15,0.85]","","",""
"sailing-trial","397","1526843","0.0-11.0-362.0","","","","false","","","","","","","","","","551","","106","","3","1","arrowright","1","arrowright","[0.675,0.325,0.15,0.85]","","",""
"sailing-trial","398","1528849","0.0-11.0-363.0","","","","false","","","","","","","","","","null","","873","","0","0","null","null","arrowup","[0.675,0.325,0.15,0.85]","","",""
"sailing-trial","399","1533119","0.0-11.0-364.0","","","","false","","","","","","","","","","480","","307","","3","1","arrowright","1","arrowright","[0.675,0.325,0.15,0.85]","","",""
"sailing-trial","400","1535142","0.0-11.0-365.0","","","","false","","","","","","","","","","null","","887","","1","0","null","null","arrowup","[0.675,0.325,0.15,0.85]","","",""
"sailing-trial","401","1538531","0.0-11.0-366.0","","","","false","","","","","","","","","","496","","21","","3","1","arrowright","1","arrowright","[0.675,0.325,0.15,0.85]","","",""
"sailing-trial","402","1541178","0.0-11.0-367.0","","","","false","","","","","","","","","","null","","865","","0","1","null","null","arrowup","[0.675,0.325,0.15,0.85]","","",""
"sailing-trial","403","1545716","0.0-11.0-368.0","","","","false","","","","","","","","","","584","","302","","3","1","arrowright","1","arrowright","[0.85,0.15,0.325,0.675]","","",""
"sailing-trial","404","1548529","0.0-11.0-369.0","","","","false","","","","","","","","","","null","","939","","3","1","null","null","arrowup","[0.85,0.15,0.325,0.675]","","",""
"sailing-trial","405","1552379","0.0-11.0-370.0","","","","false","","","","","","","","","","928","","93","","3","1","arrowright","1","arrowright","[0.85,0.15,0.325,0.675]","","",""
"sailing-trial","406","1554615","0.0-11.0-371.0","","","","false","","","","","","","","","","null","","888","","2","0","null","null","arrowup","[0.85,0.15,0.325,0.675]","","",""
"sailing-trial","407","1558052","0.0-11.0-372.0","","","","false","","","","","","","","","","531","","235","","3","1","arrowright","1","arrowright","[0.85,0.15,0.325,0.675]","","",""
"sailing-trial","408","1560697","0.0-11.0-373.0","","","","false","","","","","","","","","","null","","817","","0","1","null","null","arrowup","[0.85,0.15,0.325,0.675]","","",""
"sailing-trial","409","1564111","0.0-11.0-374.0","","","","false","","","","","","","","","","434","","125","","3","1","arrowright","1","arrowright","[0.85,0.15,0.325,0.675]","","",""
"sailing-trial","410","1566845","0.0-11.0-375.0","","","","false","","","","","","","","","","null","","888","","3","1","null","null","arrowup","[0.85,0.15,0.325,0.675]","","",""
"sailing-trial","411","1570748","0.0-11.0-376.0","","","","false","","","","","","","","","","858","","353","","3","1","arrowright","1","arrowright","[0.85,0.15,0.325,0.675]","","",""
"sailing-trial","412","1573140","0.0-11.0-377.0","","","","false","","","","","","","","","","null","","674","","3","1","null","null","arrowup","[0.85,0.15,0.325,0.675]","","",""
"sailing-trial","413","1576549","0.0-11.0-378.0","","","","false","","","","","","","","","","870","","118","","3","0","arrowright","1","arrowright","[0.85,0.15,0.325,0.675]","","",""
"sailing-trial","414","1582192","0.0-11.0-379.0","","","","false","","","","","","","","","","null","","3500","","2","1","null","null","arrowup","[0.85,0.15,0.325,0.675]","","",""
"sailing-trial","415","1586979","0.0-11.0-380.0","","","","false","","","","","","","","","","1830","","46","","0","1","arrowleft","0","arrowleft","[0.85,0.15,0.325,0.675]","","",""
"sailing-trial","416","1589882","0.0-11.0-381.0","","","","false","","","","","","","","","","null","","970","","0","1","null","null","arrowup","[0.85,0.15,0.325,0.675]","","",""
"sailing-trial","417","1593880","0.0-11.0-382.0","","","","false","","","","","","","","","","724","","323","","0","1","arrowleft","0","arrowleft","[0.85,0.15,0.325,0.675]","","",""
"sailing-trial","418","1598067","0.0-11.0-383.0","","","","false","","","","","","","","","","null","","2342","","0","1","null","null","arrowup","[0.85,0.15,0.325,0.675]","","",""
"sailing-trial","419","1602112","0.0-11.0-384.0","","","","false","","","","","","","","","","754","","298","","0","1","arrowleft","0","arrowleft","[0.325,0.675,0.85,0.15]","","",""
"sailing-trial","420","1604897","0.0-11.0-385.0","","","","false","","","","","","","","","","null","","726","","2","1","null","null","arrowup","[0.325,0.675,0.85,0.15]","","",""
"sailing-trial","421","1608528","0.0-11.0-386.0","","","","false","","","","","","","","","","503","","389","","0","1","arrowleft","0","arrowleft","[0.325,0.675,0.85,0.15]","","",""
"sailing-trial","422","1611422","0.0-11.0-387.0","","","","false","","","","","","","","","","null","","865","","1","1","null","null","arrowup","[0.325,0.675,0.85,0.15]","","",""
"sailing-trial","423","1614031","0.0-11.0-388.0","","","","false","","","","","","","","","","376","","78","","0","0","arrowleft","0","arrowleft","[0.325,0.675,0.85,0.15]","","",""
"sailing-trial","424","1616412","0.0-11.0-389.0","","","","false","","","","","","","","","","null","","751","","1","1","null","null","arrowup","[0.325,0.675,0.85,0.15]","","",""
"sailing-trial","425","1620444","0.0-11.0-390.0","","","","false","","","","","","","","","","469","","358","","1","1","arrowleft","0","arrowright","[0.325,0.675,0.85,0.15]","","",""
"sailing-trial","426","1622577","0.0-11.0-391.0","","","","false","","","","","","","","","","null","","704","","3","0","null","null","arrowup","[0.325,0.675,0.85,0.15]","","",""
"sailing-trial","427","1625621","0.0-11.0-392.0","","","","false","","","","","","","","","","450","","402","","1","0","arrowleft","0","arrowright","[0.325,0.675,0.85,0.15]","","",""
"sailing-trial","428","1628165","0.0-11.0-393.0","","","","false","","","","","","","","","","null","","839","","2","1","null","null","arrowup","[0.325,0.675,0.85,0.15]","","",""
"sailing-trial","429","1631349","0.0-11.0-394.0","","","","false","","","","","","","","","","438","","109","","1","1","arrowleft","0","arrowright","[0.325,0.675,0.85,0.15]","","",""
"sailing-trial","430","1633994","0.0-11.0-395.0","","","","false","","","","","","","","","","null","","644","","1","1","null","null","arrowup","[0.325,0.675,0.85,0.15]","","",""
"sailing-trial","431","1637057","0.0-11.0-396.0","","","","false","","","","","","","","","","620","","250","","1","0","arrowleft","0","arrowright","[0.325,0.675,0.85,0.15]","","",""
"sailing-trial","432","1638988","0.0-11.0-397.0","","","","false","","","","","","","","","","null","","778","","0","0","null","null","arrowup","[0.325,0.675,0.85,0.15]","","",""
"sailing-trial","433","1642503","0.0-11.0-398.0","","","","false","","","","","","","","","","552","","120","","2","1","arrowright","1","arrowleft","[0.325,0.675,0.85,0.15]","","",""
"sailing-trial","434","1644494","0.0-11.0-399.0","","","","false","","","","","","","","","","null","","652","","2","0","null","null","arrowup","[0.325,0.675,0.85,0.15]","","",""
"instructions","435","1648390","0.0-12.0","","","","","","","","","","3893","","","","","","","","","","","","","","","","[{""page_index"":0,""viewing_time"":3893}]"
"survey-debrief","436","1681487","0.0-13.0","","","","","","","","","","33094","","","","","","","","","","","","","","{""difficulty"":""5"",""fun"":""1"",""clarity"":""3"",""strategy"":""No"",""feedback"":""I'm not sure why there was a sound check, there was only audio during the instructions, but no audio for the task itself.""}","",""
