"trial_type","trial_index","time_elapsed","internal_node_id","value","metadata","success","timeout","failed_images","failed_audio","failed_video","browser_interaction","low_quality","rt","stimulus","response","button_pressed","island_rt","island_response","boat_rt","boat_response","boat","reward","island_key","island","boat_key","reward_probabilities","responses","num_errors","view_history"
"pavlovia","0","9","0.0-0.0","","","","","","","","","","","","","","","","","","","","","","","","","",""
"call-function","1","11","0.0-1.0","","{""task_version"":""sailing_part1_v1"",""task_condition"":""good"",""boats"":[""C"",""D"",""A"",""B""],""boats_demo"":[""F"",""G"",""E"",""H""],""islands"":[""A"",""B""],""subject_id"":""14535"",""age"":""10"",""gender"":""Female""}","","","","","","","","","","","","","","","","","","","","","","","",""
"preload","2","19190","0.0-2.0","","","true","false","[]","[]","[]","[{""event"":""fullscreenenter"",""trial"":3,""time"":24061}]","false","","","","","","","","","","","","","","","","",""
"fullscreen","3","25001","0.0-3.0","","","true","","","","","","","","","","","","","","","","","","","","","","",""
"audio-keyboard-response","4","31163","0.0-4.0-0.0","","","","","","","","","","6144","audio/beep_loop.wav"," ","","","","","","","","","","","","","",""
"audio-test","5","35875","0.0-4.0-1.0","","","","","","","","","","null","audio/turtle.mp3","","3","","","","","","","","","","","","",""
"audio-test","6","38739","0.0-4.0-2.0","","","","","","","","","","null","audio/shark.mp3","","2","","","","","","","","","","","","",""
"sailing-instructions","7","71361","0.0-5.0-0.0-0.0","","","","","","","","","","","","","","null","null","null","null","null","null","","","","","","",""
"sailing-trial","8","79048","0.0-5.0-0.0-1.0-0.0","","","","false","","","","","","","","","","6559.70000000298","","null","","null","null","arrowleft","0","null","null","","",""
"sailing-trial","9","82960","0.0-5.0-0.0-1.0-1.0","","","","false","","","","","","","","","","2777.3999999910593","","null","","null","null","arrowright","1","null","null","","",""
"sailing-trial","10","88053","0.0-5.0-0.0-1.0-2.0","","","","false","","","","","","","","","","3955.6000000089407","","null","","null","null","arrowleft","0","null","null","","",""
"sailing-instructions","11","132698","0.0-5.0-0.0-2.0","","","","","","","","","","","","","","null","null","null","null","0","null","","","","","","",""
"sailing-trial","12","145811","0.0-5.0-0.0-3.0-0.0","","","","false","","","","","","","","","","null","","4623.70000000298","","2","1","null","null","arrowleft","[1,1,1,1]","","",""
"sailing-trial","13","150720","0.0-5.0-0.0-3.0-1.0","","","","false","","","","","","","","","","null","","2355.7999999970198","","3","1","null","null","arrowright","[1,1,1,1]","","",""
"sailing-trial","14","156047","0.0-5.0-0.0-3.0-2.0","","","","false","","","","","","","","","","null","","2064.9000000059605","","3","0","null","null","arrowright","[0,0,0,0]","","",""
"sailing-instructions","15","168796","0.0-5.0-0.0-4.0","","","","","","","","","","","","","","null","null","null","null","null","null","","","","","","",""
"sailing-comprehension","16","216469","0.0-5.0-0.0-5.0","","","","","","","","","","34661.10000000894","","","","","","","","","","","","","","[""true"",""true"",""true"",""true""]","1",""
"sailing-instructions","17","250258","0.0-5.0-0.1-0.1","","","","","","","","","","","","","","null","null","null","null","null","null","","","","","","",""
"sailing-trial","18","257062","0.0-5.0-0.1-1.1-0.1","","","","false","","","","","","","","","","5680.600000008941","","null","","null","null","arrowleft","0","null","null","","",""
"sailing-trial","19","258823","0.0-5.0-0.1-1.1-1.1","","","","false","","","","","","","","","","634.5999999940395","","null","","null","null","arrowright","1","null","null","","",""
"sailing-trial","20","261205","0.0-5.0-0.1-1.1-2.1","","","","false","","","","","","","","","","1257.4000000059605","","null","","null","null","arrowleft","0","null","null","","",""
"sailing-instructions","21","303228","0.0-5.0-0.1-2.1","","","","","","","","","","","","","","null","null","null","null","0","null","","","","","","",""
"sailing-trial","22","309774","0.0-5.0-0.1-3.1-0.1","","","","false","","","","","","","","","","null","","3344.7999999970198","","2","1","null","null","arrowleft","[1,1,1,1]","","",""
"sailing-trial","23","312371","0.0-5.0-0.1-3.1-1.1","","","","false","","","","","","","","","","null","","457","","3","1","null","null","arrowright","[1,1,1,1]","","",""
"sailing-trial","24","317935","0.0-5.0-0.1-3.1-2.1","","","","false","","","","","","","","","","null","","2009.3999999910593","","2","0","null","null","arrowleft","[0,0,0,0]","","",""
"sailing-instructions","25","325528","0.0-5.0-0.1-4.1","","","","","","","","","","","","","","null","null","null","null","null","null","","","","","","",""
"sailing-comprehension","26","350897","0.0-5.0-0.1-5.1","","","","","","","","","","23063.19999998808","","","","","","","","","","","","","","[""true"",""true"",""false"",""true""]","0",""
"sailing-instructions","27","415784","0.0-6.0-0.0-0.0","","","","","","","","","","","","","","null","null","null","null","null","null","","","","","","",""
"sailing-comprehension","28","455035","0.0-6.0-0.0-1.0","","","","","","","","","","37378.60000000894","","","","","","","","","","","","","","[""true"",""false"",""true""]","0",""
"sailing-instructions","29","474998","0.0-7.0-0.0-0.0","","","","","","","","","","","","","","null","null","null","null","null","null","","","","","","",""
"sailing-trial","30","480084","0.0-7.0-0.0-1.0-0.0","","","","false","","","","","","","","","","null","","2055.5999999940395","","0","0","null","null","arrowup","[0.2,0.8,0.2,0.8]","","",""
"sailing-trial","31","483577","0.0-7.0-0.0-1.0-1.0","","","","false","","","","","","","","","","null","","1419.300000011921","","1","1","null","null","arrowup","[0.2,0.8,0.2,0.8]","","",""
"sailing-trial","32","486289","0.0-7.0-0.0-1.0-2.0","","","","false","","","","","","","","","","null","","800.2000000029802","","2","1","null","null","arrowup","[0.2,0.8,0.2,0.8]","","",""
"sailing-trial","33","489669","0.0-7.0-0.0-1.0-3.0","","","","false","","","","","","","","","","null","","697.5","","3","1","null","null","arrowup","[0.2,0.8,0.2,0.8]","","",""
"sailing-comprehension","34","502875","0.0-7.0-0.0-2.0","","","","","","","","","","11397.70000000298","","","","","","","","","","","","","","[""false""]","0",""
"sailing-instructions","35","513104","0.0-8.0-0.0-0.0","","","","","","","","","","","","","","null","null","null","null","null","null","","","","","","",""
"sailing-comprehension","36","519281","0.0-8.0-0.0-1.0","","","","","","","","","","4985.20000000298","","","","","","","","","","","","","","[""true""]","0",""
"sailing-instructions","37","551783","0.0-9.0-0.0-0.0","","","","","","","","","","","","","","null","null","null","null","null","null","","","","","","",""
"sailing-trial","38","561239","0.0-9.0-0.0-1.0-0.0","","","","false","","","","","","","","","","2292.9000000059605","","2085.7000000029802","","1","1","arrowleft","0","arrowright","[0.2,0.8,0.2,0.8]","","",""
"sailing-trial","39","566486","0.0-9.0-0.0-1.0-1.0","","","","false","","","","","","","","","","834.8999999910593","","349.5","","0","0","arrowleft","0","arrowleft","[0.2,0.8,0.2,0.8]","","",""
"sailing-trial","40","571179","0.0-9.0-0.0-1.0-2.0","","","","false","","","","","","","","","","null","","1652.8999999910593","","0","0","null","null","arrowup","[0.2,0.8,0.2,0.8]","","",""
"sailing-trial","41","576969","0.0-9.0-0.0-1.0-3.0","","","","false","","","","","","","","","","1350.7000000029802","","46.400000005960464","","3","1","arrowright","1","arrowright","[0.2,0.8,0.2,0.8]","","",""
"sailing-trial","42","580695","0.0-9.0-0.0-1.0-4.0","","","","false","","","","","","","","","","null","","1067.9000000059605","","3","1","null","null","arrowup","[0.2,0.8,0.2,0.8]","","",""
"sailing-trial","43","588052","0.0-9.0-0.0-1.0-5.0","","","","false","","","","","","","","","","1994.4000000059605","","1397.800000011921","","1","1","arrowleft","0","arrowright","[0.2,0.8,0.2,0.8]","","",""
"sailing-instructions","44","626051","0.0-10.0","","","","","","","","","","","","","","null","null","null","null","null","null","","","","","","",""
"sailing-trial","45","632428","0.0-11.0-0.0","","","","false","","","","","","","","","","1536.2999999970198","","719.2000000029802","","0","0","arrowleft","0","arrowleft","[0.325,0.675,0.15,0.85]","","",""
"sailing-trial","46","636310","0.0-11.0-1.0","","","","false","","","","","","","","","","null","","1551.7000000029802","","2","1","null","null","arrowup","[0.325,0.675,0.15,0.85]","","",""
"sailing-trial","47","641066","0.0-11.0-2.0","","","","false","","","","","","","","","","674.0999999940395","","822.5999999940395","","1","1","arrowleft","0","arrowright","[0.325,0.675,0.15,0.85]","","",""
"sailing-trial","48","647761","0.0-11.0-3.0","","","","false","","","","","","","","","","null","","3657.2999999970198","","2","0","null","null","arrowup","[0.325,0.675,0.15,0.85]","","",""
"sailing-trial","49","653265","0.0-11.0-4.0","","","","false","","","","","","","","","","1653","","581.8000000119209","","1","1","arrowleft","0","arrowright","[0.325,0.675,0.15,0.85]","","",""
"sailing-trial","50","656795","0.0-11.0-5.0","","","","false","","","","","","","","","","null","","1510","","2","1","null","null","arrowup","[0.325,0.675,0.15,0.85]","","",""
"sailing-trial","51","661925","0.0-11.0-6.0","","","","false","","","","","","","","","","595.0999999940395","","332.90000000596046","","2","0","arrowright","1","arrowleft","[0.325,0.675,0.15,0.85]","","",""
"sailing-trial","52","664883","0.0-11.0-7.0","","","","false","","","","","","","","","","null","","1301","","3","0","null","null","arrowup","[0.325,0.675,0.15,0.85]","","",""
"sailing-trial","53","668694","0.0-11.0-8.0","","","","false","","","","","","","","","","727.5","","32.900000005960464","","3","1","arrowright","1","arrowright","[0.325,0.675,0.15,0.85]","","",""
"sailing-trial","54","671173","0.0-11.0-9.0","","","","false","","","","","","","","","","null","","848","","0","0","null","null","arrowup","[0.325,0.675,0.15,0.85]","","",""
"sailing-trial","55","676665","0.0-11.0-10.0","","","","false","","","","","","","","","","682.6000000089407","","1186.5","","2","0","arrowright","1","arrowleft","[0.325,0.675,0.15,0.85]","","",""
"sailing-trial","56","680928","0.0-11.0-11.0","","","","false","","","","","","","","","","null","","2349.3999999910593","","1","1","null","null","arrowup","[0.325,0.675,0.15,0.85]","","",""
"sailing-trial","57","685268","0.0-11.0-12.0","","","","false","","","","","","","","","","740.7000000029802","","853.7000000029802","","2","0","arrowright","1","arrowleft","[0.325,0.675,0.15,0.85]","","",""
"sailing-trial","58","689602","0.0-11.0-13.0","","","","false","","","","","","","","","","null","","1305.300000011921","","2","0","null","null","arrowup","[0.325,0.675,0.15,0.85]","","",""
"sailing-trial","59","695926","0.0-11.0-14.0","","","","false","","","","","","","","","","1018.7000000029802","","1613.3999999910593","","1","1","arrowleft","0","arrowright","[0.325,0.675,0.15,0.85]","","",""
"sailing-trial","60","698490","0.0-11.0-15.0","","","","false","","","","","","","","","","null","","658.0999999940395","","2","0","null","null","arrowup","[0.325,0.675,0.15,0.85]","","",""
"sailing-trial","61","702930","0.0-11.0-16.0","","","","false","","","","","","","","","","474.90000000596046","","577.9000000059605","","0","0","arrowleft","0","arrowleft","[0.325,0.675,0.15,0.85]","","",""
"sailing-trial","62","706162","0.0-11.0-17.0","","","","false","","","","","","","","","","null","","659","","3","1","null","null","arrowup","[0.325,0.675,0.15,0.85]","","",""
"sailing-trial","63","712389","0.0-11.0-18.0","","","","false","","","","","","","","","","1261.2000000029802","","1573.9000000059605","","2","0","arrowright","1","arrowleft","[0.325,0.675,0.15,0.85]","","",""
"sailing-trial","64","716097","0.0-11.0-19.0","","","","false","","","","","","","","","","null","","1386.2999999970198","","0","1","null","null","arrowup","[0.325,0.675,0.15,0.85]","","",""
"sailing-trial","65","719811","0.0-11.0-20.0","","","","false","","","","","","","","","","568.7999999970198","","62","","3","1","arrowright","1","arrowright","[0.325,0.675,0.15,0.85]","","",""
"sailing-trial","66","722058","0.0-11.0-21.0","","","","false","","","","","","","","","","null","","677.2999999970198","","2","1","null","null","arrowup","[0.325,0.675,0.15,0.85]","","",""
"sailing-trial","67","727587","0.0-11.0-22.0","","","","false","","","","","","","","","","306.30000001192093","","1149.4000000059605","","2","0","arrowright","1","arrowleft","[0.15,0.85,0.325,0.675]","","",""
"sailing-trial","68","731914","0.0-11.0-23.0","","","","false","","","","","","","","","","null","","2133.1000000089407","","3","0","null","null","arrowup","[0.15,0.85,0.325,0.675]","","",""
"sailing-trial","69","737403","0.0-11.0-24.0","","","","false","","","","","","","","","","1082.7000000029802","","1239.5999999940395","","0","1","arrowleft","0","arrowleft","[0.15,0.85,0.325,0.675]","","",""
"sailing-trial","70","740148","0.0-11.0-25.0","","","","false","","","","","","","","","","null","","695.5","","0","1","null","null","arrowup","[0.15,0.85,0.325,0.675]","","",""
"sailing-trial","71","744179","0.0-11.0-26.0","","","","false","","","","","","","","","","825.5999999940395","","78","","2","1","arrowright","1","arrowleft","[0.15,0.85,0.325,0.675]","","",""
"sailing-trial","72","747057","0.0-11.0-27.0","","","","false","","","","","","","","","","null","","696.2000000029802","","1","1","null","null","arrowup","[0.15,0.85,0.325,0.675]","","",""
"sailing-trial","73","751918","0.0-11.0-28.0","","","","false","","","","","","","","","","601","","1032.800000011921","","2","1","arrowright","1","arrowleft","[0.15,0.85,0.325,0.675]","","",""
"sailing-trial","74","756811","0.0-11.0-29.0","","","","false","","","","","","","","","","null","","2876.2000000029802","","1","1","null","null","arrowup","[0.15,0.85,0.325,0.675]","","",""
"sailing-trial","75","762104","0.0-11.0-30.0","","","","false","","","","","","","","","","1674.3999999910593","","620.1999999880791","","1","1","arrowleft","0","arrowright","[0.15,0.85,0.325,0.675]","","",""
"sailing-trial","76","765835","0.0-11.0-31.0","","","","false","","","","","","","","","","null","","1374.9000000059605","","0","0","null","null","arrowup","[0.15,0.85,0.325,0.675]","","",""
"sailing-trial","77","771227","0.0-11.0-32.0","","","","false","","","","","","","","","","1414.6000000089407","","508.20000000298023","","2","1","arrowright","1","arrowleft","[0.15,0.85,0.325,0.675]","","",""
"sailing-trial","78","773953","0.0-11.0-33.0","","","","false","","","","","","","","","","null","","750.6999999880791","","1","1","null","null","arrowup","[0.15,0.85,0.325,0.675]","","",""
"sailing-trial","79","779382","0.0-11.0-34.0","","","","false","","","","","","","","","","1236.4000000059605","","806.7000000029802","","1","1","arrowleft","0","arrowright","[0.15,0.85,0.325,0.675]","","",""
"sailing-trial","80","783774","0.0-11.0-35.0","","","","false","","","","","","","","","","null","","2468.9000000059605","","2","1","null","null","arrowup","[0.15,0.85,0.325,0.675]","","",""
"sailing-trial","81","788234","0.0-11.0-36.0","","","","false","","","","","","","","","","575.2000000029802","","794","","2","1","arrowright","1","arrowleft","[0.15,0.85,0.325,0.675]","","",""
"sailing-trial","82","791475","0.0-11.0-37.0","","","","false","","","","","","","","","","null","","1389.300000011921","","0","0","null","null","arrowup","[0.15,0.85,0.325,0.675]","","",""
"sailing-trial","83","797195","0.0-11.0-38.0","","","","false","","","","","","","","","","2266.5","","1006","","3","0","arrowright","1","arrowright","[0.15,0.85,0.325,0.675]","","",""
"sailing-trial","84","800225","0.0-11.0-39.0","","","","false","","","","","","","","","","null","","1014.5999999940395","","2","1","null","null","arrowup","[0.15,0.85,0.325,0.675]","","",""
"sailing-trial","85","805035","0.0-11.0-40.0","","","","false","","","","","","","","","","473.69999998807907","","1327.2000000029802","","1","0","arrowleft","0","arrowright","[0.325,0.675,0.15,0.85]","","",""
"sailing-trial","86","809264","0.0-11.0-41.0","","","","false","","","","","","","","","","null","","3172.6000000089407","","2","0","null","null","arrowup","[0.325,0.675,0.15,0.85]","","",""
"sailing-trial","87","814404","0.0-11.0-42.0","","","","false","","","","","","","","","","1141.9000000059605","","1171.5","","0","0","arrowleft","0","arrowleft","[0.325,0.675,0.15,0.85]","","",""
"sailing-trial","88","817676","0.0-11.0-43.0","","","","false","","","","","","","","","","null","","1501.5999999940395","","0","0","null","null","arrowup","[0.325,0.675,0.15,0.85]","","",""
"sailing-trial","89","822594","0.0-11.0-44.0","","","","false","","","","","","","","","","446.5","","679.4000000059605","","2","0","arrowright","1","arrowleft","[0.325,0.675,0.15,0.85]","","",""
"sailing-trial","90","824864","0.0-11.0-45.0","","","","false","","","","","","","","","","null","","934.4000000059605","","0","0","null","null","arrowup","[0.325,0.675,0.15,0.85]","","",""
"sailing-trial","91","829048","0.0-11.0-46.0","","","","false","","","","","","","","","","549.2999999970198","","507.40000000596046","","3","1","arrowright","1","arrowright","[0.325,0.675,0.15,0.85]","","",""
"sailing-trial","92","831660","0.0-11.0-47.0","","","","false","","","","","","","","","","null","","751","","1","1","null","null","arrowup","[0.325,0.675,0.15,0.85]","","",""
"sailing-trial","93","836905","0.0-11.0-48.0","","","","false","","","","","","","","","","642.7999999970198","","1248.300000011921","","1","1","arrowleft","0","arrowright","[0.325,0.675,0.15,0.85]","","",""
"sailing-trial","94","839892","0.0-11.0-49.0","","","","false","","","","","","","","","","null","","1626.800000011921","","2","0","null","null","arrowup","[0.325,0.675,0.15,0.85]","","",""
"sailing-trial","95","845301","0.0-11.0-50.0","","","","false","","","","","","","","","","674.6999999880791","","1202.0999999940395","","2","0","arrowright","1","arrowleft","[0.325,0.675,0.15,0.85]","","",""
"sailing-trial","96","849887","0.0-11.0-51.0","","","","false","","","","","","","","","","null","","1553.7000000029802","","1","0","null","null","arrowup","[0.325,0.675,0.15,0.85]","","",""
"sailing-trial","97","855528","0.0-11.0-52.0","","","","false","","","","","","","","","","852.3999999910593","","1744.9000000059605","","1","1","arrowleft","0","arrowright","[0.325,0.675,0.15,0.85]","","",""
"sailing-trial","98","858527","0.0-11.0-53.0","","","","false","","","","","","","","","","null","","1365.2999999970198","","1","0","null","null","arrowup","[0.325,0.675,0.15,0.85]","","",""
"sailing-trial","99","864220","0.0-11.0-54.0","","","","false","","","","","","","","","","672.7999999970198","","987","","2","0","arrowright","1","arrowleft","[0.325,0.675,0.15,0.85]","","",""
"sailing-trial","100","866489","0.0-11.0-55.0","","","","false","","","","","","","","","","null","","754.1000000089407","","2","0","null","null","arrowup","[0.325,0.675,0.15,0.85]","","",""
"sailing-trial","101","870658","0.0-11.0-56.0","","","","false","","","","","","","","","","687.5999999940395","","495.6000000089407","","0","1","arrowleft","0","arrowleft","[0.325,0.675,0.15,0.85]","","",""
"sailing-trial","102","874602","0.0-11.0-57.0","","","","false","","","","","","","","","","null","","1479.699999988079","","1","1","null","null","arrowup","[0.325,0.675,0.15,0.85]","","",""
"sailing-trial","103","878488","0.0-11.0-58.0","","","","false","","","","","","","","","","995.2999999970198","","355.79999999701977","","2","0","arrowright","1","arrowleft","[0.15,0.85,0.325,0.675]","","",""
"sailing-trial","104","882413","0.0-11.0-59.0","","","","false","","","","","","","","","","null","","897.2999999970198","","0","0","null","null","arrowup","[0.15,0.85,0.325,0.675]","","",""
"sailing-trial","105","886937","0.0-11.0-60.0","","","","false","","","","","","","","","","526.9000000059605","","465.20000000298023","","3","1","arrowright","1","arrowright","[0.15,0.85,0.325,0.675]","","",""
"sailing-trial","106","890813","0.0-11.0-61.0","","","","false","","","","","","","","","","null","","2117.2000000029802","","2","0","null","null","arrowup","[0.15,0.85,0.325,0.675]","","",""
"sailing-trial","107","894927","0.0-11.0-62.0","","","","false","","","","","","","","","","482.59999999403954","","1016.7000000029802","","0","0","arrowleft","0","arrowleft","[0.15,0.85,0.325,0.675]","","",""
"sailing-trial","108","898469","0.0-11.0-63.0","","","","false","","","","","","","","","","null","","1498.6000000089407","","3","1","null","null","arrowup","[0.15,0.85,0.325,0.675]","","",""
"sailing-trial","109","901955","0.0-11.0-64.0","","","","false","","","","","","","","","","514.2000000029802","","419.70000000298023","","2","0","arrowright","1","arrowleft","[0.15,0.85,0.325,0.675]","","",""
"sailing-trial","110","905396","0.0-11.0-65.0","","","","false","","","","","","","","","","null","","1451.6000000089407","","2","1","null","null","arrowup","[0.15,0.85,0.325,0.675]","","",""
"sailing-trial","111","908970","0.0-11.0-66.0","","","","false","","","","","","","","","","831.3000000119209","","16","","1","0","arrowleft","0","arrowright","[0.15,0.85,0.325,0.675]","","",""
"sailing-trial","112","911644","0.0-11.0-67.0","","","","false","","","","","","","","","","null","","1246.7000000029802","","0","0","null","null","arrowup","[0.15,0.85,0.325,0.675]","","",""
"sailing-trial","113","915703","0.0-11.0-68.0","","","","false","","","","","","","","","","532.5","","658.5","","2","0","arrowright","1","arrowleft","[0.15,0.85,0.325,0.675]","","",""
"sailing-trial","114","918408","0.0-11.0-69.0","","","","false","","","","","","","","","","null","","1137.7000000029802","","0","0","null","null","arrowup","[0.15,0.85,0.325,0.675]","","",""
"sailing-trial","115","921973","0.0-11.0-70.0","","","","false","","","","","","","","","","479.20000000298023","","32.19999998807907","","3","1","arrowright","1","arrowright","[0.15,0.85,0.325,0.675]","","",""
"sailing-trial","116","923990","0.0-11.0-71.0","","","","false","","","","","","","","","","null","","646.3999999910593","","2","0","null","null","arrowup","[0.15,0.85,0.325,0.675]","","",""
"sailing-trial","117","927608","0.0-11.0-72.0","","","","false","","","","","","","","","","935.6000000089407","","185.30000001192093","","0","0","arrowleft","0","arrowleft","[0.15,0.85,0.325,0.675]","","",""
"sailing-trial","118","931079","0.0-11.0-73.0","","","","false","","","","","","","","","","null","","1579.4000000059605","","3","1","null","null","arrowup","[0.15,0.85,0.325,0.675]","","",""
"sailing-trial","119","934688","0.0-11.0-74.0","","","","false","","","","","","","","","","588.6000000089407","","82.79999999701977","","3","1","arrowright","1","arrowright","[0.15,0.85,0.325,0.675]","","",""
"sailing-trial","120","937358","0.0-11.0-75.0","","","","false","","","","","","","","","","null","","1348.5999999940395","","2","0","null","null","arrowup","[0.15,0.85,0.325,0.675]","","",""
"sailing-trial","121","941645","0.0-11.0-76.0","","","","false","","","","","","","","","","967.8999999910593","","994.6999999880791","","0","0","arrowleft","0","arrowleft","[0.15,0.85,0.325,0.675]","","",""
"sailing-trial","122","944577","0.0-11.0-77.0","","","","false","","","","","","","","","","null","","1000.4000000059605","","0","1","null","null","arrowup","[0.15,0.85,0.325,0.675]","","",""
"sailing-trial","123","948038","0.0-11.0-78.0","","","","false","","","","","","","","","","250","","342.3999999910593","","2","1","arrowright","1","arrowleft","[0.15,0.85,0.325,0.675]","","",""
"sailing-trial","124","951319","0.0-11.0-79.0","","","","false","","","","","","","","","","null","","1449.1000000089407","","1","1","null","null","arrowup","[0.15,0.85,0.325,0.675]","","",""
"sailing-trial","125","956579","0.0-11.0-80.0","","","","false","","","","","","","","","","1472.800000011921","","942.5999999940395","","1","1","arrowleft","0","arrowright","[0.15,0.85,0.325,0.675]","","",""
"sailing-trial","126","959140","0.0-11.0-81.0","","","","false","","","","","","","","","","null","","769.1000000089407","","2","1","null","null","arrowup","[0.15,0.85,0.325,0.675]","","",""
"sailing-trial","127","962961","0.0-11.0-82.0","","","","false","","","","","","","","","","429.40000000596046","","813.2999999970198","","0","0","arrowleft","0","arrowleft","[0.325,0.675,0.15,0.85]","","",""
"sailing-trial","128","965299","0.0-11.0-83.0","","","","false","","","","","","","","","","null","","1068.9000000059605","","2","0","null","null","arrowup","[0.325,0.675,0.15,0.85]","","",""
"sailing-trial","129","971256","0.0-11.0-84.0","","","","false","","","","","","","","","","508.20000000298023","","681.1999999880791","","3","1","arrowright","1","arrowright","[0.325,0.675,0.15,0.85]","","",""
"sailing-trial","130","973573","0.0-11.0-85.0","","","","false","","","","","","","","","","null","","414.40000000596046","","1","1","null","null","arrowup","[0.325,0.675,0.15,0.85]","","",""
"sailing-trial","131","978550","0.0-11.0-86.0","","","","false","","","","","","","","","","1218.6000000089407","","610.2999999970198","","2","0","arrowright","1","arrowleft","[0.325,0.675,0.15,0.85]","","",""
"sailing-trial","132","982508","0.0-11.0-87.0","","","","false","","","","","","","","","","null","","1997.4000000059605","","1","1","null","null","arrowup","[0.325,0.675,0.15,0.85]","","",""
"sailing-trial","133","988121","0.0-11.0-88.0","","","","false","","","","","","","","","","991.5","","579.5","","2","0","arrowright","1","arrowleft","[0.325,0.675,0.15,0.85]","","",""
"sailing-trial","134","992447","0.0-11.0-89.0","","","","false","","","","","","","","","","null","","1291.5","","0","0","null","null","arrowup","[0.325,0.675,0.15,0.85]","","",""
"sailing-trial","135","998106","0.0-11.0-90.0","","","","false","","","","","","","","","","1810.0999999940395","","606.7999999970198","","3","1","arrowright","1","arrowright","[0.325,0.675,0.15,0.85]","","",""
"sailing-trial","136","1001177","0.0-11.0-91.0","","","","false","","","","","","","","","","null","","1358","","0","0","null","null","arrowup","[0.325,0.675,0.15,0.85]","","",""
"sailing-trial","137","1005801","0.0-11.0-92.0","","","","false","","","","","","","","","","1193.699999988079","","878.5999999940395","","0","0","arrowleft","0","arrowleft","[0.325,0.675,0.15,0.85]","","",""
"sailing-trial","138","1008660","0.0-11.0-93.0","","","","false","","","","","","","","","","null","","918.0999999940395","","1","1","null","null","arrowup","[0.325,0.675,0.15,0.85]","","",""
"sailing-trial","139","1013854","0.0-11.0-94.0","","","","false","","","","","","","","","","667.6999999880791","","463.8999999910593","","2","0","arrowright","1","arrowleft","[0.325,0.675,0.15,0.85]","","",""
"sailing-trial","140","1020825","0.0-11.0-95.0","","","","false","","","","","","","","","","null","","5009.0999999940395","","1","1","null","null","arrowup","[0.325,0.675,0.15,0.85]","","",""
"sailing-trial","141","1027518","0.0-11.0-96.0","","","","false","","","","","","","","","","1174.7999999970198","","1454.9000000059605","","0","0","arrowleft","0","arrowleft","[0.325,0.675,0.15,0.85]","","",""
"sailing-trial","142","1031397","0.0-11.0-97.0","","","","false","","","","","","","","","","null","","841.1999999880791","","2","0","null","null","arrowup","[0.325,0.675,0.15,0.85]","","",""
"sailing-trial","143","1037603","0.0-11.0-98.0","","","","false","","","","","","","","","","926","","84.5","","3","1","arrowright","1","arrowright","[0.325,0.675,0.15,0.85]","","",""
"sailing-trial","144","1041242","0.0-11.0-99.0","","","","false","","","","","","","","","","null","","1837.800000011921","","2","0","null","null","arrowup","[0.325,0.675,0.15,0.85]","","",""
"sailing-trial","145","1046343","0.0-11.0-100.0","","","","false","","","","","","","","","","975.7999999970198","","642.9000000059605","","1","1","arrowleft","0","arrowright","[0.325,0.675,0.15,0.85]","","",""
"sailing-trial","146","1049919","0.0-11.0-101.0","","","","false","","","","","","","","","","null","","1407.2999999970198","","2","0","null","null","arrowup","[0.325,0.675,0.15,0.85]","","",""
"sailing-trial","147","1066647","0.0-11.0-102.0","","","","false","","","","","","","","","","8491","","3002.800000011921","","1","1","arrowleft","0","arrowright","[0.325,0.675,0.15,0.85]","","",""
"sailing-trial","148","1071493","0.0-11.0-103.0","","","","false","","","","","","","","","","null","","1818.5","","2","0","null","null","arrowup","[0.325,0.675,0.15,0.85]","","",""
"sailing-trial","149","1081847","0.0-11.0-104.0","","","","false","","","","","","","","","","4010.4000000059605","","2276.5999999940395","","0","0","arrowleft","0","arrowleft","[0.675,0.325,0.85,0.15]","","",""
"sailing-trial","150","1089636","0.0-11.0-105.0","","","","false","","","","","","","","","","null","","4750.4000000059605","","3","0","null","null","arrowup","[0.675,0.325,0.85,0.15]","","",""
"sailing-trial","151","1097758","0.0-11.0-106.0","","","","false","","","","","","","","","","3050","","1019.8000000119209","","3","0","arrowright","1","arrowright","[0.675,0.325,0.85,0.15]","","",""
"sailing-trial","152","1104631","0.0-11.0-107.0","","","","false","","","","","","","","","","null","","2591.7000000029802","","1","1","null","null","arrowup","[0.675,0.325,0.85,0.15]","","",""
"sailing-trial","153","1113118","0.0-11.0-108.0","","","","false","","","","","","","","","","3528.199999988079","","828.8000000119209","","2","1","arrowright","1","arrowleft","[0.675,0.325,0.85,0.15]","","",""
"sailing-trial","154","1117948","0.0-11.0-109.0","","","","false","","","","","","","","","","null","","2081.3999999910593","","2","1","null","null","arrowup","[0.675,0.325,0.85,0.15]","","",""
"sailing-trial","155","1123690","0.0-11.0-110.0","","","","false","","","","","","","","","","1549","","142.6000000089407","","3","0","arrowright","1","arrowright","[0.675,0.325,0.85,0.15]","","",""
"sailing-trial","156","1128847","0.0-11.0-111.0","","","","false","","","","","","","","","","null","","3119.5","","3","1","null","null","arrowup","[0.675,0.325,0.85,0.15]","","",""
"sailing-trial","157","1134705","0.0-11.0-112.0","","","","false","","","","","","","","","","2125.6000000089407","","389","","0","1","arrowleft","0","arrowleft","[0.675,0.325,0.85,0.15]","","",""
"sailing-trial","158","1138278","0.0-11.0-113.0","","","","false","","","","","","","","","","null","","2263.0999999940395","","1","0","null","null","arrowup","[0.675,0.325,0.85,0.15]","","",""
"sailing-trial","159","1143281","0.0-11.0-114.0","","","","false","","","","","","","","","","749.2999999970198","","222.3999999910593","","1","0","arrowleft","0","arrowright","[0.675,0.325,0.85,0.15]","","",""
"sailing-trial","160","1149968","0.0-11.0-115.0","","","","false","","","","","","","","","","null","","4737.699999988079","","0","1","null","null","arrowup","[0.675,0.325,0.85,0.15]","","",""
"sailing-trial","161","1156436","0.0-11.0-116.0","","","","false","","","","","","","","","","1744.9000000059605","","753.5","","1","0","arrowleft","0","arrowright","[0.675,0.325,0.85,0.15]","","",""
"sailing-trial","162","1161868","0.0-11.0-117.0","","","","false","","","","","","","","","","null","","2365.699999988079","","0","0","null","null","arrowup","[0.675,0.325,0.85,0.15]","","",""
"sailing-trial","163","1167132","0.0-11.0-118.0","","","","false","","","","","","","","","","747.9000000059605","","457.30000001192093","","3","0","arrowright","1","arrowright","[0.675,0.325,0.85,0.15]","","",""
"sailing-trial","164","1171859","0.0-11.0-119.0","","","","false","","","","","","","","","","null","","1846.8999999910593","","3","0","null","null","arrowup","[0.675,0.325,0.85,0.15]","","",""
"sailing-trial","165","1176085","0.0-11.0-120.0","","","","false","","","","","","","","","","909.4000000059605","","31.400000005960464","","2","1","arrowright","1","arrowleft","[0.675,0.325,0.85,0.15]","","",""
"sailing-trial","166","1180712","0.0-11.0-121.0","","","","false","","","","","","","","","","null","","2681.5999999940395","","0","1","null","null","arrowup","[0.675,0.325,0.85,0.15]","","",""
"sailing-trial","167","1186168","0.0-11.0-122.0","","","","false","","","","","","","","","","960.5999999940395","","563.0999999940395","","1","0","arrowleft","0","arrowright","[0.675,0.325,0.85,0.15]","","",""
"sailing-trial","168","1191233","0.0-11.0-123.0","","","","false","","","","","","","","","","null","","3027.2000000029802","","0","1","null","null","arrowup","[0.675,0.325,0.85,0.15]","","",""
"sailing-trial","169","1194700","0.0-11.0-124.0","","","","false","","","","","","","","","","632.8000000119209","","53.19999998807907","","3","0","arrowright","1","arrowright","[0.85,0.15,0.675,0.325]","","",""
"sailing-trial","170","1198927","0.0-11.0-125.0","","","","false","","","","","","","","","","null","","1627.9000000059605","","1","0","null","null","arrowup","[0.85,0.15,0.675,0.325]","","",""
"sailing-trial","171","1203082","0.0-11.0-126.0","","","","false","","","","","","","","","","827.5999999940395","","184.79999999701977","","2","1","arrowright","1","arrowleft","[0.85,0.15,0.675,0.325]","","",""
"sailing-trial","172","1206843","0.0-11.0-127.0","","","","false","","","","","","","","","","null","","1766.8999999910593","","1","1","null","null","arrowup","[0.85,0.15,0.675,0.325]","","",""
"sailing-trial","173","1212218","0.0-11.0-128.0","","","","false","","","","","","","","","","1012.7999999970198","","1306.4000000059605","","0","1","arrowleft","0","arrowleft","[0.85,0.15,0.675,0.325]","","",""
"sailing-trial","174","1216231","0.0-11.0-129.0","","","","false","","","","","","","","","","null","","1775.5999999940395","","1","0","null","null","arrowup","[0.85,0.15,0.675,0.325]","","",""
"sailing-trial","175","1220466","0.0-11.0-130.0","","","","false","","","","","","","","","","1428","","197","","1","0","arrowleft","0","arrowright","[0.85,0.15,0.675,0.325]","","",""
"sailing-trial","176","1224222","0.0-11.0-131.0","","","","false","","","","","","","","","","null","","1858.6000000089407","","2","1","null","null","arrowup","[0.85,0.15,0.675,0.325]","","",""
"sailing-trial","177","1229133","0.0-11.0-132.0","","","","false","","","","","","","","","","641.1000000089407","","247.29999999701977","","3","0","arrowright","1","arrowright","[0.85,0.15,0.675,0.325]","","",""
"sailing-trial","178","1231712","0.0-11.0-133.0","","","","false","","","","","","","","","","null","","1044.4000000059605","","3","0","null","null","arrowup","[0.85,0.15,0.675,0.325]","","",""
"sailing-trial","179","1236970","0.0-11.0-134.0","","","","false","","","","","","","","","","1489.4000000059605","","773.9000000059605","","0","1","arrowleft","0","arrowleft","[0.85,0.15,0.675,0.325]","","",""
"sailing-trial","180","1240263","0.0-11.0-135.0","","","","false","","","","","","","","","","null","","1402.199999988079","","2","1","null","null","arrowup","[0.85,0.15,0.675,0.325]","","",""
"sailing-trial","181","1244657","0.0-11.0-136.0","","","","false","","","","","","","","","","857.7000000029802","","389","","3","0","arrowright","1","arrowright","[0.85,0.15,0.675,0.325]","","",""
"sailing-trial","182","1248739","0.0-11.0-137.0","","","","false","","","","","","","","","","null","","2129","","2","1","null","null","arrowup","[0.85,0.15,0.675,0.325]","","",""
"sailing-trial","183","1252647","0.0-11.0-138.0","","","","false","","","","","","","","","","1013.2000000029802","","217.29999999701977","","3","0","arrowright","1","arrowright","[0.85,0.15,0.675,0.325]","","",""
"sailing-trial","184","1255782","0.0-11.0-139.0","","","","false","","","","","","","","","","null","","1389.5","","1","0","null","null","arrowup","[0.85,0.15,0.675,0.325]","","",""
"sailing-trial","185","1259906","0.0-11.0-140.0","","","","false","","","","","","","","","","650.6000000089407","","288","","0","1","arrowleft","0","arrowleft","[0.85,0.15,0.675,0.325]","","",""
"sailing-trial","186","1264200","0.0-11.0-141.0","","","","false","","","","","","","","","","null","","1827.0999999940395","","0","1","null","null","arrowup","[0.85,0.15,0.675,0.325]","","",""
"sailing-trial","187","1268526","0.0-11.0-142.0","","","","false","","","","","","","","","","910.5","","528.7999999970198","","3","0","arrowright","1","arrowright","[0.675,0.325,0.85,0.15]","","",""
"sailing-trial","188","1273803","0.0-11.0-143.0","","","","false","","","","","","","","","","null","","3162.7000000029802","","3","0","null","null","arrowup","[0.675,0.325,0.85,0.15]","","",""
"sailing-trial","189","1278122","0.0-11.0-144.0","","","","false","","","","","","","","","","704","","85.70000000298023","","0","0","arrowleft","0","arrowleft","[0.675,0.325,0.85,0.15]","","",""
"sailing-trial","190","1281709","0.0-11.0-145.0","","","","false","","","","","","","","","","null","","1693.4000000059605","","0","1","null","null","arrowup","[0.675,0.325,0.85,0.15]","","",""
"sailing-trial","191","1286521","0.0-11.0-146.0","","","","false","","","","","","","","","","785.5","","1429","","3","0","arrowright","1","arrowright","[0.675,0.325,0.85,0.15]","","",""
"sailing-trial","192","1290731","0.0-11.0-147.0","","","","false","","","","","","","","","","null","","2345.2999999970198","","2","1","null","null","arrowup","[0.675,0.325,0.85,0.15]","","",""
"sailing-trial","193","1295090","0.0-11.0-148.0","","","","false","","","","","","","","","","1196.5","","105.19999998807907","","3","0","arrowright","1","arrowright","[0.675,0.325,0.85,0.15]","","",""
"sailing-trial","194","1298755","0.0-11.0-149.0","","","","false","","","","","","","","","","null","","1727.199999988079","","1","1","null","null","arrowup","[0.675,0.325,0.85,0.15]","","",""
"sailing-trial","195","1303614","0.0-11.0-150.0","","","","false","","","","","","","","","","648.2999999970198","","781","","0","1","arrowleft","0","arrowleft","[0.675,0.325,0.85,0.15]","","",""
"sailing-trial","196","1306712","0.0-11.0-151.0","","","","false","","","","","","","","","","null","","1190.2000000029802","","2","1","null","null","arrowup","[0.675,0.325,0.85,0.15]","","",""
"sailing-trial","197","1310794","0.0-11.0-152.0","","","","false","","","","","","","","","","730.3000000119209","","89.20000000298023","","1","0","arrowleft","0","arrowright","[0.675,0.325,0.85,0.15]","","",""
"sailing-trial","198","1314219","0.0-11.0-153.0","","","","false","","","","","","","","","","null","","1557.8999999910593","","3","0","null","null","arrowup","[0.675,0.325,0.85,0.15]","","",""
"sailing-trial","199","1317343","0.0-11.0-154.0","","","","false","","","","","","","","","","552","","107.80000001192093","","3","0","arrowright","1","arrowright","[0.675,0.325,0.85,0.15]","","",""
"sailing-trial","200","1321306","0.0-11.0-155.0","","","","false","","","","","","","","","","null","","1239.8999999910593","","0","0","null","null","arrowup","[0.675,0.325,0.85,0.15]","","",""
"sailing-trial","201","1325583","0.0-11.0-156.0","","","","false","","","","","","","","","","558.3000000119209","","511","","2","1","arrowright","1","arrowleft","[0.675,0.325,0.85,0.15]","","",""
"sailing-trial","202","1329634","0.0-11.0-157.0","","","","false","","","","","","","","","","null","","2033.5","","3","0","null","null","arrowup","[0.675,0.325,0.85,0.15]","","",""
"sailing-trial","203","1333756","0.0-11.0-158.0","","","","false","","","","","","","","","","631.7999999970198","","508.09999999403954","","2","1","arrowright","1","arrowleft","[0.675,0.325,0.85,0.15]","","",""
"sailing-trial","204","1336869","0.0-11.0-159.0","","","","false","","","","","","","","","","null","","1095.2999999970198","","3","0","null","null","arrowup","[0.675,0.325,0.85,0.15]","","",""
"sailing-trial","205","1341424","0.0-11.0-160.0","","","","false","","","","","","","","","","1054","","66.5","","2","0","arrowright","1","arrowleft","[0.85,0.15,0.675,0.325]","","",""
"sailing-trial","206","1344977","0.0-11.0-161.0","","","","false","","","","","","","","","","null","","1506.199999988079","","2","1","null","null","arrowup","[0.85,0.15,0.675,0.325]","","",""
"sailing-trial","207","1348686","0.0-11.0-162.0","","","","false","","","","","","","","","","600.0999999940395","","63.29999999701977","","0","1","arrowleft","0","arrowleft","[0.85,0.15,0.675,0.325]","","",""
"sailing-trial","208","1351633","0.0-11.0-163.0","","","","false","","","","","","","","","","null","","1074.4000000059605","","0","1","null","null","arrowup","[0.85,0.15,0.675,0.325]","","",""
"sailing-trial","209","1356176","0.0-11.0-164.0","","","","false","","","","","","","","","","568.7999999970198","","911.7999999970198","","1","1","arrowleft","0","arrowright","[0.85,0.15,0.675,0.325]","","",""
"sailing-trial","210","1359157","0.0-11.0-165.0","","","","false","","","","","","","","","","null","","1071.199999988079","","3","1","null","null","arrowup","[0.85,0.15,0.675,0.325]","","",""
"sailing-trial","211","1363951","0.0-11.0-166.0","","","","false","","","","","","","","","","789.2999999970198","","914.8000000119209","","2","1","arrowright","1","arrowleft","[0.85,0.15,0.675,0.325]","","",""
"sailing-trial","212","1366460","0.0-11.0-167.0","","","","false","","","","","","","","","","null","","908.9000000059605","","2","0","null","null","arrowup","[0.85,0.15,0.675,0.325]","","",""
"sailing-trial","213","1370900","0.0-11.0-168.0","","","","false","","","","","","","","","","947.1000000089407","","936.0999999940395","","3","0","arrowright","1","arrowright","[0.85,0.15,0.675,0.325]","","",""
"sailing-trial","214","1374052","0.0-11.0-169.0","","","","false","","","","","","","","","","null","","1255.2999999970198","","2","1","null","null","arrowup","[0.85,0.15,0.675,0.325]","","",""
"sailing-trial","215","1378706","0.0-11.0-170.0","","","","false","","","","","","","","","","580.1000000089407","","1067.0999999940395","","1","0","arrowleft","0","arrowright","[0.85,0.15,0.675,0.325]","","",""
"sailing-trial","216","1381336","0.0-11.0-171.0","","","","false","","","","","","","","","","null","","968","","3","0","null","null","arrowup","[0.85,0.15,0.675,0.325]","","",""
"sailing-trial","217","1385488","0.0-11.0-172.0","","","","false","","","","","","","","","","662.7999999970198","","210.79999999701977","","0","1","arrowleft","0","arrowleft","[0.85,0.15,0.675,0.325]","","",""
"sailing-trial","218","1388583","0.0-11.0-173.0","","","","false","","","","","","","","","","null","","1060.2999999970198","","1","1","null","null","arrowup","[0.85,0.15,0.675,0.325]","","",""
"sailing-trial","219","1393420","0.0-11.0-174.0","","","","false","","","","","","","","","","1815.0999999940395","","567.3000000119209","","3","0","arrowright","1","arrowright","[0.85,0.15,0.675,0.325]","","",""
"sailing-trial","220","1396476","0.0-11.0-175.0","","","","false","","","","","","","","","","null","","1158.3999999910593","","0","0","null","null","arrowup","[0.85,0.15,0.675,0.325]","","",""
"sailing-trial","221","1400157","0.0-11.0-176.0","","","","false","","","","","","","","","","649","","180.5","","1","0","arrowleft","0","arrowright","[0.85,0.15,0.675,0.325]","","",""
"sailing-trial","222","1402998","0.0-11.0-177.0","","","","false","","","","","","","","","","null","","846.9000000059605","","3","1","null","null","arrowup","[0.85,0.15,0.675,0.325]","","",""
"sailing-trial","223","1406619","0.0-11.0-178.0","","","","false","","","","","","","","","","659.0999999940395","","403.20000000298023","","1","0","arrowleft","0","arrowright","[0.675,0.325,0.85,0.15]","","",""
"sailing-trial","224","1409540","0.0-11.0-179.0","","","","false","","","","","","","","","","null","","900.5","","2","1","null","null","arrowup","[0.675,0.325,0.85,0.15]","","",""
"sailing-trial","225","1412997","0.0-11.0-180.0","","","","false","","","","","","","","","","657.6000000089407","","308.20000000298023","","0","0","arrowleft","0","arrowleft","[0.675,0.325,0.85,0.15]","","",""
"sailing-trial","226","1416447","0.0-11.0-181.0","","","","false","","","","","","","","","","null","","1501.5","","1","1","null","null","arrowup","[0.675,0.325,0.85,0.15]","","",""
"sailing-trial","227","1420544","0.0-11.0-182.0","","","","false","","","","","","","","","","704","","444.20000000298023","","2","1","arrowright","1","arrowleft","[0.675,0.325,0.85,0.15]","","",""
"sailing-trial","228","1423419","0.0-11.0-183.0","","","","false","","","","","","","","","","null","","1036.5","","2","1","null","null","arrowup","[0.675,0.325,0.85,0.15]","","",""
"sailing-trial","229","1428313","0.0-11.0-184.0","","","","false","","","","","","","","","","702.7999999970198","","538.2999999970198","","3","0","arrowright","1","arrowright","[0.675,0.325,0.85,0.15]","","",""
"sailing-trial","230","1432492","0.0-11.0-185.0","","","","false","","","","","","","","","","null","","1078.2000000029802","","3","1","null","null","arrowup","[0.675,0.325,0.85,0.15]","","",""
"sailing-trial","231","1438251","0.0-11.0-186.0","","","","false","","","","","","","","","","724.5999999940395","","1968.5","","2","1","arrowright","1","arrowleft","[0.675,0.325,0.85,0.15]","","",""
"sailing-trial","232","1441213","0.0-11.0-187.0","","","","false","","","","","","","","","","null","","1092.2000000029802","","2","1","null","null","arrowup","[0.675,0.325,0.85,0.15]","","",""
"sailing-trial","233","1444396","0.0-11.0-188.0","","","","false","","","","","","","","","","633.2000000029802","","54.5","","3","0","arrowright","1","arrowright","[0.675,0.325,0.85,0.15]","","",""
"sailing-trial","234","1446372","0.0-11.0-189.0","","","","false","","","","","","","","","","null","","628.5","","3","0","null","null","arrowup","[0.675,0.325,0.85,0.15]","","",""
"sailing-trial","235","1450483","0.0-11.0-190.0","","","","false","","","","","","","","","","889.7000000029802","","12.700000002980232","","2","1","arrowright","1","arrowleft","[0.675,0.325,0.85,0.15]","","",""
"sailing-trial","236","1453147","0.0-11.0-191.0","","","","false","","","","","","","","","","null","","1092.8999999910593","","2","1","null","null","arrowup","[0.675,0.325,0.85,0.15]","","",""
"sailing-trial","237","1456112","0.0-11.0-192.0","","","","false","","","","","","","","","","555.7999999970198","","164.59999999403954","","2","0","arrowright","1","arrowleft","[0.675,0.325,0.85,0.15]","","",""
"sailing-trial","238","1458066","0.0-11.0-193.0","","","","false","","","","","","","","","","null","","706.7000000029802","","1","0","null","null","arrowup","[0.675,0.325,0.85,0.15]","","",""
"sailing-trial","239","1462451","0.0-11.0-194.0","","","","false","","","","","","","","","","1018.5999999940395","","37","","3","1","arrowright","1","arrowright","[0.15,0.85,0.325,0.675]","","",""
"sailing-trial","240","1464597","0.0-11.0-195.0","","","","false","","","","","","","","","","null","","581.5999999940395","","2","0","null","null","arrowup","[0.15,0.85,0.325,0.675]","","",""
"sailing-trial","241","1468494","0.0-11.0-196.0","","","","false","","","","","","","","","","573.5","","102.09999999403954","","3","1","arrowright","1","arrowright","[0.15,0.85,0.325,0.675]","","",""
"sailing-trial","242","1471623","0.0-11.0-197.0","","","","false","","","","","","","","","","null","","1212.2000000029802","","1","1","null","null","arrowup","[0.15,0.85,0.325,0.675]","","",""
"sailing-trial","243","1475386","0.0-11.0-198.0","","","","false","","","","","","","","","","603.9000000059605","","34.599999994039536","","3","1","arrowright","1","arrowright","[0.15,0.85,0.325,0.675]","","",""
"sailing-trial","244","1477318","0.0-11.0-199.0","","","","false","","","","","","","","","","null","","867.9000000059605","","2","0","null","null","arrowup","[0.15,0.85,0.325,0.675]","","",""
"sailing-trial","245","1483677","0.0-11.0-200.0","","","","false","","","","","","","","","","1642.7000000029802","","518.2000000029802","","0","0","arrowleft","0","arrowleft","[0.15,0.85,0.325,0.675]","","",""
"sailing-trial","246","1486652","0.0-11.0-201.0","","","","false","","","","","","","","","","null","","1194.800000011921","","3","1","null","null","arrowup","[0.15,0.85,0.325,0.675]","","",""
"sailing-trial","247","1491145","0.0-11.0-202.0","","","","false","","","","","","","","","","891.5999999940395","","221.20000000298023","","1","1","arrowleft","0","arrowright","[0.15,0.85,0.325,0.675]","","",""
"sailing-trial","248","1493795","0.0-11.0-203.0","","","","false","","","","","","","","","","null","","761.2000000029802","","1","1","null","null","arrowup","[0.15,0.85,0.325,0.675]","","",""
"sailing-trial","249","1497474","0.0-11.0-204.0","","","","false","","","","","","","","","","678.6999999880791","","199","","3","0","arrowright","1","arrowright","[0.15,0.85,0.325,0.675]","","",""
"sailing-trial","250","1500518","0.0-11.0-205.0","","","","false","","","","","","","","","","null","","1106.6000000089407","","1","1","null","null","arrowup","[0.15,0.85,0.325,0.675]","","",""
"sailing-trial","251","1504311","0.0-11.0-206.0","","","","false","","","","","","","","","","790.6000000089407","","389.20000000298023","","1","1","arrowleft","0","arrowright","[0.15,0.85,0.325,0.675]","","",""
"sailing-trial","252","1507525","0.0-11.0-207.0","","","","false","","","","","","","","","","null","","1417.0999999940395","","3","1","null","null","arrowup","[0.15,0.85,0.325,0.675]","","",""
"sailing-trial","253","1510390","0.0-11.0-208.0","","","","false","","","","","","","","","","613.5","","200.20000000298023","","2","0","arrowright","1","arrowleft","[0.15,0.85,0.325,0.675]","","",""
"sailing-trial","254","1512634","0.0-11.0-209.0","","","","false","","","","","","","","","","null","","680","","3","1","null","null","arrowup","[0.15,0.85,0.325,0.675]","","",""
"sailing-trial","255","1515887","0.0-11.0-210.0","","","","false","","","","","","","","","","644.2000000029802","","23.399999991059303","","3","0","arrowright","1","arrowright","[0.675,0.325,0.85,0.15]","","",""
"sailing-trial","256","1519309","0.0-11.0-211.0","","","","false","","","","","","","","","","null","","1350.7999999970198","","0","1","null","null","arrowup","[0.675,0.325,0.85,0.15]","","",""
"sailing-trial","257","1522889","0.0-11.0-212.0","","","","false","","","","","","","","","","670.7999999970198","","282.5","","0","1","arrowleft","0","arrowleft","[0.675,0.325,0.85,0.15]","","",""
"sailing-trial","258","1525333","0.0-11.0-213.0","","","","false","","","","","","","","","","null","","713.7000000029802","","0","1","null","null","arrowup","[0.675,0.325,0.85,0.15]","","",""
"sailing-trial","259","1529380","0.0-11.0-214.0","","","","false","","","","","","","","","","570.7000000029802","","540.9000000059605","","0","1","arrowleft","0","arrowleft","[0.675,0.325,0.85,0.15]","","",""
"sailing-trial","260","1531127","0.0-11.0-215.0","","","","false","","","","","","","","","","null","","597.8000000119209","","0","0","null","null","arrowup","[0.675,0.325,0.85,0.15]","","",""
"sailing-trial","261","1534803","0.0-11.0-216.0","","","","false","","","","","","","","","","751.4000000059605","","284.5","","0","1","arrowleft","0","arrowleft","[0.675,0.325,0.85,0.15]","","",""
"sailing-trial","262","1536853","0.0-11.0-217.0","","","","false","","","","","","","","","","null","","877.4000000059605","","3","0","null","null","arrowup","[0.675,0.325,0.85,0.15]","","",""
"sailing-trial","263","1540514","0.0-11.0-218.0","","","","false","","","","","","","","","","696.9000000059605","","248.3999999910593","","0","1","arrowleft","0","arrowleft","[0.675,0.325,0.85,0.15]","","",""
"sailing-trial","264","1544458","0.0-11.0-219.0","","","","false","","","","","","","","","","null","","2081","","3","0","null","null","arrowup","[0.675,0.325,0.85,0.15]","","",""
"sailing-trial","265","1549002","0.0-11.0-220.0","","","","false","","","","","","","","","","1347.2999999970198","","136.6000000089407","","0","1","arrowleft","0","arrowleft","[0.675,0.325,0.85,0.15]","","",""
"sailing-trial","266","1553619","0.0-11.0-221.0","","","","false","","","","","","","","","","null","","3466.5999999940395","","1","0","null","null","arrowup","[0.675,0.325,0.85,0.15]","","",""
"sailing-trial","267","1559188","0.0-11.0-222.0","","","","false","","","","","","","","","","793.8999999910593","","1833.4000000059605","","2","1","arrowright","1","arrowleft","[0.675,0.325,0.85,0.15]","","",""
"sailing-trial","268","1561935","0.0-11.0-223.0","","","","false","","","","","","","","","","null","","1550.2999999970198","","3","0","null","null","arrowup","[0.675,0.325,0.85,0.15]","","",""
"sailing-trial","269","1565979","0.0-11.0-224.0","","","","false","","","","","","","","","","671","","16.099999994039536","","2","1","arrowright","1","arrowleft","[0.675,0.325,0.85,0.15]","","",""
"sailing-trial","270","1568593","0.0-11.0-225.0","","","","false","","","","","","","","","","null","","1025.8999999910593","","2","1","null","null","arrowup","[0.675,0.325,0.85,0.15]","","",""
"sailing-trial","271","1573806","0.0-11.0-226.0","","","","false","","","","","","","","","","869.6000000089407","","1197.6000000089407","","2","1","arrowright","1","arrowleft","[0.85,0.15,0.675,0.325]","","",""
"sailing-trial","272","1577252","0.0-11.0-227.0","","","","false","","","","","","","","","","null","","1945.199999988079","","1","0","null","null","arrowup","[0.85,0.15,0.675,0.325]","","",""
"sailing-trial","273","1582828","0.0-11.0-228.0","","","","false","","","","","","","","","","659.5999999940395","","868.9000000059605","","2","0","arrowright","1","arrowleft","[0.85,0.15,0.675,0.325]","","",""
"sailing-trial","274","1585557","0.0-11.0-229.0","","","","false","","","","","","","","","","null","","1419.3999999910593","","3","0","null","null","arrowup","[0.85,0.15,0.675,0.325]","","",""
"sailing-trial","275","1589998","0.0-11.0-230.0","","","","false","","","","","","","","","","864.1999999880791","","217.79999999701977","","2","1","arrowright","1","arrowleft","[0.85,0.15,0.675,0.325]","","",""
"sailing-trial","276","1592576","0.0-11.0-231.0","","","","false","","","","","","","","","","null","","744.5","","1","0","null","null","arrowup","[0.85,0.15,0.675,0.325]","","",""
"sailing-trial","277","1596658","0.0-11.0-232.0","","","","false","","","","","","","","","","679.1999999880791","","278.8999999910593","","0","1","arrowleft","0","arrowleft","[0.85,0.15,0.675,0.325]","","",""
"sailing-trial","278","1598965","0.0-11.0-233.0","","","","false","","","","","","","","","","null","","560.6000000089407","","1","0","null","null","arrowup","[0.85,0.15,0.675,0.325]","","",""
"sailing-trial","279","1605227","0.0-11.0-234.0","","","","false","","","","","","","","","","651.7999999970198","","2861.5999999940395","","0","1","arrowleft","0","arrowleft","[0.85,0.15,0.675,0.325]","","",""
"sailing-trial","280","1608074","0.0-11.0-235.0","","","","false","","","","","","","","","","null","","1601.8999999910593","","3","0","null","null","arrowup","[0.85,0.15,0.675,0.325]","","",""
"sailing-trial","281","1617113","0.0-11.0-236.0","","","","false","","","","","","","","","","5249.20000000298","","438.40000000596046","","0","1","arrowleft","0","arrowleft","[0.85,0.15,0.675,0.325]","","",""
"sailing-trial","282","1619853","0.0-11.0-237.0","","","","false","","","","","","","","","","null","","1462.2000000029802","","1","0","null","null","arrowup","[0.85,0.15,0.675,0.325]","","",""
"sailing-trial","283","1623885","0.0-11.0-238.0","","","","false","","","","","","","","","","493.19999998807907","","376.69999998807907","","0","1","arrowleft","0","arrowleft","[0.85,0.15,0.675,0.325]","","",""
"sailing-trial","284","1626816","0.0-11.0-239.0","","","","false","","","","","","","","","","null","","480.29999999701977","","0","1","null","null","arrowup","[0.85,0.15,0.675,0.325]","","",""
"sailing-trial","285","1630563","0.0-11.0-240.0","","","","false","","","","","","","","","","484.69999998807907","","17.099999994039536","","0","1","arrowleft","0","arrowleft","[0.85,0.15,0.675,0.325]","","",""
"sailing-trial","286","1633323","0.0-11.0-241.0","","","","false","","","","","","","","","","null","","705.6000000089407","","0","1","null","null","arrowup","[0.85,0.15,0.675,0.325]","","",""
"sailing-trial","287","1638665","0.0-11.0-242.0","","","","false","","","","","","","","","","500.70000000298023","","1935.5","","0","1","arrowleft","0","arrowleft","[0.85,0.15,0.675,0.325]","","",""
"sailing-trial","288","1641311","0.0-11.0-243.0","","","","false","","","","","","","","","","null","","1051","","0","1","null","null","arrowup","[0.85,0.15,0.675,0.325]","","",""
"sailing-trial","289","1645908","0.0-11.0-244.0","","","","false","","","","","","","","","","1428.7999999970198","","420.40000000596046","","0","1","arrowleft","0","arrowleft","[0.85,0.15,0.675,0.325]","","",""
"sailing-trial","290","1649018","0.0-11.0-245.0","","","","false","","","","","","","","","","null","","1535.2000000029802","","3","1","null","null","arrowup","[0.85,0.15,0.675,0.325]","","",""
"sailing-trial","291","1652882","0.0-11.0-246.0","","","","false","","","","","","","","","","716.2000000029802","","521","","0","0","arrowleft","0","arrowleft","[0.675,0.325,0.85,0.15]","","",""
"sailing-trial","292","1656176","0.0-11.0-247.0","","","","false","","","","","","","","","","null","","1218.2000000029802","","2","1","null","null","arrowup","[0.675,0.325,0.85,0.15]","","",""
"sailing-trial","293","1659888","0.0-11.0-248.0","","","","false","","","","","","","","","","525.7999999970198","","70","","2","1","arrowright","1","arrowleft","[0.675,0.325,0.85,0.15]","","",""
"sailing-trial","294","1661836","0.0-11.0-249.0","","","","false","","","","","","","","","","null","","813.1999999880791","","1","0","null","null","arrowup","[0.675,0.325,0.85,0.15]","","",""
"sailing-trial","295","1666294","0.0-11.0-250.0","","","","false","","","","","","","","","","902.7999999970198","","556.7000000029802","","2","1","arrowright","1","arrowleft","[0.675,0.325,0.85,0.15]","","",""
"sailing-trial","296","1668660","0.0-11.0-251.0","","","","false","","","","","","","","","","null","","627","","1","1","null","null","arrowup","[0.675,0.325,0.85,0.15]","","",""
"sailing-trial","297","1673070","0.0-11.0-252.0","","","","false","","","","","","","","","","767.7999999970198","","447.8999999910593","","2","1","arrowright","1","arrowleft","[0.675,0.325,0.85,0.15]","","",""
"sailing-trial","298","1676035","0.0-11.0-253.0","","","","false","","","","","","","","","","null","","981.6999999880791","","2","1","null","null","arrowup","[0.675,0.325,0.85,0.15]","","",""
"sailing-trial","299","1680861","0.0-11.0-254.0","","","","false","","","","","","","","","","762.4000000059605","","1107.7000000029802","","2","1","arrowright","1","arrowleft","[0.675,0.325,0.85,0.15]","","",""
"sailing-trial","300","1684074","0.0-11.0-255.0","","","","false","","","","","","","","","","null","","1647.7999999970198","","2","1","null","null","arrowup","[0.675,0.325,0.85,0.15]","","",""
"sailing-trial","301","1689285","0.0-11.0-256.0","","","","false","","","","","","","","","","794.2000000029802","","1263.2999999970198","","2","1","arrowright","1","arrowleft","[0.675,0.325,0.85,0.15]","","",""
"sailing-trial","302","1692995","0.0-11.0-257.0","","","","false","","","","","","","","","","null","","1890.7000000029802","","3","1","null","null","arrowup","[0.675,0.325,0.85,0.15]","","",""
"sailing-trial","303","1697722","0.0-11.0-258.0","","","","false","","","","","","","","","","1122.9000000059605","","652.5999999940395","","2","1","arrowright","1","arrowleft","[0.675,0.325,0.85,0.15]","","",""
"sailing-trial","304","1700241","0.0-11.0-259.0","","","","false","","","","","","","","","","null","","1112.5","","0","0","null","null","arrowup","[0.675,0.325,0.85,0.15]","","",""
"sailing-trial","305","1705161","0.0-11.0-260.0","","","","false","","","","","","","","","","596.1000000089407","","1322.4000000059605","","2","0","arrowright","1","arrowleft","[0.675,0.325,0.85,0.15]","","",""
"sailing-trial","306","1709592","0.0-11.0-261.0","","","","false","","","","","","","","","","null","","1398.7000000029802","","1","0","null","null","arrowup","[0.675,0.325,0.85,0.15]","","",""
"sailing-trial","307","1714467","0.0-11.0-262.0","","","","false","","","","","","","","","","570.1000000089407","","267.59999999403954","","0","0","arrowleft","0","arrowleft","[0.675,0.325,0.85,0.15]","","",""
"sailing-trial","308","1718611","0.0-11.0-263.0","","","","false","","","","","","","","","","null","","1850.3999999910593","","0","1","null","null","arrowup","[0.675,0.325,0.85,0.15]","","",""
"sailing-trial","309","1723701","0.0-11.0-264.0","","","","false","","","","","","","","","","1615.2999999970198","","325.79999999701977","","0","1","arrowleft","0","arrowleft","[0.85,0.15,0.675,0.325]","","",""
"sailing-trial","310","1726384","0.0-11.0-265.0","","","","false","","","","","","","","","","null","","755.6999999880791","","2","1","null","null","arrowup","[0.85,0.15,0.675,0.325]","","",""
"sailing-trial","311","1730227","0.0-11.0-266.0","","","","false","","","","","","","","","","782.5","","32.900000005960464","","2","1","arrowright","1","arrowleft","[0.85,0.15,0.675,0.325]","","",""
"sailing-trial","312","1733406","0.0-11.0-267.0","","","","false","","","","","","","","","","null","","1439.7999999970198","","3","0","null","null","arrowup","[0.85,0.15,0.675,0.325]","","",""
"sailing-trial","313","1737151","0.0-11.0-268.0","","","","false","","","","","","","","","","904.7999999970198","","40.400000005960464","","2","1","arrowright","1","arrowleft","[0.85,0.15,0.675,0.325]","","",""
"sailing-trial","314","1740517","0.0-11.0-269.0","","","","false","","","","","","","","","","null","","1880.2000000029802","","1","0","null","null","arrowup","[0.85,0.15,0.675,0.325]","","",""
"sailing-trial","315","1744444","0.0-11.0-270.0","","","","false","","","","","","","","","","769.3999999910593","","438.5","","2","0","arrowright","1","arrowleft","[0.85,0.15,0.675,0.325]","","",""
"sailing-trial","316","1747399","0.0-11.0-271.0","","","","false","","","","","","","","","","null","","1556.1000000089407","","0","0","null","null","arrowup","[0.85,0.15,0.675,0.325]","","",""
"sailing-trial","317","1752196","0.0-11.0-272.0","","","","false","","","","","","","","","","1112.2000000029802","","269.8999999910593","","1","0","arrowleft","0","arrowright","[0.85,0.15,0.675,0.325]","","",""
"sailing-trial","318","1755746","0.0-11.0-273.0","","","","false","","","","","","","","","","null","","1715","","0","0","null","null","arrowup","[0.85,0.15,0.675,0.325]","","",""
"sailing-trial","319","1759477","0.0-11.0-274.0","","","","false","","","","","","","","","","665.2999999970198","","5.799999997019768","","2","0","arrowright","1","arrowleft","[0.85,0.15,0.675,0.325]","","",""
"sailing-trial","320","1761935","0.0-11.0-275.0","","","","false","","","","","","","","","","null","","1089.5","","1","0","null","null","arrowup","[0.85,0.15,0.675,0.325]","","",""
"sailing-trial","321","1766728","0.0-11.0-276.0","","","","false","","","","","","","","","","503.79999999701977","","1234.199999988079","","3","1","arrowright","1","arrowright","[0.85,0.15,0.675,0.325]","","",""
"sailing-trial","322","1769924","0.0-11.0-277.0","","","","false","","","","","","","","","","null","","1585.5","","0","0","null","null","arrowup","[0.85,0.15,0.675,0.325]","","",""
"sailing-trial","323","1772786","0.0-11.0-278.0","","","","false","","","","","","","","","","560.4000000059605","","42.19999998807907","","3","0","arrowright","1","arrowright","[0.85,0.15,0.675,0.325]","","",""
"sailing-trial","324","1775587","0.0-11.0-279.0","","","","false","","","","","","","","","","null","","1190.699999988079","","0","0","null","null","arrowup","[0.85,0.15,0.675,0.325]","","",""
"sailing-trial","325","1779240","0.0-11.0-280.0","","","","false","","","","","","","","","","657.5","","323.5","","1","0","arrowleft","0","arrowright","[0.15,0.85,0.325,0.675]","","",""
"sailing-trial","326","1782575","0.0-11.0-281.0","","","","false","","","","","","","","","","null","","1339","","3","1","null","null","arrowup","[0.15,0.85,0.325,0.675]","","",""
"sailing-trial","327","1786385","0.0-11.0-282.0","","","","false","","","","","","","","","","670.8999999910593","","392.90000000596046","","3","1","arrowright","1","arrowright","[0.15,0.85,0.325,0.675]","","",""
"sailing-trial","328","1789591","0.0-11.0-283.0","","","","false","","","","","","","","","","null","","1746","","2","0","null","null","arrowup","[0.15,0.85,0.325,0.675]","","",""
"sailing-trial","329","1794026","0.0-11.0-284.0","","","","false","","","","","","","","","","807","","432.8999999910593","","3","1","arrowright","1","arrowright","[0.15,0.85,0.325,0.675]","","",""
"sailing-trial","330","1797772","0.0-11.0-285.0","","","","false","","","","","","","","","","null","","1986.2999999970198","","1","1","null","null","arrowup","[0.15,0.85,0.325,0.675]","","",""
"sailing-trial","331","1800720","0.0-11.0-286.0","","","","false","","","","","","","","","","543.6000000089407","","330.59999999403954","","2","0","arrowright","1","arrowleft","[0.15,0.85,0.325,0.675]","","",""
"sailing-trial","332","1804505","0.0-11.0-287.0","","","","false","","","","","","","","","","null","","2308","","0","0","null","null","arrowup","[0.15,0.85,0.325,0.675]","","",""
"sailing-trial","333","1808743","0.0-11.0-288.0","","","","false","","","","","","","","","","674.6000000089407","","81","","2","0","arrowright","1","arrowleft","[0.15,0.85,0.325,0.675]","","",""
"sailing-trial","334","1810854","0.0-11.0-289.0","","","","false","","","","","","","","","","null","","611.5999999940395","","2","0","null","null","arrowup","[0.15,0.85,0.325,0.675]","","",""
"sailing-trial","335","1817147","0.0-11.0-290.0","","","","false","","","","","","","","","","1658.7999999970198","","569.8999999910593","","3","0","arrowright","1","arrowright","[0.15,0.85,0.325,0.675]","","",""
"sailing-trial","336","1820374","0.0-11.0-291.0","","","","false","","","","","","","","","","null","","1124.4000000059605","","3","1","null","null","arrowup","[0.15,0.85,0.325,0.675]","","",""
"sailing-trial","337","1828563","0.0-11.0-292.0","","","","false","","","","","","","","","","2274.2000000029802","","1918.7000000029802","","3","1","arrowright","1","arrowright","[0.15,0.85,0.325,0.675]","","",""
"sailing-trial","338","1831851","0.0-11.0-293.0","","","","false","","","","","","","","","","null","","1866.7999999970198","","0","0","null","null","arrowup","[0.15,0.85,0.325,0.675]","","",""
"sailing-trial","339","1836171","0.0-11.0-294.0","","","","false","","","","","","","","","","542.9000000059605","","57.900000005960464","","3","0","arrowright","1","arrowright","[0.15,0.85,0.325,0.675]","","",""
"sailing-trial","340","1839598","0.0-11.0-295.0","","","","false","","","","","","","","","","null","","1512.7000000029802","","2","1","null","null","arrowup","[0.15,0.85,0.325,0.675]","","",""
"sailing-trial","341","1844875","0.0-11.0-296.0","","","","false","","","","","","","","","","615","","1585.4000000059605","","1","1","arrowleft","0","arrowright","[0.325,0.675,0.15,0.85]","","",""
"sailing-trial","342","1847770","0.0-11.0-297.0","","","","false","","","","","","","","","","null","","958.3999999910593","","3","1","null","null","arrowup","[0.325,0.675,0.15,0.85]","","",""
"sailing-trial","343","1851200","0.0-11.0-298.0","","","","false","","","","","","","","","","608.5999999940395","","95.29999999701977","","3","1","arrowright","1","arrowright","[0.325,0.675,0.15,0.85]","","",""
"sailing-trial","344","1855109","0.0-11.0-299.0","","","","false","","","","","","","","","","null","","1975.7999999970198","","1","1","null","null","arrowup","[0.325,0.675,0.15,0.85]","","",""
"sailing-trial","345","1861371","0.0-11.0-300.0","","","","false","","","","","","","","","","2832.2999999970198","","287.6000000089407","","1","1","arrowleft","0","arrowright","[0.325,0.675,0.15,0.85]","","",""
"sailing-trial","346","1864113","0.0-11.0-301.0","","","","false","","","","","","","","","","null","","1630.9000000059605","","2","0","null","null","arrowup","[0.325,0.675,0.15,0.85]","","",""
"sailing-trial","347","1868761","0.0-11.0-302.0","","","","false","","","","","","","","","","806.1000000089407","","1109.6000000089407","","3","1","arrowright","1","arrowright","[0.325,0.675,0.15,0.85]","","",""
"sailing-trial","348","1870991","0.0-11.0-303.0","","","","false","","","","","","","","","","null","","1127.7999999970198","","2","0","null","null","arrowup","[0.325,0.675,0.15,0.85]","","",""
"sailing-trial","349","1876815","0.0-11.0-304.0","","","","false","","","","","","","","","","673.7000000029802","","2230.6000000089407","","1","1","arrowleft","0","arrowright","[0.325,0.675,0.15,0.85]","","",""
"sailing-trial","350","1880310","0.0-11.0-305.0","","","","false","","","","","","","","","","null","","1152","","3","1","null","null","arrowup","[0.325,0.675,0.15,0.85]","","",""
"sailing-trial","351","1884086","0.0-11.0-306.0","","","","false","","","","","","","","","","945.5","","59.20000000298023","","2","0","arrowright","1","arrowleft","[0.325,0.675,0.15,0.85]","","",""
"sailing-trial","352","1891007","0.0-11.0-307.0","","","","false","","","","","","","","","","null","","5345.100000008941","","3","0","null","null","arrowup","[0.325,0.675,0.15,0.85]","","",""
"sailing-trial","353","1895640","0.0-11.0-308.0","","","","false","","","","","","","","","","802.5","","568.4000000059605","","0","1","arrowleft","0","arrowleft","[0.325,0.675,0.15,0.85]","","",""
"sailing-trial","354","1900234","0.0-11.0-309.0","","","","false","","","","","","","","","","null","","2486","","3","1","null","null","arrowup","[0.325,0.675,0.15,0.85]","","",""
"sailing-trial","355","1906065","0.0-11.0-310.0","","","","false","","","","","","","","","","1207.5","","584.5","","2","0","arrowright","1","arrowleft","[0.325,0.675,0.15,0.85]","","",""
"sailing-trial","356","1909804","0.0-11.0-311.0","","","","false","","","","","","","","","","null","","2448.3999999910593","","3","0","null","null","arrowup","[0.325,0.675,0.15,0.85]","","",""
"sailing-trial","357","1914798","0.0-11.0-312.0","","","","false","","","","","","","","","","592.8000000119209","","138.40000000596046","","0","1","arrowleft","0","arrowleft","[0.85,0.15,0.675,0.325]","","",""
"sailing-trial","358","1918245","0.0-11.0-313.0","","","","false","","","","","","","","","","null","","1108.3999999910593","","1","1","null","null","arrowup","[0.85,0.15,0.675,0.325]","","",""
"sailing-trial","359","1923669","0.0-11.0-314.0","","","","false","","","","","","","","","","2205.8999999910593","","249.69999998807907","","0","1","arrowleft","0","arrowleft","[0.85,0.15,0.675,0.325]","","",""
"sailing-trial","360","1927257","0.0-11.0-315.0","","","","false","","","","","","","","","","null","","2015.0999999940395","","2","0","null","null","arrowup","[0.85,0.15,0.675,0.325]","","",""
"sailing-trial","361","1934256","0.0-11.0-316.0","","","","false","","","","","","","","","","3363.800000011921","","652.7000000029802","","0","1","arrowleft","0","arrowleft","[0.85,0.15,0.675,0.325]","","",""
"sailing-trial","362","1937801","0.0-11.0-317.0","","","","false","","","","","","","","","","null","","1587.0999999940395","","2","1","null","null","arrowup","[0.85,0.15,0.675,0.325]","","",""
"sailing-trial","363","1942260","0.0-11.0-318.0","","","","false","","","","","","","","","","1177.9000000059605","","153.8999999910593","","0","1","arrowleft","0","arrowleft","[0.85,0.15,0.675,0.325]","","",""
"sailing-trial","364","1945325","0.0-11.0-319.0","","","","false","","","","","","","","","","null","","1060.9000000059605","","3","0","null","null","arrowup","[0.85,0.15,0.675,0.325]","","",""
"sailing-trial","365","1950615","0.0-11.0-320.0","","","","false","","","","","","","","","","1593.9000000059605","","744.1000000089407","","0","1","arrowleft","0","arrowleft","[0.85,0.15,0.675,0.325]","","",""
"sailing-trial","366","1955577","0.0-11.0-321.0","","","","false","","","","","","","","","","null","","3687.2000000029802","","3","0","null","null","arrowup","[0.85,0.15,0.675,0.325]","","",""
"sailing-trial","367","1961834","0.0-11.0-322.0","","","","false","","","","","","","","","","1888.7999999970198","","110.5","","0","1","arrowleft","0","arrowleft","[0.85,0.15,0.675,0.325]","","",""
"sailing-trial","368","1964531","0.0-11.0-323.0","","","","false","","","","","","","","","","null","","1008.8999999910593","","0","1","null","null","arrowup","[0.85,0.15,0.675,0.325]","","",""
"sailing-trial","369","1970358","0.0-11.0-324.0","","","","false","","","","","","","","","","2890.9000000059605","","263.40000000596046","","0","1","arrowleft","0","arrowleft","[0.85,0.15,0.675,0.325]","","",""
"sailing-trial","370","1973517","0.0-11.0-325.0","","","","false","","","","","","","","","","null","","1959.7000000029802","","3","0","null","null","arrowup","[0.85,0.15,0.675,0.325]","","",""
"sailing-trial","371","1978279","0.0-11.0-326.0","","","","false","","","","","","","","","","1168.3999999910593","","561.7000000029802","","0","1","arrowleft","0","arrowleft","[0.85,0.15,0.675,0.325]","","",""
"sailing-trial","372","1980776","0.0-11.0-327.0","","","","false","","","","","","","","","","null","","1260.5999999940395","","3","0","null","null","arrowup","[0.85,0.15,0.675,0.325]","","",""
"sailing-trial","373","1984377","0.0-11.0-328.0","","","","false","","","","","","","","","","691","","280.20000000298023","","0","0","arrowleft","0","arrowleft","[0.15,0.85,0.325,0.675]","","",""
"sailing-trial","374","1990247","0.0-11.0-329.0","","","","false","","","","","","","","","","null","","2383.2000000029802","","3","1","null","null","arrowup","[0.15,0.85,0.325,0.675]","","",""
"sailing-trial","375","1995308","0.0-11.0-330.0","","","","false","","","","","","","","","","1388.5","","69.29999999701977","","3","1","arrowright","1","arrowright","[0.15,0.85,0.325,0.675]","","",""
"sailing-trial","376","1997335","0.0-11.0-331.0","","","","false","","","","","","","","","","null","","599.1000000089407","","3","0","null","null","arrowup","[0.15,0.85,0.325,0.675]","","",""
"sailing-trial","377","2001066","0.0-11.0-332.0","","","","false","","","","","","","","","","930.9000000059605","","57.099999994039536","","3","1","arrowright","1","arrowright","[0.15,0.85,0.325,0.675]","","",""
"sailing-trial","378","2003367","0.0-11.0-333.0","","","","false","","","","","","","","","","null","","1035.7999999970198","","3","0","null","null","arrowup","[0.15,0.85,0.325,0.675]","","",""
"sailing-trial","379","2006610","0.0-11.0-334.0","","","","false","","","","","","","","","","580.4000000059605","","35.400000005960464","","3","0","arrowright","1","arrowright","[0.15,0.85,0.325,0.675]","","",""
"sailing-trial","380","2010304","0.0-11.0-335.0","","","","false","","","","","","","","","","null","","1438.7999999970198","","1","1","null","null","arrowup","[0.15,0.85,0.325,0.675]","","",""
"sailing-trial","381","2018858","0.0-11.0-336.0","","","","false","","","","","","","","","","2508.7999999970198","","2519.5999999940395","","1","1","arrowleft","0","arrowright","[0.15,0.85,0.325,0.675]","","",""
"sailing-trial","382","2022439","0.0-11.0-337.0","","","","false","","","","","","","","","","null","","1916.7000000029802","","0","0","null","null","arrowup","[0.15,0.85,0.325,0.675]","","",""
"sailing-trial","383","2027547","0.0-11.0-338.0","","","","false","","","","","","","","","","2109.3999999910593","","20.399999991059303","","1","1","arrowleft","0","arrowright","[0.15,0.85,0.325,0.675]","","",""
"sailing-trial","384","2030179","0.0-11.0-339.0","","","","false","","","","","","","","","","null","","1185","","3","0","null","null","arrowup","[0.15,0.85,0.325,0.675]","","",""
"sailing-trial","385","2034273","0.0-11.0-340.0","","","","false","","","","","","","","","","671.7999999970198","","342.8999999910593","","1","1","arrowleft","0","arrowright","[0.15,0.85,0.325,0.675]","","",""
"sailing-trial","386","2037052","0.0-11.0-341.0","","","","false","","","","","","","","","","null","","908.7000000029802","","1","1","null","null","arrowup","[0.15,0.85,0.325,0.675]","","",""
"sailing-trial","387","2040664","0.0-11.0-342.0","","","","false","","","","","","","","","","584.7000000029802","","461.80000001192093","","1","1","arrowleft","0","arrowright","[0.15,0.85,0.325,0.675]","","",""
"sailing-trial","388","2043911","0.0-11.0-343.0","","","","false","","","","","","","","","","null","","1291.3999999910593","","0","1","null","null","arrowup","[0.15,0.85,0.325,0.675]","","",""
"sailing-trial","389","2048063","0.0-11.0-344.0","","","","false","","","","","","","","","","688.0999999940395","","1267.7000000029802","","0","0","arrowleft","0","arrowleft","[0.15,0.85,0.325,0.675]","","",""
"sailing-trial","390","2050964","0.0-11.0-345.0","","","","false","","","","","","","","","","null","","1338.5","","0","0","null","null","arrowup","[0.15,0.85,0.325,0.675]","","",""
"sailing-trial","391","2054560","0.0-11.0-346.0","","","","false","","","","","","","","","","603.9000000059605","","5.200000002980232","","1","1","arrowleft","0","arrowright","[0.15,0.85,0.325,0.675]","","",""
"sailing-trial","392","2057499","0.0-11.0-347.0","","","","false","","","","","","","","","","null","","1439.300000011921","","0","0","null","null","arrowup","[0.15,0.85,0.325,0.675]","","",""
"sailing-trial","393","2061459","0.0-11.0-348.0","","","","false","","","","","","","","","","663.9000000059605","","320.5","","1","0","arrowleft","0","arrowright","[0.325,0.675,0.15,0.85]","","",""
"sailing-trial","394","2064248","0.0-11.0-349.0","","","","false","","","","","","","","","","null","","1163.9000000059605","","3","1","null","null","arrowup","[0.325,0.675,0.15,0.85]","","",""
"sailing-trial","395","2069202","0.0-11.0-350.0","","","","false","","","","","","","","","","492.70000000298023","","550.5","","1","0","arrowleft","0","arrowright","[0.325,0.675,0.15,0.85]","","",""
"sailing-trial","396","2074302","0.0-11.0-351.0","","","","false","","","","","","","","","","null","","2721.7000000029802","","1","1","null","null","arrowup","[0.325,0.675,0.15,0.85]","","",""
"sailing-trial","397","2080425","0.0-11.0-352.0","","","","false","","","","","","","","","","536.2000000029802","","255.90000000596046","","3","1","arrowright","1","arrowright","[0.325,0.675,0.15,0.85]","","",""
"sailing-trial","398","2082954","0.0-11.0-353.0","","","","false","","","","","","","","","","null","","1118.2000000029802","","0","0","null","null","arrowup","[0.325,0.675,0.15,0.85]","","",""
"sailing-trial","399","2086684","0.0-11.0-354.0","","","","false","","","","","","","","","","627.2000000029802","","299.20000000298023","","3","1","arrowright","1","arrowright","[0.325,0.675,0.15,0.85]","","",""
"sailing-trial","400","2089875","0.0-11.0-355.0","","","","false","","","","","","","","","","null","","1956.1000000089407","","0","0","null","null","arrowup","[0.325,0.675,0.15,0.85]","","",""
"sailing-trial","401","2095374","0.0-11.0-356.0","","","","false","","","","","","","","","","736.2999999970198","","481.90000000596046","","2","1","arrowright","1","arrowleft","[0.325,0.675,0.15,0.85]","","",""
"sailing-trial","402","2098198","0.0-11.0-357.0","","","","false","","","","","","","","","","null","","1193.9000000059605","","0","0","null","null","arrowup","[0.325,0.675,0.15,0.85]","","",""
"sailing-trial","403","2103124","0.0-11.0-358.0","","","","false","","","","","","","","","","1554.7999999970198","","362.1000000089407","","0","0","arrowleft","0","arrowleft","[0.325,0.675,0.15,0.85]","","",""
"sailing-trial","404","2105817","0.0-11.0-359.0","","","","false","","","","","","","","","","null","","1281.199999988079","","2","0","null","null","arrowup","[0.325,0.675,0.15,0.85]","","",""
"sailing-trial","405","2109505","0.0-11.0-360.0","","","","false","","","","","","","","","","456","","38.5","","3","1","arrowright","1","arrowright","[0.325,0.675,0.15,0.85]","","",""
"sailing-trial","406","2112850","0.0-11.0-361.0","","","","false","","","","","","","","","","null","","1628.5","","1","0","null","null","arrowup","[0.325,0.675,0.15,0.85]","","",""
"sailing-trial","407","2120458","0.0-11.0-362.0","","","","false","","","","","","","","","","3228.5999999940395","","451.70000000298023","","3","1","arrowright","1","arrowright","[0.325,0.675,0.15,0.85]","","",""
"sailing-trial","408","2123403","0.0-11.0-363.0","","","","false","","","","","","","","","","null","","997.6000000089407","","1","0","null","null","arrowup","[0.325,0.675,0.15,0.85]","","",""
"sailing-trial","409","2129995","0.0-11.0-364.0","","","","false","","","","","","","","","","2034.2000000029802","","1608.199999988079","","3","1","arrowright","1","arrowright","[0.325,0.675,0.15,0.85]","","",""
"sailing-trial","410","2133391","0.0-11.0-365.0","","","","false","","","","","","","","","","null","","1493.1000000089407","","3","1","null","null","arrowup","[0.325,0.675,0.15,0.85]","","",""
"sailing-trial","411","2136686","0.0-11.0-366.0","","","","false","","","","","","","","","","596.8999999910593","","91.29999999701977","","3","1","arrowright","1","arrowright","[0.325,0.675,0.15,0.85]","","",""
"sailing-trial","412","2139399","0.0-11.0-367.0","","","","false","","","","","","","","","","null","","1035.1000000089407","","3","1","null","null","arrowup","[0.325,0.675,0.15,0.85]","","",""
"sailing-trial","413","2143695","0.0-11.0-368.0","","","","false","","","","","","","","","","548.1000000089407","","689.2000000029802","","3","1","arrowright","1","arrowright","[0.15,0.85,0.325,0.675]","","",""
"sailing-trial","414","2145816","0.0-11.0-369.0","","","","false","","","","","","","","","","null","","723.7000000029802","","1","0","null","null","arrowup","[0.15,0.85,0.325,0.675]","","",""
"sailing-trial","415","2150483","0.0-11.0-370.0","","","","false","","","","","","","","","","599.1000000089407","","933.5","","3","0","arrowright","1","arrowright","[0.15,0.85,0.325,0.675]","","",""
"sailing-trial","416","2153992","0.0-11.0-371.0","","","","false","","","","","","","","","","null","","1836","","0","0","null","null","arrowup","[0.15,0.85,0.325,0.675]","","",""
"sailing-trial","417","2158455","0.0-11.0-372.0","","","","false","","","","","","","","","","657.6999999880791","","1248.8999999910593","","2","1","arrowright","1","arrowleft","[0.15,0.85,0.325,0.675]","","",""
"sailing-trial","418","2161285","0.0-11.0-373.0","","","","false","","","","","","","","","","null","","1153.2000000029802","","0","0","null","null","arrowup","[0.15,0.85,0.325,0.675]","","",""
"sailing-trial","419","2165363","0.0-11.0-374.0","","","","false","","","","","","","","","","872.2000000029802","","177.69999998807907","","1","1","arrowleft","0","arrowright","[0.15,0.85,0.325,0.675]","","",""
"sailing-trial","420","2169378","0.0-11.0-375.0","","","","false","","","","","","","","","","null","","990.7000000029802","","1","0","null","null","arrowup","[0.15,0.85,0.325,0.675]","","",""
"sailing-trial","421","2175099","0.0-11.0-376.0","","","","false","","","","","","","","","","2257.8999999910593","","432","","0","0","arrowleft","0","arrowleft","[0.15,0.85,0.325,0.675]","","",""
"sailing-trial","422","2177948","0.0-11.0-377.0","","","","false","","","","","","","","","","null","","1212.4000000059605","","0","0","null","null","arrowup","[0.15,0.85,0.325,0.675]","","",""
"sailing-trial","423","2182590","0.0-11.0-378.0","","","","false","","","","","","","","","","525.2000000029802","","1373.5","","3","1","arrowright","1","arrowright","[0.15,0.85,0.325,0.675]","","",""
"sailing-trial","424","2185769","0.0-11.0-379.0","","","","false","","","","","","","","","","null","","2137.2999999970198","","3","0","null","null","arrowup","[0.15,0.85,0.325,0.675]","","",""
"sailing-trial","425","2189183","0.0-11.0-380.0","","","","false","","","","","","","","","","893.9000000059605","","338.1000000089407","","3","0","arrowright","1","arrowright","[0.15,0.85,0.325,0.675]","","",""
"sailing-trial","426","2191848","0.0-11.0-381.0","","","","false","","","","","","","","","","null","","1506.1000000089407","","0","0","null","null","arrowup","[0.15,0.85,0.325,0.675]","","",""
"sailing-trial","427","2197553","0.0-11.0-382.0","","","","false","","","","","","","","","","1733.2999999970198","","666.2000000029802","","2","1","arrowright","1","arrowleft","[0.15,0.85,0.325,0.675]","","",""
"sailing-trial","428","2201165","0.0-11.0-383.0","","","","false","","","","","","","","","","null","","1380.4000000059605","","1","1","null","null","arrowup","[0.15,0.85,0.325,0.675]","","",""
"sailing-trial","429","2206379","0.0-11.0-384.0","","","","false","","","","","","","","","","789.5","","389","","2","0","arrowright","1","arrowleft","[0.325,0.675,0.15,0.85]","","",""
"sailing-trial","430","2214481","0.0-11.0-385.0","","","","false","","","","","","","","","","null","","5862.79999999702","","0","1","null","null","arrowup","[0.325,0.675,0.15,0.85]","","",""
"sailing-trial","431","2221855","0.0-11.0-386.0","","","","false","","","","","","","","","","1564.8999999910593","","3504.7999999970198","","0","0","arrowleft","0","arrowleft","[0.325,0.675,0.15,0.85]","","",""
"sailing-trial","432","2224356","0.0-11.0-387.0","","","","false","","","","","","","","","","null","","1450.0999999940395","","1","0","null","null","arrowup","[0.325,0.675,0.15,0.85]","","",""
"sailing-trial","433","2228662","0.0-11.0-388.0","","","","false","","","","","","","","","","532.8999999910593","","801.8999999910593","","3","1","arrowright","1","arrowright","[0.325,0.675,0.15,0.85]","","",""
"sailing-trial","434","2232173","0.0-11.0-389.0","","","","false","","","","","","","","","","null","","1424.5","","0","1","null","null","arrowup","[0.325,0.675,0.15,0.85]","","",""
"sailing-trial","435","2236486","0.0-11.0-390.0","","","","false","","","","","","","","","","1225.6000000089407","","17.69999998807907","","3","1","arrowright","1","arrowright","[0.325,0.675,0.15,0.85]","","",""
"sailing-trial","436","2239813","0.0-11.0-391.0","","","","false","","","","","","","","","","null","","1236.1000000089407","","1","1","null","null","arrowup","[0.325,0.675,0.15,0.85]","","",""
"sailing-trial","437","2243741","0.0-11.0-392.0","","","","false","","","","","","","","","","723.9000000059605","","112.79999999701977","","3","1","arrowright","1","arrowright","[0.325,0.675,0.15,0.85]","","",""
"sailing-trial","438","2246821","0.0-11.0-393.0","","","","false","","","","","","","","","","null","","1185.800000011921","","3","1","null","null","arrowup","[0.325,0.675,0.15,0.85]","","",""
"sailing-trial","439","2250884","0.0-11.0-394.0","","","","false","","","","","","","","","","819","","205.79999999701977","","3","1","arrowright","1","arrowright","[0.325,0.675,0.15,0.85]","","",""
"sailing-trial","440","2253676","0.0-11.0-395.0","","","","false","","","","","","","","","","null","","1083.699999988079","","2","0","null","null","arrowup","[0.325,0.675,0.15,0.85]","","",""
"sailing-trial","441","2257990","0.0-11.0-396.0","","","","false","","","","","","","","","","882.3999999910593","","288.79999999701977","","3","1","arrowright","1","arrowright","[0.325,0.675,0.15,0.85]","","",""
"sailing-trial","442","2260985","0.0-11.0-397.0","","","","false","","","","","","","","","","null","","1015.0999999940395","","1","1","null","null","arrowup","[0.325,0.675,0.15,0.85]","","",""
"sailing-trial","443","2264625","0.0-11.0-398.0","","","","false","","","","","","","","","","694.7000000029802","","383.90000000596046","","3","0","arrowright","1","arrowright","[0.325,0.675,0.15,0.85]","","",""
"sailing-trial","444","2268542","0.0-11.0-399.0","","","","false","","","","","","","","","","null","","2047.6000000089407","","3","1","null","null","arrowup","[0.325,0.675,0.15,0.85]","","",""
"instructions","445","2276316","0.0-12.0","","","","","","","","","","7771.100000008941","","","","","","","","","","","","","","","","[{""page_index"":0,""viewing_time"":7768.100000008941}]"
"survey-debrief","446","2398470","0.0-13.0","","","","","","","","","","122140.20000000298","","","","","","","","","","","","","","{""difficulty"":""3"",""fun"":""2"",""clarity"":""5"",""strategy"":""trying to figure out if there is a pattern so remembering what colors gave me gold"",""feedback"":""no""}","",""
