"trial_type","trial_index","time_elapsed","internal_node_id","value","metadata","success","timeout","failed_images","failed_audio","failed_video","browser_interaction","low_quality","rt","stimulus","response","button_pressed","island_rt","island_response","boat_rt","boat_response","boat","reward","island_key","island","boat_key","reward_probabilities","responses","num_errors","view_history"
"pavlovia","0","7","0.0-0.0","","","","","","","","","","","","","","","","","","","","","","","","","",""
"call-function","1","8","0.0-1.0","","{""task_version"":""sailing_part1_v1"",""task_condition"":""good"",""boats"":[""A"",""C"",""D"",""B""],""boats_demo"":[""G"",""F"",""E"",""H""],""islands"":[""A"",""B""],""subject_id"":""14749"",""age"":""18"",""gender"":""Female""}","","","","","","","","","","","","","","","","","","","","","","","",""
"preload","2","1665","0.0-2.0","","","true","false","[]","[]","[]","[{""event"":""fullscreenenter"",""trial"":3,""time"":4408}]","false","","","","","","","","","","","","","","","","",""
"fullscreen","3","5400","0.0-3.0","","","true","","","","","","","","","","","","","","","","","","","","","","",""
"audio-keyboard-response","4","15414","0.0-4.0-0.0","","","","","","","","","","9909.333333333332","audio/beep_loop.wav"," ","","","","","","","","","","","","","",""
"audio-test","5","18104","0.0-4.0-1.0","","","","","","","","","","null","audio/turtle.mp3","","3","","","","","","","","","","","","",""
"audio-test","6","20577","0.0-4.0-2.0","","","","","","","","","","null","audio/shark.mp3","","2","","","","","","","","","","","","",""
"sailing-instructions","7","54167","0.0-5.0-0.0-0.0","","","","","","","","","","","","","","null","null","null","null","null","null","","","","","","",""
"sailing-trial","8","59072","0.0-5.0-0.0-1.0-0.0","","","","false","","","","","","","","","","3790","","null","","null","null","arrowleft","0","null","null","","",""
"sailing-trial","9","61472","0.0-5.0-0.0-1.0-1.0","","","","false","","","","","","","","","","1293.7000000029802","","null","","null","null","arrowright","1","null","null","","",""
"sailing-trial","10","64152","0.0-5.0-0.0-1.0-2.0","","","","false","","","","","","","","","","1569.7000000029802","","null","","null","null","arrowright","1","null","null","","",""
"sailing-instructions","11","105476","0.0-5.0-0.0-2.0","","","","","","","","","","","","","","null","null","null","null","0","null","","","","","","",""
"sailing-trial","12","115800","0.0-5.0-0.0-3.0-0.0","","","","false","","","","","","","","","","null","","5495.0999999940395","","2","1","null","null","arrowleft","[1,1,1,1]","","",""
"sailing-trial","13","120136","0.0-5.0-0.0-3.0-1.0","","","","false","","","","","","","","","","null","","982.7000000029802","","3","1","null","null","arrowright","[1,1,1,1]","","",""
"sailing-trial","14","124798","0.0-5.0-0.0-3.0-2.0","","","","false","","","","","","","","","","null","","1336.6000000089407","","2","0","null","null","arrowleft","[0,0,0,0]","","",""
"sailing-instructions","15","132116","0.0-5.0-0.0-4.0","","","","","","","","","","","","","","null","null","null","null","null","null","","","","","","",""
"sailing-comprehension","16","160696","0.0-5.0-0.0-5.0","","","","","","","","","","22594.09999999404","","","","","","","","","","","","","","[""true"",""true"",""false"",""true""]","0",""
"sailing-instructions","17","222492","0.0-6.0-0.0-0.0","","","","","","","","","","","","","","null","null","null","null","null","null","","","","","","",""
"sailing-comprehension","18","238840","0.0-6.0-0.0-1.0","","","","","","","","","","15147.40000000596","","","","","","","","","","","","","","[""true"",""false"",""true""]","0",""
"sailing-instructions","19","252767","0.0-7.0-0.0-0.0","","","","","","","","","","","","","","null","null","null","null","null","null","","","","","","",""
"sailing-trial","20","258928","0.0-7.0-0.0-1.0-0.0","","","","false","","","","","","","","","","null","","3188.0999999940395","","0","0","null","null","arrowup","[0.2,0.8,0.2,0.8]","","",""
"sailing-trial","21","263288","0.0-7.0-0.0-1.0-1.0","","","","false","","","","","","","","","","null","","1655.9000000059605","","1","1","null","null","arrowup","[0.2,0.8,0.2,0.8]","","",""
"sailing-trial","22","266576","0.0-7.0-0.0-1.0-2.0","","","","false","","","","","","","","","","null","","1518.7999999970198","","2","0","null","null","arrowup","[0.2,0.8,0.2,0.8]","","",""
"sailing-trial","23","269344","0.0-7.0-0.0-1.0-3.0","","","","false","","","","","","","","","","null","","848.5999999940395","","3","1","null","null","arrowup","[0.2,0.8,0.2,0.8]","","",""
"sailing-comprehension","24","281062","0.0-7.0-0.0-2.0","","","","","","","","","","10798.70000000298","","","","","","","","","","","","","","[""false""]","0",""
"sailing-instructions","25","291563","0.0-8.0-0.0-0.0","","","","","","","","","","","","","","null","null","null","null","null","null","","","","","","",""
"sailing-comprehension","26","295323","0.0-8.0-0.0-1.0","","","","","","","","","","2906.1000000089407","","","","","","","","","","","","","","[""true""]","0",""
"sailing-instructions","27","324682","0.0-9.0-0.0-0.0","","","","","","","","","","","","","","null","null","null","null","null","null","","","","","","",""
"sailing-trial","28","330728","0.0-9.0-0.0-1.0-0.0","","","","false","","","","","","","","","","1479.3999999910593","","671.5","","2","1","arrowright","1","arrowleft","[0.2,0.8,0.2,0.8]","","",""
"sailing-trial","29","335680","0.0-9.0-0.0-1.0-1.0","","","","false","","","","","","","","","","965.3000000119209","","758.9000000059605","","3","1","arrowright","1","arrowright","[0.2,0.8,0.2,0.8]","","",""
"sailing-trial","30","340592","0.0-9.0-0.0-1.0-2.0","","","","false","","","","","","","","","","null","","2313.0999999940395","","0","1","null","null","arrowup","[0.2,0.8,0.2,0.8]","","",""
"sailing-trial","31","344480","0.0-9.0-0.0-1.0-3.0","","","","false","","","","","","","","","","669.8999999910593","","178.29999999701977","","1","1","arrowleft","0","arrowright","[0.2,0.8,0.2,0.8]","","",""
"sailing-trial","32","347688","0.0-9.0-0.0-1.0-4.0","","","","false","","","","","","","","","","null","","1196.9000000059605","","3","0","null","null","arrowup","[0.2,0.8,0.2,0.8]","","",""
"sailing-trial","33","352648","0.0-9.0-0.0-1.0-5.0","","","","false","","","","","","","","","","1070.199999988079","","616","","0","0","arrowleft","0","arrowleft","[0.2,0.8,0.2,0.8]","","",""
"sailing-instructions","34","379901","0.0-10.0","","","","","","","","","","","","","","null","null","null","null","null","null","","","","","","",""
"sailing-trial","35","384707","0.0-11.0-0.0","","","","false","","","","","","","","","","718.6000000089407","","834.8999999910593","","3","1","arrowright","1","arrowright","[0.675,0.325,0.15,0.85]","","",""
"sailing-trial","36","389696","0.0-11.0-1.0","","","","false","","","","","","","","","","null","","1404.3999999910593","","1","1","null","null","arrowup","[0.675,0.325,0.15,0.85]","","",""
"sailing-trial","37","394976","0.0-11.0-2.0","","","","false","","","","","","","","","","881.0999999940395","","480.20000000298023","","0","1","arrowleft","0","arrowleft","[0.675,0.325,0.15,0.85]","","",""
"sailing-trial","38","399164","0.0-11.0-3.0","","","","false","","","","","","","","","","null","","1202","","1","0","null","null","arrowup","[0.675,0.325,0.15,0.85]","","",""
"sailing-trial","39","402672","0.0-11.0-4.0","","","","false","","","","","","","","","","582.2000000029802","","345.20000000298023","","1","0","arrowleft","0","arrowright","[0.675,0.325,0.15,0.85]","","",""
"sailing-trial","40","406674","0.0-11.0-5.0","","","","false","","","","","","","","","","null","","1491.2999999970198","","0","1","null","null","arrowup","[0.675,0.325,0.15,0.85]","","",""
"sailing-trial","41","411846","0.0-11.0-6.0","","","","false","","","","","","","","","","951.3999999910593","","696.8999999910593","","3","0","arrowright","1","arrowright","[0.675,0.325,0.15,0.85]","","",""
"sailing-trial","42","415508","0.0-11.0-7.0","","","","false","","","","","","","","","","null","","1262.3999999910593","","3","1","null","null","arrowup","[0.675,0.325,0.15,0.85]","","",""
"sailing-trial","43","420400","0.0-11.0-8.0","","","","false","","","","","","","","","","656","","282.5","","2","0","arrowright","1","arrowleft","[0.675,0.325,0.15,0.85]","","",""
"sailing-trial","44","424064","0.0-11.0-9.0","","","","false","","","","","","","","","","null","","1416.6000000089407","","3","1","null","null","arrowup","[0.675,0.325,0.15,0.85]","","",""
"sailing-trial","45","427896","0.0-11.0-10.0","","","","false","","","","","","","","","","613","","221.5","","3","1","arrowright","1","arrowright","[0.675,0.325,0.15,0.85]","","",""
"sailing-trial","46","431168","0.0-11.0-11.0","","","","false","","","","","","","","","","null","","1118.5","","1","0","null","null","arrowup","[0.675,0.325,0.15,0.85]","","",""
"sailing-trial","47","435000","0.0-11.0-12.0","","","","false","","","","","","","","","","511.1000000089407","","345","","3","1","arrowright","1","arrowright","[0.675,0.325,0.15,0.85]","","",""
"sailing-trial","48","437280","0.0-11.0-13.0","","","","false","","","","","","","","","","null","","643.8999999910593","","3","1","null","null","arrowup","[0.675,0.325,0.15,0.85]","","",""
"sailing-trial","49","441909","0.0-11.0-14.0","","","","false","","","","","","","","","","502.29999999701977","","264.09999999403954","","3","0","arrowright","1","arrowright","[0.675,0.325,0.15,0.85]","","",""
"sailing-trial","50","446056","0.0-11.0-15.0","","","","false","","","","","","","","","","null","","1124.7999999970198","","2","0","null","null","arrowup","[0.675,0.325,0.15,0.85]","","",""
"sailing-trial","51","450774","0.0-11.0-16.0","","","","false","","","","","","","","","","600.9000000059605","","367","","2","0","arrowright","1","arrowleft","[0.675,0.325,0.15,0.85]","","",""
"sailing-trial","52","453800","0.0-11.0-17.0","","","","false","","","","","","","","","","null","","921.5","","3","1","null","null","arrowup","[0.675,0.325,0.15,0.85]","","",""
"sailing-trial","53","457728","0.0-11.0-18.0","","","","false","","","","","","","","","","573.0999999940395","","281.5","","3","1","arrowright","1","arrowright","[0.675,0.325,0.15,0.85]","","",""
"sailing-trial","54","460576","0.0-11.0-19.0","","","","false","","","","","","","","","","null","","919.5","","1","1","null","null","arrowup","[0.675,0.325,0.15,0.85]","","",""
"sailing-trial","55","464600","0.0-11.0-20.0","","","","false","","","","","","","","","","800.3999999910593","","277.29999999701977","","3","1","arrowright","1","arrowright","[0.675,0.325,0.15,0.85]","","",""
"sailing-trial","56","467672","0.0-11.0-21.0","","","","false","","","","","","","","","","null","","1355.4000000059605","","0","0","null","null","arrowup","[0.675,0.325,0.15,0.85]","","",""
"sailing-trial","57","471769","0.0-11.0-22.0","","","","false","","","","","","","","","","836.2999999970198","","181.40000000596046","","3","1","arrowright","1","arrowright","[0.675,0.325,0.15,0.85]","","",""
"sailing-trial","58","474272","0.0-11.0-23.0","","","","false","","","","","","","","","","null","","897.7999999970198","","2","0","null","null","arrowup","[0.675,0.325,0.15,0.85]","","",""
"sailing-trial","59","478544","0.0-11.0-24.0","","","","false","","","","","","","","","","1078.7000000029802","","112.3999999910593","","3","1","arrowright","1","arrowright","[0.85,0.15,0.325,0.675]","","",""
"sailing-trial","60","483126","0.0-11.0-25.0","","","","false","","","","","","","","","","null","","2924.300000011921","","0","0","null","null","arrowup","[0.85,0.15,0.325,0.675]","","",""
"sailing-trial","61","487559","0.0-11.0-26.0","","","","false","","","","","","","","","","754.0999999940395","","6.4000000059604645","","1","0","arrowleft","0","arrowright","[0.85,0.15,0.325,0.675]","","",""
"sailing-trial","62","490880","0.0-11.0-27.0","","","","false","","","","","","","","","","null","","1189.9000000059605","","3","1","null","null","arrowup","[0.85,0.15,0.325,0.675]","","",""
"sailing-trial","63","495784","0.0-11.0-28.0","","","","false","","","","","","","","","","576.3999999910593","","1217.0999999940395","","0","1","arrowleft","0","arrowleft","[0.85,0.15,0.325,0.675]","","",""
"sailing-trial","64","499694","0.0-11.0-29.0","","","","false","","","","","","","","","","null","","897.2999999970198","","2","0","null","null","arrowup","[0.85,0.15,0.325,0.675]","","",""
"sailing-trial","65","505680","0.0-11.0-30.0","","","","false","","","","","","","","","","1446.7000000029802","","1496.1000000089407","","0","1","arrowleft","0","arrowleft","[0.85,0.15,0.325,0.675]","","",""
"sailing-trial","66","509526","0.0-11.0-31.0","","","","false","","","","","","","","","","null","","2195.5","","3","0","null","null","arrowup","[0.85,0.15,0.325,0.675]","","",""
"sailing-trial","67","513048","0.0-11.0-32.0","","","","false","","","","","","","","","","636.7999999970198","","1.2999999970197678","","0","1","arrowleft","0","arrowleft","[0.85,0.15,0.325,0.675]","","",""
"sailing-trial","68","516976","0.0-11.0-33.0","","","","false","","","","","","","","","","null","","905.4000000059605","","2","0","null","null","arrowup","[0.85,0.15,0.325,0.675]","","",""
"sailing-trial","69","520552","0.0-11.0-34.0","","","","false","","","","","","","","","","498.30000001192093","","15.399999991059303","","0","1","arrowleft","0","arrowleft","[0.85,0.15,0.325,0.675]","","",""
"sailing-trial","70","524816","0.0-11.0-35.0","","","","false","","","","","","","","","","null","","1583.7000000029802","","2","1","null","null","arrowup","[0.85,0.15,0.325,0.675]","","",""
"sailing-trial","71","528462","0.0-11.0-36.0","","","","false","","","","","","","","","","458.70000000298023","","311.79999999701977","","0","1","arrowleft","0","arrowleft","[0.85,0.15,0.325,0.675]","","",""
"sailing-trial","72","532310","0.0-11.0-37.0","","","","false","","","","","","","","","","null","","985.2999999970198","","1","0","null","null","arrowup","[0.85,0.15,0.325,0.675]","","",""
"sailing-trial","73","536672","0.0-11.0-38.0","","","","false","","","","","","","","","","372.70000000298023","","1070.7999999970198","","0","0","arrowleft","0","arrowleft","[0.85,0.15,0.325,0.675]","","",""
"sailing-trial","74","540880","0.0-11.0-39.0","","","","false","","","","","","","","","","null","","1016.0999999940395","","3","1","null","null","arrowup","[0.85,0.15,0.325,0.675]","","",""
"sailing-trial","75","545527","0.0-11.0-40.0","","","","false","","","","","","","","","","593.6000000089407","","24.399999991059303","","3","0","arrowright","1","arrowright","[0.85,0.15,0.325,0.675]","","",""
"sailing-trial","76","548568","0.0-11.0-41.0","","","","false","","","","","","","","","","null","","1030.699999988079","","0","1","null","null","arrowup","[0.85,0.15,0.325,0.675]","","",""
"sailing-trial","77","552192","0.0-11.0-42.0","","","","false","","","","","","","","","","693","","123","","2","0","arrowright","1","arrowleft","[0.675,0.325,0.15,0.85]","","",""
"sailing-trial","78","554612","0.0-11.0-43.0","","","","false","","","","","","","","","","null","","947.5999999940395","","2","0","null","null","arrowup","[0.675,0.325,0.15,0.85]","","",""
"sailing-trial","79","558216","0.0-11.0-44.0","","","","false","","","","","","","","","","425.5","","220.29999999701977","","3","1","arrowright","1","arrowright","[0.675,0.325,0.15,0.85]","","",""
"sailing-trial","80","561264","0.0-11.0-45.0","","","","false","","","","","","","","","","null","","992.7999999970198","","1","1","null","null","arrowup","[0.675,0.325,0.15,0.85]","","",""
"sailing-trial","81","565064","0.0-11.0-46.0","","","","false","","","","","","","","","","510.59999999403954","","374.20000000298023","","3","1","arrowright","1","arrowright","[0.675,0.325,0.15,0.85]","","",""
"sailing-trial","82","568984","0.0-11.0-47.0","","","","false","","","","","","","","","","null","","1918.300000011921","","2","1","null","null","arrowup","[0.675,0.325,0.15,0.85]","","",""
"sailing-trial","83","572600","0.0-11.0-48.0","","","","false","","","","","","","","","","587.9000000059605","","7.5","","3","1","arrowright","1","arrowright","[0.675,0.325,0.15,0.85]","","",""
"sailing-trial","84","575448","0.0-11.0-49.0","","","","false","","","","","","","","","","null","","822.4000000059605","","3","1","null","null","arrowup","[0.675,0.325,0.15,0.85]","","",""
"sailing-trial","85","579217","0.0-11.0-50.0","","","","false","","","","","","","","","","509.90000000596046","","309.8999999910593","","3","1","arrowright","1","arrowright","[0.675,0.325,0.15,0.85]","","",""
"sailing-trial","86","582336","0.0-11.0-51.0","","","","false","","","","","","","","","","null","","994.7999999970198","","0","1","null","null","arrowup","[0.675,0.325,0.15,0.85]","","",""
"sailing-trial","87","586184","0.0-11.0-52.0","","","","false","","","","","","","","","","703.7000000029802","","187.20000000298023","","3","1","arrowright","1","arrowright","[0.675,0.325,0.15,0.85]","","",""
"sailing-trial","88","590081","0.0-11.0-53.0","","","","false","","","","","","","","","","null","","873","","3","0","null","null","arrowup","[0.675,0.325,0.15,0.85]","","",""
"sailing-trial","89","594144","0.0-11.0-54.0","","","","false","","","","","","","","","","1266.7999999970198","","314.40000000596046","","0","0","arrowleft","0","arrowleft","[0.675,0.325,0.15,0.85]","","",""
"sailing-trial","90","597779","0.0-11.0-55.0","","","","false","","","","","","","","","","null","","772.5","","2","0","null","null","arrowup","[0.675,0.325,0.15,0.85]","","",""
"sailing-trial","91","602279","0.0-11.0-56.0","","","","false","","","","","","","","","","493.59999999403954","","333.90000000596046","","1","0","arrowleft","0","arrowright","[0.675,0.325,0.15,0.85]","","",""
"sailing-trial","92","606176","0.0-11.0-57.0","","","","false","","","","","","","","","","null","","880.7000000029802","","1","0","null","null","arrowup","[0.675,0.325,0.15,0.85]","","",""
"sailing-trial","93","609872","0.0-11.0-58.0","","","","false","","","","","","","","","","513.6999999880791","","243","","3","1","arrowright","1","arrowright","[0.675,0.325,0.15,0.85]","","",""
"sailing-trial","94","612736","0.0-11.0-59.0","","","","false","","","","","","","","","","null","","893.5","","3","1","null","null","arrowup","[0.675,0.325,0.15,0.85]","","",""
"sailing-trial","95","616456","0.0-11.0-60.0","","","","false","","","","","","","","","","501","","292.09999999403954","","3","1","arrowright","1","arrowright","[0.85,0.15,0.325,0.675]","","",""
"sailing-trial","96","619368","0.0-11.0-61.0","","","","false","","","","","","","","","","null","","950.2000000029802","","0","1","null","null","arrowup","[0.85,0.15,0.325,0.675]","","",""
"sailing-trial","97","622544","0.0-11.0-62.0","","","","false","","","","","","","","","","446.80000001192093","","300.6000000089407","","3","0","arrowright","1","arrowright","[0.85,0.15,0.325,0.675]","","",""
"sailing-trial","98","625112","0.0-11.0-63.0","","","","false","","","","","","","","","","null","","1032.2999999970198","","2","0","null","null","arrowup","[0.85,0.15,0.325,0.675]","","",""
"sailing-trial","99","629320","0.0-11.0-64.0","","","","false","","","","","","","","","","544.8999999910593","","384","","0","1","arrowleft","0","arrowleft","[0.85,0.15,0.325,0.675]","","",""
"sailing-trial","100","631968","0.0-11.0-65.0","","","","false","","","","","","","","","","null","","597.5","","1","0","null","null","arrowup","[0.85,0.15,0.325,0.675]","","",""
"sailing-trial","101","635488","0.0-11.0-66.0","","","","false","","","","","","","","","","527.3000000119209","","148.5","","0","1","arrowleft","0","arrowleft","[0.85,0.15,0.325,0.675]","","",""
"sailing-trial","102","638734","0.0-11.0-67.0","","","","false","","","","","","","","","","null","","1379.7999999970198","","2","0","null","null","arrowup","[0.85,0.15,0.325,0.675]","","",""
"sailing-trial","103","642936","0.0-11.0-68.0","","","","false","","","","","","","","","","590.5","","651.2000000029802","","0","1","arrowleft","0","arrowleft","[0.85,0.15,0.325,0.675]","","",""
"sailing-trial","104","646856","0.0-11.0-69.0","","","","false","","","","","","","","","","null","","2082.1000000089407","","0","1","null","null","arrowup","[0.85,0.15,0.325,0.675]","","",""
"sailing-trial","105","650984","0.0-11.0-70.0","","","","false","","","","","","","","","","426.90000000596046","","847.5","","0","1","arrowleft","0","arrowleft","[0.85,0.15,0.325,0.675]","","",""
"sailing-trial","106","654704","0.0-11.0-71.0","","","","false","","","","","","","","","","null","","1773.5","","2","1","null","null","arrowup","[0.85,0.15,0.325,0.675]","","",""
"sailing-trial","107","658240","0.0-11.0-72.0","","","","false","","","","","","","","","","484.20000000298023","","3.2999999970197678","","0","1","arrowleft","0","arrowleft","[0.85,0.15,0.325,0.675]","","",""
"sailing-trial","108","661224","0.0-11.0-73.0","","","","false","","","","","","","","","","null","","1222.6000000089407","","3","0","null","null","arrowup","[0.85,0.15,0.325,0.675]","","",""
"sailing-trial","109","664808","0.0-11.0-74.0","","","","false","","","","","","","","","","576.6000000089407","","39","","0","1","arrowleft","0","arrowleft","[0.85,0.15,0.325,0.675]","","",""
"sailing-trial","110","667592","0.0-11.0-75.0","","","","false","","","","","","","","","","null","","1492.7999999970198","","1","0","null","null","arrowup","[0.85,0.15,0.325,0.675]","","",""
"sailing-trial","111","673050","0.0-11.0-76.0","","","","false","","","","","","","","","","446.1000000089407","","1712.4000000059605","","0","1","arrowleft","0","arrowleft","[0.85,0.15,0.325,0.675]","","",""
"sailing-trial","112","675776","0.0-11.0-77.0","","","","false","","","","","","","","","","null","","1341.5","","1","0","null","null","arrowup","[0.85,0.15,0.325,0.675]","","",""
"sailing-trial","113","679616","0.0-11.0-78.0","","","","false","","","","","","","","","","493.90000000596046","","320.30000001192093","","0","0","arrowleft","0","arrowleft","[0.15,0.85,0.675,0.325]","","",""
"sailing-trial","114","684018","0.0-11.0-79.0","","","","false","","","","","","","","","","null","","1380.2999999970198","","0","0","null","null","arrowup","[0.15,0.85,0.675,0.325]","","",""
"sailing-trial","115","687672","0.0-11.0-80.0","","","","false","","","","","","","","","","609.2000000029802","","239","","2","1","arrowright","1","arrowleft","[0.15,0.85,0.675,0.325]","","",""
"sailing-trial","116","690376","0.0-11.0-81.0","","","","false","","","","","","","","","","null","","982.4000000059605","","0","0","null","null","arrowup","[0.15,0.85,0.675,0.325]","","",""
"sailing-trial","117","694664","0.0-11.0-82.0","","","","false","","","","","","","","","","512.2000000029802","","257.8999999910593","","2","0","arrowright","1","arrowleft","[0.15,0.85,0.675,0.325]","","",""
"sailing-trial","118","698035","0.0-11.0-83.0","","","","false","","","","","","","","","","null","","1358","","3","1","null","null","arrowup","[0.15,0.85,0.675,0.325]","","",""
"sailing-trial","119","701800","0.0-11.0-84.0","","","","false","","","","","","","","","","507.80000001192093","","311.09999999403954","","3","0","arrowright","1","arrowright","[0.15,0.85,0.675,0.325]","","",""
"sailing-trial","120","705282","0.0-11.0-85.0","","","","false","","","","","","","","","","null","","858.7999999970198","","0","0","null","null","arrowup","[0.15,0.85,0.675,0.325]","","",""
"sailing-trial","121","709383","0.0-11.0-86.0","","","","false","","","","","","","","","","494.20000000298023","","168.20000000298023","","1","0","arrowleft","0","arrowright","[0.15,0.85,0.675,0.325]","","",""
"sailing-trial","122","712035","0.0-11.0-87.0","","","","false","","","","","","","","","","null","","1001.9000000059605","","0","0","null","null","arrowup","[0.15,0.85,0.675,0.325]","","",""
"sailing-trial","123","715736","0.0-11.0-88.0","","","","false","","","","","","","","","","549.2999999970198","","269.79999999701977","","3","1","arrowright","1","arrowright","[0.15,0.85,0.675,0.325]","","",""
"sailing-trial","124","718734","0.0-11.0-89.0","","","","false","","","","","","","","","","null","","903.7999999970198","","1","1","null","null","arrowup","[0.15,0.85,0.675,0.325]","","",""
"sailing-trial","125","722802","0.0-11.0-90.0","","","","false","","","","","","","","","","585.7999999970198","","515","","3","1","arrowright","1","arrowright","[0.15,0.85,0.675,0.325]","","",""
"sailing-trial","126","725944","0.0-11.0-91.0","","","","false","","","","","","","","","","null","","1016.0999999940395","","1","1","null","null","arrowup","[0.15,0.85,0.675,0.325]","","",""
"sailing-trial","127","729656","0.0-11.0-92.0","","","","false","","","","","","","","","","578","","381.59999999403954","","3","1","arrowright","1","arrowright","[0.15,0.85,0.675,0.325]","","",""
"sailing-trial","128","731912","0.0-11.0-93.0","","","","false","","","","","","","","","","null","","971.2000000029802","","3","0","null","null","arrowup","[0.15,0.85,0.675,0.325]","","",""
"sailing-trial","129","735969","0.0-11.0-94.0","","","","false","","","","","","","","","","399.29999999701977","","238.90000000596046","","3","0","arrowright","1","arrowright","[0.15,0.85,0.675,0.325]","","",""
"sailing-trial","130","738904","0.0-11.0-95.0","","","","false","","","","","","","","","","null","","924.5","","1","1","null","null","arrowup","[0.15,0.85,0.675,0.325]","","",""
"sailing-trial","131","742576","0.0-11.0-96.0","","","","false","","","","","","","","","","441.6000000089407","","357.5","","1","1","arrowleft","0","arrowright","[0.15,0.85,0.675,0.325]","","",""
"sailing-trial","132","745184","0.0-11.0-97.0","","","","false","","","","","","","","","","null","","955.1000000089407","","0","0","null","null","arrowup","[0.15,0.85,0.675,0.325]","","",""
"sailing-trial","133","748837","0.0-11.0-98.0","","","","false","","","","","","","","","","472.69999998807907","","64.70000000298023","","1","0","arrowleft","0","arrowright","[0.675,0.325,0.15,0.85]","","",""
"sailing-trial","134","751960","0.0-11.0-99.0","","","","false","","","","","","","","","","null","","958","","3","1","null","null","arrowup","[0.675,0.325,0.15,0.85]","","",""
"sailing-trial","135","755384","0.0-11.0-100.0","","","","false","","","","","","","","","","748.7000000029802","","443.90000000596046","","1","0","arrowleft","0","arrowright","[0.675,0.325,0.15,0.85]","","",""
"sailing-trial","136","758040","0.0-11.0-101.0","","","","false","","","","","","","","","","null","","661.8999999910593","","0","1","null","null","arrowup","[0.675,0.325,0.15,0.85]","","",""
"sailing-trial","137","761318","0.0-11.0-102.0","","","","false","","","","","","","","","","384.70000000298023","","332.1000000089407","","0","0","arrowleft","0","arrowleft","[0.675,0.325,0.15,0.85]","","",""
"sailing-trial","138","764328","0.0-11.0-103.0","","","","false","","","","","","","","","","null","","1167.3999999910593","","3","1","null","null","arrowup","[0.675,0.325,0.15,0.85]","","",""
"sailing-trial","139","767928","0.0-11.0-104.0","","","","false","","","","","","","","","","484.8999999910593","","240.79999999701977","","0","1","arrowleft","0","arrowleft","[0.675,0.325,0.15,0.85]","","",""
"sailing-trial","140","770992","0.0-11.0-105.0","","","","false","","","","","","","","","","null","","1127.8999999910593","","3","1","null","null","arrowup","[0.675,0.325,0.15,0.85]","","",""
"sailing-trial","141","774224","0.0-11.0-106.0","","","","false","","","","","","","","","","243.8999999910593","","235.79999999701977","","0","1","arrowleft","0","arrowleft","[0.675,0.325,0.15,0.85]","","",""
"sailing-trial","142","776648","0.0-11.0-107.0","","","","false","","","","","","","","","","null","","1015.2000000029802","","2","0","null","null","arrowup","[0.675,0.325,0.15,0.85]","","",""
"sailing-trial","143","780128","0.0-11.0-108.0","","","","false","","","","","","","","","","397.5","","229.5","","0","1","arrowleft","0","arrowleft","[0.675,0.325,0.15,0.85]","","",""
"sailing-trial","144","782752","0.0-11.0-109.0","","","","false","","","","","","","","","","null","","958.5999999940395","","2","0","null","null","arrowup","[0.675,0.325,0.15,0.85]","","",""
"sailing-trial","145","786128","0.0-11.0-110.0","","","","false","","","","","","","","","","357.29999999701977","","224.29999999701977","","0","1","arrowleft","0","arrowleft","[0.675,0.325,0.15,0.85]","","",""
"sailing-trial","146","789554","0.0-11.0-111.0","","","","false","","","","","","","","","","null","","1817.300000011921","","1","0","null","null","arrowup","[0.675,0.325,0.15,0.85]","","",""
"sailing-trial","147","792944","0.0-11.0-112.0","","","","false","","","","","","","","","","426.8999999910593","","183.70000000298023","","0","1","arrowleft","0","arrowleft","[0.675,0.325,0.15,0.85]","","",""
"sailing-trial","148","796024","0.0-11.0-113.0","","","","false","","","","","","","","","","null","","1137.0999999940395","","0","1","null","null","arrowup","[0.675,0.325,0.15,0.85]","","",""
"sailing-trial","149","799688","0.0-11.0-114.0","","","","false","","","","","","","","","","445.5","","192.30000001192093","","0","1","arrowleft","0","arrowleft","[0.675,0.325,0.15,0.85]","","",""
"sailing-trial","150","802188","0.0-11.0-115.0","","","","false","","","","","","","","","","null","","630.2999999970198","","0","1","null","null","arrowup","[0.675,0.325,0.15,0.85]","","",""
"sailing-trial","151","806296","0.0-11.0-116.0","","","","false","","","","","","","","","","593.4000000059605","","300","","0","1","arrowleft","0","arrowleft","[0.85,0.15,0.325,0.675]","","",""
"sailing-trial","152","808816","0.0-11.0-117.0","","","","false","","","","","","","","","","null","","900.2000000029802","","0","0","null","null","arrowup","[0.85,0.15,0.325,0.675]","","",""
"sailing-trial","153","812538","0.0-11.0-118.0","","","","false","","","","","","","","","","450.5","","227.59999999403954","","0","1","arrowleft","0","arrowleft","[0.85,0.15,0.325,0.675]","","",""
"sailing-trial","154","815003","0.0-11.0-119.0","","","","false","","","","","","","","","","null","","863.5","","2","0","null","null","arrowup","[0.85,0.15,0.325,0.675]","","",""
"sailing-trial","155","817800","0.0-11.0-120.0","","","","false","","","","","","","","","","425.70000000298023","","86.6000000089407","","0","0","arrowleft","0","arrowleft","[0.85,0.15,0.325,0.675]","","",""
"sailing-trial","156","820624","0.0-11.0-121.0","","","","false","","","","","","","","","","null","","1056.8999999910593","","3","1","null","null","arrowup","[0.85,0.15,0.325,0.675]","","",""
"sailing-trial","157","824056","0.0-11.0-122.0","","","","false","","","","","","","","","","378.5","","306.59999999403954","","0","1","arrowleft","0","arrowleft","[0.85,0.15,0.325,0.675]","","",""
"sailing-trial","158","826288","0.0-11.0-123.0","","","","false","","","","","","","","","","null","","834.7999999970198","","1","0","null","null","arrowup","[0.85,0.15,0.325,0.675]","","",""
"sailing-trial","159","829880","0.0-11.0-124.0","","","","false","","","","","","","","","","512.7999999970198","","264.5","","0","1","arrowleft","0","arrowleft","[0.85,0.15,0.325,0.675]","","",""
"sailing-trial","160","832584","0.0-11.0-125.0","","","","false","","","","","","","","","","null","","757.3000000119209","","2","0","null","null","arrowup","[0.85,0.15,0.325,0.675]","","",""
"sailing-trial","161","835923","0.0-11.0-126.0","","","","false","","","","","","","","","","349.70000000298023","","171.5","","0","1","arrowleft","0","arrowleft","[0.85,0.15,0.325,0.675]","","",""
"sailing-trial","162","838804","0.0-11.0-127.0","","","","false","","","","","","","","","","null","","656.2999999970198","","1","0","null","null","arrowup","[0.85,0.15,0.325,0.675]","","",""
"sailing-trial","163","842056","0.0-11.0-128.0","","","","false","","","","","","","","","","373.8999999910593","","36.1000000089407","","0","1","arrowleft","0","arrowleft","[0.85,0.15,0.325,0.675]","","",""
"sailing-trial","164","844680","0.0-11.0-129.0","","","","false","","","","","","","","","","null","","760.7000000029802","","0","1","null","null","arrowup","[0.85,0.15,0.325,0.675]","","",""
"sailing-trial","165","848144","0.0-11.0-130.0","","","","false","","","","","","","","","","529.2000000029802","","151.80000001192093","","0","1","arrowleft","0","arrowleft","[0.85,0.15,0.325,0.675]","","",""
"sailing-trial","166","850857","0.0-11.0-131.0","","","","false","","","","","","","","","","null","","727.0999999940395","","2","1","null","null","arrowup","[0.85,0.15,0.325,0.675]","","",""
"sailing-trial","167","854528","0.0-11.0-132.0","","","","false","","","","","","","","","","452.20000000298023","","201.20000000298023","","0","1","arrowleft","0","arrowleft","[0.675,0.325,0.15,0.85]","","",""
"sailing-trial","168","857357","0.0-11.0-133.0","","","","false","","","","","","","","","","null","","724.3999999910593","","0","1","null","null","arrowup","[0.675,0.325,0.15,0.85]","","",""
"sailing-trial","169","862368","0.0-11.0-134.0","","","","false","","","","","","","","","","713.1000000089407","","282.79999999701977","","0","0","arrowleft","0","arrowleft","[0.675,0.325,0.15,0.85]","","",""
"sailing-trial","170","865592","0.0-11.0-135.0","","","","false","","","","","","","","","","null","","1276.7000000029802","","0","1","null","null","arrowup","[0.675,0.325,0.15,0.85]","","",""
"sailing-trial","171","869432","0.0-11.0-136.0","","","","false","","","","","","","","","","745.9000000059605","","247.3999999910593","","0","1","arrowleft","0","arrowleft","[0.675,0.325,0.15,0.85]","","",""
"sailing-trial","172","872448","0.0-11.0-137.0","","","","false","","","","","","","","","","null","","1122.2000000029802","","3","1","null","null","arrowup","[0.675,0.325,0.15,0.85]","","",""
"sailing-trial","173","875992","0.0-11.0-138.0","","","","false","","","","","","","","","","580.3000000119209","","234.20000000298023","","0","1","arrowleft","0","arrowleft","[0.675,0.325,0.15,0.85]","","",""
"sailing-trial","174","878912","0.0-11.0-139.0","","","","false","","","","","","","","","","null","","1164.2999999970198","","0","1","null","null","arrowup","[0.675,0.325,0.15,0.85]","","",""
"sailing-trial","175","882360","0.0-11.0-140.0","","","","false","","","","","","","","","","459.79999999701977","","119.30000001192093","","0","1","arrowleft","0","arrowleft","[0.675,0.325,0.15,0.85]","","",""
"sailing-trial","176","885080","0.0-11.0-141.0","","","","false","","","","","","","","","","null","","1000.2999999970198","","0","1","null","null","arrowup","[0.675,0.325,0.15,0.85]","","",""
"sailing-trial","177","888459","0.0-11.0-142.0","","","","false","","","","","","","","","","372.29999999701977","","252.20000000298023","","0","1","arrowleft","0","arrowleft","[0.675,0.325,0.15,0.85]","","",""
"sailing-trial","178","890622","0.0-11.0-143.0","","","","false","","","","","","","","","","null","","778.6999999880791","","1","0","null","null","arrowup","[0.675,0.325,0.15,0.85]","","",""
"sailing-trial","179","894632","0.0-11.0-144.0","","","","false","","","","","","","","","","386.30000001192093","","728.7000000029802","","0","1","arrowleft","0","arrowleft","[0.675,0.325,0.15,0.85]","","",""
"sailing-trial","180","897344","0.0-11.0-145.0","","","","false","","","","","","","","","","null","","958.5999999940395","","0","1","null","null","arrowup","[0.675,0.325,0.15,0.85]","","",""
"sailing-trial","181","901080","0.0-11.0-146.0","","","","false","","","","","","","","","","605.5999999940395","","192.40000000596046","","0","1","arrowleft","0","arrowleft","[0.675,0.325,0.15,0.85]","","",""
"sailing-trial","182","904041","0.0-11.0-147.0","","","","false","","","","","","","","","","null","","845.7999999970198","","3","1","null","null","arrowup","[0.675,0.325,0.15,0.85]","","",""
"sailing-trial","183","907232","0.0-11.0-148.0","","","","false","","","","","","","","","","69.70000000298023","","252.40000000596046","","0","1","arrowleft","0","arrowleft","[0.85,0.15,0.325,0.675]","","",""
"sailing-trial","184","909880","0.0-11.0-149.0","","","","false","","","","","","","","","","null","","750.7999999970198","","2","1","null","null","arrowup","[0.85,0.15,0.325,0.675]","","",""
"sailing-trial","185","913032","0.0-11.0-150.0","","","","false","","","","","","","","","","420.70000000298023","","43","","0","1","arrowleft","0","arrowleft","[0.85,0.15,0.325,0.675]","","",""
"sailing-trial","186","915344","0.0-11.0-151.0","","","","false","","","","","","","","","","null","","956.1999999880791","","2","0","null","null","arrowup","[0.85,0.15,0.325,0.675]","","",""
"sailing-trial","187","919696","0.0-11.0-152.0","","","","false","","","","","","","","","","474.6000000089407","","635.9000000059605","","0","1","arrowleft","0","arrowleft","[0.85,0.15,0.325,0.675]","","",""
"sailing-trial","188","921688","0.0-11.0-153.0","","","","false","","","","","","","","","","null","","632.2999999970198","","2","0","null","null","arrowup","[0.85,0.15,0.325,0.675]","","",""
"sailing-trial","189","924922","0.0-11.0-154.0","","","","false","","","","","","","","","","372.70000000298023","","54.19999998807907","","0","0","arrowleft","0","arrowleft","[0.85,0.15,0.325,0.675]","","",""
"sailing-trial","190","927216","0.0-11.0-155.0","","","","false","","","","","","","","","","null","","1093.2000000029802","","3","0","null","null","arrowup","[0.85,0.15,0.325,0.675]","","",""
"sailing-trial","191","930560","0.0-11.0-156.0","","","","false","","","","","","","","","","444.79999999701977","","184.5","","0","1","arrowleft","0","arrowleft","[0.85,0.15,0.325,0.675]","","",""
"sailing-trial","192","933509","0.0-11.0-157.0","","","","false","","","","","","","","","","null","","803.8999999910593","","3","1","null","null","arrowup","[0.85,0.15,0.325,0.675]","","",""
"sailing-trial","193","936816","0.0-11.0-158.0","","","","false","","","","","","","","","","309.59999999403954","","233.80000001192093","","0","1","arrowleft","0","arrowleft","[0.85,0.15,0.325,0.675]","","",""
"sailing-trial","194","939440","0.0-11.0-159.0","","","","false","","","","","","","","","","null","","754.7999999970198","","3","0","null","null","arrowup","[0.85,0.15,0.325,0.675]","","",""
"sailing-trial","195","942880","0.0-11.0-160.0","","","","false","","","","","","","","","","298.29999999701977","","210.79999999701977","","0","1","arrowleft","0","arrowleft","[0.85,0.15,0.325,0.675]","","",""
"sailing-trial","196","945600","0.0-11.0-161.0","","","","false","","","","","","","","","","null","","799.2000000029802","","1","1","null","null","arrowup","[0.85,0.15,0.325,0.675]","","",""
"sailing-trial","197","948752","0.0-11.0-162.0","","","","false","","","","","","","","","","246.70000000298023","","247","","0","0","arrowleft","0","arrowleft","[0.85,0.15,0.325,0.675]","","",""
"sailing-trial","198","951464","0.0-11.0-163.0","","","","false","","","","","","","","","","null","","929","","3","1","null","null","arrowup","[0.85,0.15,0.325,0.675]","","",""
"sailing-trial","199","955593","0.0-11.0-164.0","","","","false","","","","","","","","","","865.7999999970198","","279.79999999701977","","0","1","arrowleft","0","arrowleft","[0.85,0.15,0.325,0.675]","","",""
"sailing-trial","200","958946","0.0-11.0-165.0","","","","false","","","","","","","","","","null","","1929.5","","3","0","null","null","arrowup","[0.85,0.15,0.325,0.675]","","",""
"sailing-trial","201","962280","0.0-11.0-166.0","","","","false","","","","","","","","","","458.6000000089407","","126.3999999910593","","0","1","arrowleft","0","arrowleft","[0.675,0.325,0.15,0.85]","","",""
"sailing-trial","202","964793","0.0-11.0-167.0","","","","false","","","","","","","","","","null","","1107.2000000029802","","1","0","null","null","arrowup","[0.675,0.325,0.15,0.85]","","",""
"sailing-trial","203","968200","0.0-11.0-168.0","","","","false","","","","","","","","","","472.90000000596046","","214","","0","1","arrowleft","0","arrowleft","[0.675,0.325,0.15,0.85]","","",""
"sailing-trial","204","971216","0.0-11.0-169.0","","","","false","","","","","","","","","","null","","980.3999999910593","","0","1","null","null","arrowup","[0.675,0.325,0.15,0.85]","","",""
"sailing-trial","205","975696","0.0-11.0-170.0","","","","false","","","","","","","","","","857.1000000089407","","818.3999999910593","","0","1","arrowleft","0","arrowleft","[0.675,0.325,0.15,0.85]","","",""
"sailing-trial","206","977968","0.0-11.0-171.0","","","","false","","","","","","","","","","null","","752.2999999970198","","2","0","null","null","arrowup","[0.675,0.325,0.15,0.85]","","",""
"sailing-trial","207","981040","0.0-11.0-172.0","","","","false","","","","","","","","","","435.79999999701977","","262.6000000089407","","0","0","arrowleft","0","arrowleft","[0.675,0.325,0.15,0.85]","","",""
"sailing-trial","208","983336","0.0-11.0-173.0","","","","false","","","","","","","","","","null","","792.8000000119209","","0","0","null","null","arrowup","[0.675,0.325,0.15,0.85]","","",""
"sailing-trial","209","986584","0.0-11.0-174.0","","","","false","","","","","","","","","","396.79999999701977","","196.90000000596046","","0","1","arrowleft","0","arrowleft","[0.675,0.325,0.15,0.85]","","",""
"sailing-trial","210","989152","0.0-11.0-175.0","","","","false","","","","","","","","","","null","","784.7999999970198","","0","1","null","null","arrowup","[0.675,0.325,0.15,0.85]","","",""
"sailing-trial","211","993510","0.0-11.0-176.0","","","","false","","","","","","","","","","532.7999999970198","","522.9000000059605","","0","0","arrowleft","0","arrowleft","[0.675,0.325,0.15,0.85]","","",""
"sailing-trial","212","996444","0.0-11.0-177.0","","","","false","","","","","","","","","","null","","759.0999999940395","","2","0","null","null","arrowup","[0.675,0.325,0.15,0.85]","","",""
"sailing-trial","213","1000280","0.0-11.0-178.0","","","","false","","","","","","","","","","388.40000000596046","","365.69999998807907","","0","1","arrowleft","0","arrowleft","[0.675,0.325,0.15,0.85]","","",""
"sailing-trial","214","1004168","0.0-11.0-179.0","","","","false","","","","","","","","","","null","","2103.9000000059605","","3","1","null","null","arrowup","[0.675,0.325,0.15,0.85]","","",""
"sailing-trial","215","1007432","0.0-11.0-180.0","","","","false","","","","","","","","","","324.3999999910593","","150.70000000298023","","0","1","arrowleft","0","arrowleft","[0.675,0.325,0.15,0.85]","","",""
"sailing-trial","216","1010168","0.0-11.0-181.0","","","","false","","","","","","","","","","null","","623.1000000089407","","3","1","null","null","arrowup","[0.675,0.325,0.15,0.85]","","",""
"sailing-trial","217","1013536","0.0-11.0-182.0","","","","false","","","","","","","","","","609.5999999940395","","104.90000000596046","","3","1","arrowright","1","arrowright","[0.675,0.325,0.15,0.85]","","",""
"sailing-trial","218","1016952","0.0-11.0-183.0","","","","false","","","","","","","","","","null","","1515.2999999970198","","1","1","null","null","arrowup","[0.675,0.325,0.15,0.85]","","",""
"sailing-trial","219","1021608","0.0-11.0-184.0","","","","false","","","","","","","","","","747.7000000029802","","455.79999999701977","","0","0","arrowleft","0","arrowleft","[0.675,0.325,0.15,0.85]","","",""
"sailing-trial","220","1024464","0.0-11.0-185.0","","","","false","","","","","","","","","","null","","1180.7999999970198","","1","1","null","null","arrowup","[0.675,0.325,0.15,0.85]","","",""
"sailing-trial","221","1028079","0.0-11.0-186.0","","","","false","","","","","","","","","","374.29999999701977","","289.09999999403954","","0","1","arrowleft","0","arrowleft","[0.85,0.15,0.325,0.675]","","",""
"sailing-trial","222","1031632","0.0-11.0-187.0","","","","false","","","","","","","","","","null","","988.5","","2","1","null","null","arrowup","[0.85,0.15,0.325,0.675]","","",""
"sailing-trial","223","1035184","0.0-11.0-188.0","","","","false","","","","","","","","","","677.5999999940395","","23.100000008940697","","0","1","arrowleft","0","arrowleft","[0.85,0.15,0.325,0.675]","","",""
"sailing-trial","224","1037882","0.0-11.0-189.0","","","","false","","","","","","","","","","null","","936.2999999970198","","3","0","null","null","arrowup","[0.85,0.15,0.325,0.675]","","",""
"sailing-trial","225","1042152","0.0-11.0-190.0","","","","false","","","","","","","","","","614.7999999970198","","698.5","","2","1","arrowright","1","arrowleft","[0.85,0.15,0.325,0.675]","","",""
"sailing-trial","226","1044984","0.0-11.0-191.0","","","","false","","","","","","","","","","null","","994.2999999970198","","3","1","null","null","arrowup","[0.85,0.15,0.325,0.675]","","",""
"sailing-trial","227","1049984","0.0-11.0-192.0","","","","false","","","","","","","","","","711.9000000059605","","1381.0999999940395","","0","1","arrowleft","0","arrowleft","[0.85,0.15,0.325,0.675]","","",""
"sailing-trial","228","1052392","0.0-11.0-193.0","","","","false","","","","","","","","","","null","","1101.4000000059605","","3","0","null","null","arrowup","[0.85,0.15,0.325,0.675]","","",""
"sailing-trial","229","1056147","0.0-11.0-194.0","","","","false","","","","","","","","","","620.2999999970198","","296.5","","3","1","arrowright","1","arrowright","[0.85,0.15,0.325,0.675]","","",""
"sailing-trial","230","1058936","0.0-11.0-195.0","","","","false","","","","","","","","","","null","","979","","0","1","null","null","arrowup","[0.85,0.15,0.325,0.675]","","",""
"sailing-trial","231","1062224","0.0-11.0-196.0","","","","false","","","","","","","","","","824.1999999880791","","89.30000001192093","","3","0","arrowright","1","arrowright","[0.85,0.15,0.325,0.675]","","",""
"sailing-trial","232","1064368","0.0-11.0-197.0","","","","false","","","","","","","","","","null","","824.2000000029802","","1","0","null","null","arrowup","[0.85,0.15,0.325,0.675]","","",""
"sailing-trial","233","1068248","0.0-11.0-198.0","","","","false","","","","","","","","","","826.3999999910593","","375.30000001192093","","0","1","arrowleft","0","arrowleft","[0.85,0.15,0.325,0.675]","","",""
"sailing-trial","234","1073168","0.0-11.0-199.0","","","","false","","","","","","","","","","null","","1952.800000011921","","2","1","null","null","arrowup","[0.85,0.15,0.325,0.675]","","",""
"sailing-trial","235","1077416","0.0-11.0-200.0","","","","false","","","","","","","","","","843.3999999910593","","195","","2","1","arrowright","1","arrowleft","[0.85,0.15,0.325,0.675]","","",""
"sailing-trial","236","1080633","0.0-11.0-201.0","","","","false","","","","","","","","","","null","","1159.6000000089407","","1","1","null","null","arrowup","[0.85,0.15,0.325,0.675]","","",""
"sailing-trial","237","1084400","0.0-11.0-202.0","","","","false","","","","","","","","","","764.7000000029802","","70.8999999910593","","0","1","arrowleft","0","arrowleft","[0.675,0.325,0.15,0.85]","","",""
"sailing-trial","238","1087144","0.0-11.0-203.0","","","","false","","","","","","","","","","null","","1261.300000011921","","0","0","null","null","arrowup","[0.675,0.325,0.15,0.85]","","",""
"sailing-trial","239","1092632","0.0-11.0-204.0","","","","false","","","","","","","","","","1411.800000011921","","296.20000000298023","","3","1","arrowright","1","arrowright","[0.675,0.325,0.15,0.85]","","",""
"sailing-trial","240","1095832","0.0-11.0-205.0","","","","false","","","","","","","","","","null","","1402.7000000029802","","0","1","null","null","arrowup","[0.675,0.325,0.15,0.85]","","",""
"sailing-trial","241","1099456","0.0-11.0-206.0","","","","false","","","","","","","","","","749.0999999940395","","212.90000000596046","","0","1","arrowleft","0","arrowleft","[0.675,0.325,0.15,0.85]","","",""
"sailing-trial","242","1102365","0.0-11.0-207.0","","","","false","","","","","","","","","","null","","1154.8999999910593","","0","1","null","null","arrowup","[0.675,0.325,0.15,0.85]","","",""
"sailing-trial","243","1105936","0.0-11.0-208.0","","","","false","","","","","","","","","","499.40000000596046","","143.20000000298023","","0","0","arrowleft","0","arrowleft","[0.675,0.325,0.15,0.85]","","",""
"sailing-trial","244","1108976","0.0-11.0-209.0","","","","false","","","","","","","","","","null","","1083.7999999970198","","1","0","null","null","arrowup","[0.675,0.325,0.15,0.85]","","",""
"sailing-trial","245","1111734","0.0-11.0-210.0","","","","false","","","","","","","","","","473.5","","73.30000001192093","","0","0","arrowleft","0","arrowleft","[0.675,0.325,0.15,0.85]","","",""
"sailing-trial","246","1114208","0.0-11.0-211.0","","","","false","","","","","","","","","","null","","933.7999999970198","","2","0","null","null","arrowup","[0.675,0.325,0.15,0.85]","","",""
"sailing-trial","247","1117280","0.0-11.0-212.0","","","","false","","","","","","","","","","340.40000000596046","","500.70000000298023","","0","0","arrowleft","0","arrowleft","[0.675,0.325,0.15,0.85]","","",""
"sailing-trial","248","1119704","0.0-11.0-213.0","","","","false","","","","","","","","","","null","","856.7000000029802","","1","0","null","null","arrowup","[0.675,0.325,0.15,0.85]","","",""
"sailing-trial","249","1122768","0.0-11.0-214.0","","","","false","","","","","","","","","","447.20000000298023","","271","","0","0","arrowleft","0","arrowleft","[0.675,0.325,0.15,0.85]","","",""
"sailing-trial","250","1126056","0.0-11.0-215.0","","","","false","","","","","","","","","","null","","1501.5","","1","1","null","null","arrowup","[0.675,0.325,0.15,0.85]","","",""
"sailing-trial","251","1129712","0.0-11.0-216.0","","","","false","","","","","","","","","","883.4000000059605","","331.8999999910593","","1","0","arrowleft","0","arrowright","[0.675,0.325,0.15,0.85]","","",""
"sailing-trial","252","1132349","0.0-11.0-217.0","","","","false","","","","","","","","","","null","","1127.5","","0","0","null","null","arrowup","[0.675,0.325,0.15,0.85]","","",""
"sailing-trial","253","1135968","0.0-11.0-218.0","","","","false","","","","","","","","","","436.8999999910593","","24.600000008940697","","1","1","arrowleft","0","arrowright","[0.15,0.85,0.675,0.325]","","",""
"sailing-trial","254","1138184","0.0-11.0-219.0","","","","false","","","","","","","","","","null","","999.7999999970198","","0","0","null","null","arrowup","[0.15,0.85,0.675,0.325]","","",""
"sailing-trial","255","1140928","0.0-11.0-220.0","","","","false","","","","","","","","","","406.90000000596046","","89.5","","3","0","arrowright","1","arrowright","[0.15,0.85,0.675,0.325]","","",""
"sailing-trial","256","1144088","0.0-11.0-221.0","","","","false","","","","","","","","","","null","","1072.5999999940395","","2","1","null","null","arrowup","[0.15,0.85,0.675,0.325]","","",""
"sailing-trial","257","1147331","0.0-11.0-222.0","","","","false","","","","","","","","","","593.5","","51.79999999701977","","2","0","arrowright","1","arrowleft","[0.15,0.85,0.675,0.325]","","",""
"sailing-trial","258","1150064","0.0-11.0-223.0","","","","false","","","","","","","","","","null","","1476.2000000029802","","3","0","null","null","arrowup","[0.15,0.85,0.675,0.325]","","",""
"sailing-trial","259","1153584","0.0-11.0-224.0","","","","false","","","","","","","","","","721.4000000059605","","64.90000000596046","","2","1","arrowright","1","arrowleft","[0.15,0.85,0.675,0.325]","","",""
"sailing-trial","260","1156117","0.0-11.0-225.0","","","","false","","","","","","","","","","null","","868.8999999910593","","3","1","null","null","arrowup","[0.15,0.85,0.675,0.325]","","",""
"sailing-trial","261","1158900","0.0-11.0-226.0","","","","false","","","","","","","","","","507.8999999910593","","76.70000000298023","","2","0","arrowright","1","arrowleft","[0.15,0.85,0.675,0.325]","","",""
"sailing-trial","262","1161144","0.0-11.0-227.0","","","","false","","","","","","","","","","null","","1028.2000000029802","","3","0","null","null","arrowup","[0.15,0.85,0.675,0.325]","","",""
"sailing-trial","263","1164640","0.0-11.0-228.0","","","","false","","","","","","","","","","613.6000000089407","","194.79999999701977","","1","1","arrowleft","0","arrowright","[0.15,0.85,0.675,0.325]","","",""
"sailing-trial","264","1167288","0.0-11.0-229.0","","","","false","","","","","","","","","","null","","926.3999999910593","","1","1","null","null","arrowup","[0.15,0.85,0.675,0.325]","","",""
"sailing-trial","265","1170752","0.0-11.0-230.0","","","","false","","","","","","","","","","544.0999999940395","","279.29999999701977","","1","1","arrowleft","0","arrowright","[0.15,0.85,0.675,0.325]","","",""
"sailing-trial","266","1172960","0.0-11.0-231.0","","","","false","","","","","","","","","","null","","979.1000000089407","","0","0","null","null","arrowup","[0.15,0.85,0.675,0.325]","","",""
"sailing-trial","267","1176150","0.0-11.0-232.0","","","","false","","","","","","","","","","395.90000000596046","","384","","1","0","arrowleft","0","arrowright","[0.15,0.85,0.675,0.325]","","",""
"sailing-trial","268","1179536","0.0-11.0-233.0","","","","false","","","","","","","","","","null","","1659.2000000029802","","2","1","null","null","arrowup","[0.15,0.85,0.675,0.325]","","",""
"sailing-trial","269","1183208","0.0-11.0-234.0","","","","false","","","","","","","","","","462.79999999701977","","391.40000000596046","","1","1","arrowleft","0","arrowright","[0.15,0.85,0.675,0.325]","","",""
"sailing-trial","270","1187240","0.0-11.0-235.0","","","","false","","","","","","","","","","null","","1835.7000000029802","","3","1","null","null","arrowup","[0.15,0.85,0.675,0.325]","","",""
"sailing-trial","271","1191040","0.0-11.0-236.0","","","","false","","","","","","","","","","946.1000000089407","","60.30000001192093","","1","1","arrowleft","0","arrowright","[0.15,0.85,0.675,0.325]","","",""
"sailing-trial","272","1193528","0.0-11.0-237.0","","","","false","","","","","","","","","","null","","933.2999999970198","","0","0","null","null","arrowup","[0.15,0.85,0.675,0.325]","","",""
"sailing-trial","273","1197536","0.0-11.0-238.0","","","","false","","","","","","","","","","1098.8999999910593","","276.40000000596046","","1","1","arrowleft","0","arrowright","[0.15,0.85,0.675,0.325]","","",""
"sailing-trial","274","1200152","0.0-11.0-239.0","","","","false","","","","","","","","","","null","","907.9000000059605","","2","1","null","null","arrowup","[0.15,0.85,0.675,0.325]","","",""
"sailing-trial","275","1203464","0.0-11.0-240.0","","","","false","","","","","","","","","","695.7999999970198","","223.20000000298023","","1","0","arrowleft","0","arrowright","[0.85,0.15,0.325,0.675]","","",""
"sailing-trial","276","1206048","0.0-11.0-241.0","","","","false","","","","","","","","","","null","","1120.5","","1","0","null","null","arrowup","[0.85,0.15,0.325,0.675]","","",""
"sailing-trial","277","1208880","0.0-11.0-242.0","","","","false","","","","","","","","","","398.1000000089407","","141","","1","0","arrowleft","0","arrowright","[0.85,0.15,0.325,0.675]","","",""
"sailing-trial","278","1211368","0.0-11.0-243.0","","","","false","","","","","","","","","","null","","1201.800000011921","","1","0","null","null","arrowup","[0.85,0.15,0.325,0.675]","","",""
"sailing-trial","279","1214904","0.0-11.0-244.0","","","","false","","","","","","","","","","356.19999998807907","","248.3999999910593","","2","1","arrowright","1","arrowleft","[0.85,0.15,0.325,0.675]","","",""
"sailing-trial","280","1217088","0.0-11.0-245.0","","","","false","","","","","","","","","","null","","964.1999999880791","","1","0","null","null","arrowup","[0.85,0.15,0.325,0.675]","","",""
"sailing-trial","281","1220392","0.0-11.0-246.0","","","","false","","","","","","","","","","379.70000000298023","","195.6000000089407","","2","1","arrowright","1","arrowleft","[0.85,0.15,0.325,0.675]","","",""
"sailing-trial","282","1222712","0.0-11.0-247.0","","","","false","","","","","","","","","","null","","736.4000000059605","","3","0","null","null","arrowup","[0.85,0.15,0.325,0.675]","","",""
"sailing-trial","283","1225456","0.0-11.0-248.0","","","","false","","","","","","","","","","355.09999999403954","","174","","2","0","arrowright","1","arrowleft","[0.85,0.15,0.325,0.675]","","",""
"sailing-trial","284","1227576","0.0-11.0-249.0","","","","false","","","","","","","","","","null","","897.5999999940395","","2","0","null","null","arrowup","[0.85,0.15,0.325,0.675]","","",""
"sailing-trial","285","1230484","0.0-11.0-250.0","","","","false","","","","","","","","","","411.6000000089407","","315.3999999910593","","2","0","arrowright","1","arrowleft","[0.85,0.15,0.325,0.675]","","",""
"sailing-trial","286","1233056","0.0-11.0-251.0","","","","false","","","","","","","","","","null","","903.0999999940395","","1","1","null","null","arrowup","[0.85,0.15,0.325,0.675]","","",""
"sailing-trial","287","1235767","0.0-11.0-252.0","","","","false","","","","","","","","","","482.30000001192093","","94.29999999701977","","1","0","arrowleft","0","arrowright","[0.85,0.15,0.325,0.675]","","",""
"sailing-trial","288","1238872","0.0-11.0-253.0","","","","false","","","","","","","","","","null","","1498.7999999970198","","2","1","null","null","arrowup","[0.85,0.15,0.325,0.675]","","",""
"sailing-trial","289","1242376","0.0-11.0-254.0","","","","false","","","","","","","","","","514.4000000059605","","260","","0","1","arrowleft","0","arrowleft","[0.85,0.15,0.325,0.675]","","",""
"sailing-trial","290","1245024","0.0-11.0-255.0","","","","false","","","","","","","","","","null","","1120","","0","1","null","null","arrowup","[0.85,0.15,0.325,0.675]","","",""
"sailing-trial","291","1248456","0.0-11.0-256.0","","","","false","","","","","","","","","","354.90000000596046","","277.8999999910593","","0","1","arrowleft","0","arrowleft","[0.675,0.325,0.15,0.85]","","",""
"sailing-trial","292","1251704","0.0-11.0-257.0","","","","false","","","","","","","","","","null","","1148.5","","1","1","null","null","arrowup","[0.675,0.325,0.15,0.85]","","",""
"sailing-trial","293","1255160","0.0-11.0-258.0","","","","false","","","","","","","","","","174","","407.5","","0","1","arrowleft","0","arrowleft","[0.675,0.325,0.15,0.85]","","",""
"sailing-trial","294","1258176","0.0-11.0-259.0","","","","false","","","","","","","","","","null","","858.5999999940395","","3","1","null","null","arrowup","[0.675,0.325,0.15,0.85]","","",""
"sailing-trial","295","1261656","0.0-11.0-260.0","","","","false","","","","","","","","","","483.1000000089407","","201.79999999701977","","0","1","arrowleft","0","arrowleft","[0.675,0.325,0.15,0.85]","","",""
"sailing-trial","296","1264554","0.0-11.0-261.0","","","","false","","","","","","","","","","null","","881","","0","1","null","null","arrowup","[0.675,0.325,0.15,0.85]","","",""
"sailing-trial","297","1267376","0.0-11.0-262.0","","","","false","","","","","","","","","","354.5","","147","","0","0","arrowleft","0","arrowleft","[0.675,0.325,0.15,0.85]","","",""
"sailing-trial","298","1270421","0.0-11.0-263.0","","","","false","","","","","","","","","","null","","1504","","2","0","null","null","arrowup","[0.675,0.325,0.15,0.85]","","",""
"sailing-trial","299","1273528","0.0-11.0-264.0","","","","false","","","","","","","","","","508","","18.400000005960464","","3","1","arrowright","1","arrowright","[0.675,0.325,0.15,0.85]","","",""
"sailing-trial","300","1276392","0.0-11.0-265.0","","","","false","","","","","","","","","","null","","905.2000000029802","","1","0","null","null","arrowup","[0.675,0.325,0.15,0.85]","","",""
"sailing-trial","301","1279168","0.0-11.0-266.0","","","","false","","","","","","","","","","320.79999999701977","","140.69999998807907","","0","0","arrowleft","0","arrowleft","[0.675,0.325,0.15,0.85]","","",""
"sailing-trial","302","1282137","0.0-11.0-267.0","","","","false","","","","","","","","","","null","","1414","","1","0","null","null","arrowup","[0.675,0.325,0.15,0.85]","","",""
"sailing-trial","303","1286176","0.0-11.0-268.0","","","","false","","","","","","","","","","989.0999999940395","","206.8999999910593","","0","1","arrowleft","0","arrowleft","[0.675,0.325,0.15,0.85]","","",""
"sailing-trial","304","1288912","0.0-11.0-269.0","","","","false","","","","","","","","","","null","","941.6000000089407","","1","0","null","null","arrowup","[0.675,0.325,0.15,0.85]","","",""
"sailing-trial","305","1292271","0.0-11.0-270.0","","","","false","","","","","","","","","","998.7000000029802","","219.90000000596046","","0","0","arrowleft","0","arrowleft","[0.675,0.325,0.15,0.85]","","",""
"sailing-trial","306","1294680","0.0-11.0-271.0","","","","false","","","","","","","","","","null","","1135.2000000029802","","2","0","null","null","arrowup","[0.675,0.325,0.15,0.85]","","",""
"sailing-trial","307","1301560","0.0-11.0-272.0","","","","false","","","","","","","","","","1564.8999999910593","","1951.5","","0","0","arrowleft","0","arrowleft","[0.85,0.15,0.325,0.675]","","",""
"sailing-trial","308","1306139","0.0-11.0-273.0","","","","false","","","","","","","","","","null","","1971.4000000059605","","0","0","null","null","arrowup","[0.85,0.15,0.325,0.675]","","",""
"sailing-trial","309","1310040","0.0-11.0-274.0","","","","false","","","","","","","","","","834.5","","326.70000000298023","","0","1","arrowleft","0","arrowleft","[0.85,0.15,0.325,0.675]","","",""
"sailing-trial","310","1313680","0.0-11.0-275.0","","","","false","","","","","","","","","","null","","1160","","2","1","null","null","arrowup","[0.85,0.15,0.325,0.675]","","",""
"sailing-trial","311","1321792","0.0-11.0-276.0","","","","false","","","","","","","","","","3635.3999999910593","","811.5","","0","1","arrowleft","0","arrowleft","[0.85,0.15,0.325,0.675]","","",""
"sailing-trial","312","1326104","0.0-11.0-277.0","","","","false","","","","","","","","","","null","","1287.4000000059605","","1","0","null","null","arrowup","[0.85,0.15,0.325,0.675]","","",""
"sailing-trial","313","1331824","0.0-11.0-278.0","","","","false","","","","","","","","","","1728.4000000059605","","195.90000000596046","","0","1","arrowleft","0","arrowleft","[0.85,0.15,0.325,0.675]","","",""
"sailing-trial","314","1334736","0.0-11.0-279.0","","","","false","","","","","","","","","","null","","940.8999999910593","","2","0","null","null","arrowup","[0.85,0.15,0.325,0.675]","","",""
"sailing-trial","315","1338216","0.0-11.0-280.0","","","","false","","","","","","","","","","493.20000000298023","","310.79999999701977","","0","0","arrowleft","0","arrowleft","[0.85,0.15,0.325,0.675]","","",""
"sailing-trial","316","1340912","0.0-11.0-281.0","","","","false","","","","","","","","","","null","","1029.199999988079","","2","0","null","null","arrowup","[0.85,0.15,0.325,0.675]","","",""
"sailing-trial","317","1344496","0.0-11.0-282.0","","","","false","","","","","","","","","","460.6000000089407","","209.6000000089407","","3","1","arrowright","1","arrowright","[0.85,0.15,0.325,0.675]","","",""
"sailing-trial","318","1347507","0.0-11.0-283.0","","","","false","","","","","","","","","","null","","908.8999999910593","","3","1","null","null","arrowup","[0.85,0.15,0.325,0.675]","","",""
"sailing-trial","319","1351480","0.0-11.0-284.0","","","","false","","","","","","","","","","743.2000000029802","","382.6000000089407","","3","1","arrowright","1","arrowright","[0.85,0.15,0.325,0.675]","","",""
"sailing-trial","320","1354768","0.0-11.0-285.0","","","","false","","","","","","","","","","null","","1477.0999999940395","","3","0","null","null","arrowup","[0.85,0.15,0.325,0.675]","","",""
"sailing-trial","321","1359245","0.0-11.0-286.0","","","","false","","","","","","","","","","498.29999999701977","","524.7000000029802","","3","1","arrowright","1","arrowright","[0.85,0.15,0.325,0.675]","","",""
"sailing-trial","322","1361913","0.0-11.0-287.0","","","","false","","","","","","","","","","null","","1138.9000000059605","","1","0","null","null","arrowup","[0.85,0.15,0.325,0.675]","","",""
"sailing-trial","323","1365626","0.0-11.0-288.0","","","","false","","","","","","","","","","340.29999999701977","","149.40000000596046","","3","0","arrowright","1","arrowright","[0.85,0.15,0.325,0.675]","","",""
"sailing-trial","324","1368896","0.0-11.0-289.0","","","","false","","","","","","","","","","null","","869.9000000059605","","0","1","null","null","arrowup","[0.85,0.15,0.325,0.675]","","",""
"sailing-trial","325","1371805","0.0-11.0-290.0","","","","false","","","","","","","","","","438.5","","230.79999999701977","","0","0","arrowleft","0","arrowleft","[0.675,0.325,0.15,0.85]","","",""
"sailing-trial","326","1374741","0.0-11.0-291.0","","","","false","","","","","","","","","","null","","834.9000000059605","","3","1","null","null","arrowup","[0.675,0.325,0.15,0.85]","","",""
"sailing-trial","327","1378096","0.0-11.0-292.0","","","","false","","","","","","","","","","85.59999999403954","","222.40000000596046","","3","1","arrowright","1","arrowright","[0.675,0.325,0.15,0.85]","","",""
"sailing-trial","328","1380741","0.0-11.0-293.0","","","","false","","","","","","","","","","null","","944.7000000029802","","2","0","null","null","arrowup","[0.675,0.325,0.15,0.85]","","",""
"sailing-trial","329","1384124","0.0-11.0-294.0","","","","false","","","","","","","","","","328.09999999403954","","49.599999994039536","","3","1","arrowright","1","arrowright","[0.675,0.325,0.15,0.85]","","",""
"sailing-trial","330","1386480","0.0-11.0-295.0","","","","false","","","","","","","","","","null","","1152","","1","0","null","null","arrowup","[0.675,0.325,0.15,0.85]","","",""
"sailing-trial","331","1389875","0.0-11.0-296.0","","","","false","","","","","","","","","","360.90000000596046","","196.3999999910593","","3","1","arrowright","1","arrowright","[0.675,0.325,0.15,0.85]","","",""
"sailing-trial","332","1391968","0.0-11.0-297.0","","","","false","","","","","","","","","","null","","951","","0","0","null","null","arrowup","[0.675,0.325,0.15,0.85]","","",""
"sailing-trial","333","1395248","0.0-11.0-298.0","","","","false","","","","","","","","","","316.70000000298023","","80","","3","1","arrowright","1","arrowright","[0.675,0.325,0.15,0.85]","","",""
"sailing-trial","334","1400976","0.0-11.0-299.0","","","","false","","","","","","","","","","null","","3894.1000000089407","","0","1","null","null","arrowup","[0.675,0.325,0.15,0.85]","","",""
"sailing-trial","335","1404944","0.0-11.0-300.0","","","","false","","","","","","","","","","536.7999999970198","","565.7000000029802","","3","1","arrowright","1","arrowright","[0.675,0.325,0.15,0.85]","","",""
"sailing-trial","336","1408410","0.0-11.0-301.0","","","","false","","","","","","","","","","null","","1486.300000011921","","1","0","null","null","arrowup","[0.675,0.325,0.15,0.85]","","",""
"sailing-trial","337","1412312","0.0-11.0-302.0","","","","false","","","","","","","","","","944.1000000089407","","402.09999999403954","","0","1","arrowleft","0","arrowleft","[0.675,0.325,0.15,0.85]","","",""
"sailing-trial","338","1415464","0.0-11.0-303.0","","","","false","","","","","","","","","","null","","868.6000000089407","","1","1","null","null","arrowup","[0.675,0.325,0.15,0.85]","","",""
"sailing-trial","339","1419048","0.0-11.0-304.0","","","","false","","","","","","","","","","607.2000000029802","","130.70000000298023","","3","1","arrowright","1","arrowright","[0.675,0.325,0.15,0.85]","","",""
"sailing-trial","340","1421368","0.0-11.0-305.0","","","","false","","","","","","","","","","null","","1226.9000000059605","","2","0","null","null","arrowup","[0.675,0.325,0.15,0.85]","","",""
"sailing-trial","341","1424784","0.0-11.0-306.0","","","","false","","","","","","","","","","755.2000000029802","","59.70000000298023","","0","1","arrowleft","0","arrowleft","[0.85,0.15,0.325,0.675]","","",""
"sailing-trial","342","1427510","0.0-11.0-307.0","","","","false","","","","","","","","","","null","","1007.2000000029802","","2","1","null","null","arrowup","[0.85,0.15,0.325,0.675]","","",""
"sailing-trial","343","1430643","0.0-11.0-308.0","","","","false","","","","","","","","","","82.20000000298023","","247.80000001192093","","0","1","arrowleft","0","arrowleft","[0.85,0.15,0.325,0.675]","","",""
"sailing-trial","344","1433424","0.0-11.0-309.0","","","","false","","","","","","","","","","null","","1037.2999999970198","","1","0","null","null","arrowup","[0.85,0.15,0.325,0.675]","","",""
"sailing-trial","345","1436728","0.0-11.0-310.0","","","","false","","","","","","","","","","422.30000001192093","","86.90000000596046","","0","1","arrowleft","0","arrowleft","[0.85,0.15,0.325,0.675]","","",""
"sailing-trial","346","1440384","0.0-11.0-311.0","","","","false","","","","","","","","","","null","","1640","","2","1","null","null","arrowup","[0.85,0.15,0.325,0.675]","","",""
"sailing-trial","347","1443426","0.0-11.0-312.0","","","","false","","","","","","","","","","168.3999999910593","","88","","0","1","arrowleft","0","arrowleft","[0.85,0.15,0.325,0.675]","","",""
"sailing-trial","348","1445508","0.0-11.0-313.0","","","","false","","","","","","","","","","null","","745.2999999970198","","1","0","null","null","arrowup","[0.85,0.15,0.325,0.675]","","",""
"sailing-trial","349","1448784","0.0-11.0-314.0","","","","false","","","","","","","","","","502.29999999701977","","241.40000000596046","","0","1","arrowleft","0","arrowleft","[0.85,0.15,0.325,0.675]","","",""
"sailing-trial","350","1451294","0.0-11.0-315.0","","","","false","","","","","","","","","","null","","648","","3","0","null","null","arrowup","[0.85,0.15,0.325,0.675]","","",""
"sailing-trial","351","1454664","0.0-11.0-316.0","","","","false","","","","","","","","","","467.8999999910593","","381.6000000089407","","0","1","arrowleft","0","arrowleft","[0.85,0.15,0.325,0.675]","","",""
"sailing-trial","352","1457952","0.0-11.0-317.0","","","","false","","","","","","","","","","null","","1944.5","","0","0","null","null","arrowup","[0.85,0.15,0.325,0.675]","","",""
"sailing-trial","353","1462200","0.0-11.0-318.0","","","","false","","","","","","","","","","1224.2000000029802","","350.90000000596046","","0","1","arrowleft","0","arrowleft","[0.85,0.15,0.325,0.675]","","",""
"sailing-trial","354","1465912","0.0-11.0-319.0","","","","false","","","","","","","","","","null","","1657.9000000059605","","2","1","null","null","arrowup","[0.85,0.15,0.325,0.675]","","",""
"sailing-trial","355","1469848","0.0-11.0-320.0","","","","false","","","","","","","","","","1030","","9.299999997019768","","0","1","arrowleft","0","arrowleft","[0.85,0.15,0.325,0.675]","","",""
"sailing-trial","356","1472832","0.0-11.0-321.0","","","","false","","","","","","","","","","null","","962.6000000089407","","2","1","null","null","arrowup","[0.85,0.15,0.325,0.675]","","",""
"sailing-trial","357","1475989","0.0-11.0-322.0","","","","false","","","","","","","","","","692.6000000089407","","48.29999999701977","","0","0","arrowleft","0","arrowleft","[0.675,0.325,0.15,0.85]","","",""
"sailing-trial","358","1479648","0.0-11.0-323.0","","","","false","","","","","","","","","","null","","1431.4000000059605","","0","1","null","null","arrowup","[0.675,0.325,0.15,0.85]","","",""
"sailing-trial","359","1482840","0.0-11.0-324.0","","","","false","","","","","","","","","","480.3999999910593","","166.40000000596046","","0","0","arrowleft","0","arrowleft","[0.675,0.325,0.15,0.85]","","",""
"sailing-trial","360","1486216","0.0-11.0-325.0","","","","false","","","","","","","","","","null","","1136","","3","1","null","null","arrowup","[0.675,0.325,0.15,0.85]","","",""
"sailing-trial","361","1489696","0.0-11.0-326.0","","","","false","","","","","","","","","","516","","188.3999999910593","","0","1","arrowleft","0","arrowleft","[0.675,0.325,0.15,0.85]","","",""
"sailing-trial","362","1492200","0.0-11.0-327.0","","","","false","","","","","","","","","","null","","373.8999999910593","","3","1","null","null","arrowup","[0.675,0.325,0.15,0.85]","","",""
"sailing-trial","363","1496168","0.0-11.0-328.0","","","","false","","","","","","","","","","632.9000000059605","","601.7999999970198","","0","1","arrowleft","0","arrowleft","[0.675,0.325,0.15,0.85]","","",""
"sailing-trial","364","1498343","0.0-11.0-329.0","","","","false","","","","","","","","","","null","","417.3999999910593","","2","0","null","null","arrowup","[0.675,0.325,0.15,0.85]","","",""
"sailing-trial","365","1501984","0.0-11.0-330.0","","","","false","","","","","","","","","","282","","440.69999998807907","","0","1","arrowleft","0","arrowleft","[0.675,0.325,0.15,0.85]","","",""
"sailing-trial","366","1505048","0.0-11.0-331.0","","","","false","","","","","","","","","","null","","1001","","2","1","null","null","arrowup","[0.675,0.325,0.15,0.85]","","",""
"sailing-trial","367","1509088","0.0-11.0-332.0","","","","false","","","","","","","","","","625.9000000059605","","223.29999999701977","","0","0","arrowleft","0","arrowleft","[0.675,0.325,0.15,0.85]","","",""
"sailing-trial","368","1517248","0.0-11.0-333.0","","","","false","","","","","","","","","","null","","6359.300000011921","","1","1","null","null","arrowup","[0.675,0.325,0.15,0.85]","","",""
"sailing-trial","369","1520192","0.0-11.0-334.0","","","","false","","","","","","","","","","577.5","","206.59999999403954","","0","0","arrowleft","0","arrowleft","[0.675,0.325,0.15,0.85]","","",""
"sailing-trial","370","1522936","0.0-11.0-335.0","","","","false","","","","","","","","","","null","","944.8999999910593","","3","1","null","null","arrowup","[0.675,0.325,0.15,0.85]","","",""
"sailing-trial","371","1526760","0.0-11.0-336.0","","","","false","","","","","","","","","","626.7000000029802","","237.90000000596046","","0","0","arrowleft","0","arrowleft","[0.675,0.325,0.15,0.85]","","",""
"sailing-trial","372","1529144","0.0-11.0-337.0","","","","false","","","","","","","","","","null","","770.3000000119209","","3","0","null","null","arrowup","[0.675,0.325,0.15,0.85]","","",""
"sailing-trial","373","1532600","0.0-11.0-338.0","","","","false","","","","","","","","","","523.2999999970198","","283.90000000596046","","0","1","arrowleft","0","arrowleft","[0.675,0.325,0.15,0.85]","","",""
"sailing-trial","374","1537120","0.0-11.0-339.0","","","","false","","","","","","","","","","null","","1035.7999999970198","","0","1","null","null","arrowup","[0.675,0.325,0.15,0.85]","","",""
"sailing-trial","375","1540504","0.0-11.0-340.0","","","","false","","","","","","","","","","793.7999999970198","","348.19999998807907","","0","0","arrowleft","0","arrowleft","[0.675,0.325,0.15,0.85]","","",""
"sailing-trial","376","1544061","0.0-11.0-341.0","","","","false","","","","","","","","","","null","","1458.699999988079","","2","0","null","null","arrowup","[0.675,0.325,0.15,0.85]","","",""
"sailing-trial","377","1548616","0.0-11.0-342.0","","","","false","","","","","","","","","","708.5999999940395","","597.7999999970198","","0","1","arrowleft","0","arrowleft","[0.325,0.675,0.85,0.15]","","",""
"sailing-trial","378","1551704","0.0-11.0-343.0","","","","false","","","","","","","","","","null","","842.7000000029802","","2","1","null","null","arrowup","[0.325,0.675,0.85,0.15]","","",""
"sailing-trial","379","1555264","0.0-11.0-344.0","","","","false","","","","","","","","","","677.7999999970198","","145.5","","0","1","arrowleft","0","arrowleft","[0.325,0.675,0.85,0.15]","","",""
"sailing-trial","380","1558904","0.0-11.0-345.0","","","","false","","","","","","","","","","null","","1726.9000000059605","","1","1","null","null","arrowup","[0.325,0.675,0.85,0.15]","","",""
"sailing-trial","381","1563416","0.0-11.0-346.0","","","","false","","","","","","","","","","857.3999999910593","","175.90000000596046","","0","1","arrowleft","0","arrowleft","[0.325,0.675,0.85,0.15]","","",""
"sailing-trial","382","1568736","0.0-11.0-347.0","","","","false","","","","","","","","","","null","","3136.2999999970198","","2","1","null","null","arrowup","[0.325,0.675,0.85,0.15]","","",""
"sailing-trial","383","1573412","0.0-11.0-348.0","","","","false","","","","","","","","","","1988","","265.8999999910593","","0","0","arrowleft","0","arrowleft","[0.325,0.675,0.85,0.15]","","",""
"sailing-trial","384","1577272","0.0-11.0-349.0","","","","false","","","","","","","","","","null","","1940.5","","3","1","null","null","arrowup","[0.325,0.675,0.85,0.15]","","",""
"sailing-trial","385","1581176","0.0-11.0-350.0","","","","false","","","","","","","","","","1005.8000000119209","","589.7999999970198","","0","0","arrowleft","0","arrowleft","[0.325,0.675,0.85,0.15]","","",""
"sailing-trial","386","1585568","0.0-11.0-351.0","","","","false","","","","","","","","","","null","","2434.7000000029802","","2","1","null","null","arrowup","[0.325,0.675,0.85,0.15]","","",""
"sailing-trial","387","1589736","0.0-11.0-352.0","","","","false","","","","","","","","","","658","","253.70000000298023","","0","1","arrowleft","0","arrowleft","[0.325,0.675,0.85,0.15]","","",""
"sailing-trial","388","1592649","0.0-11.0-353.0","","","","false","","","","","","","","","","null","","925.7000000029802","","0","1","null","null","arrowup","[0.325,0.675,0.85,0.15]","","",""
"sailing-trial","389","1595608","0.0-11.0-354.0","","","","false","","","","","","","","","","589.5","","15.100000008940697","","0","0","arrowleft","0","arrowleft","[0.325,0.675,0.85,0.15]","","",""
"sailing-trial","390","1597806","0.0-11.0-355.0","","","","false","","","","","","","","","","null","","863.6000000089407","","3","0","null","null","arrowup","[0.325,0.675,0.85,0.15]","","",""
"sailing-trial","391","1600748","0.0-11.0-356.0","","","","false","","","","","","","","","","368.90000000596046","","291.3999999910593","","0","0","arrowleft","0","arrowleft","[0.325,0.675,0.85,0.15]","","",""
"sailing-trial","392","1604712","0.0-11.0-357.0","","","","false","","","","","","","","","","null","","940.1999999880791","","0","0","null","null","arrowup","[0.325,0.675,0.85,0.15]","","",""
"sailing-trial","393","1608120","0.0-11.0-358.0","","","","false","","","","","","","","","","817.0999999940395","","162.79999999701977","","3","0","arrowright","1","arrowright","[0.325,0.675,0.85,0.15]","","",""
"sailing-trial","394","1611136","0.0-11.0-359.0","","","","false","","","","","","","","","","null","","993.8000000119209","","2","1","null","null","arrowup","[0.325,0.675,0.85,0.15]","","",""
"sailing-trial","395","1614224","0.0-11.0-360.0","","","","false","","","","","","","","","","93.59999999403954","","290.20000000298023","","0","0","arrowleft","0","arrowleft","[0.325,0.675,0.85,0.15]","","",""
"sailing-trial","396","1620440","0.0-11.0-361.0","","","","false","","","","","","","","","","null","","3113","","1","1","null","null","arrowup","[0.325,0.675,0.85,0.15]","","",""
"sailing-trial","397","1623664","0.0-11.0-362.0","","","","false","","","","","","","","","","746.6000000089407","","23.099999994039536","","0","0","arrowleft","0","arrowleft","[0.325,0.675,0.85,0.15]","","",""
"sailing-trial","398","1626672","0.0-11.0-363.0","","","","false","","","","","","","","","","null","","875.2999999970198","","2","1","null","null","arrowup","[0.325,0.675,0.85,0.15]","","",""
"sailing-trial","399","1632160","0.0-11.0-364.0","","","","false","","","","","","","","","","2179.3999999910593","","628.7999999970198","","1","0","arrowleft","0","arrowright","[0.85,0.15,0.325,0.675]","","",""
"sailing-trial","400","1635712","0.0-11.0-365.0","","","","false","","","","","","","","","","null","","1885","","1","0","null","null","arrowup","[0.85,0.15,0.325,0.675]","","",""
"sailing-trial","401","1639240","0.0-11.0-366.0","","","","false","","","","","","","","","","452","","265.29999999701977","","0","1","arrowleft","0","arrowleft","[0.85,0.15,0.325,0.675]","","",""
"sailing-trial","402","1643688","0.0-11.0-367.0","","","","false","","","","","","","","","","null","","2516.9000000059605","","3","1","null","null","arrowup","[0.85,0.15,0.325,0.675]","","",""
"sailing-trial","403","1647008","0.0-11.0-368.0","","","","false","","","","","","","","","","400.79999999701977","","171","","0","1","arrowleft","0","arrowleft","[0.85,0.15,0.325,0.675]","","",""
"sailing-trial","404","1649792","0.0-11.0-369.0","","","","false","","","","","","","","","","null","","1081.300000011921","","2","1","null","null","arrowup","[0.85,0.15,0.325,0.675]","","",""
"sailing-trial","405","1653368","0.0-11.0-370.0","","","","false","","","","","","","","","","363.8999999910593","","132.70000000298023","","0","1","arrowleft","0","arrowleft","[0.85,0.15,0.325,0.675]","","",""
"sailing-trial","406","1656192","0.0-11.0-371.0","","","","false","","","","","","","","","","null","","924.6999999880791","","0","1","null","null","arrowup","[0.85,0.15,0.325,0.675]","","",""
"sailing-trial","407","1659376","0.0-11.0-372.0","","","","false","","","","","","","","","","191.09999999403954","","257.79999999701977","","0","1","arrowleft","0","arrowleft","[0.85,0.15,0.325,0.675]","","",""
"sailing-trial","408","1663208","0.0-11.0-373.0","","","","false","","","","","","","","","","null","","2188.3999999910593","","0","1","null","null","arrowup","[0.85,0.15,0.325,0.675]","","",""
"sailing-trial","409","1666552","0.0-11.0-374.0","","","","false","","","","","","","","","","435.3999999910593","","167.70000000298023","","3","1","arrowright","1","arrowright","[0.85,0.15,0.325,0.675]","","",""
"sailing-trial","410","1669720","0.0-11.0-375.0","","","","false","","","","","","","","","","null","","1047.2999999970198","","3","1","null","null","arrowup","[0.85,0.15,0.325,0.675]","","",""
"sailing-trial","411","1673104","0.0-11.0-376.0","","","","false","","","","","","","","","","243.90000000596046","","303.70000000298023","","3","1","arrowright","1","arrowright","[0.85,0.15,0.325,0.675]","","",""
"sailing-trial","412","1674966","0.0-11.0-377.0","","","","false","","","","","","","","","","null","","625.5999999940395","","1","0","null","null","arrowup","[0.85,0.15,0.325,0.675]","","",""
"sailing-trial","413","1678201","0.0-11.0-378.0","","","","false","","","","","","","","","","382.70000000298023","","129.79999999701977","","3","1","arrowright","1","arrowright","[0.85,0.15,0.325,0.675]","","",""
"sailing-trial","414","1681208","0.0-11.0-379.0","","","","false","","","","","","","","","","null","","1390.199999988079","","0","1","null","null","arrowup","[0.85,0.15,0.325,0.675]","","",""
"sailing-trial","415","1684951","0.0-11.0-380.0","","","","false","","","","","","","","","","474.70000000298023","","70.40000000596046","","3","1","arrowright","1","arrowright","[0.85,0.15,0.325,0.675]","","",""
"sailing-trial","416","1688119","0.0-11.0-381.0","","","","false","","","","","","","","","","null","","1119.7999999970198","","3","1","null","null","arrowup","[0.85,0.15,0.325,0.675]","","",""
"sailing-trial","417","1691904","0.0-11.0-382.0","","","","false","","","","","","","","","","452.09999999403954","","25.599999994039536","","3","1","arrowright","1","arrowright","[0.85,0.15,0.325,0.675]","","",""
"sailing-trial","418","1694088","0.0-11.0-383.0","","","","false","","","","","","","","","","null","","479.5","","0","1","null","null","arrowup","[0.85,0.15,0.325,0.675]","","",""
"sailing-trial","419","1697102","0.0-11.0-384.0","","","","false","","","","","","","","","","161.3999999910593","","268","","3","1","arrowright","1","arrowright","[0.675,0.325,0.15,0.85]","","",""
"sailing-trial","420","1699032","0.0-11.0-385.0","","","","false","","","","","","","","","","null","","739.8999999910593","","0","0","null","null","arrowup","[0.675,0.325,0.15,0.85]","","",""
"sailing-trial","421","1701776","0.0-11.0-386.0","","","","false","","","","","","","","","","389.5","","274.29999999701977","","3","0","arrowright","1","arrowright","[0.675,0.325,0.15,0.85]","","",""
"sailing-trial","422","1703888","0.0-11.0-387.0","","","","false","","","","","","","","","","null","","739.3999999910593","","1","0","null","null","arrowup","[0.675,0.325,0.15,0.85]","","",""
"sailing-trial","423","1707424","0.0-11.0-388.0","","","","false","","","","","","","","","","524.5","","235.30000001192093","","3","1","arrowright","1","arrowright","[0.675,0.325,0.15,0.85]","","",""
"sailing-trial","424","1709719","0.0-11.0-389.0","","","","false","","","","","","","","","","null","","1167.2999999970198","","3","0","null","null","arrowup","[0.675,0.325,0.15,0.85]","","",""
"sailing-trial","425","1713464","0.0-11.0-390.0","","","","false","","","","","","","","","","607.0999999940395","","530","","0","0","arrowleft","0","arrowleft","[0.675,0.325,0.15,0.85]","","",""
"sailing-trial","426","1716403","0.0-11.0-391.0","","","","false","","","","","","","","","","null","","1154.4000000059605","","3","1","null","null","arrowup","[0.675,0.325,0.15,0.85]","","",""
"sailing-trial","427","1719624","0.0-11.0-392.0","","","","false","","","","","","","","","","98","","384.90000000596046","","3","1","arrowright","1","arrowright","[0.675,0.325,0.15,0.85]","","",""
"sailing-trial","428","1722560","0.0-11.0-393.0","","","","false","","","","","","","","","","null","","983.2000000029802","","2","1","null","null","arrowup","[0.675,0.325,0.15,0.85]","","",""
"sailing-trial","429","1726770","0.0-11.0-394.0","","","","false","","","","","","","","","","706.7000000029802","","380.09999999403954","","3","1","arrowright","1","arrowright","[0.675,0.325,0.15,0.85]","","",""
"sailing-trial","430","1729168","0.0-11.0-395.0","","","","false","","","","","","","","","","null","","949.1999999880791","","1","0","null","null","arrowup","[0.675,0.325,0.15,0.85]","","",""
"sailing-trial","431","1733592","0.0-11.0-396.0","","","","false","","","","","","","","","","833.1999999880791","","578.9000000059605","","0","1","arrowleft","0","arrowleft","[0.675,0.325,0.15,0.85]","","",""
"sailing-trial","432","1736928","0.0-11.0-397.0","","","","false","","","","","","","","","","null","","1203.6000000089407","","1","1","null","null","arrowup","[0.675,0.325,0.15,0.85]","","",""
"sailing-trial","433","1741336","0.0-11.0-398.0","","","","false","","","","","","","","","","1694.6000000089407","","209.09999999403954","","0","0","arrowleft","0","arrowleft","[0.675,0.325,0.15,0.85]","","",""
"sailing-trial","434","1744056","0.0-11.0-399.0","","","","false","","","","","","","","","","null","","1138.9000000059605","","0","1","null","null","arrowup","[0.675,0.325,0.15,0.85]","","",""
"instructions","435","1750522","0.0-12.0","","","","","","","","","","6465","","","","","","","","","","","","","","","","[{""page_index"":0,""viewing_time"":6464.5}]"
"survey-debrief","436","1794695","0.0-13.0","","","","","","","","","","44169.29999999702","","","","","","","","","","","","","","{""difficulty"":""4"",""fun"":""2"",""clarity"":""5"",""strategy"":""I just kept it mind where most of the treasure was coming from and went to those places mainly. "",""feedback"":""nope :)""}","",""
