"trial_type","trial_index","time_elapsed","internal_node_id","value","metadata","success","timeout","failed_images","failed_audio","failed_video","browser_interaction","low_quality","rt","stimulus","response","button_pressed","island_rt","island_response","boat_rt","boat_response","boat","reward","island_key","island","boat_key","reward_probabilities","responses","num_errors","view_history"
"pavlovia","0","3","0.0-0.0","","","","","","","","","","","","","","","","","","","","","","","","","",""
"call-function","1","3","0.0-1.0","","{""task_version"":""sailing_part1_v1"",""task_condition"":""good"",""boats"":[""B"",""D"",""A"",""C""],""boats_demo"":[""E"",""F"",""G"",""H""],""islands"":[""B"",""A""],""subject_id"":""14933"",""age"":""12"",""gender"":""Male""}","","","","","","","","","","","","","","","","","","","","","","","",""
"preload","2","6493","0.0-2.0","","","true","false","[]","[]","[]","[{""event"":""fullscreenenter"",""trial"":3,""time"":11132}]","false","","","","","","","","","","","","","","","","",""
"fullscreen","3","12109","0.0-3.0","","","true","","","","","","","","","","","","","","","","","","","","","","",""
"audio-keyboard-response","4","16133","0.0-4.0-0.0","","","","","","","","","","3520","audio/beep_loop.wav"," ","","","","","","","","","","","","","",""
"audio-test","5","19546","0.0-4.0-1.0","","","","","","","","","","null","audio/turtle.mp3","","3","","","","","","","","","","","","",""
"audio-test","6","21698","0.0-4.0-2.0","","","","","","","","","","null","audio/shark.mp3","","2","","","","","","","","","","","","",""
"sailing-instructions","7","58373","0.0-5.0-0.0-0.0","","","","","","","","","","","","","","null","null","null","null","null","null","","","","","","",""
"sailing-trial","8","62206","0.0-5.0-0.0-1.0-0.0","","","","false","","","","","","","","","","2695.600000023842","","null","","null","null","arrowleft","0","null","null","","",""
"sailing-trial","9","64574","0.0-5.0-0.0-1.0-1.0","","","","false","","","","","","","","","","1244.7000000476837","","null","","null","null","arrowright","1","null","null","","",""
"sailing-trial","10","68271","0.0-5.0-0.0-1.0-2.0","","","","false","","","","","","","","","","2578.899999976158","","null","","null","null","arrowright","1","null","null","","",""
"sailing-instructions","11","109836","0.0-5.0-0.0-2.0","","","","","","","","","","","","","","null","null","null","null","0","null","","","","","","",""
"sailing-trial","12","117008","0.0-5.0-0.0-3.0-0.0","","","","false","","","","","","","","","","null","","2938.5999999046326","","2","1","null","null","arrowleft","[1,1,1,1]","","",""
"sailing-trial","13","121614","0.0-5.0-0.0-3.0-1.0","","","","false","","","","","","","","","","null","","1677","","3","1","null","null","arrowright","[1,1,1,1]","","",""
"sailing-trial","14","128289","0.0-5.0-0.0-3.0-2.0","","","","false","","","","","","","","","","null","","3010.899999976158","","3","0","null","null","arrowright","[0,0,0,0]","","",""
"sailing-instructions","15","135870","0.0-5.0-0.0-4.0","","","","","","","","","","","","","","null","null","null","null","null","null","","","","","","",""
"sailing-comprehension","16","161061","0.0-5.0-0.0-5.0","","","","","","","","","","19046.399999976158","","","","","","","","","","","","","","[""true"",""true"",""false"",""true""]","0",""
"sailing-instructions","17","222826","0.0-6.0-0.0-0.0","","","","","","","","","","","","","","null","null","null","null","null","null","","","","","","",""
"sailing-comprehension","18","246919","0.0-6.0-0.0-1.0","","","","","","","","","","22100.900000095367","","","","","","","","","","","","","","[""true"",""false"",""true""]","0",""
"sailing-instructions","19","261539","0.0-7.0-0.0-0.0","","","","","","","","","","","","","","null","null","null","null","null","null","","","","","","",""
"sailing-trial","20","266833","0.0-7.0-0.0-1.0-0.0","","","","false","","","","","","","","","","null","","2297.1999999284744","","0","0","null","null","arrowup","[0.2,0.8,0.2,0.8]","","",""
"sailing-trial","21","270371","0.0-7.0-0.0-1.0-1.0","","","","false","","","","","","","","","","null","","1263.4000000953674","","1","0","null","null","arrowup","[0.2,0.8,0.2,0.8]","","",""
"sailing-trial","22","274592","0.0-7.0-0.0-1.0-2.0","","","","false","","","","","","","","","","null","","1555.0999999046326","","2","0","null","null","arrowup","[0.2,0.8,0.2,0.8]","","",""
"sailing-trial","23","281183","0.0-7.0-0.0-1.0-3.0","","","","false","","","","","","","","","","null","","3550","","3","1","null","null","arrowup","[0.2,0.8,0.2,0.8]","","",""
"sailing-comprehension","24","292962","0.0-7.0-0.0-2.0","","","","","","","","","","9496.5","","","","","","","","","","","","","","[""false""]","0",""
"sailing-instructions","25","310588","0.0-8.0-0.0-0.0","","","","","","","","","","","","","","null","null","null","null","null","null","","","","","","",""
"sailing-comprehension","26","318099","0.0-8.0-0.0-1.0","","","","","","","","","","4282.300000071526","","","","","","","","","","","","","","[""false""]","1",""
"sailing-instructions","27","329009","0.0-8.0-0.1-0.1","","","","","","","","","","","","","","null","null","null","null","null","null","","","","","","",""
"sailing-comprehension","28","334070","0.0-8.0-0.1-1.1","","","","","","","","","","2709.7000000476837","","","","","","","","","","","","","","[""true""]","0",""
"sailing-instructions","29","374776","0.0-9.0-0.0-0.0","","","","","","","","","","","","","","null","null","null","null","null","null","","","","","","",""
"sailing-trial","30","381965","0.0-9.0-0.0-1.0-0.0","","","","false","","","","","","","","","","2774.600000023842","","897.5","","2","0","arrowright","1","arrowleft","[0.2,0.8,0.2,0.8]","","",""
"sailing-trial","31","385296","0.0-9.0-0.0-1.0-1.0","","","","false","","","","","","","","","","583.0999999046326","","5.099999904632568","","0","0","arrowleft","0","arrowleft","[0.2,0.8,0.2,0.8]","","",""
"sailing-trial","32","389375","0.0-9.0-0.0-1.0-2.0","","","","false","","","","","","","","","","null","","1572.2000000476837","","0","0","null","null","arrowup","[0.2,0.8,0.2,0.8]","","",""
"sailing-trial","33","393439","0.0-9.0-0.0-1.0-3.0","","","","false","","","","","","","","","","899.6000000238419","","687.3999999761581","","3","0","arrowright","1","arrowright","[0.2,0.8,0.2,0.8]","","",""
"sailing-trial","34","396848","0.0-9.0-0.0-1.0-4.0","","","","false","","","","","","","","","","null","","881.5999999046326","","3","1","null","null","arrowup","[0.2,0.8,0.2,0.8]","","",""
"sailing-trial","35","400621","0.0-9.0-0.0-1.0-5.0","","","","false","","","","","","","","","","565.0999999046326","","201.89999997615814","","1","1","arrowleft","0","arrowright","[0.2,0.8,0.2,0.8]","","",""
"sailing-instructions","36","431544","0.0-10.0","","","","","","","","","","","","","","null","null","null","null","null","null","","","","","","",""
"sailing-trial","37","437984","0.0-11.0-0.0","","","","false","","","","","","","","","","2054","","250.10000002384186","","2","0","arrowright","1","arrowleft","[0.15,0.85,0.325,0.675]","","",""
"sailing-trial","38","440863","0.0-11.0-1.0","","","","false","","","","","","","","","","null","","1241.5999999046326","","0","0","null","null","arrowup","[0.15,0.85,0.325,0.675]","","",""
"sailing-trial","39","444275","0.0-11.0-2.0","","","","false","","","","","","","","","","496.10000002384186","","346","","3","1","arrowright","1","arrowright","[0.15,0.85,0.325,0.675]","","",""
"sailing-trial","40","446419","0.0-11.0-3.0","","","","false","","","","","","","","","","null","","1009.2000000476837","","0","0","null","null","arrowup","[0.15,0.85,0.325,0.675]","","",""
"sailing-trial","41","449905","0.0-11.0-4.0","","","","false","","","","","","","","","","449.7000000476837","","233.5","","0","0","arrowleft","0","arrowleft","[0.15,0.85,0.325,0.675]","","",""
"sailing-trial","42","452610","0.0-11.0-5.0","","","","false","","","","","","","","","","null","","1114.8999999761581","","3","1","null","null","arrowup","[0.15,0.85,0.325,0.675]","","",""
"sailing-trial","43","456781","0.0-11.0-6.0","","","","false","","","","","","","","","","609.3000000715256","","660.7999999523163","","3","1","arrowright","1","arrowright","[0.15,0.85,0.325,0.675]","","",""
"sailing-trial","44","458716","0.0-11.0-7.0","","","","false","","","","","","","","","","null","","552.6999999284744","","2","0","null","null","arrowup","[0.15,0.85,0.325,0.675]","","",""
"sailing-trial","45","462785","0.0-11.0-8.0","","","","false","","","","","","","","","","458.10000002384186","","80","","3","1","arrowright","1","arrowright","[0.15,0.85,0.325,0.675]","","",""
"sailing-trial","46","466655","0.0-11.0-9.0","","","","false","","","","","","","","","","null","","848.7000000476837","","0","0","null","null","arrowup","[0.15,0.85,0.325,0.675]","","",""
"sailing-trial","47","470176","0.0-11.0-10.0","","","","false","","","","","","","","","","551.1000000238419","","342.6999999284744","","1","1","arrowleft","0","arrowright","[0.15,0.85,0.325,0.675]","","",""
"sailing-trial","48","472639","0.0-11.0-11.0","","","","false","","","","","","","","","","null","","864.8999999761581","","1","1","null","null","arrowup","[0.15,0.85,0.325,0.675]","","",""
"sailing-trial","49","476019","0.0-11.0-12.0","","","","false","","","","","","","","","","436.1999999284744","","17.200000047683716","","3","1","arrowright","1","arrowright","[0.15,0.85,0.325,0.675]","","",""
"sailing-trial","50","478384","0.0-11.0-13.0","","","","false","","","","","","","","","","null","","1081.5","","0","0","null","null","arrowup","[0.15,0.85,0.325,0.675]","","",""
"sailing-trial","51","483194","0.0-11.0-14.0","","","","false","","","","","","","","","","1436.8999999761581","","574.2000000476837","","1","1","arrowleft","0","arrowright","[0.15,0.85,0.325,0.675]","","",""
"sailing-trial","52","485881","0.0-11.0-15.0","","","","false","","","","","","","","","","null","","1325","","2","0","null","null","arrowup","[0.15,0.85,0.325,0.675]","","",""
"sailing-trial","53","491098","0.0-11.0-16.0","","","","false","","","","","","","","","","733.7999999523163","","480","","3","0","arrowright","1","arrowright","[0.15,0.85,0.325,0.675]","","",""
"sailing-trial","54","493834","0.0-11.0-17.0","","","","false","","","","","","","","","","null","","930","","2","0","null","null","arrowup","[0.15,0.85,0.325,0.675]","","",""
"sailing-trial","55","496506","0.0-11.0-18.0","","","","false","","","","","","","","","","323.39999997615814","","193.90000009536743","","2","0","arrowright","1","arrowleft","[0.15,0.85,0.325,0.675]","","",""
"sailing-trial","56","499070","0.0-11.0-19.0","","","","false","","","","","","","","","","null","","459.2999999523163","","2","1","null","null","arrowup","[0.15,0.85,0.325,0.675]","","",""
"sailing-trial","57","502410","0.0-11.0-20.0","","","","false","","","","","","","","","","607.4000000953674","","66.40000009536743","","1","1","arrowleft","0","arrowright","[0.15,0.85,0.325,0.675]","","",""
"sailing-trial","58","504616","0.0-11.0-21.0","","","","false","","","","","","","","","","null","","169","","2","1","null","null","arrowup","[0.15,0.85,0.325,0.675]","","",""
"sailing-trial","59","509753","0.0-11.0-22.0","","","","false","","","","","","","","","","331.60000002384186","","269.60000002384186","","3","1","arrowright","1","arrowright","[0.325,0.675,0.15,0.85]","","",""
"sailing-trial","60","513997","0.0-11.0-23.0","","","","false","","","","","","","","","","null","","1236.5999999046326","","1","0","null","null","arrowup","[0.325,0.675,0.15,0.85]","","",""
"sailing-trial","61","516361","0.0-11.0-24.0","","","","false","","","","","","","","","","142.79999995231628","","47.10000002384186","","0","0","arrowleft","0","arrowleft","[0.325,0.675,0.15,0.85]","","",""
"sailing-trial","62","518315","0.0-11.0-25.0","","","","false","","","","","","","","","","null","","4.800000071525574","","1","1","null","null","arrowup","[0.325,0.675,0.15,0.85]","","",""
"sailing-trial","63","521741","0.0-11.0-26.0","","","","false","","","","","","","","","","421.1999999284744","","26.899999976158142","","3","1","arrowright","1","arrowright","[0.325,0.675,0.15,0.85]","","",""
"sailing-trial","64","523680","0.0-11.0-27.0","","","","false","","","","","","","","","","null","","622.8000000715256","","0","0","null","null","arrowup","[0.325,0.675,0.15,0.85]","","",""
"sailing-trial","65","526602","0.0-11.0-28.0","","","","false","","","","","","","","","","103.40000009536743","","66.19999992847443","","1","1","arrowleft","0","arrowright","[0.325,0.675,0.15,0.85]","","",""
"sailing-trial","66","530287","0.0-11.0-29.0","","","","false","","","","","","","","","","null","","1206.7999999523163","","1","1","null","null","arrowup","[0.325,0.675,0.15,0.85]","","",""
"sailing-trial","67","534843","0.0-11.0-30.0","","","","false","","","","","","","","","","1541.1999999284744","","101.60000002384186","","0","0","arrowleft","0","arrowleft","[0.325,0.675,0.15,0.85]","","",""
"sailing-trial","68","538952","0.0-11.0-31.0","","","","false","","","","","","","","","","null","","1088.8000000715256","","2","0","null","null","arrowup","[0.325,0.675,0.15,0.85]","","",""
"sailing-trial","69","541837","0.0-11.0-32.0","","","","false","","","","","","","","","","141.59999990463257","","203.5","","3","0","arrowright","1","arrowright","[0.325,0.675,0.15,0.85]","","",""
"sailing-trial","70","546377","0.0-11.0-33.0","","","","false","","","","","","","","","","null","","1106.6000000238419","","1","1","null","null","arrowup","[0.325,0.675,0.15,0.85]","","",""
"sailing-trial","71","552560","0.0-11.0-34.0","","","","false","","","","","","","","","","259.7000000476837","","104.89999997615814","","3","1","arrowright","1","arrowright","[0.325,0.675,0.15,0.85]","","",""
"sailing-trial","72","555321","0.0-11.0-35.0","","","","false","","","","","","","","","","null","","1481.1000000238419","","2","0","null","null","arrowup","[0.325,0.675,0.15,0.85]","","",""
"sailing-trial","73","558923","0.0-11.0-36.0","","","","false","","","","","","","","","","690.8999999761581","","91.59999990463257","","1","1","arrowleft","0","arrowright","[0.325,0.675,0.15,0.85]","","",""
"sailing-trial","74","563002","0.0-11.0-37.0","","","","false","","","","","","","","","","null","","1162.7999999523163","","3","1","null","null","arrowup","[0.325,0.675,0.15,0.85]","","",""
"sailing-trial","75","565530","0.0-11.0-38.0","","","","false","","","","","","","","","","170.90000009536743","","139.10000002384186","","3","0","arrowright","1","arrowright","[0.675,0.325,0.85,0.15]","","",""
"sailing-trial","76","567679","0.0-11.0-39.0","","","","false","","","","","","","","","","null","","434.60000002384186","","2","1","null","null","arrowup","[0.675,0.325,0.85,0.15]","","",""
"sailing-trial","77","572777","0.0-11.0-40.0","","","","false","","","","","","","","","","1809.1000000238419","","503.8000000715256","","2","1","arrowright","1","arrowleft","[0.675,0.325,0.85,0.15]","","",""
"sailing-trial","78","576940","0.0-11.0-41.0","","","","false","","","","","","","","","","null","","1132.3000000715256","","1","0","null","null","arrowup","[0.675,0.325,0.85,0.15]","","",""
"sailing-trial","79","582512","0.0-11.0-42.0","","","","false","","","","","","","","","","651.8000000715256","","273.6999999284744","","0","1","arrowleft","0","arrowleft","[0.675,0.325,0.85,0.15]","","",""
"sailing-trial","80","584635","0.0-11.0-43.0","","","","false","","","","","","","","","","null","","934.5","","3","0","null","null","arrowup","[0.675,0.325,0.85,0.15]","","",""
"sailing-trial","81","588000","0.0-11.0-44.0","","","","false","","","","","","","","","","701.2000000476837","","79.60000002384186","","2","1","arrowright","1","arrowleft","[0.675,0.325,0.85,0.15]","","",""
"sailing-trial","82","590298","0.0-11.0-45.0","","","","false","","","","","","","","","","null","","402.89999997615814","","2","1","null","null","arrowup","[0.675,0.325,0.85,0.15]","","",""
"sailing-trial","83","594109","0.0-11.0-46.0","","","","false","","","","","","","","","","826","","239.59999990463257","","2","1","arrowright","1","arrowleft","[0.675,0.325,0.85,0.15]","","",""
"sailing-trial","84","597082","0.0-11.0-47.0","","","","false","","","","","","","","","","null","","980","","2","1","null","null","arrowup","[0.675,0.325,0.85,0.15]","","",""
"sailing-trial","85","601051","0.0-11.0-48.0","","","","false","","","","","","","","","","773.8999999761581","","420.40000009536743","","2","1","arrowright","1","arrowleft","[0.675,0.325,0.85,0.15]","","",""
"sailing-trial","86","605344","0.0-11.0-49.0","","","","false","","","","","","","","","","null","","950.7999999523163","","1","1","null","null","arrowup","[0.675,0.325,0.85,0.15]","","",""
"sailing-trial","87","609715","0.0-11.0-50.0","","","","false","","","","","","","","","","620.7999999523163","","828.0999999046326","","2","1","arrowright","1","arrowleft","[0.675,0.325,0.85,0.15]","","",""
"sailing-trial","88","613742","0.0-11.0-51.0","","","","false","","","","","","","","","","null","","1004.3999999761581","","3","0","null","null","arrowup","[0.675,0.325,0.85,0.15]","","",""
"sailing-trial","89","617071","0.0-11.0-52.0","","","","false","","","","","","","","","","252.10000002384186","","438.89999997615814","","0","1","arrowleft","0","arrowleft","[0.675,0.325,0.85,0.15]","","",""
"sailing-trial","90","619441","0.0-11.0-53.0","","","","false","","","","","","","","","","null","","801.2999999523163","","1","1","null","null","arrowup","[0.675,0.325,0.85,0.15]","","",""
"sailing-trial","91","622738","0.0-11.0-54.0","","","","false","","","","","","","","","","429.39999997615814","","165.20000004768372","","2","1","arrowright","1","arrowleft","[0.675,0.325,0.85,0.15]","","",""
"sailing-trial","92","625549","0.0-11.0-55.0","","","","false","","","","","","","","","","null","","1250.8000000715256","","0","1","null","null","arrowup","[0.675,0.325,0.85,0.15]","","",""
"sailing-trial","93","629203","0.0-11.0-56.0","","","","false","","","","","","","","","","829.4000000953674","","143.30000007152557","","2","1","arrowright","1","arrowleft","[0.675,0.325,0.85,0.15]","","",""
"sailing-trial","94","630705","0.0-11.0-57.0","","","","false","","","","","","","","","","null","","136.10000002384186","","3","0","null","null","arrowup","[0.675,0.325,0.85,0.15]","","",""
"sailing-trial","95","634035","0.0-11.0-58.0","","","","false","","","","","","","","","","469.09999990463257","","111.69999992847443","","2","1","arrowright","1","arrowleft","[0.675,0.325,0.85,0.15]","","",""
"sailing-trial","96","636365","0.0-11.0-59.0","","","","false","","","","","","","","","","null","","1008.4000000953674","","1","0","null","null","arrowup","[0.675,0.325,0.85,0.15]","","",""
"sailing-trial","97","639380","0.0-11.0-60.0","","","","false","","","","","","","","","","356.5","","109.5","","0","1","arrowleft","0","arrowleft","[0.85,0.15,0.675,0.325]","","",""
"sailing-trial","98","643341","0.0-11.0-61.0","","","","false","","","","","","","","","","null","","930.7000000476837","","3","0","null","null","arrowup","[0.85,0.15,0.675,0.325]","","",""
"sailing-trial","99","646386","0.0-11.0-62.0","","","","false","","","","","","","","","","533.3000000715256","","225.5","","2","0","arrowright","1","arrowleft","[0.85,0.15,0.675,0.325]","","",""
"sailing-trial","100","650335","0.0-11.0-63.0","","","","false","","","","","","","","","","null","","180.10000002384186","","1","1","null","null","arrowup","[0.85,0.15,0.675,0.325]","","",""
"sailing-trial","101","653297","0.0-11.0-64.0","","","","false","","","","","","","","","","596.2999999523163","","154.29999995231628","","3","0","arrowright","1","arrowright","[0.85,0.15,0.675,0.325]","","",""
"sailing-trial","102","657247","0.0-11.0-65.0","","","","false","","","","","","","","","","null","","752.7000000476837","","0","1","null","null","arrowup","[0.85,0.15,0.675,0.325]","","",""
"sailing-trial","103","660354","0.0-11.0-66.0","","","","false","","","","","","","","","","702.2999999523163","","186.29999995231628","","1","0","arrowleft","0","arrowright","[0.85,0.15,0.675,0.325]","","",""
"sailing-trial","104","661646","0.0-11.0-67.0","","","","false","","","","","","","","","","null","","155.60000002384186","","1","0","null","null","arrowup","[0.85,0.15,0.675,0.325]","","",""
"sailing-trial","105","665020","0.0-11.0-68.0","","","","false","","","","","","","","","","562.1000000238419","","201.69999992847443","","0","1","arrowleft","0","arrowleft","[0.85,0.15,0.675,0.325]","","",""
"sailing-trial","106","667951","0.0-11.0-69.0","","","","false","","","","","","","","","","null","","1317.8999999761581","","0","1","null","null","arrowup","[0.85,0.15,0.675,0.325]","","",""
"sailing-trial","107","671145","0.0-11.0-70.0","","","","false","","","","","","","","","","173.79999995231628","","246.60000002384186","","0","1","arrowleft","0","arrowleft","[0.85,0.15,0.675,0.325]","","",""
"sailing-trial","108","673341","0.0-11.0-71.0","","","","false","","","","","","","","","","null","","1144.2999999523163","","3","0","null","null","arrowup","[0.85,0.15,0.675,0.325]","","",""
"sailing-trial","109","676201","0.0-11.0-72.0","","","","false","","","","","","","","","","30.399999976158142","","219.89999997615814","","2","1","arrowright","1","arrowleft","[0.85,0.15,0.675,0.325]","","",""
"sailing-trial","110","679337","0.0-11.0-73.0","","","","false","","","","","","","","","","null","","1391.7000000476837","","3","0","null","null","arrowup","[0.85,0.15,0.675,0.325]","","",""
"sailing-trial","111","682776","0.0-11.0-74.0","","","","false","","","","","","","","","","634.7999999523163","","239","","0","1","arrowleft","0","arrowleft","[0.85,0.15,0.675,0.325]","","",""
"sailing-trial","112","686696","0.0-11.0-75.0","","","","false","","","","","","","","","","null","","903.5","","3","0","null","null","arrowup","[0.85,0.15,0.675,0.325]","","",""
"sailing-trial","113","689916","0.0-11.0-76.0","","","","false","","","","","","","","","","172.5","","246.5","","3","0","arrowright","1","arrowright","[0.675,0.325,0.85,0.15]","","",""
"sailing-trial","114","693901","0.0-11.0-77.0","","","","false","","","","","","","","","","null","","972.5999999046326","","3","0","null","null","arrowup","[0.675,0.325,0.85,0.15]","","",""
"sailing-trial","115","698776","0.0-11.0-78.0","","","","false","","","","","","","","","","2073.899999976158","","122.19999992847443","","2","1","arrowright","1","arrowleft","[0.675,0.325,0.85,0.15]","","",""
"sailing-trial","116","702730","0.0-11.0-79.0","","","","false","","","","","","","","","","null","","1855.8999999761581","","2","1","null","null","arrowup","[0.675,0.325,0.85,0.15]","","",""
"sailing-trial","117","705337","0.0-11.0-80.0","","","","false","","","","","","","","","","378.1999999284744","","153.5","","3","0","arrowright","1","arrowright","[0.675,0.325,0.85,0.15]","","",""
"sailing-trial","118","706798","0.0-11.0-81.0","","","","false","","","","","","","","","","null","","326.39999997615814","","3","0","null","null","arrowup","[0.675,0.325,0.85,0.15]","","",""
"sailing-trial","119","710156","0.0-11.0-82.0","","","","false","","","","","","","","","","525.1000000238419","","13.200000047683716","","1","1","arrowleft","0","arrowright","[0.675,0.325,0.85,0.15]","","",""
"sailing-trial","120","711916","0.0-11.0-83.0","","","","false","","","","","","","","","","null","","94.5","","0","1","null","null","arrowup","[0.675,0.325,0.85,0.15]","","",""
"sailing-trial","121","714712","0.0-11.0-84.0","","","","false","","","","","","","","","","193.80000007152557","","25.40000009536743","","0","1","arrowleft","0","arrowleft","[0.675,0.325,0.85,0.15]","","",""
"sailing-trial","122","718027","0.0-11.0-85.0","","","","false","","","","","","","","","","null","","1086","","1","1","null","null","arrowup","[0.675,0.325,0.85,0.15]","","",""
"sailing-trial","123","721338","0.0-11.0-86.0","","","","false","","","","","","","","","","678.5","","1","","2","1","arrowright","1","arrowleft","[0.675,0.325,0.85,0.15]","","",""
"sailing-trial","124","725354","0.0-11.0-87.0","","","","false","","","","","","","","","","null","","1186.3999999761581","","2","0","null","null","arrowup","[0.675,0.325,0.85,0.15]","","",""
"sailing-trial","125","728972","0.0-11.0-88.0","","","","false","","","","","","","","","","899.7999999523163","","126.19999992847443","","3","1","arrowright","1","arrowright","[0.675,0.325,0.85,0.15]","","",""
"sailing-trial","126","731708","0.0-11.0-89.0","","","","false","","","","","","","","","","null","","1008.3000000715256","","2","1","null","null","arrowup","[0.675,0.325,0.85,0.15]","","",""
"sailing-trial","127","734247","0.0-11.0-90.0","","","","false","","","","","","","","","","128.29999995231628","","150.70000004768372","","3","0","arrowright","1","arrowright","[0.675,0.325,0.85,0.15]","","",""
"sailing-trial","128","736767","0.0-11.0-91.0","","","","false","","","","","","","","","","null","","936","","1","0","null","null","arrowup","[0.675,0.325,0.85,0.15]","","",""
"sailing-trial","129","740172","0.0-11.0-92.0","","","","false","","","","","","","","","","412.60000002384186","","133.10000002384186","","0","1","arrowleft","0","arrowleft","[0.85,0.15,0.675,0.325]","","",""
"sailing-trial","130","742204","0.0-11.0-93.0","","","","false","","","","","","","","","","null","","340.60000002384186","","2","1","null","null","arrowup","[0.85,0.15,0.675,0.325]","","",""
"sailing-trial","131","745486","0.0-11.0-94.0","","","","false","","","","","","","","","","517.6000000238419","","187.89999997615814","","0","1","arrowleft","0","arrowleft","[0.85,0.15,0.675,0.325]","","",""
"sailing-trial","132","749898","0.0-11.0-95.0","","","","false","","","","","","","","","","null","","678.1999999284744","","2","1","null","null","arrowup","[0.85,0.15,0.675,0.325]","","",""
"sailing-trial","133","753534","0.0-11.0-96.0","","","","false","","","","","","","","","","769.7000000476837","","225.10000002384186","","2","1","arrowright","1","arrowleft","[0.85,0.15,0.675,0.325]","","",""
"sailing-trial","134","755804","0.0-11.0-97.0","","","","false","","","","","","","","","","null","","942","","1","0","null","null","arrowup","[0.85,0.15,0.675,0.325]","","",""
"sailing-trial","135","763742","0.0-11.0-98.0","","","","false","","","","","","","","","","851.2999999523163","","339.8000000715256","","0","1","arrowleft","0","arrowleft","[0.85,0.15,0.675,0.325]","","",""
"sailing-trial","136","766448","0.0-11.0-99.0","","","","false","","","","","","","","","","null","","897.7999999523163","","0","1","null","null","arrowup","[0.85,0.15,0.675,0.325]","","",""
"sailing-trial","137","769965","0.0-11.0-100.0","","","","false","","","","","","","","","","628.2999999523163","","177.60000002384186","","2","1","arrowright","1","arrowleft","[0.85,0.15,0.675,0.325]","","",""
"sailing-trial","138","772571","0.0-11.0-101.0","","","","false","","","","","","","","","","null","","904.5999999046326","","2","1","null","null","arrowup","[0.85,0.15,0.675,0.325]","","",""
"sailing-trial","139","775807","0.0-11.0-102.0","","","","false","","","","","","","","","","635.9000000953674","","28.299999952316284","","2","1","arrowright","1","arrowleft","[0.85,0.15,0.675,0.325]","","",""
"sailing-trial","140","776909","0.0-11.0-103.0","","","","false","","","","","","","","","","null","","4.700000047683716","","2","0","null","null","arrowup","[0.85,0.15,0.675,0.325]","","",""
"sailing-trial","141","781499","0.0-11.0-104.0","","","","false","","","","","","","","","","412.39999997615814","","272.1999999284744","","3","0","arrowright","1","arrowright","[0.85,0.15,0.675,0.325]","","",""
"sailing-trial","142","783682","0.0-11.0-105.0","","","","false","","","","","","","","","","null","","1125","","1","0","null","null","arrowup","[0.85,0.15,0.675,0.325]","","",""
"sailing-trial","143","787108","0.0-11.0-106.0","","","","false","","","","","","","","","","400.1999999284744","","157.5","","0","1","arrowleft","0","arrowleft","[0.85,0.15,0.675,0.325]","","",""
"sailing-trial","144","789471","0.0-11.0-107.0","","","","false","","","","","","","","","","null","","1123.2999999523163","","1","0","null","null","arrowup","[0.85,0.15,0.675,0.325]","","",""
"sailing-trial","145","793586","0.0-11.0-108.0","","","","false","","","","","","","","","","796.1000000238419","","114.5","","0","1","arrowleft","0","arrowleft","[0.85,0.15,0.675,0.325]","","",""
"sailing-trial","146","795363","0.0-11.0-109.0","","","","false","","","","","","","","","","null","","185.89999997615814","","3","1","null","null","arrowup","[0.85,0.15,0.675,0.325]","","",""
"sailing-trial","147","800159","0.0-11.0-110.0","","","","false","","","","","","","","","","1983.1000000238419","","134.60000002384186","","0","1","arrowleft","0","arrowleft","[0.325,0.675,0.15,0.85]","","",""
"sailing-trial","148","803328","0.0-11.0-111.0","","","","false","","","","","","","","","","null","","1370.8999999761581","","1","1","null","null","arrowup","[0.325,0.675,0.15,0.85]","","",""
"sailing-trial","149","808686","0.0-11.0-112.0","","","","false","","","","","","","","","","518.1000000238419","","307.7999999523163","","3","1","arrowright","1","arrowright","[0.325,0.675,0.15,0.85]","","",""
"sailing-trial","150","810768","0.0-11.0-113.0","","","","false","","","","","","","","","","null","","971.1000000238419","","2","0","null","null","arrowup","[0.325,0.675,0.15,0.85]","","",""
"sailing-trial","151","813358","0.0-11.0-114.0","","","","false","","","","","","","","","","254.19999992847443","","54.5","","0","0","arrowleft","0","arrowleft","[0.325,0.675,0.15,0.85]","","",""
"sailing-trial","152","816323","0.0-11.0-115.0","","","","false","","","","","","","","","","null","","1133.3999999761581","","3","1","null","null","arrowup","[0.325,0.675,0.15,0.85]","","",""
"sailing-trial","153","819761","0.0-11.0-116.0","","","","false","","","","","","","","","","578.9000000953674","","193.70000004768372","","1","1","arrowleft","0","arrowright","[0.325,0.675,0.15,0.85]","","",""
"sailing-trial","154","822896","0.0-11.0-117.0","","","","false","","","","","","","","","","null","","1335.1000000238419","","1","1","null","null","arrowup","[0.325,0.675,0.15,0.85]","","",""
"sailing-trial","155","826720","0.0-11.0-118.0","","","","false","","","","","","","","","","879.1999999284744","","331.2999999523163","","3","1","arrowright","1","arrowright","[0.325,0.675,0.15,0.85]","","",""
"sailing-trial","156","829041","0.0-11.0-119.0","","","","false","","","","","","","","","","null","","1028","","0","0","null","null","arrowup","[0.325,0.675,0.15,0.85]","","",""
"sailing-trial","157","832447","0.0-11.0-120.0","","","","false","","","","","","","","","","381.7000000476837","","303.39999997615814","","3","1","arrowright","1","arrowright","[0.325,0.675,0.15,0.85]","","",""
"sailing-trial","158","834977","0.0-11.0-121.0","","","","false","","","","","","","","","","null","","1471.6999999284744","","2","0","null","null","arrowup","[0.325,0.675,0.15,0.85]","","",""
"sailing-trial","159","838113","0.0-11.0-122.0","","","","false","","","","","","","","","","209","","345.09999990463257","","3","1","arrowright","1","arrowright","[0.325,0.675,0.15,0.85]","","",""
"sailing-trial","160","839903","0.0-11.0-123.0","","","","false","","","","","","","","","","null","","200.10000002384186","","3","1","null","null","arrowup","[0.325,0.675,0.15,0.85]","","",""
"sailing-trial","161","843282","0.0-11.0-124.0","","","","false","","","","","","","","","","129.69999992847443","","561.3000000715256","","3","1","arrowright","1","arrowright","[0.325,0.675,0.15,0.85]","","",""
"sailing-trial","162","845388","0.0-11.0-125.0","","","","false","","","","","","","","","","null","","982.5","","2","0","null","null","arrowup","[0.325,0.675,0.15,0.85]","","",""
"sailing-trial","163","850094","0.0-11.0-126.0","","","","false","","","","","","","","","","989.7999999523163","","1037.7000000476837","","3","1","arrowright","1","arrowright","[0.325,0.675,0.15,0.85]","","",""
"sailing-trial","164","851198","0.0-11.0-127.0","","","","false","","","","","","","","","","null","","6.299999952316284","","0","0","null","null","arrowup","[0.325,0.675,0.15,0.85]","","",""
"sailing-trial","165","853981","0.0-11.0-128.0","","","","false","","","","","","","","","","348.39999997615814","","227.29999995231628","","1","0","arrowleft","0","arrowright","[0.325,0.675,0.15,0.85]","","",""
"sailing-trial","166","857152","0.0-11.0-129.0","","","","false","","","","","","","","","","null","","45.39999997615814","","3","1","null","null","arrowup","[0.325,0.675,0.15,0.85]","","",""
"sailing-trial","167","862043","0.0-11.0-130.0","","","","false","","","","","","","","","","797.8999999761581","","54.39999997615814","","3","0","arrowright","1","arrowright","[0.675,0.325,0.85,0.15]","","",""
"sailing-trial","168","866096","0.0-11.0-131.0","","","","false","","","","","","","","","","null","","1012.7000000476837","","0","0","null","null","arrowup","[0.675,0.325,0.85,0.15]","","",""
"sailing-trial","169","869372","0.0-11.0-132.0","","","","false","","","","","","","","","","1193.7000000476837","","29.600000023841858","","2","0","arrowright","1","arrowleft","[0.675,0.325,0.85,0.15]","","",""
"sailing-trial","170","871586","0.0-11.0-133.0","","","","false","","","","","","","","","","null","","462.5","","0","1","null","null","arrowup","[0.675,0.325,0.85,0.15]","","",""
"sailing-trial","171","874114","0.0-11.0-134.0","","","","false","","","","","","","","","","153","","210.79999995231628","","3","0","arrowright","1","arrowright","[0.675,0.325,0.85,0.15]","","",""
"sailing-trial","172","875758","0.0-11.0-135.0","","","","false","","","","","","","","","","null","","352.60000002384186","","1","0","null","null","arrowup","[0.675,0.325,0.85,0.15]","","",""
"sailing-trial","173","878272","0.0-11.0-136.0","","","","false","","","","","","","","","","155.5","","113.89999997615814","","0","0","arrowleft","0","arrowleft","[0.675,0.325,0.85,0.15]","","",""
"sailing-trial","174","879964","0.0-11.0-137.0","","","","false","","","","","","","","","","null","","122.69999992847443","","1","1","null","null","arrowup","[0.675,0.325,0.85,0.15]","","",""
"sailing-trial","175","883486","0.0-11.0-138.0","","","","false","","","","","","","","","","830.6999999284744","","54.299999952316284","","1","1","arrowleft","0","arrowright","[0.675,0.325,0.85,0.15]","","",""
"sailing-trial","176","886095","0.0-11.0-139.0","","","","false","","","","","","","","","","null","","994.8000000715256","","2","1","null","null","arrowup","[0.675,0.325,0.85,0.15]","","",""
"sailing-trial","177","888914","0.0-11.0-140.0","","","","false","","","","","","","","","","614.7000000476837","","126.89999997615814","","1","0","arrowleft","0","arrowright","[0.675,0.325,0.85,0.15]","","",""
"sailing-trial","178","893325","0.0-11.0-141.0","","","","false","","","","","","","","","","null","","2010.8000000715256","","0","1","null","null","arrowup","[0.675,0.325,0.85,0.15]","","",""
"sailing-trial","179","896611","0.0-11.0-142.0","","","","false","","","","","","","","","","516.5","","205.5","","2","1","arrowright","1","arrowleft","[0.675,0.325,0.85,0.15]","","",""
"sailing-trial","180","898045","0.0-11.0-143.0","","","","false","","","","","","","","","","null","","79","","3","0","null","null","arrowup","[0.675,0.325,0.85,0.15]","","",""
"sailing-trial","181","901682","0.0-11.0-144.0","","","","false","","","","","","","","","","212.89999997615814","","191.39999997615814","","2","1","arrowright","1","arrowleft","[0.675,0.325,0.85,0.15]","","",""
"sailing-trial","182","903921","0.0-11.0-145.0","","","","false","","","","","","","","","","null","","1154.3999999761581","","0","0","null","null","arrowup","[0.675,0.325,0.85,0.15]","","",""
"sailing-trial","183","908126","0.0-11.0-146.0","","","","false","","","","","","","","","","1133.3999999761581","","412.59999990463257","","2","1","arrowright","1","arrowleft","[0.675,0.325,0.85,0.15]","","",""
"sailing-trial","184","913349","0.0-11.0-147.0","","","","false","","","","","","","","","","null","","3590.2000000476837","","1","1","null","null","arrowup","[0.675,0.325,0.85,0.15]","","",""
"sailing-trial","185","917731","0.0-11.0-148.0","","","","false","","","","","","","","","","999.1000000238419","","660.2000000476837","","2","1","arrowright","1","arrowleft","[0.85,0.15,0.675,0.325]","","",""
"sailing-trial","186","921140","0.0-11.0-149.0","","","","false","","","","","","","","","","null","","2103.399999976158","","1","0","null","null","arrowup","[0.85,0.15,0.675,0.325]","","",""
"sailing-trial","187","925581","0.0-11.0-150.0","","","","false","","","","","","","","","","43.299999952316284","","170.89999997615814","","0","1","arrowleft","0","arrowleft","[0.85,0.15,0.675,0.325]","","",""
"sailing-trial","188","926708","0.0-11.0-151.0","","","","false","","","","","","","","","","null","","23.299999952316284","","3","0","null","null","arrowup","[0.85,0.15,0.675,0.325]","","",""
"sailing-trial","189","929584","0.0-11.0-152.0","","","","false","","","","","","","","","","4.5","","40.700000047683716","","2","1","arrowright","1","arrowleft","[0.85,0.15,0.675,0.325]","","",""
"sailing-trial","190","931421","0.0-11.0-153.0","","","","false","","","","","","","","","","null","","79.60000002384186","","2","1","null","null","arrowup","[0.85,0.15,0.675,0.325]","","",""
"sailing-trial","191","934689","0.0-11.0-154.0","","","","false","","","","","","","","","","398.5","","238.09999990463257","","0","1","arrowleft","0","arrowleft","[0.85,0.15,0.675,0.325]","","",""
"sailing-trial","192","937906","0.0-11.0-155.0","","","","false","","","","","","","","","","null","","392.3000000715256","","1","1","null","null","arrowup","[0.85,0.15,0.675,0.325]","","",""
"sailing-trial","193","940660","0.0-11.0-156.0","","","","false","","","","","","","","","","81","","159.5","","2","0","arrowright","1","arrowleft","[0.85,0.15,0.675,0.325]","","",""
"sailing-trial","194","943247","0.0-11.0-157.0","","","","false","","","","","","","","","","null","","1437.6000000238419","","1","0","null","null","arrowup","[0.85,0.15,0.675,0.325]","","",""
"sailing-trial","195","946213","0.0-11.0-158.0","","","","false","","","","","","","","","","158.80000007152557","","39.5","","3","1","arrowright","1","arrowright","[0.85,0.15,0.675,0.325]","","",""
"sailing-trial","196","947663","0.0-11.0-159.0","","","","false","","","","","","","","","","null","","90.39999997615814","","2","0","null","null","arrowup","[0.85,0.15,0.675,0.325]","","",""
"sailing-trial","197","952575","0.0-11.0-160.0","","","","false","","","","","","","","","","790.5","","219.80000007152557","","3","1","arrowright","1","arrowright","[0.85,0.15,0.675,0.325]","","",""
"sailing-trial","198","957485","0.0-11.0-161.0","","","","false","","","","","","","","","","null","","1882","","3","0","null","null","arrowup","[0.85,0.15,0.675,0.325]","","",""
"sailing-trial","199","960590","0.0-11.0-162.0","","","","false","","","","","","","","","","706.1000000238419","","97.10000002384186","","1","0","arrowleft","0","arrowright","[0.85,0.15,0.675,0.325]","","",""
"sailing-trial","200","964093","0.0-11.0-163.0","","","","false","","","","","","","","","","null","","478.6999999284744","","2","0","null","null","arrowup","[0.85,0.15,0.675,0.325]","","",""
"sailing-trial","201","969271","0.0-11.0-164.0","","","","false","","","","","","","","","","824.5999999046326","","334.8000000715256","","3","0","arrowright","1","arrowright","[0.675,0.325,0.85,0.15]","","",""
"sailing-trial","202","971356","0.0-11.0-165.0","","","","false","","","","","","","","","","null","","428","","0","0","null","null","arrowup","[0.675,0.325,0.85,0.15]","","",""
"sailing-trial","203","974909","0.0-11.0-166.0","","","","false","","","","","","","","","","628.1000000238419","","187.60000002384186","","1","1","arrowleft","0","arrowright","[0.675,0.325,0.85,0.15]","","",""
"sailing-trial","204","976630","0.0-11.0-167.0","","","","false","","","","","","","","","","null","","86.20000004768372","","3","0","null","null","arrowup","[0.675,0.325,0.85,0.15]","","",""
"sailing-trial","205","979997","0.0-11.0-168.0","","","","false","","","","","","","","","","511","","27.100000023841858","","1","1","arrowleft","0","arrowright","[0.675,0.325,0.85,0.15]","","",""
"sailing-trial","206","985166","0.0-11.0-169.0","","","","false","","","","","","","","","","null","","2131.5","","1","0","null","null","arrowup","[0.675,0.325,0.85,0.15]","","",""
"sailing-trial","207","989994","0.0-11.0-170.0","","","","false","","","","","","","","","","656.3999999761581","","150.10000002384186","","1","0","arrowleft","0","arrowright","[0.675,0.325,0.85,0.15]","","",""
"sailing-trial","208","994733","0.0-11.0-171.0","","","","false","","","","","","","","","","null","","3066.7000000476837","","0","1","null","null","arrowup","[0.675,0.325,0.85,0.15]","","",""
"sailing-trial","209","999450","0.0-11.0-172.0","","","","false","","","","","","","","","","2467.6999999284744","","2.100000023841858","","3","0","arrowright","1","arrowright","[0.675,0.325,0.85,0.15]","","",""
"sailing-trial","210","1000957","0.0-11.0-173.0","","","","false","","","","","","","","","","null","","206.5","","3","0","null","null","arrowup","[0.675,0.325,0.85,0.15]","","",""
"sailing-trial","211","1004679","0.0-11.0-174.0","","","","false","","","","","","","","","","854.6000000238419","","154.80000007152557","","2","1","arrowright","1","arrowleft","[0.675,0.325,0.85,0.15]","","",""
"sailing-trial","212","1006428","0.0-11.0-175.0","","","","false","","","","","","","","","","null","","34","","0","1","null","null","arrowup","[0.675,0.325,0.85,0.15]","","",""
"sailing-trial","213","1009816","0.0-11.0-176.0","","","","false","","","","","","","","","","406","","213.89999997615814","","2","1","arrowright","1","arrowleft","[0.675,0.325,0.85,0.15]","","",""
"sailing-trial","214","1011719","0.0-11.0-177.0","","","","false","","","","","","","","","","null","","40.799999952316284","","2","1","null","null","arrowup","[0.675,0.325,0.85,0.15]","","",""
"sailing-trial","215","1015450","0.0-11.0-178.0","","","","false","","","","","","","","","","197.69999992847443","","812.2000000476837","","0","1","arrowleft","0","arrowleft","[0.675,0.325,0.85,0.15]","","",""
"sailing-trial","216","1017015","0.0-11.0-179.0","","","","false","","","","","","","","","","null","","94.89999997615814","","0","0","null","null","arrowup","[0.675,0.325,0.85,0.15]","","",""
"sailing-trial","217","1020221","0.0-11.0-180.0","","","","false","","","","","","","","","","580.5","","108.30000007152557","","2","1","arrowright","1","arrowleft","[0.675,0.325,0.85,0.15]","","",""
"sailing-trial","218","1022509","0.0-11.0-181.0","","","","false","","","","","","","","","","null","","931.8999999761581","","3","0","null","null","arrowup","[0.675,0.325,0.85,0.15]","","",""
"sailing-trial","219","1025231","0.0-11.0-182.0","","","","false","","","","","","","","","","13","","6.099999904632568","","1","1","arrowleft","0","arrowright","[0.15,0.85,0.325,0.675]","","",""
"sailing-trial","220","1026604","0.0-11.0-183.0","","","","false","","","","","","","","","","null","","316.8000000715256","","1","0","null","null","arrowup","[0.15,0.85,0.325,0.675]","","",""
"sailing-trial","221","1029601","0.0-11.0-184.0","","","","false","","","","","","","","","","673.3999999761581","","164.20000004768372","","2","0","arrowright","1","arrowleft","[0.15,0.85,0.325,0.675]","","",""
"sailing-trial","222","1031390","0.0-11.0-185.0","","","","false","","","","","","","","","","null","","26.5","","3","1","null","null","arrowup","[0.15,0.85,0.325,0.675]","","",""
"sailing-trial","223","1034494","0.0-11.0-186.0","","","","false","","","","","","","","","","245.20000004768372","","319.5","","3","1","arrowright","1","arrowright","[0.15,0.85,0.325,0.675]","","",""
"sailing-trial","224","1036750","0.0-11.0-187.0","","","","false","","","","","","","","","","null","","1188.0999999046326","","0","0","null","null","arrowup","[0.15,0.85,0.325,0.675]","","",""
"sailing-trial","225","1040079","0.0-11.0-188.0","","","","false","","","","","","","","","","129.29999995231628","","81.59999990463257","","1","1","arrowleft","0","arrowright","[0.15,0.85,0.325,0.675]","","",""
"sailing-trial","226","1041999","0.0-11.0-189.0","","","","false","","","","","","","","","","null","","175.10000002384186","","1","1","null","null","arrowup","[0.15,0.85,0.325,0.675]","","",""
"sailing-trial","227","1044826","0.0-11.0-190.0","","","","false","","","","","","","","","","75","","158.80000007152557","","3","1","arrowright","1","arrowright","[0.15,0.85,0.325,0.675]","","",""
"sailing-trial","228","1050236","0.0-11.0-191.0","","","","false","","","","","","","","","","null","","3483.2999999523163","","0","0","null","null","arrowup","[0.15,0.85,0.325,0.675]","","",""
"sailing-trial","229","1053389","0.0-11.0-192.0","","","","false","","","","","","","","","","815.5","","71.30000007152557","","3","0","arrowright","1","arrowright","[0.15,0.85,0.325,0.675]","","",""
"sailing-trial","230","1055920","0.0-11.0-193.0","","","","false","","","","","","","","","","null","","794.2000000476837","","3","0","null","null","arrowup","[0.15,0.85,0.325,0.675]","","",""
"sailing-trial","231","1059692","0.0-11.0-194.0","","","","false","","","","","","","","","","773","","65.29999995231628","","1","1","arrowleft","0","arrowright","[0.15,0.85,0.325,0.675]","","",""
"sailing-trial","232","1061949","0.0-11.0-195.0","","","","false","","","","","","","","","","null","","890.0999999046326","","3","0","null","null","arrowup","[0.15,0.85,0.325,0.675]","","",""
"sailing-trial","233","1064730","0.0-11.0-196.0","","","","false","","","","","","","","","","154.10000002384186","","7.100000023841858","","1","1","arrowleft","0","arrowright","[0.15,0.85,0.325,0.675]","","",""
"sailing-trial","234","1068251","0.0-11.0-197.0","","","","false","","","","","","","","","","null","","484","","0","0","null","null","arrowup","[0.15,0.85,0.325,0.675]","","",""
"sailing-trial","235","1070586","0.0-11.0-198.0","","","","false","","","","","","","","","","1.7999999523162842","","230.20000004768372","","2","0","arrowright","1","arrowleft","[0.325,0.675,0.15,0.85]","","",""
"sailing-trial","236","1073722","0.0-11.0-199.0","","","","false","","","","","","","","","","null","","402.8000000715256","","3","0","null","null","arrowup","[0.325,0.675,0.15,0.85]","","",""
"sailing-trial","237","1076877","0.0-11.0-200.0","","","","false","","","","","","","","","","208.89999997615814","","80.30000007152557","","1","1","arrowleft","0","arrowright","[0.325,0.675,0.15,0.85]","","",""
"sailing-trial","238","1078941","0.0-11.0-201.0","","","","false","","","","","","","","","","null","","917.6999999284744","","0","0","null","null","arrowup","[0.325,0.675,0.15,0.85]","","",""
"sailing-trial","239","1081390","0.0-11.0-202.0","","","","false","","","","","","","","","","301.89999997615814","","80.60000002384186","","1","0","arrowleft","0","arrowright","[0.325,0.675,0.15,0.85]","","",""
"sailing-trial","240","1083786","0.0-11.0-203.0","","","","false","","","","","","","","","","null","","1142","","2","0","null","null","arrowup","[0.325,0.675,0.15,0.85]","","",""
"sailing-trial","241","1086764","0.0-11.0-204.0","","","","false","","","","","","","","","","244.5","","159.29999995231628","","2","1","arrowright","1","arrowleft","[0.325,0.675,0.15,0.85]","","",""
"sailing-trial","242","1088024","0.0-11.0-205.0","","","","false","","","","","","","","","","null","","225.89999997615814","","2","0","null","null","arrowup","[0.325,0.675,0.15,0.85]","","",""
"sailing-trial","243","1090971","0.0-11.0-206.0","","","","false","","","","","","","","","","214.09999990463257","","130.39999997615814","","1","1","arrowleft","0","arrowright","[0.325,0.675,0.15,0.85]","","",""
"sailing-trial","244","1092491","0.0-11.0-207.0","","","","false","","","","","","","","","","null","","185","","2","0","null","null","arrowup","[0.325,0.675,0.15,0.85]","","",""
"sailing-trial","245","1095417","0.0-11.0-208.0","","","","false","","","","","","","","","","228.29999995231628","","391.39999997615814","","1","0","arrowleft","0","arrowright","[0.325,0.675,0.15,0.85]","","",""
"sailing-trial","246","1097416","0.0-11.0-209.0","","","","false","","","","","","","","","","null","","128.30000007152557","","1","1","null","null","arrowup","[0.325,0.675,0.15,0.85]","","",""
"sailing-trial","247","1101196","0.0-11.0-210.0","","","","false","","","","","","","","","","767.1999999284744","","362","","1","1","arrowleft","0","arrowright","[0.325,0.675,0.15,0.85]","","",""
"sailing-trial","248","1102862","0.0-11.0-211.0","","","","false","","","","","","","","","","null","","189.10000002384186","","0","0","null","null","arrowup","[0.325,0.675,0.15,0.85]","","",""
"sailing-trial","249","1105466","0.0-11.0-212.0","","","","false","","","","","","","","","","206.70000004768372","","192.80000007152557","","2","0","arrowright","1","arrowleft","[0.325,0.675,0.15,0.85]","","",""
"sailing-trial","250","1106601","0.0-11.0-213.0","","","","false","","","","","","","","","","null","","20","","0","0","null","null","arrowup","[0.325,0.675,0.15,0.85]","","",""
"sailing-trial","251","1111192","0.0-11.0-214.0","","","","false","","","","","","","","","","391.7000000476837","","133.30000007152557","","3","1","arrowright","1","arrowright","[0.325,0.675,0.15,0.85]","","",""
"sailing-trial","252","1113847","0.0-11.0-215.0","","","","false","","","","","","","","","","null","","1520.2999999523163","","2","0","null","null","arrowup","[0.325,0.675,0.15,0.85]","","",""
"sailing-trial","253","1117197","0.0-11.0-216.0","","","","false","","","","","","","","","","564.4000000953674","","66.10000002384186","","3","1","arrowright","1","arrowright","[0.325,0.675,0.15,0.85]","","",""
"sailing-trial","254","1119320","0.0-11.0-217.0","","","","false","","","","","","","","","","null","","572.6000000238419","","2","1","null","null","arrowup","[0.325,0.675,0.15,0.85]","","",""
"sailing-trial","255","1122440","0.0-11.0-218.0","","","","false","","","","","","","","","","230.5","","154.89999997615814","","2","1","arrowright","1","arrowleft","[0.675,0.325,0.85,0.15]","","",""
"sailing-trial","256","1123901","0.0-11.0-219.0","","","","false","","","","","","","","","","null","","181.39999997615814","","1","0","null","null","arrowup","[0.675,0.325,0.85,0.15]","","",""
"sailing-trial","257","1129032","0.0-11.0-220.0","","","","false","","","","","","","","","","1657.5","","544.2000000476837","","3","1","arrowright","1","arrowright","[0.675,0.325,0.85,0.15]","","",""
"sailing-trial","258","1130156","0.0-11.0-221.0","","","","false","","","","","","","","","","null","","2.899999976158142","","3","0","null","null","arrowup","[0.675,0.325,0.85,0.15]","","",""
"sailing-trial","259","1134217","0.0-11.0-222.0","","","","false","","","","","","","","","","461.8000000715256","","1483.7000000476837","","3","0","arrowright","1","arrowright","[0.675,0.325,0.85,0.15]","","",""
"sailing-trial","260","1135720","0.0-11.0-223.0","","","","false","","","","","","","","","","null","","164","","3","0","null","null","arrowup","[0.675,0.325,0.85,0.15]","","",""
"sailing-trial","261","1139389","0.0-11.0-224.0","","","","false","","","","","","","","","","1387.2000000476837","","176.79999995231628","","3","0","arrowright","1","arrowright","[0.675,0.325,0.85,0.15]","","",""
"sailing-trial","262","1141127","0.0-11.0-225.0","","","","false","","","","","","","","","","null","","214.60000002384186","","3","0","null","null","arrowup","[0.675,0.325,0.85,0.15]","","",""
"sailing-trial","263","1145617","0.0-11.0-226.0","","","","false","","","","","","","","","","647.6000000238419","","295.89999997615814","","3","1","arrowright","1","arrowright","[0.675,0.325,0.85,0.15]","","",""
"sailing-trial","264","1146787","0.0-11.0-227.0","","","","false","","","","","","","","","","null","","16","","0","0","null","null","arrowup","[0.675,0.325,0.85,0.15]","","",""
"sailing-trial","265","1150125","0.0-11.0-228.0","","","","false","","","","","","","","","","555.2000000476837","","122.70000004768372","","1","1","arrowleft","0","arrowright","[0.675,0.325,0.85,0.15]","","",""
"sailing-trial","266","1152158","0.0-11.0-229.0","","","","false","","","","","","","","","","null","","281.10000002384186","","0","1","null","null","arrowup","[0.675,0.325,0.85,0.15]","","",""
"sailing-trial","267","1154991","0.0-11.0-230.0","","","","false","","","","","","","","","","35.800000071525574","","147.09999990463257","","2","1","arrowright","1","arrowleft","[0.675,0.325,0.85,0.15]","","",""
"sailing-trial","268","1156595","0.0-11.0-231.0","","","","false","","","","","","","","","","null","","20.100000023841858","","2","1","null","null","arrowup","[0.675,0.325,0.85,0.15]","","",""
"sailing-trial","269","1159519","0.0-11.0-232.0","","","","false","","","","","","","","","","217.60000002384186","","118.29999995231628","","2","1","arrowright","1","arrowleft","[0.675,0.325,0.85,0.15]","","",""
"sailing-trial","270","1161651","0.0-11.0-233.0","","","","false","","","","","","","","","","null","","570.5","","0","1","null","null","arrowup","[0.675,0.325,0.85,0.15]","","",""
"sailing-trial","271","1165357","0.0-11.0-234.0","","","","false","","","","","","","","","","773.3999999761581","","183.80000007152557","","2","1","arrowright","1","arrowleft","[0.675,0.325,0.85,0.15]","","",""
"sailing-trial","272","1167139","0.0-11.0-235.0","","","","false","","","","","","","","","","null","","196.39999997615814","","0","1","null","null","arrowup","[0.675,0.325,0.85,0.15]","","",""
"sailing-trial","273","1169709","0.0-11.0-236.0","","","","false","","","","","","","","","","169.79999995231628","","164.90000009536743","","1","0","arrowleft","0","arrowright","[0.85,0.15,0.675,0.325]","","",""
"sailing-trial","274","1171216","0.0-11.0-237.0","","","","false","","","","","","","","","","null","","229.29999995231628","","3","0","null","null","arrowup","[0.85,0.15,0.675,0.325]","","",""
"sailing-trial","275","1174482","0.0-11.0-238.0","","","","false","","","","","","","","","","154.60000002384186","","201","","0","1","arrowleft","0","arrowleft","[0.85,0.15,0.675,0.325]","","",""
"sailing-trial","276","1175886","0.0-11.0-239.0","","","","false","","","","","","","","","","null","","179.5","","2","0","null","null","arrowup","[0.85,0.15,0.675,0.325]","","",""
"sailing-trial","277","1179267","0.0-11.0-240.0","","","","false","","","","","","","","","","455.59999990463257","","879.1000000238419","","3","0","arrowright","1","arrowright","[0.85,0.15,0.675,0.325]","","",""
"sailing-trial","278","1181164","0.0-11.0-241.0","","","","false","","","","","","","","","","null","","71.70000004768372","","0","1","null","null","arrowup","[0.85,0.15,0.675,0.325]","","",""
"sailing-trial","279","1183676","0.0-11.0-242.0","","","","false","","","","","","","","","","184.80000007152557","","257.5","","1","0","arrowleft","0","arrowright","[0.85,0.15,0.675,0.325]","","",""
"sailing-trial","280","1186668","0.0-11.0-243.0","","","","false","","","","","","","","","","null","","1230.8999999761581","","2","1","null","null","arrowup","[0.85,0.15,0.675,0.325]","","",""
"sailing-trial","281","1190912","0.0-11.0-244.0","","","","false","","","","","","","","","","934.6000000238419","","33.299999952316284","","2","0","arrowright","1","arrowleft","[0.85,0.15,0.675,0.325]","","",""
"sailing-trial","282","1192557","0.0-11.0-245.0","","","","false","","","","","","","","","","null","","38.89999997615814","","2","1","null","null","arrowup","[0.85,0.15,0.675,0.325]","","",""
"sailing-trial","283","1195661","0.0-11.0-246.0","","","","false","","","","","","","","","","3.9000000953674316","","866.0999999046326","","3","0","arrowright","1","arrowright","[0.85,0.15,0.675,0.325]","","",""
"sailing-trial","284","1197532","0.0-11.0-247.0","","","","false","","","","","","","","","","null","","126.30000007152557","","3","1","null","null","arrowup","[0.85,0.15,0.675,0.325]","","",""
"sailing-trial","285","1201247","0.0-11.0-248.0","","","","false","","","","","","","","","","41.5","","118.10000002384186","","0","1","arrowleft","0","arrowleft","[0.85,0.15,0.675,0.325]","","",""
"sailing-trial","286","1205182","0.0-11.0-249.0","","","","false","","","","","","","","","","null","","782.5999999046326","","0","1","null","null","arrowup","[0.85,0.15,0.675,0.325]","","",""
"sailing-trial","287","1208081","0.0-11.0-250.0","","","","false","","","","","","","","","","186.10000002384186","","66.79999995231628","","0","1","arrowleft","0","arrowleft","[0.85,0.15,0.675,0.325]","","",""
"sailing-trial","288","1212194","0.0-11.0-251.0","","","","false","","","","","","","","","","null","","1157.3999999761581","","3","1","null","null","arrowup","[0.85,0.15,0.675,0.325]","","",""
"sailing-trial","289","1216477","0.0-11.0-252.0","","","","false","","","","","","","","","","200.39999997615814","","21.299999952316284","","0","0","arrowleft","0","arrowleft","[0.85,0.15,0.675,0.325]","","",""
"sailing-trial","290","1219730","0.0-11.0-253.0","","","","false","","","","","","","","","","null","","853","","3","1","null","null","arrowup","[0.85,0.15,0.675,0.325]","","",""
"sailing-trial","291","1222351","0.0-11.0-254.0","","","","false","","","","","","","","","","18.5","","47.299999952316284","","3","1","arrowright","1","arrowright","[0.85,0.15,0.675,0.325]","","",""
"sailing-trial","292","1223537","0.0-11.0-255.0","","","","false","","","","","","","","","","null","","64.89999997615814","","1","0","null","null","arrowup","[0.85,0.15,0.675,0.325]","","",""
"sailing-trial","293","1226307","0.0-11.0-256.0","","","","false","","","","","","","","","","150.80000007152557","","563.3000000715256","","3","0","arrowright","1","arrowright","[0.675,0.325,0.85,0.15]","","",""
"sailing-trial","294","1227693","0.0-11.0-257.0","","","","false","","","","","","","","","","null","","93","","3","0","null","null","arrowup","[0.675,0.325,0.85,0.15]","","",""
"sailing-trial","295","1230462","0.0-11.0-258.0","","","","false","","","","","","","","","","0.19999992847442627","","219.10000002384186","","2","1","arrowright","1","arrowleft","[0.675,0.325,0.85,0.15]","","",""
"sailing-trial","296","1231698","0.0-11.0-259.0","","","","false","","","","","","","","","","null","","128","","3","0","null","null","arrowup","[0.675,0.325,0.85,0.15]","","",""
"sailing-trial","297","1234627","0.0-11.0-260.0","","","","false","","","","","","","","","","431.6999999284744","","227.5","","1","0","arrowleft","0","arrowright","[0.675,0.325,0.85,0.15]","","",""
"sailing-trial","298","1236144","0.0-11.0-261.0","","","","false","","","","","","","","","","null","","158.5","","3","0","null","null","arrowup","[0.675,0.325,0.85,0.15]","","",""
"sailing-trial","299","1238957","0.0-11.0-262.0","","","","false","","","","","","","","","","203.30000007152557","","31.799999952316284","","0","1","arrowleft","0","arrowleft","[0.675,0.325,0.85,0.15]","","",""
"sailing-trial","300","1241293","0.0-11.0-263.0","","","","false","","","","","","","","","","null","","936.8999999761581","","1","0","null","null","arrowup","[0.675,0.325,0.85,0.15]","","",""
"sailing-trial","301","1245394","0.0-11.0-264.0","","","","false","","","","","","","","","","1100.5","","220.5","","2","1","arrowright","1","arrowleft","[0.675,0.325,0.85,0.15]","","",""
"sailing-trial","302","1247471","0.0-11.0-265.0","","","","false","","","","","","","","","","null","","473.89999997615814","","2","1","null","null","arrowup","[0.675,0.325,0.85,0.15]","","",""
"sailing-trial","303","1250179","0.0-11.0-266.0","","","","false","","","","","","","","","","109.10000002384186","","144.60000002384186","","1","0","arrowleft","0","arrowright","[0.675,0.325,0.85,0.15]","","",""
"sailing-trial","304","1253677","0.0-11.0-267.0","","","","false","","","","","","","","","","null","","1701.3999999761581","","1","1","null","null","arrowup","[0.675,0.325,0.85,0.15]","","",""
"sailing-trial","305","1256638","0.0-11.0-268.0","","","","false","","","","","","","","","","33.5","","231.60000002384186","","0","1","arrowleft","0","arrowleft","[0.675,0.325,0.85,0.15]","","",""
"sailing-trial","306","1258028","0.0-11.0-269.0","","","","false","","","","","","","","","","null","","148.70000004768372","","0","0","null","null","arrowup","[0.675,0.325,0.85,0.15]","","",""
"sailing-trial","307","1260896","0.0-11.0-270.0","","","","false","","","","","","","","","","63.199999928474426","","115","","2","1","arrowright","1","arrowleft","[0.675,0.325,0.85,0.15]","","",""
"sailing-trial","308","1263040","0.0-11.0-271.0","","","","false","","","","","","","","","","null","","588","","3","1","null","null","arrowup","[0.675,0.325,0.85,0.15]","","",""
"sailing-trial","309","1265682","0.0-11.0-272.0","","","","false","","","","","","","","","","102.39999997615814","","254.19999992847443","","1","0","arrowleft","0","arrowright","[0.675,0.325,0.85,0.15]","","",""
"sailing-trial","310","1267821","0.0-11.0-273.0","","","","false","","","","","","","","","","null","","161.5","","3","1","null","null","arrowup","[0.675,0.325,0.85,0.15]","","",""
"sailing-trial","311","1270385","0.0-11.0-274.0","","","","false","","","","","","","","","","196.60000002384186","","212.59999990463257","","1","0","arrowleft","0","arrowright","[0.675,0.325,0.85,0.15]","","",""
"sailing-trial","312","1272703","0.0-11.0-275.0","","","","false","","","","","","","","","","null","","562.3000000715256","","1","1","null","null","arrowup","[0.675,0.325,0.85,0.15]","","",""
"sailing-trial","313","1278960","0.0-11.0-276.0","","","","false","","","","","","","","","","13.5","","4030.5","","3","0","arrowright","1","arrowright","[0.85,0.15,0.675,0.325]","","",""
"sailing-trial","314","1280478","0.0-11.0-277.0","","","","false","","","","","","","","","","null","","463.7999999523163","","2","0","null","null","arrowup","[0.85,0.15,0.675,0.325]","","",""
"sailing-trial","315","1282971","0.0-11.0-278.0","","","","false","","","","","","","","","","114.20000004768372","","70.29999995231628","","1","0","arrowleft","0","arrowright","[0.85,0.15,0.675,0.325]","","",""
"sailing-trial","316","1285488","0.0-11.0-279.0","","","","false","","","","","","","","","","null","","136.5","","2","1","null","null","arrowup","[0.85,0.15,0.675,0.325]","","",""
"sailing-trial","317","1287869","0.0-11.0-280.0","","","","false","","","","","","","","","","240.69999992847443","","104.29999995231628","","1","0","arrowleft","0","arrowright","[0.85,0.15,0.675,0.325]","","",""
"sailing-trial","318","1289452","0.0-11.0-281.0","","","","false","","","","","","","","","","null","","9.5","","3","1","null","null","arrowup","[0.85,0.15,0.675,0.325]","","",""
"sailing-trial","319","1292363","0.0-11.0-282.0","","","","false","","","","","","","","","","126.10000002384186","","192.60000002384186","","0","1","arrowleft","0","arrowleft","[0.85,0.15,0.675,0.325]","","",""
"sailing-trial","320","1294129","0.0-11.0-283.0","","","","false","","","","","","","","","","null","","38","","0","1","null","null","arrowup","[0.85,0.15,0.675,0.325]","","",""
"sailing-trial","321","1297294","0.0-11.0-284.0","","","","false","","","","","","","","","","126.20000004768372","","154.89999997615814","","2","1","arrowright","1","arrowleft","[0.85,0.15,0.675,0.325]","","",""
"sailing-trial","322","1298554","0.0-11.0-285.0","","","","false","","","","","","","","","","null","","217.89999997615814","","3","0","null","null","arrowup","[0.85,0.15,0.675,0.325]","","",""
"sailing-trial","323","1301978","0.0-11.0-286.0","","","","false","","","","","","","","","","191.89999997615814","","168.5","","2","1","arrowright","1","arrowleft","[0.85,0.15,0.675,0.325]","","",""
"sailing-trial","324","1305068","0.0-11.0-287.0","","","","false","","","","","","","","","","null","","1921.1000000238419","","0","0","null","null","arrowup","[0.85,0.15,0.675,0.325]","","",""
"sailing-trial","325","1308626","0.0-11.0-288.0","","","","false","","","","","","","","","","216.09999990463257","","249.60000002384186","","2","1","arrowright","1","arrowleft","[0.85,0.15,0.675,0.325]","","",""
"sailing-trial","326","1309856","0.0-11.0-289.0","","","","false","","","","","","","","","","null","","17.600000023841858","","0","0","null","null","arrowup","[0.85,0.15,0.675,0.325]","","",""
"sailing-trial","327","1313696","0.0-11.0-290.0","","","","false","","","","","","","","","","43.39999997615814","","1136","","1","0","arrowleft","0","arrowright","[0.85,0.15,0.675,0.325]","","",""
"sailing-trial","328","1318240","0.0-11.0-291.0","","","","false","","","","","","","","","","null","","1251.7000000476837","","0","1","null","null","arrowup","[0.85,0.15,0.675,0.325]","","",""
"sailing-trial","329","1322625","0.0-11.0-292.0","","","","false","","","","","","","","","","1510.2000000476837","","191.20000004768372","","2","1","arrowright","1","arrowleft","[0.85,0.15,0.675,0.325]","","",""
"sailing-trial","330","1324266","0.0-11.0-293.0","","","","false","","","","","","","","","","null","","408.2999999523163","","3","0","null","null","arrowup","[0.85,0.15,0.675,0.325]","","",""
"sailing-trial","331","1327359","0.0-11.0-294.0","","","","false","","","","","","","","","","135.80000007152557","","236.10000002384186","","0","1","arrowleft","0","arrowleft","[0.325,0.675,0.15,0.85]","","",""
"sailing-trial","332","1328971","0.0-11.0-295.0","","","","false","","","","","","","","","","null","","287.09999990463257","","2","0","null","null","arrowup","[0.325,0.675,0.15,0.85]","","",""
"sailing-trial","333","1331788","0.0-11.0-296.0","","","","false","","","","","","","","","","8.899999976158142","","116.89999997615814","","3","1","arrowright","1","arrowright","[0.325,0.675,0.15,0.85]","","",""
"sailing-trial","334","1333500","0.0-11.0-297.0","","","","false","","","","","","","","","","null","","18.600000023841858","","1","1","null","null","arrowup","[0.325,0.675,0.15,0.85]","","",""
"sailing-trial","335","1336543","0.0-11.0-298.0","","","","false","","","","","","","","","","132.29999995231628","","99.09999990463257","","1","1","arrowleft","0","arrowright","[0.325,0.675,0.15,0.85]","","",""
"sailing-trial","336","1338123","0.0-11.0-299.0","","","","false","","","","","","","","","","null","","340.60000002384186","","0","0","null","null","arrowup","[0.325,0.675,0.15,0.85]","","",""
"sailing-trial","337","1340576","0.0-11.0-300.0","","","","false","","","","","","","","","","85.5","","72.89999997615814","","1","0","arrowleft","0","arrowright","[0.325,0.675,0.15,0.85]","","",""
"sailing-trial","338","1341794","0.0-11.0-301.0","","","","false","","","","","","","","","","null","","184","","2","0","null","null","arrowup","[0.325,0.675,0.15,0.85]","","",""
"sailing-trial","339","1344187","0.0-11.0-302.0","","","","false","","","","","","","","","","200.20000004768372","","65.39999997615814","","0","0","arrowleft","0","arrowleft","[0.325,0.675,0.15,0.85]","","",""
"sailing-trial","340","1346064","0.0-11.0-303.0","","","","false","","","","","","","","","","null","","286.6999999284744","","1","0","null","null","arrowup","[0.325,0.675,0.15,0.85]","","",""
"sailing-trial","341","1349179","0.0-11.0-304.0","","","","false","","","","","","","","","","329.60000002384186","","463.7000000476837","","0","0","arrowleft","0","arrowleft","[0.325,0.675,0.15,0.85]","","",""
"sailing-trial","342","1350512","0.0-11.0-305.0","","","","false","","","","","","","","","","null","","194.5","","2","0","null","null","arrowup","[0.325,0.675,0.15,0.85]","","",""
"sailing-trial","343","1353565","0.0-11.0-306.0","","","","false","","","","","","","","","","418.8000000715256","","5.899999976158142","","3","1","arrowright","1","arrowright","[0.325,0.675,0.15,0.85]","","",""
"sailing-trial","344","1354849","0.0-11.0-307.0","","","","false","","","","","","","","","","null","","209.80000007152557","","0","0","null","null","arrowup","[0.325,0.675,0.15,0.85]","","",""
"sailing-trial","345","1357968","0.0-11.0-308.0","","","","false","","","","","","","","","","729.3000000715256","","217.79999995231628","","2","0","arrowright","1","arrowleft","[0.325,0.675,0.15,0.85]","","",""
"sailing-trial","346","1360034","0.0-11.0-309.0","","","","false","","","","","","","","","","null","","490.7000000476837","","1","1","null","null","arrowup","[0.325,0.675,0.15,0.85]","","",""
"sailing-trial","347","1362509","0.0-11.0-310.0","","","","false","","","","","","","","","","45.39999997615814","","4.900000095367432","","0","0","arrowleft","0","arrowleft","[0.15,0.85,0.325,0.675]","","",""
"sailing-trial","348","1364157","0.0-11.0-311.0","","","","false","","","","","","","","","","null","","16.100000023841858","","1","1","null","null","arrowup","[0.15,0.85,0.325,0.675]","","",""
"sailing-trial","349","1366880","0.0-11.0-312.0","","","","false","","","","","","","","","","195.29999995231628","","214.20000004768372","","0","0","arrowleft","0","arrowleft","[0.15,0.85,0.325,0.675]","","",""
"sailing-trial","350","1368397","0.0-11.0-313.0","","","","false","","","","","","","","","","null","","312.6999999284744","","0","0","null","null","arrowup","[0.15,0.85,0.325,0.675]","","",""
"sailing-trial","351","1371902","0.0-11.0-314.0","","","","false","","","","","","","","","","63.60000002384186","","243.60000002384186","","0","1","arrowleft","0","arrowleft","[0.15,0.85,0.325,0.675]","","",""
"sailing-trial","352","1373853","0.0-11.0-315.0","","","","false","","","","","","","","","","null","","291.2000000476837","","3","1","null","null","arrowup","[0.15,0.85,0.325,0.675]","","",""
"sailing-trial","353","1377020","0.0-11.0-316.0","","","","false","","","","","","","","","","411.1999999284744","","75.10000002384186","","2","1","arrowright","1","arrowleft","[0.15,0.85,0.325,0.675]","","",""
"sailing-trial","354","1378575","0.0-11.0-317.0","","","","false","","","","","","","","","","null","","257.60000002384186","","0","0","null","null","arrowup","[0.15,0.85,0.325,0.675]","","",""
"sailing-trial","355","1381425","0.0-11.0-318.0","","","","false","","","","","","","","","","181.39999997615814","","90.69999992847443","","1","1","arrowleft","0","arrowright","[0.15,0.85,0.325,0.675]","","",""
"sailing-trial","356","1383181","0.0-11.0-319.0","","","","false","","","","","","","","","","null","","93.20000004768372","","3","1","null","null","arrowup","[0.15,0.85,0.325,0.675]","","",""
"sailing-trial","357","1385532","0.0-11.0-320.0","","","","false","","","","","","","","","","140.39999997615814","","47","","3","0","arrowright","1","arrowright","[0.15,0.85,0.325,0.675]","","",""
"sailing-trial","358","1387216","0.0-11.0-321.0","","","","false","","","","","","","","","","null","","40.10000002384186","","1","1","null","null","arrowup","[0.15,0.85,0.325,0.675]","","",""
"sailing-trial","359","1389487","0.0-11.0-322.0","","","","false","","","","","","","","","","26.799999952316284","","35.200000047683716","","0","0","arrowleft","0","arrowleft","[0.15,0.85,0.325,0.675]","","",""
"sailing-trial","360","1391837","0.0-11.0-323.0","","","","false","","","","","","","","","","null","","528.2000000476837","","3","1","null","null","arrowup","[0.15,0.85,0.325,0.675]","","",""
"sailing-trial","361","1395139","0.0-11.0-324.0","","","","false","","","","","","","","","","51.5","","222.60000002384186","","3","1","arrowright","1","arrowright","[0.15,0.85,0.325,0.675]","","",""
"sailing-trial","362","1397452","0.0-11.0-325.0","","","","false","","","","","","","","","","null","","587.9000000953674","","1","1","null","null","arrowup","[0.15,0.85,0.325,0.675]","","",""
"sailing-trial","363","1400095","0.0-11.0-326.0","","","","false","","","","","","","","","","196.70000004768372","","16.199999928474426","","0","0","arrowleft","0","arrowleft","[0.325,0.675,0.15,0.85]","","",""
"sailing-trial","364","1402734","0.0-11.0-327.0","","","","false","","","","","","","","","","null","","926.0999999046326","","0","0","null","null","arrowup","[0.325,0.675,0.15,0.85]","","",""
"sailing-trial","365","1406017","0.0-11.0-328.0","","","","false","","","","","","","","","","749.5999999046326","","127.20000004768372","","2","0","arrowright","1","arrowleft","[0.325,0.675,0.15,0.85]","","",""
"sailing-trial","366","1409490","0.0-11.0-329.0","","","","false","","","","","","","","","","null","","199","","3","1","null","null","arrowup","[0.325,0.675,0.15,0.85]","","",""
"sailing-trial","367","1411963","0.0-11.0-330.0","","","","false","","","","","","","","","","278","","57.700000047683716","","3","0","arrowright","1","arrowright","[0.325,0.675,0.15,0.85]","","",""
"sailing-trial","368","1413964","0.0-11.0-331.0","","","","false","","","","","","","","","","null","","383","","3","1","null","null","arrowup","[0.325,0.675,0.15,0.85]","","",""
"sailing-trial","369","1416418","0.0-11.0-332.0","","","","false","","","","","","","","","","127.79999995231628","","193.10000002384186","","2","0","arrowright","1","arrowleft","[0.325,0.675,0.15,0.85]","","",""
"sailing-trial","370","1419601","0.0-11.0-333.0","","","","false","","","","","","","","","","null","","1567.8999999761581","","1","1","null","null","arrowup","[0.325,0.675,0.15,0.85]","","",""
"sailing-trial","371","1422524","0.0-11.0-334.0","","","","false","","","","","","","","","","196.09999990463257","","627.5","","0","0","arrowleft","0","arrowleft","[0.325,0.675,0.15,0.85]","","",""
"sailing-trial","372","1424059","0.0-11.0-335.0","","","","false","","","","","","","","","","null","","439","","0","0","null","null","arrowup","[0.325,0.675,0.15,0.85]","","",""
"sailing-trial","373","1426379","0.0-11.0-336.0","","","","false","","","","","","","","","","46.699999928474426","","169.79999995231628","","1","0","arrowleft","0","arrowright","[0.325,0.675,0.15,0.85]","","",""
"sailing-trial","374","1428380","0.0-11.0-337.0","","","","false","","","","","","","","","","null","","422.10000002384186","","2","1","null","null","arrowup","[0.325,0.675,0.15,0.85]","","",""
"sailing-trial","375","1430892","0.0-11.0-338.0","","","","false","","","","","","","","","","353","","41.10000002384186","","2","0","arrowright","1","arrowleft","[0.325,0.675,0.15,0.85]","","",""
"sailing-trial","376","1432589","0.0-11.0-339.0","","","","false","","","","","","","","","","null","","287.7999999523163","","1","0","null","null","arrowup","[0.325,0.675,0.15,0.85]","","",""
"sailing-trial","377","1436653","0.0-11.0-340.0","","","","false","","","","","","","","","","129","","1050.0999999046326","","1","1","arrowleft","0","arrowright","[0.325,0.675,0.15,0.85]","","",""
"sailing-trial","378","1439856","0.0-11.0-341.0","","","","false","","","","","","","","","","null","","956.3999999761581","","1","1","null","null","arrowup","[0.325,0.675,0.15,0.85]","","",""
"sailing-trial","379","1442941","0.0-11.0-342.0","","","","false","","","","","","","","","","901.7000000476837","","97.5","","2","0","arrowright","1","arrowleft","[0.15,0.85,0.325,0.675]","","",""
"sailing-trial","380","1444963","0.0-11.0-343.0","","","","false","","","","","","","","","","null","","253.30000007152557","","2","1","null","null","arrowup","[0.15,0.85,0.325,0.675]","","",""
"sailing-trial","381","1448766","0.0-11.0-344.0","","","","false","","","","","","","","","","476.7000000476837","","951.3999999761581","","2","0","arrowright","1","arrowleft","[0.15,0.85,0.325,0.675]","","",""
"sailing-trial","382","1451550","0.0-11.0-345.0","","","","false","","","","","","","","","","null","","814","","1","1","null","null","arrowup","[0.15,0.85,0.325,0.675]","","",""
"sailing-trial","383","1454126","0.0-11.0-346.0","","","","false","","","","","","","","","","231.5","","116.5","","0","0","arrowleft","0","arrowleft","[0.15,0.85,0.325,0.675]","","",""
"sailing-trial","384","1455954","0.0-11.0-347.0","","","","false","","","","","","","","","","null","","150","","0","1","null","null","arrowup","[0.15,0.85,0.325,0.675]","","",""
"sailing-trial","385","1458861","0.0-11.0-348.0","","","","false","","","","","","","","","","252.89999997615814","","109.5","","0","0","arrowleft","0","arrowleft","[0.15,0.85,0.325,0.675]","","",""
"sailing-trial","386","1460546","0.0-11.0-349.0","","","","false","","","","","","","","","","null","","194.09999990463257","","2","0","null","null","arrowup","[0.15,0.85,0.325,0.675]","","",""
"sailing-trial","387","1465756","0.0-11.0-350.0","","","","false","","","","","","","","","","1149","","24.5","","2","0","arrowright","1","arrowleft","[0.15,0.85,0.325,0.675]","","",""
"sailing-trial","388","1468204","0.0-11.0-351.0","","","","false","","","","","","","","","","null","","888.4000000953674","","3","1","null","null","arrowup","[0.15,0.85,0.325,0.675]","","",""
"sailing-trial","389","1471170","0.0-11.0-352.0","","","","false","","","","","","","","","","129.60000002384186","","167.29999995231628","","3","1","arrowright","1","arrowright","[0.15,0.85,0.325,0.675]","","",""
"sailing-trial","390","1473759","0.0-11.0-353.0","","","","false","","","","","","","","","","null","","1033.5999999046326","","1","1","null","null","arrowup","[0.15,0.85,0.325,0.675]","","",""
"sailing-trial","391","1477535","0.0-11.0-354.0","","","","false","","","","","","","","","","285.10000002384186","","91.5","","3","0","arrowright","1","arrowright","[0.15,0.85,0.325,0.675]","","",""
"sailing-trial","392","1478684","0.0-11.0-355.0","","","","false","","","","","","","","","","null","","102.70000004768372","","0","0","null","null","arrowup","[0.15,0.85,0.325,0.675]","","",""
"sailing-trial","393","1482925","0.0-11.0-356.0","","","","false","","","","","","","","","","141.30000007152557","","63.299999952316284","","2","0","arrowright","1","arrowleft","[0.15,0.85,0.325,0.675]","","",""
"sailing-trial","394","1485971","0.0-11.0-357.0","","","","false","","","","","","","","","","null","","1338.6000000238419","","2","1","null","null","arrowup","[0.15,0.85,0.325,0.675]","","",""
"sailing-trial","395","1489010","0.0-11.0-358.0","","","","false","","","","","","","","","","233.30000007152557","","152.19999992847443","","1","1","arrowleft","0","arrowright","[0.15,0.85,0.325,0.675]","","",""
"sailing-trial","396","1491761","0.0-11.0-359.0","","","","false","","","","","","","","","","null","","1664.2999999523163","","3","0","null","null","arrowup","[0.15,0.85,0.325,0.675]","","",""
"sailing-trial","397","1495518","0.0-11.0-360.0","","","","false","","","","","","","","","","1044.3999999761581","","194.10000002384186","","1","1","arrowleft","0","arrowright","[0.15,0.85,0.325,0.675]","","",""
"sailing-trial","398","1497057","0.0-11.0-361.0","","","","false","","","","","","","","","","null","","399.39999997615814","","2","0","null","null","arrowup","[0.15,0.85,0.325,0.675]","","",""
"sailing-trial","399","1499932","0.0-11.0-362.0","","","","false","","","","","","","","","","185.39999997615814","","24.899999976158142","","1","1","arrowleft","0","arrowright","[0.15,0.85,0.325,0.675]","","",""
"sailing-trial","400","1504715","0.0-11.0-363.0","","","","false","","","","","","","","","","null","","3175.5","","2","1","null","null","arrowup","[0.15,0.85,0.325,0.675]","","",""
"sailing-trial","401","1507913","0.0-11.0-364.0","","","","false","","","","","","","","","","35.60000002384186","","181.5","","1","1","arrowleft","0","arrowright","[0.15,0.85,0.325,0.675]","","",""
"sailing-trial","402","1509678","0.0-11.0-365.0","","","","false","","","","","","","","","","null","","123.80000007152557","","3","1","null","null","arrowup","[0.15,0.85,0.325,0.675]","","",""
"sailing-trial","403","1512935","0.0-11.0-366.0","","","","false","","","","","","","","","","266.10000002384186","","256.8000000715256","","1","1","arrowleft","0","arrowright","[0.325,0.675,0.15,0.85]","","",""
"sailing-trial","404","1515195","0.0-11.0-367.0","","","","false","","","","","","","","","","null","","238.80000007152557","","3","1","null","null","arrowup","[0.325,0.675,0.15,0.85]","","",""
"sailing-trial","405","1518170","0.0-11.0-368.0","","","","false","","","","","","","","","","113.09999990463257","","301.1999999284744","","3","1","arrowright","1","arrowright","[0.325,0.675,0.15,0.85]","","",""
"sailing-trial","406","1519831","0.0-11.0-369.0","","","","false","","","","","","","","","","null","","415.59999990463257","","0","0","null","null","arrowup","[0.325,0.675,0.15,0.85]","","",""
"sailing-trial","407","1522058","0.0-11.0-370.0","","","","false","","","","","","","","","","13.200000047683716","","114.60000002384186","","0","0","arrowleft","0","arrowleft","[0.325,0.675,0.15,0.85]","","",""
"sailing-trial","408","1523448","0.0-11.0-371.0","","","","false","","","","","","","","","","null","","31.300000071525574","","2","0","null","null","arrowup","[0.325,0.675,0.15,0.85]","","",""
"sailing-trial","409","1526297","0.0-11.0-372.0","","","","false","","","","","","","","","","6.300000071525574","","249.79999995231628","","1","1","arrowleft","0","arrowright","[0.325,0.675,0.15,0.85]","","",""
"sailing-trial","410","1528039","0.0-11.0-373.0","","","","false","","","","","","","","","","null","","379.2000000476837","","1","0","null","null","arrowup","[0.325,0.675,0.15,0.85]","","",""
"sailing-trial","411","1531307","0.0-11.0-374.0","","","","false","","","","","","","","","","243.39999997615814","","173.89999997615814","","3","1","arrowright","1","arrowright","[0.325,0.675,0.15,0.85]","","",""
"sailing-trial","412","1532521","0.0-11.0-375.0","","","","false","","","","","","","","","","null","","137","","1","0","null","null","arrowup","[0.325,0.675,0.15,0.85]","","",""
"sailing-trial","413","1535661","0.0-11.0-376.0","","","","false","","","","","","","","","","321.2999999523163","","120.20000004768372","","1","1","arrowleft","0","arrowright","[0.325,0.675,0.15,0.85]","","",""
"sailing-trial","414","1537404","0.0-11.0-377.0","","","","false","","","","","","","","","","null","","158.5","","3","1","null","null","arrowup","[0.325,0.675,0.15,0.85]","","",""
"sailing-trial","415","1540139","0.0-11.0-378.0","","","","false","","","","","","","","","","489.6999999284744","","49","","2","0","arrowright","1","arrowleft","[0.325,0.675,0.15,0.85]","","",""
"sailing-trial","416","1547241","0.0-11.0-379.0","","","","false","","","","","","","","","","null","","46.39999997615814","","1","1","null","null","arrowup","[0.325,0.675,0.15,0.85]","","",""
"sailing-trial","417","1550394","0.0-11.0-380.0","","","","false","","","","","","","","","","63.60000002384186","","275.89999997615814","","0","1","arrowleft","0","arrowleft","[0.325,0.675,0.15,0.85]","","",""
"sailing-trial","418","1551772","0.0-11.0-381.0","","","","false","","","","","","","","","","null","","217.30000007152557","","2","0","null","null","arrowup","[0.325,0.675,0.15,0.85]","","",""
"sailing-trial","419","1554526","0.0-11.0-382.0","","","","false","","","","","","","","","","505.60000002384186","","40.799999952316284","","2","0","arrowright","1","arrowleft","[0.325,0.675,0.15,0.85]","","",""
"sailing-trial","420","1555767","0.0-11.0-383.0","","","","false","","","","","","","","","","null","","92.60000002384186","","0","0","null","null","arrowup","[0.325,0.675,0.15,0.85]","","",""
"sailing-trial","421","1558091","0.0-11.0-384.0","","","","false","","","","","","","","","","134.39999997615814","","93.79999995231628","","0","0","arrowleft","0","arrowleft","[0.15,0.85,0.325,0.675]","","",""
"sailing-trial","422","1560071","0.0-11.0-385.0","","","","false","","","","","","","","","","null","","212.89999997615814","","1","1","null","null","arrowup","[0.15,0.85,0.325,0.675]","","",""
"sailing-trial","423","1563787","0.0-11.0-386.0","","","","false","","","","","","","","","","315.10000002384186","","578.5","","3","1","arrowright","1","arrowright","[0.15,0.85,0.325,0.675]","","",""
"sailing-trial","424","1564909","0.0-11.0-387.0","","","","false","","","","","","","","","","null","","34.10000002384186","","2","0","null","null","arrowup","[0.15,0.85,0.325,0.675]","","",""
"sailing-trial","425","1567917","0.0-11.0-388.0","","","","false","","","","","","","","","","401.90000009536743","","90","","3","0","arrowright","1","arrowright","[0.15,0.85,0.325,0.675]","","",""
"sailing-trial","426","1569651","0.0-11.0-389.0","","","","false","","","","","","","","","","null","","559.8999999761581","","1","0","null","null","arrowup","[0.15,0.85,0.325,0.675]","","",""
"sailing-trial","427","1572785","0.0-11.0-390.0","","","","false","","","","","","","","","","69.29999995231628","","210.30000007152557","","0","1","arrowleft","0","arrowleft","[0.15,0.85,0.325,0.675]","","",""
"sailing-trial","428","1575391","0.0-11.0-391.0","","","","false","","","","","","","","","","null","","944.2000000476837","","2","1","null","null","arrowup","[0.15,0.85,0.325,0.675]","","",""
"sailing-trial","429","1578242","0.0-11.0-392.0","","","","false","","","","","","","","","","259.89999997615814","","186.60000002384186","","0","0","arrowleft","0","arrowleft","[0.15,0.85,0.325,0.675]","","",""
"sailing-trial","430","1579357","0.0-11.0-393.0","","","","false","","","","","","","","","","null","","3.600000023841858","","0","0","null","null","arrowup","[0.15,0.85,0.325,0.675]","","",""
"sailing-trial","431","1581841","0.0-11.0-394.0","","","","false","","","","","","","","","","232.79999995231628","","69.5","","0","0","arrowleft","0","arrowleft","[0.15,0.85,0.325,0.675]","","",""
"sailing-trial","432","1583132","0.0-11.0-395.0","","","","false","","","","","","","","","","null","","125.10000002384186","","0","0","null","null","arrowup","[0.15,0.85,0.325,0.675]","","",""
"sailing-trial","433","1586303","0.0-11.0-396.0","","","","false","","","","","","","","","","729.3999999761581","","113","","2","0","arrowright","1","arrowleft","[0.15,0.85,0.325,0.675]","","",""
"sailing-trial","434","1587339","0.0-11.0-397.0","","","","false","","","","","","","","","","null","","4.200000047683716","","0","0","null","null","arrowup","[0.15,0.85,0.325,0.675]","","",""
"sailing-trial","435","1590908","0.0-11.0-398.0","","","","false","","","","","","","","","","165.10000002384186","","4.799999952316284","","1","1","arrowleft","0","arrowright","[0.15,0.85,0.325,0.675]","","",""
"sailing-trial","436","1594128","0.0-11.0-399.0","","","","false","","","","","","","","","","null","","1659.2999999523163","","1","1","null","null","arrowup","[0.15,0.85,0.325,0.675]","","",""
"instructions","437","1599625","0.0-12.0","","","","","","","","","","5494.899999976158","","","","","","","","","","","","","","","","[{""page_index"":0,""viewing_time"":5494.100000023842}]"
"survey-debrief","438","1684301","0.0-13.0","","","","","","","","","","84671.20000004768","","","","","","","","","","","","","","{""difficulty"":""5"",""fun"":""4"",""clarity"":""5"",""strategy"":""N/A"",""feedback"":""N/A""}","",""
