"trial_type","trial_index","time_elapsed","internal_node_id","value","metadata","success","timeout","failed_images","failed_audio","failed_video","browser_interaction","low_quality","rt","stimulus","response","button_pressed","island_rt","island_response","boat_rt","boat_response","boat","reward","island_key","island","boat_key","reward_probabilities","responses","num_errors","view_history"
"pavlovia","0","11","0.0-0.0","","","","","","","","","","","","","","","","","","","","","","","","","",""
"call-function","1","11","0.0-1.0","","{""task_version"":""sailing_part1_v1"",""task_condition"":""good"",""boats"":[""A"",""C"",""B"",""D""],""boats_demo"":[""E"",""G"",""H"",""F""],""islands"":[""B"",""A""],""subject_id"":""14735"",""age"":""16"",""gender"":""Female""}","","","","","","","","","","","","","","","","","","","","","","","",""
"preload","2","2773","0.0-2.0","","","true","false","[]","[]","[]","[{""event"":""fullscreenenter"",""trial"":3,""time"":7005}]","false","","","","","","","","","","","","","","","","",""
"fullscreen","3","7984","0.0-3.0","","","true","","","","","","","","","","","","","","","","","","","","","","",""
"audio-keyboard-response","4","14938","0.0-4.0-0.0","","","","","","","","","","6948.57142857143","audio/beep_loop.wav"," ","","","","","","","","","","","","","",""
"audio-test","5","17298","0.0-4.0-1.0","","","","","","","","","","null","audio/turtle.mp3","","3","","","","","","","","","","","","",""
"audio-test","6","19731","0.0-4.0-2.0","","","","","","","","","","null","audio/shark.mp3","","2","","","","","","","","","","","","",""
"sailing-instructions","7","84489","0.0-5.0-0.0-0.0","","","","","","","","","","","","","","null","null","null","null","null","null","","","","","","",""
"sailing-trial","8","88351","0.0-5.0-0.0-1.0-0.0","","","","false","","","","","","","","","","2760.400000002235","","null","","null","null","arrowleft","0","null","null","","",""
"sailing-trial","9","90781","0.0-5.0-0.0-1.0-1.0","","","","false","","","","","","","","","","1329.300000000745","","null","","null","null","arrowright","1","null","null","","",""
"sailing-trial","10","94114","0.0-5.0-0.0-1.0-2.0","","","","false","","","","","","","","","","2212","","null","","null","null","arrowright","1","null","null","","",""
"sailing-instructions","11","151225","0.0-5.0-0.0-2.0","","","","","","","","","","","","","","null","null","null","null","0","null","","","","","","",""
"sailing-trial","12","157067","0.0-5.0-0.0-3.0-0.0","","","","false","","","","","","","","","","null","","2374.199999999255","","2","1","null","null","arrowleft","[1,1,1,1]","","",""
"sailing-trial","13","160986","0.0-5.0-0.0-3.0-1.0","","","","false","","","","","","","","","","null","","906.5999999977648","","3","1","null","null","arrowright","[1,1,1,1]","","",""
"sailing-trial","14","166340","0.0-5.0-0.0-3.0-2.0","","","","false","","","","","","","","","","null","","2313","","3","0","null","null","arrowright","[0,0,0,0]","","",""
"sailing-instructions","15","174960","0.0-5.0-0.0-4.0","","","","","","","","","","","","","","null","null","null","null","null","null","","","","","","",""
"sailing-comprehension","16","240871","0.0-5.0-0.0-5.0","","","","","","","","","","61502.10000000149","","","","","","","","","","","","","","[""true"",""false"",""false"",""true""]","1",""
"sailing-instructions","17","274301","0.0-5.0-0.1-0.1","","","","","","","","","","","","","","null","null","null","null","null","null","","","","","","",""
"sailing-trial","18","276953","0.0-5.0-0.1-1.1-0.1","","","","false","","","","","","","","","","1472.699999999255","","null","","null","null","arrowleft","0","null","null","","",""
"sailing-trial","19","279045","0.0-5.0-0.1-1.1-1.1","","","","false","","","","","","","","","","990","","null","","null","null","arrowright","1","null","null","","",""
"sailing-trial","20","280596","0.0-5.0-0.1-1.1-2.1","","","","false","","","","","","","","","","456.79999999701977","","null","","null","null","arrowleft","0","null","null","","",""
"sailing-instructions","21","325489","0.0-5.0-0.1-2.1","","","","","","","","","","","","","","null","null","null","null","0","null","","","","","","",""
"sailing-trial","22","329233","0.0-5.0-0.1-3.1-0.1","","","","false","","","","","","","","","","null","","1318.0999999977648","","2","1","null","null","arrowleft","[1,1,1,1]","","",""
"sailing-trial","23","331830","0.0-5.0-0.1-3.1-1.1","","","","false","","","","","","","","","","null","","314.29999999701977","","3","1","null","null","arrowright","[1,1,1,1]","","",""
"sailing-trial","24","334930","0.0-5.0-0.1-3.1-2.1","","","","false","","","","","","","","","","null","","890.3000000007451","","3","0","null","null","arrowright","[0,0,0,0]","","",""
"sailing-instructions","25","342790","0.0-5.0-0.1-4.1","","","","","","","","","","","","","","null","null","null","null","null","null","","","","","","",""
"sailing-comprehension","26","355491","0.0-5.0-0.1-5.1","","","","","","","","","","8566.199999999255","","","","","","","","","","","","","","[""true"",""true"",""false"",""true""]","0",""
"sailing-instructions","27","426380","0.0-6.0-0.0-0.0","","","","","","","","","","","","","","null","null","null","null","null","null","","","","","","",""
"sailing-comprehension","28","438426","0.0-6.0-0.0-1.0","","","","","","","","","","10583","","","","","","","","","","","","","","[""true"",""false"",""true""]","0",""
"sailing-instructions","29","459950","0.0-7.0-0.0-0.0","","","","","","","","","","","","","","null","null","null","null","null","null","","","","","","",""
"sailing-trial","30","469445","0.0-7.0-0.0-1.0-0.0","","","","false","","","","","","","","","","null","","6500.300000000745","","0","0","null","null","arrowup","[0.2,0.8,0.2,0.8]","","",""
"sailing-trial","31","474394","0.0-7.0-0.0-1.0-1.0","","","","false","","","","","","","","","","null","","2658.699999999255","","1","1","null","null","arrowup","[0.2,0.8,0.2,0.8]","","",""
"sailing-trial","32","478558","0.0-7.0-0.0-1.0-2.0","","","","false","","","","","","","","","","null","","1506.1000000014901","","2","1","null","null","arrowup","[0.2,0.8,0.2,0.8]","","",""
"sailing-trial","33","481959","0.0-7.0-0.0-1.0-3.0","","","","false","","","","","","","","","","null","","1265.800000000745","","3","1","null","null","arrowup","[0.2,0.8,0.2,0.8]","","",""
"sailing-comprehension","34","502451","0.0-7.0-0.0-2.0","","","","","","","","","","19241.89999999851","","","","","","","","","","","","","","[""true""]","1",""
"sailing-instructions","35","516870","0.0-7.0-0.1-0.1","","","","","","","","","","","","","","null","null","null","null","null","null","","","","","","",""
"sailing-trial","36","519840","0.0-7.0-0.1-1.1-0.1","","","","false","","","","","","","","","","null","","901.6999999992549","","0","0","null","null","arrowup","[0.2,0.8,0.2,0.8]","","",""
"sailing-trial","37","522496","0.0-7.0-0.1-1.1-1.1","","","","false","","","","","","","","","","null","","395.6000000014901","","1","1","null","null","arrowup","[0.2,0.8,0.2,0.8]","","",""
"sailing-trial","38","525262","0.0-7.0-0.1-1.1-2.1","","","","false","","","","","","","","","","null","","533.0999999977648","","2","0","null","null","arrowup","[0.2,0.8,0.2,0.8]","","",""
"sailing-trial","39","527743","0.0-7.0-0.1-1.1-3.1","","","","false","","","","","","","","","","null","","1093.2000000029802","","3","0","null","null","arrowup","[0.2,0.8,0.2,0.8]","","",""
"sailing-comprehension","40","530729","0.0-7.0-0.1-2.1","","","","","","","","","","2178.5","","","","","","","","","","","","","","[""false""]","0",""
"sailing-instructions","41","545589","0.0-8.0-0.0-0.0","","","","","","","","","","","","","","null","null","null","null","null","null","","","","","","",""
"sailing-comprehension","42","557923","0.0-8.0-0.0-1.0","","","","","","","","","","5132.199999999255","","","","","","","","","","","","","","[""false""]","1",""
"sailing-instructions","43","571608","0.0-8.0-0.1-0.1","","","","","","","","","","","","","","null","null","null","null","null","null","","","","","","",""
"sailing-comprehension","44","575576","0.0-8.0-0.1-1.1","","","","","","","","","","2932.7999999970198","","","","","","","","","","","","","","[""true""]","0",""
"sailing-instructions","45","603160","0.0-9.0-0.0-0.0","","","","","","","","","","","","","","null","null","null","null","null","null","","","","","","",""
"sailing-trial","46","611436","0.0-9.0-0.0-1.0-0.0","","","","false","","","","","","","","","","1063.5","","738.3000000007451","","1","1","arrowleft","0","arrowright","[0.2,0.8,0.2,0.8]","","",""
"sailing-trial","47","616570","0.0-9.0-0.0-1.0-1.0","","","","false","","","","","","","","","","1423.5","","525","","2","1","arrowright","1","arrowleft","[0.2,0.8,0.2,0.8]","","",""
"sailing-trial","48","619945","0.0-9.0-0.0-1.0-2.0","","","","false","","","","","","","","","","null","","979.1000000014901","","0","0","null","null","arrowup","[0.2,0.8,0.2,0.8]","","",""
"sailing-trial","49","624338","0.0-9.0-0.0-1.0-3.0","","","","false","","","","","","","","","","886.6000000014901","","595.9000000022352","","3","1","arrowright","1","arrowright","[0.2,0.8,0.2,0.8]","","",""
"sailing-trial","50","627220","0.0-9.0-0.0-1.0-4.0","","","","false","","","","","","","","","","null","","768.8000000007451","","3","1","null","null","arrowup","[0.2,0.8,0.2,0.8]","","",""
"sailing-trial","51","630334","0.0-9.0-0.0-1.0-5.0","","","","false","","","","","","","","","","534.1000000014901","","42.900000002235174","","0","0","arrowleft","0","arrowleft","[0.2,0.8,0.2,0.8]","","",""
"sailing-instructions","52","659698","0.0-10.0","","","","","","","","","","","","","","null","null","null","null","null","null","","","","","","",""
"sailing-trial","53","665069","0.0-11.0-0.0","","","","false","","","","","","","","","","1277.199999999255","","302.5","","3","0","arrowright","1","arrowright","[0.85,0.15,0.325,0.675]","","",""
"sailing-trial","54","667522","0.0-11.0-1.0","","","","false","","","","","","","","","","null","","884.6000000014901","","2","0","null","null","arrowup","[0.85,0.15,0.325,0.675]","","",""
"sailing-trial","55","670894","0.0-11.0-2.0","","","","false","","","","","","","","","","660.6999999992549","","5.199999999254942","","1","0","arrowleft","0","arrowright","[0.85,0.15,0.325,0.675]","","",""
"sailing-trial","56","673773","0.0-11.0-3.0","","","","false","","","","","","","","","","null","","939","","0","1","null","null","arrowup","[0.85,0.15,0.325,0.675]","","",""
"sailing-trial","57","679325","0.0-11.0-4.0","","","","false","","","","","","","","","","888.1000000014901","","1709.5","","0","1","arrowleft","0","arrowleft","[0.85,0.15,0.325,0.675]","","",""
"sailing-trial","58","681873","0.0-11.0-5.0","","","","false","","","","","","","","","","null","","933.3999999985099","","2","0","null","null","arrowup","[0.85,0.15,0.325,0.675]","","",""
"sailing-trial","59","686652","0.0-11.0-6.0","","","","false","","","","","","","","","","731.8000000007451","","1412.800000000745","","0","0","arrowleft","0","arrowleft","[0.85,0.15,0.325,0.675]","","",""
"sailing-trial","60","689491","0.0-11.0-7.0","","","","false","","","","","","","","","","null","","948","","0","1","null","null","arrowup","[0.85,0.15,0.325,0.675]","","",""
"sailing-trial","61","694191","0.0-11.0-8.0","","","","false","","","","","","","","","","709.6999999992549","","1071.300000000745","","0","1","arrowleft","0","arrowleft","[0.85,0.15,0.325,0.675]","","",""
"sailing-trial","62","696791","0.0-11.0-9.0","","","","false","","","","","","","","","","null","","807.8000000007451","","2","1","null","null","arrowup","[0.85,0.15,0.325,0.675]","","",""
"sailing-trial","63","700335","0.0-11.0-10.0","","","","false","","","","","","","","","","710.3000000007451","","277.19999999925494","","1","0","arrowleft","0","arrowright","[0.85,0.15,0.325,0.675]","","",""
"sailing-trial","64","703293","0.0-11.0-11.0","","","","false","","","","","","","","","","null","","1073.800000000745","","1","1","null","null","arrowup","[0.85,0.15,0.325,0.675]","","",""
"sailing-trial","65","708226","0.0-11.0-12.0","","","","false","","","","","","","","","","834.0999999977648","","1209.300000000745","","0","1","arrowleft","0","arrowleft","[0.85,0.15,0.325,0.675]","","",""
"sailing-trial","66","710876","0.0-11.0-13.0","","","","false","","","","","","","","","","null","","764.4000000022352","","0","1","null","null","arrowup","[0.85,0.15,0.325,0.675]","","",""
"sailing-trial","67","714843","0.0-11.0-14.0","","","","false","","","","","","","","","","700.1999999992549","","395.69999999925494","","0","1","arrowleft","0","arrowleft","[0.85,0.15,0.325,0.675]","","",""
"sailing-trial","68","717146","0.0-11.0-15.0","","","","false","","","","","","","","","","null","","872","","3","0","null","null","arrowup","[0.85,0.15,0.325,0.675]","","",""
"sailing-trial","69","721628","0.0-11.0-16.0","","","","false","","","","","","","","","","725.1999999992549","","794","","0","1","arrowleft","0","arrowleft","[0.85,0.15,0.325,0.675]","","",""
"sailing-trial","70","724106","0.0-11.0-17.0","","","","false","","","","","","","","","","null","","964","","3","0","null","null","arrowup","[0.85,0.15,0.325,0.675]","","",""
"sailing-trial","71","727926","0.0-11.0-18.0","","","","false","","","","","","","","","","510.5","","310.6000000014901","","0","1","arrowleft","0","arrowleft","[0.85,0.15,0.325,0.675]","","",""
"sailing-trial","72","730817","0.0-11.0-19.0","","","","false","","","","","","","","","","null","","1344.5","","1","0","null","null","arrowup","[0.85,0.15,0.325,0.675]","","",""
"sailing-trial","73","734746","0.0-11.0-20.0","","","","false","","","","","","","","","","642.5","","355.30000000074506","","0","1","arrowleft","0","arrowleft","[0.85,0.15,0.325,0.675]","","",""
"sailing-trial","74","737093","0.0-11.0-21.0","","","","false","","","","","","","","","","null","","865.5999999977648","","2","0","null","null","arrowup","[0.85,0.15,0.325,0.675]","","",""
"sailing-trial","75","741044","0.0-11.0-22.0","","","","false","","","","","","","","","","466.80000000074506","","559.4000000022352","","0","1","arrowleft","0","arrowleft","[0.85,0.15,0.325,0.675]","","",""
"sailing-trial","76","743333","0.0-11.0-23.0","","","","false","","","","","","","","","","null","","838.1000000014901","","2","0","null","null","arrowup","[0.85,0.15,0.325,0.675]","","",""
"sailing-trial","77","747880","0.0-11.0-24.0","","","","false","","","","","","","","","","563.6999999992549","","1290.7000000029802","","0","0","arrowleft","0","arrowleft","[0.325,0.675,0.85,0.15]","","",""
"sailing-trial","78","750199","0.0-11.0-25.0","","","","false","","","","","","","","","","null","","851.3000000007451","","3","0","null","null","arrowup","[0.325,0.675,0.85,0.15]","","",""
"sailing-trial","79","753616","0.0-11.0-26.0","","","","false","","","","","","","","","","629.1000000014901","","205.5","","0","0","arrowleft","0","arrowleft","[0.325,0.675,0.85,0.15]","","",""
"sailing-trial","80","755887","0.0-11.0-27.0","","","","false","","","","","","","","","","null","","896.1999999992549","","0","0","null","null","arrowup","[0.325,0.675,0.85,0.15]","","",""
"sailing-trial","81","759699","0.0-11.0-28.0","","","","false","","","","","","","","","","587","","265.19999999925494","","2","1","arrowright","1","arrowleft","[0.325,0.675,0.85,0.15]","","",""
"sailing-trial","82","761921","0.0-11.0-29.0","","","","false","","","","","","","","","","null","","798.3000000007451","","2","0","null","null","arrowup","[0.325,0.675,0.85,0.15]","","",""
"sailing-trial","83","765379","0.0-11.0-30.0","","","","false","","","","","","","","","","471.20000000298023","","15.099999997764826","","2","1","arrowright","1","arrowleft","[0.325,0.675,0.85,0.15]","","",""
"sailing-trial","84","768048","0.0-11.0-31.0","","","","false","","","","","","","","","","null","","719.5","","0","1","null","null","arrowup","[0.325,0.675,0.85,0.15]","","",""
"sailing-trial","85","771206","0.0-11.0-32.0","","","","false","","","","","","","","","","570.6999999992549","","36","","2","0","arrowright","1","arrowleft","[0.325,0.675,0.85,0.15]","","",""
"sailing-trial","86","774535","0.0-11.0-33.0","","","","false","","","","","","","","","","null","","845.3000000007451","","3","0","null","null","arrowup","[0.325,0.675,0.85,0.15]","","",""
"sailing-trial","87","778598","0.0-11.0-34.0","","","","false","","","","","","","","","","698.5","","488.6000000014901","","2","1","arrowright","1","arrowleft","[0.325,0.675,0.85,0.15]","","",""
"sailing-trial","88","780886","0.0-11.0-35.0","","","","false","","","","","","","","","","null","","761.8000000007451","","1","0","null","null","arrowup","[0.325,0.675,0.85,0.15]","","",""
"sailing-trial","89","785832","0.0-11.0-36.0","","","","false","","","","","","","","","","613.8000000007451","","1386.199999999255","","2","1","arrowright","1","arrowleft","[0.325,0.675,0.85,0.15]","","",""
"sailing-trial","90","788250","0.0-11.0-37.0","","","","false","","","","","","","","","","null","","897.8999999985099","","3","0","null","null","arrowup","[0.325,0.675,0.85,0.15]","","",""
"sailing-trial","91","791917","0.0-11.0-38.0","","","","false","","","","","","","","","","531","","72.60000000149012","","2","1","arrowright","1","arrowleft","[0.325,0.675,0.85,0.15]","","",""
"sailing-trial","92","795016","0.0-11.0-39.0","","","","false","","","","","","","","","","null","","1102.800000000745","","1","1","null","null","arrowup","[0.325,0.675,0.85,0.15]","","",""
"sailing-trial","93","798804","0.0-11.0-40.0","","","","false","","","","","","","","","","671.1000000014901","","412.4000000022352","","2","0","arrowright","1","arrowleft","[0.325,0.675,0.85,0.15]","","",""
"sailing-trial","94","801850","0.0-11.0-41.0","","","","false","","","","","","","","","","null","","1122.5999999977648","","0","1","null","null","arrowup","[0.325,0.675,0.85,0.15]","","",""
"sailing-trial","95","805534","0.0-11.0-42.0","","","","false","","","","","","","","","","739.6999999992549","","31.199999999254942","","2","1","arrowright","1","arrowleft","[0.325,0.675,0.85,0.15]","","",""
"sailing-trial","96","808484","0.0-11.0-43.0","","","","false","","","","","","","","","","null","","759.1999999992549","","3","1","null","null","arrowup","[0.325,0.675,0.85,0.15]","","",""
"sailing-trial","97","813717","0.0-11.0-44.0","","","","false","","","","","","","","","","634.6000000014901","","1603.699999999255","","2","1","arrowright","1","arrowleft","[0.85,0.15,0.325,0.675]","","",""
"sailing-trial","98","816434","0.0-11.0-45.0","","","","false","","","","","","","","","","null","","843","","3","1","null","null","arrowup","[0.85,0.15,0.325,0.675]","","",""
"sailing-trial","99","820551","0.0-11.0-46.0","","","","false","","","","","","","","","","663.6000000014901","","532.3999999985099","","2","1","arrowright","1","arrowleft","[0.85,0.15,0.325,0.675]","","",""
"sailing-trial","100","823123","0.0-11.0-47.0","","","","false","","","","","","","","","","null","","1123.3999999985099","","2","0","null","null","arrowup","[0.85,0.15,0.325,0.675]","","",""
"sailing-trial","101","827130","0.0-11.0-48.0","","","","false","","","","","","","","","","992.1000000014901","","485.5","","2","0","arrowright","1","arrowleft","[0.85,0.15,0.325,0.675]","","",""
"sailing-trial","102","829802","0.0-11.0-49.0","","","","false","","","","","","","","","","null","","858.3000000007451","","0","1","null","null","arrowup","[0.85,0.15,0.325,0.675]","","",""
"sailing-trial","103","833470","0.0-11.0-50.0","","","","false","","","","","","","","","","743","","408.5","","1","0","arrowleft","0","arrowright","[0.85,0.15,0.325,0.675]","","",""
"sailing-trial","104","836487","0.0-11.0-51.0","","","","false","","","","","","","","","","null","","1074.6000000014901","","3","1","null","null","arrowup","[0.85,0.15,0.325,0.675]","","",""
"sailing-trial","105","840018","0.0-11.0-52.0","","","","false","","","","","","","","","","564.6000000014901","","43.29999999701977","","2","1","arrowright","1","arrowleft","[0.85,0.15,0.325,0.675]","","",""
"sailing-trial","106","842720","0.0-11.0-53.0","","","","false","","","","","","","","","","null","","922.5999999977648","","0","1","null","null","arrowup","[0.85,0.15,0.325,0.675]","","",""
"sailing-trial","107","846635","0.0-11.0-54.0","","","","false","","","","","","","","","","549.2999999970198","","460.80000000074506","","2","1","arrowright","1","arrowleft","[0.85,0.15,0.325,0.675]","","",""
"sailing-trial","108","848885","0.0-11.0-55.0","","","","false","","","","","","","","","","null","","805","","1","0","null","null","arrowup","[0.85,0.15,0.325,0.675]","","",""
"sailing-trial","109","852218","0.0-11.0-56.0","","","","false","","","","","","","","","","575.8000000007451","","295.6000000014901","","2","0","arrowright","1","arrowleft","[0.85,0.15,0.325,0.675]","","",""
"sailing-trial","110","855254","0.0-11.0-57.0","","","","false","","","","","","","","","","null","","1057.800000000745","","1","1","null","null","arrowup","[0.85,0.15,0.325,0.675]","","",""
"sailing-trial","111","858814","0.0-11.0-58.0","","","","false","","","","","","","","","","476.80000000074506","","337.9000000022352","","1","0","arrowleft","0","arrowright","[0.85,0.15,0.325,0.675]","","",""
"sailing-trial","112","861390","0.0-11.0-59.0","","","","false","","","","","","","","","","null","","747.8000000007451","","0","1","null","null","arrowup","[0.85,0.15,0.325,0.675]","","",""
"sailing-trial","113","864560","0.0-11.0-60.0","","","","false","","","","","","","","","","472.0999999977648","","151.59999999776483","","2","0","arrowright","1","arrowleft","[0.675,0.325,0.15,0.85]","","",""
"sailing-trial","114","868324","0.0-11.0-61.0","","","","false","","","","","","","","","","null","","1906.6000000014901","","0","1","null","null","arrowup","[0.675,0.325,0.15,0.85]","","",""
"sailing-trial","115","871562","0.0-11.0-62.0","","","","false","","","","","","","","","","679.6999999992549","","186.60000000149012","","0","0","arrowleft","0","arrowleft","[0.675,0.325,0.15,0.85]","","",""
"sailing-trial","116","874010","0.0-11.0-63.0","","","","false","","","","","","","","","","null","","875.4000000022352","","3","1","null","null","arrowup","[0.675,0.325,0.15,0.85]","","",""
"sailing-trial","117","877859","0.0-11.0-64.0","","","","false","","","","","","","","","","585.1999999992549","","364.3999999985099","","3","1","arrowright","1","arrowright","[0.675,0.325,0.15,0.85]","","",""
"sailing-trial","118","880527","0.0-11.0-65.0","","","","false","","","","","","","","","","null","","841.3000000007451","","0","1","null","null","arrowup","[0.675,0.325,0.15,0.85]","","",""
"sailing-trial","119","884929","0.0-11.0-66.0","","","","false","","","","","","","","","","489.5","","840.3000000007451","","3","1","arrowright","1","arrowright","[0.675,0.325,0.15,0.85]","","",""
"sailing-trial","120","887660","0.0-11.0-67.0","","","","false","","","","","","","","","","null","","863.6999999992549","","1","1","null","null","arrowup","[0.675,0.325,0.15,0.85]","","",""
"sailing-trial","121","891884","0.0-11.0-68.0","","","","false","","","","","","","","","","595.1999999992549","","941.6999999992549","","3","0","arrowright","1","arrowright","[0.675,0.325,0.15,0.85]","","",""
"sailing-trial","122","894680","0.0-11.0-69.0","","","","false","","","","","","","","","","null","","960.6000000014901","","1","1","null","null","arrowup","[0.675,0.325,0.15,0.85]","","",""
"sailing-trial","123","898611","0.0-11.0-70.0","","","","false","","","","","","","","","","790.2000000029802","","327.5","","3","1","arrowright","1","arrowright","[0.675,0.325,0.15,0.85]","","",""
"sailing-trial","124","900619","0.0-11.0-71.0","","","","false","","","","","","","","","","null","","707.1999999992549","","2","0","null","null","arrowup","[0.675,0.325,0.15,0.85]","","",""
"sailing-trial","125","904343","0.0-11.0-72.0","","","","false","","","","","","","","","","758.9000000022352","","461.5","","1","0","arrowleft","0","arrowright","[0.675,0.325,0.15,0.85]","","",""
"sailing-trial","126","906434","0.0-11.0-73.0","","","","false","","","","","","","","","","null","","733.6000000014901","","2","0","null","null","arrowup","[0.675,0.325,0.15,0.85]","","",""
"sailing-trial","127","909965","0.0-11.0-74.0","","","","false","","","","","","","","","","428","","221.30000000074506","","3","1","arrowright","1","arrowright","[0.675,0.325,0.15,0.85]","","",""
"sailing-trial","128","912103","0.0-11.0-75.0","","","","false","","","","","","","","","","null","","855.5999999977648","","2","0","null","null","arrowup","[0.675,0.325,0.15,0.85]","","",""
"sailing-trial","129","916198","0.0-11.0-76.0","","","","false","","","","","","","","","","653.4000000022352","","514.8999999985099","","3","1","arrowright","1","arrowright","[0.675,0.325,0.15,0.85]","","",""
"sailing-trial","130","918236","0.0-11.0-77.0","","","","false","","","","","","","","","","null","","802.4000000022352","","1","0","null","null","arrowup","[0.675,0.325,0.15,0.85]","","",""
"sailing-trial","131","922297","0.0-11.0-78.0","","","","false","","","","","","","","","","655.3000000007451","","321.8999999985099","","3","1","arrowright","1","arrowright","[0.675,0.325,0.15,0.85]","","",""
"sailing-trial","132","924799","0.0-11.0-79.0","","","","false","","","","","","","","","","null","","715","","1","1","null","null","arrowup","[0.675,0.325,0.15,0.85]","","",""
"sailing-trial","133","928287","0.0-11.0-80.0","","","","false","","","","","","","","","","472.79999999701977","","404.70000000298023","","3","0","arrowright","1","arrowright","[0.85,0.15,0.325,0.675]","","",""
"sailing-trial","134","931480","0.0-11.0-81.0","","","","false","","","","","","","","","","null","","1824.699999999255","","2","0","null","null","arrowup","[0.85,0.15,0.325,0.675]","","",""
"sailing-trial","135","934801","0.0-11.0-82.0","","","","false","","","","","","","","","","599.5","","301.3999999985099","","1","0","arrowleft","0","arrowright","[0.85,0.15,0.325,0.675]","","",""
"sailing-trial","136","937498","0.0-11.0-83.0","","","","false","","","","","","","","","","null","","879.2000000029802","","2","1","null","null","arrowup","[0.85,0.15,0.325,0.675]","","",""
"sailing-trial","137","940724","0.0-11.0-84.0","","","","false","","","","","","","","","","498.69999999925494","","223","","2","0","arrowright","1","arrowleft","[0.85,0.15,0.325,0.675]","","",""
"sailing-trial","138","943011","0.0-11.0-85.0","","","","false","","","","","","","","","","null","","959.1999999992549","","3","0","null","null","arrowup","[0.85,0.15,0.325,0.675]","","",""
"sailing-trial","139","946517","0.0-11.0-86.0","","","","false","","","","","","","","","","420.3999999985099","","297.80000000074506","","0","1","arrowleft","0","arrowleft","[0.85,0.15,0.325,0.675]","","",""
"sailing-trial","140","949118","0.0-11.0-87.0","","","","false","","","","","","","","","","null","","794.1000000014901","","1","0","null","null","arrowup","[0.85,0.15,0.325,0.675]","","",""
"sailing-trial","141","953466","0.0-11.0-88.0","","","","false","","","","","","","","","","453.1000000014901","","990.8999999985099","","0","1","arrowleft","0","arrowleft","[0.85,0.15,0.325,0.675]","","",""
"sailing-trial","142","956016","0.0-11.0-89.0","","","","false","","","","","","","","","","null","","746.0999999977648","","3","1","null","null","arrowup","[0.85,0.15,0.325,0.675]","","",""
"sailing-trial","143","960167","0.0-11.0-90.0","","","","false","","","","","","","","","","509.19999999925494","","706.1999999992549","","0","1","arrowleft","0","arrowleft","[0.85,0.15,0.325,0.675]","","",""
"sailing-trial","144","962144","0.0-11.0-91.0","","","","false","","","","","","","","","","null","","773","","2","0","null","null","arrowup","[0.85,0.15,0.325,0.675]","","",""
"sailing-trial","145","965918","0.0-11.0-92.0","","","","false","","","","","","","","","","507.3999999985099","","169.19999999925494","","0","1","arrowleft","0","arrowleft","[0.85,0.15,0.325,0.675]","","",""
"sailing-trial","146","968148","0.0-11.0-93.0","","","","false","","","","","","","","","","null","","913.5","","3","0","null","null","arrowup","[0.85,0.15,0.325,0.675]","","",""
"sailing-trial","147","972036","0.0-11.0-94.0","","","","false","","","","","","","","","","471.8999999985099","","591","","0","1","arrowleft","0","arrowleft","[0.85,0.15,0.325,0.675]","","",""
"sailing-trial","148","974907","0.0-11.0-95.0","","","","false","","","","","","","","","","null","","1509","","1","0","null","null","arrowup","[0.85,0.15,0.325,0.675]","","",""
"sailing-trial","149","979284","0.0-11.0-96.0","","","","false","","","","","","","","","","471.30000000074506","","1038.699999999255","","0","1","arrowleft","0","arrowleft","[0.85,0.15,0.325,0.675]","","",""
"sailing-trial","150","981667","0.0-11.0-97.0","","","","false","","","","","","","","","","null","","922.2999999970198","","2","0","null","null","arrowup","[0.85,0.15,0.325,0.675]","","",""
"sailing-trial","151","985318","0.0-11.0-98.0","","","","false","","","","","","","","","","475.3999999985099","","256.70000000298023","","0","1","arrowleft","0","arrowleft","[0.675,0.325,0.15,0.85]","","",""
"sailing-trial","152","987529","0.0-11.0-99.0","","","","false","","","","","","","","","","null","","805.1999999992549","","0","0","null","null","arrowup","[0.675,0.325,0.15,0.85]","","",""
"sailing-trial","153","990936","0.0-11.0-100.0","","","","false","","","","","","","","","","522.5999999977648","","336","","0","1","arrowleft","0","arrowleft","[0.675,0.325,0.15,0.85]","","",""
"sailing-trial","154","994670","0.0-11.0-101.0","","","","false","","","","","","","","","","null","","1748.800000000745","","3","1","null","null","arrowup","[0.675,0.325,0.15,0.85]","","",""
"sailing-trial","155","998504","0.0-11.0-102.0","","","","false","","","","","","","","","","585.5","","401.30000000074506","","3","1","arrowright","1","arrowright","[0.675,0.325,0.15,0.85]","","",""
"sailing-trial","156","1000826","0.0-11.0-103.0","","","","false","","","","","","","","","","null","","900.1999999992549","","0","0","null","null","arrowup","[0.675,0.325,0.15,0.85]","","",""
"sailing-trial","157","1005437","0.0-11.0-104.0","","","","false","","","","","","","","","","511","","1253.4000000022352","","3","1","arrowright","1","arrowright","[0.675,0.325,0.15,0.85]","","",""
"sailing-trial","158","1008171","0.0-11.0-105.0","","","","false","","","","","","","","","","null","","806","","0","1","null","null","arrowup","[0.675,0.325,0.15,0.85]","","",""
"sailing-trial","159","1012487","0.0-11.0-106.0","","","","false","","","","","","","","","","614.5","","846.1000000014901","","3","1","arrowright","1","arrowright","[0.675,0.325,0.15,0.85]","","",""
"sailing-trial","160","1015205","0.0-11.0-107.0","","","","false","","","","","","","","","","null","","894.1000000014901","","0","1","null","null","arrowup","[0.675,0.325,0.15,0.85]","","",""
"sailing-trial","161","1018600","0.0-11.0-108.0","","","","false","","","","","","","","","","522.8000000007451","","259.29999999701977","","1","0","arrowleft","0","arrowright","[0.675,0.325,0.15,0.85]","","",""
"sailing-trial","162","1021237","0.0-11.0-109.0","","","","false","","","","","","","","","","null","","782.5","","2","1","null","null","arrowup","[0.675,0.325,0.15,0.85]","","",""
"sailing-trial","163","1025497","0.0-11.0-110.0","","","","false","","","","","","","","","","482.4000000022352","","1297.5","","3","0","arrowright","1","arrowright","[0.675,0.325,0.15,0.85]","","",""
"sailing-trial","164","1028006","0.0-11.0-111.0","","","","false","","","","","","","","","","null","","725","","0","1","null","null","arrowup","[0.675,0.325,0.15,0.85]","","",""
"sailing-trial","165","1031569","0.0-11.0-112.0","","","","false","","","","","","","","","","436.0999999977648","","195.29999999701977","","0","1","arrowleft","0","arrowleft","[0.675,0.325,0.15,0.85]","","",""
"sailing-trial","166","1034140","0.0-11.0-113.0","","","","false","","","","","","","","","","null","","793.1999999992549","","3","1","null","null","arrowup","[0.675,0.325,0.15,0.85]","","",""
"sailing-trial","167","1038290","0.0-11.0-114.0","","","","false","","","","","","","","","","499.69999999925494","","544","","0","1","arrowleft","0","arrowleft","[0.85,0.15,0.325,0.675]","","",""
"sailing-trial","168","1040527","0.0-11.0-115.0","","","","false","","","","","","","","","","null","","895.1000000014901","","3","0","null","null","arrowup","[0.85,0.15,0.325,0.675]","","",""
"sailing-trial","169","1046608","0.0-11.0-116.0","","","","false","","","","","","","","","","423.4000000022352","","1424.3999999985099","","0","1","arrowleft","0","arrowleft","[0.85,0.15,0.325,0.675]","","",""
"sailing-trial","170","1049056","0.0-11.0-117.0","","","","false","","","","","","","","","","null","","1033.8999999985099","","1","0","null","null","arrowup","[0.85,0.15,0.325,0.675]","","",""
"sailing-trial","171","1052572","0.0-11.0-118.0","","","","false","","","","","","","","","","485.4000000022352","","501.5","","0","0","arrowleft","0","arrowleft","[0.85,0.15,0.325,0.675]","","",""
"sailing-trial","172","1055242","0.0-11.0-119.0","","","","false","","","","","","","","","","null","","1182.6000000014901","","1","0","null","null","arrowup","[0.85,0.15,0.325,0.675]","","",""
"sailing-trial","173","1058410","0.0-11.0-120.0","","","","false","","","","","","","","","","294.5999999977648","","52.900000002235174","","0","1","arrowleft","0","arrowleft","[0.85,0.15,0.325,0.675]","","",""
"sailing-trial","174","1061165","0.0-11.0-121.0","","","","false","","","","","","","","","","null","","844.6999999992549","","2","1","null","null","arrowup","[0.85,0.15,0.325,0.675]","","",""
"sailing-trial","175","1065071","0.0-11.0-122.0","","","","false","","","","","","","","","","878.1000000014901","","97.69999999925494","","0","1","arrowleft","0","arrowleft","[0.85,0.15,0.325,0.675]","","",""
"sailing-trial","176","1067257","0.0-11.0-123.0","","","","false","","","","","","","","","","null","","754.8999999985099","","1","0","null","null","arrowup","[0.85,0.15,0.325,0.675]","","",""
"sailing-trial","177","1070911","0.0-11.0-124.0","","","","false","","","","","","","","","","475.79999999701977","","107","","0","1","arrowleft","0","arrowleft","[0.85,0.15,0.325,0.675]","","",""
"sailing-trial","178","1073927","0.0-11.0-125.0","","","","false","","","","","","","","","","null","","1312.300000000745","","3","1","null","null","arrowup","[0.85,0.15,0.325,0.675]","","",""
"sailing-trial","179","1078111","0.0-11.0-126.0","","","","false","","","","","","","","","","479.69999999925494","","762","","0","1","arrowleft","0","arrowleft","[0.85,0.15,0.325,0.675]","","",""
"sailing-trial","180","1080807","0.0-11.0-127.0","","","","false","","","","","","","","","","null","","1384.7999999970198","","1","0","null","null","arrowup","[0.85,0.15,0.325,0.675]","","",""
"sailing-trial","181","1084538","0.0-11.0-128.0","","","","false","","","","","","","","","","500.3999999985099","","743.2999999970198","","0","0","arrowleft","0","arrowleft","[0.85,0.15,0.325,0.675]","","",""
"sailing-trial","182","1086787","0.0-11.0-129.0","","","","false","","","","","","","","","","null","","1008.8000000007451","","1","0","null","null","arrowup","[0.85,0.15,0.325,0.675]","","",""
"sailing-trial","183","1090363","0.0-11.0-130.0","","","","false","","","","","","","","","","405.69999999925494","","353.29999999701977","","3","1","arrowright","1","arrowright","[0.85,0.15,0.325,0.675]","","",""
"sailing-trial","184","1092401","0.0-11.0-131.0","","","","false","","","","","","","","","","null","","741.5","","2","0","null","null","arrowup","[0.85,0.15,0.325,0.675]","","",""
"sailing-trial","185","1096763","0.0-11.0-132.0","","","","false","","","","","","","","","","501.8999999985099","","1196.1000000014901","","3","0","arrowright","1","arrowright","[0.85,0.15,0.325,0.675]","","",""
"sailing-trial","186","1099428","0.0-11.0-133.0","","","","false","","","","","","","","","","null","","901.1999999992549","","0","1","null","null","arrowup","[0.85,0.15,0.325,0.675]","","",""
"sailing-trial","187","1102884","0.0-11.0-134.0","","","","false","","","","","","","","","","804","","94.80000000074506","","2","0","arrowright","1","arrowleft","[0.85,0.15,0.325,0.675]","","",""
"sailing-trial","188","1105746","0.0-11.0-135.0","","","","false","","","","","","","","","","null","","898.1000000014901","","3","1","null","null","arrowup","[0.85,0.15,0.325,0.675]","","",""
"sailing-trial","189","1110268","0.0-11.0-136.0","","","","false","","","","","","","","","","559","","1381","","3","0","arrowright","1","arrowright","[0.325,0.675,0.85,0.15]","","",""
"sailing-trial","190","1112471","0.0-11.0-137.0","","","","false","","","","","","","","","","null","","913.9000000022352","","0","0","null","null","arrowup","[0.325,0.675,0.85,0.15]","","",""
"sailing-trial","191","1115764","0.0-11.0-138.0","","","","false","","","","","","","","","","388.1000000014901","","9.899999998509884","","1","1","arrowleft","0","arrowright","[0.325,0.675,0.85,0.15]","","",""
"sailing-trial","192","1117579","0.0-11.0-139.0","","","","false","","","","","","","","","","null","","758.8999999985099","","0","0","null","null","arrowup","[0.325,0.675,0.85,0.15]","","",""
"sailing-trial","193","1120418","0.0-11.0-140.0","","","","false","","","","","","","","","","473.19999999925494","","21.5","","0","0","arrowleft","0","arrowleft","[0.325,0.675,0.85,0.15]","","",""
"sailing-trial","194","1123918","0.0-11.0-141.0","","","","false","","","","","","","","","","null","","1240.0999999977648","","0","0","null","null","arrowup","[0.325,0.675,0.85,0.15]","","",""
"sailing-trial","195","1126878","0.0-11.0-142.0","","","","false","","","","","","","","","","447.9000000022352","","68.39999999850988","","3","0","arrowright","1","arrowright","[0.325,0.675,0.85,0.15]","","",""
"sailing-trial","196","1129149","0.0-11.0-143.0","","","","false","","","","","","","","","","null","","949.7999999970198","","2","0","null","null","arrowup","[0.325,0.675,0.85,0.15]","","",""
"sailing-trial","197","1132362","0.0-11.0-144.0","","","","false","","","","","","","","","","495.9000000022352","","325.19999999925494","","1","0","arrowleft","0","arrowright","[0.325,0.675,0.85,0.15]","","",""
"sailing-trial","198","1134579","0.0-11.0-145.0","","","","false","","","","","","","","","","null","","691.7000000029802","","3","0","null","null","arrowup","[0.325,0.675,0.85,0.15]","","",""
"sailing-trial","199","1138116","0.0-11.0-146.0","","","","false","","","","","","","","","","485.30000000074506","","186.19999999925494","","2","1","arrowright","1","arrowleft","[0.325,0.675,0.85,0.15]","","",""
"sailing-trial","200","1140480","0.0-11.0-147.0","","","","false","","","","","","","","","","null","","1025","","3","0","null","null","arrowup","[0.325,0.675,0.85,0.15]","","",""
"sailing-trial","201","1144800","0.0-11.0-148.0","","","","false","","","","","","","","","","513.1999999992549","","849.5999999977648","","2","1","arrowright","1","arrowleft","[0.325,0.675,0.85,0.15]","","",""
"sailing-trial","202","1147633","0.0-11.0-149.0","","","","false","","","","","","","","","","null","","983","","2","1","null","null","arrowup","[0.325,0.675,0.85,0.15]","","",""
"sailing-trial","203","1150553","0.0-11.0-150.0","","","","false","","","","","","","","","","382","","311.30000000074506","","2","0","arrowright","1","arrowleft","[0.325,0.675,0.85,0.15]","","",""
"sailing-trial","204","1153071","0.0-11.0-151.0","","","","false","","","","","","","","","","null","","739","","2","1","null","null","arrowup","[0.325,0.675,0.85,0.15]","","",""
"sailing-trial","205","1156968","0.0-11.0-152.0","","","","false","","","","","","","","","","507.69999999925494","","329.5999999977648","","2","1","arrowright","1","arrowleft","[0.15,0.85,0.675,0.325]","","",""
"sailing-trial","206","1158974","0.0-11.0-153.0","","","","false","","","","","","","","","","null","","741.3999999985099","","3","0","null","null","arrowup","[0.15,0.85,0.675,0.325]","","",""
"sailing-trial","207","1162423","0.0-11.0-154.0","","","","false","","","","","","","","","","485.5999999977648","","376.29999999701977","","2","0","arrowright","1","arrowleft","[0.15,0.85,0.675,0.325]","","",""
"sailing-trial","208","1164437","0.0-11.0-155.0","","","","false","","","","","","","","","","null","","774.6999999992549","","0","0","null","null","arrowup","[0.15,0.85,0.675,0.325]","","",""
"sailing-trial","209","1167645","0.0-11.0-156.0","","","","false","","","","","","","","","","540.9000000022352","","264.1000000014901","","3","0","arrowright","1","arrowright","[0.15,0.85,0.675,0.325]","","",""
"sailing-trial","210","1169724","0.0-11.0-157.0","","","","false","","","","","","","","","","null","","865.9000000022352","","1","0","null","null","arrowup","[0.15,0.85,0.675,0.325]","","",""
"sailing-trial","211","1173653","0.0-11.0-158.0","","","","false","","","","","","","","","","512.2999999970198","","358.0999999977648","","2","1","arrowright","1","arrowleft","[0.15,0.85,0.675,0.325]","","",""
"sailing-trial","212","1176451","0.0-11.0-159.0","","","","false","","","","","","","","","","null","","942.3999999985099","","1","1","null","null","arrowup","[0.15,0.85,0.675,0.325]","","",""
"sailing-trial","213","1180518","0.0-11.0-160.0","","","","false","","","","","","","","","","497","","515.1999999992549","","2","1","arrowright","1","arrowleft","[0.15,0.85,0.675,0.325]","","",""
"sailing-trial","214","1182684","0.0-11.0-161.0","","","","false","","","","","","","","","","null","","1005","","2","0","null","null","arrowup","[0.15,0.85,0.675,0.325]","","",""
"sailing-trial","215","1187124","0.0-11.0-162.0","","","","false","","","","","","","","","","425.19999999925494","","478.1000000014901","","2","0","arrowright","1","arrowleft","[0.15,0.85,0.675,0.325]","","",""
"sailing-trial","216","1190086","0.0-11.0-163.0","","","","false","","","","","","","","","","null","","1037.6000000014901","","1","1","null","null","arrowup","[0.15,0.85,0.675,0.325]","","",""
"sailing-trial","217","1193753","0.0-11.0-164.0","","","","false","","","","","","","","","","572.0999999977648","","359.70000000298023","","2","1","arrowright","1","arrowleft","[0.15,0.85,0.675,0.325]","","",""
"sailing-trial","218","1196218","0.0-11.0-165.0","","","","false","","","","","","","","","","null","","819.6999999992549","","3","0","null","null","arrowup","[0.15,0.85,0.675,0.325]","","",""
"sailing-trial","219","1199219","0.0-11.0-166.0","","","","false","","","","","","","","","","393.9000000022352","","79.60000000149012","","2","0","arrowright","1","arrowleft","[0.15,0.85,0.675,0.325]","","",""
"sailing-trial","220","1201141","0.0-11.0-167.0","","","","false","","","","","","","","","","null","","794.8000000007451","","2","0","null","null","arrowup","[0.15,0.85,0.675,0.325]","","",""
"sailing-trial","221","1205085","0.0-11.0-168.0","","","","false","","","","","","","","","","448.3999999985099","","568.4000000022352","","1","1","arrowleft","0","arrowright","[0.15,0.85,0.675,0.325]","","",""
"sailing-trial","222","1206987","0.0-11.0-169.0","","","","false","","","","","","","","","","null","","691","","3","0","null","null","arrowup","[0.15,0.85,0.675,0.325]","","",""
"sailing-trial","223","1210099","0.0-11.0-170.0","","","","false","","","","","","","","","","473.69999999925494","","229.59999999776483","","1","0","arrowleft","0","arrowright","[0.15,0.85,0.675,0.325]","","",""
"sailing-trial","224","1212527","0.0-11.0-171.0","","","","false","","","","","","","","","","null","","1003.1999999992549","","0","0","null","null","arrowup","[0.15,0.85,0.675,0.325]","","",""
"sailing-trial","225","1216170","0.0-11.0-172.0","","","","false","","","","","","","","","","453.5999999977648","","375.4000000022352","","1","1","arrowleft","0","arrowright","[0.15,0.85,0.675,0.325]","","",""
"sailing-trial","226","1218240","0.0-11.0-173.0","","","","false","","","","","","","","","","null","","747.8999999985099","","3","0","null","null","arrowup","[0.15,0.85,0.675,0.325]","","",""
"sailing-trial","227","1221681","0.0-11.0-174.0","","","","false","","","","","","","","","","543.6999999992549","","315.6000000014901","","1","0","arrowleft","0","arrowright","[0.85,0.15,0.325,0.675]","","",""
"sailing-trial","228","1224204","0.0-11.0-175.0","","","","false","","","","","","","","","","null","","747.0999999977648","","0","1","null","null","arrowup","[0.85,0.15,0.325,0.675]","","",""
"sailing-trial","229","1227141","0.0-11.0-176.0","","","","false","","","","","","","","","","525.7999999970198","","1","","1","0","arrowleft","0","arrowright","[0.85,0.15,0.325,0.675]","","",""
"sailing-trial","230","1229789","0.0-11.0-177.0","","","","false","","","","","","","","","","null","","1107","","3","1","null","null","arrowup","[0.85,0.15,0.325,0.675]","","",""
"sailing-trial","231","1233373","0.0-11.0-178.0","","","","false","","","","","","","","","","337.5999999977648","","319.79999999701977","","3","1","arrowright","1","arrowright","[0.85,0.15,0.325,0.675]","","",""
"sailing-trial","232","1235857","0.0-11.0-179.0","","","","false","","","","","","","","","","null","","629.8000000007451","","0","1","null","null","arrowup","[0.85,0.15,0.325,0.675]","","",""
"sailing-trial","233","1239672","0.0-11.0-180.0","","","","false","","","","","","","","","","493","","385.6000000014901","","3","1","arrowright","1","arrowright","[0.85,0.15,0.325,0.675]","","",""
"sailing-trial","234","1242591","0.0-11.0-181.0","","","","false","","","","","","","","","","null","","1459.300000000745","","3","0","null","null","arrowup","[0.85,0.15,0.325,0.675]","","",""
"sailing-trial","235","1247350","0.0-11.0-182.0","","","","false","","","","","","","","","","483","","1223.300000000745","","3","0","arrowright","1","arrowright","[0.85,0.15,0.325,0.675]","","",""
"sailing-trial","236","1251339","0.0-11.0-183.0","","","","false","","","","","","","","","","null","","2255.199999999255","","2","1","null","null","arrowup","[0.85,0.15,0.325,0.675]","","",""
"sailing-trial","237","1257109","0.0-11.0-184.0","","","","false","","","","","","","","","","573.1000000014901","","526.1999999992549","","0","1","arrowleft","0","arrowleft","[0.85,0.15,0.325,0.675]","","",""
"sailing-trial","238","1260114","0.0-11.0-185.0","","","","false","","","","","","","","","","null","","1761.6000000014901","","1","0","null","null","arrowup","[0.85,0.15,0.325,0.675]","","",""
"sailing-trial","239","1264903","0.0-11.0-186.0","","","","false","","","","","","","","","","1074.199999999255","","1038.5","","2","0","arrowright","1","arrowleft","[0.85,0.15,0.325,0.675]","","",""
"sailing-trial","240","1267259","0.0-11.0-187.0","","","","false","","","","","","","","","","null","","822.1000000014901","","3","1","null","null","arrowup","[0.85,0.15,0.325,0.675]","","",""
"sailing-trial","241","1271127","0.0-11.0-188.0","","","","false","","","","","","","","","","366.5","","843.8000000007451","","0","1","arrowleft","0","arrowleft","[0.85,0.15,0.325,0.675]","","",""
"sailing-trial","242","1273203","0.0-11.0-189.0","","","","false","","","","","","","","","","null","","731.5999999977648","","2","0","null","null","arrowup","[0.85,0.15,0.325,0.675]","","",""
"sailing-trial","243","1276745","0.0-11.0-190.0","","","","false","","","","","","","","","","411.1000000014901","","297.80000000074506","","0","1","arrowleft","0","arrowleft","[0.85,0.15,0.325,0.675]","","",""
"sailing-trial","244","1279053","0.0-11.0-191.0","","","","false","","","","","","","","","","null","","758.3000000007451","","2","0","null","null","arrowup","[0.85,0.15,0.325,0.675]","","",""
"sailing-trial","245","1282744","0.0-11.0-192.0","","","","false","","","","","","","","","","486.5","","466.19999999925494","","0","1","arrowleft","0","arrowleft","[0.675,0.325,0.15,0.85]","","",""
"sailing-trial","246","1285409","0.0-11.0-193.0","","","","false","","","","","","","","","","null","","897.6000000014901","","0","1","null","null","arrowup","[0.675,0.325,0.15,0.85]","","",""
"sailing-trial","247","1289635","0.0-11.0-194.0","","","","false","","","","","","","","","","1090.199999999255","","704.6000000014901","","0","0","arrowleft","0","arrowleft","[0.675,0.325,0.15,0.85]","","",""
"sailing-trial","248","1293168","0.0-11.0-195.0","","","","false","","","","","","","","","","null","","907.8999999985099","","2","0","null","null","arrowup","[0.675,0.325,0.15,0.85]","","",""
"sailing-trial","249","1296978","0.0-11.0-196.0","","","","false","","","","","","","","","","359.8999999985099","","378.29999999701977","","0","1","arrowleft","0","arrowleft","[0.675,0.325,0.15,0.85]","","",""
"sailing-trial","250","1299001","0.0-11.0-197.0","","","","false","","","","","","","","","","null","","683.3000000007451","","2","0","null","null","arrowup","[0.675,0.325,0.15,0.85]","","",""
"sailing-trial","251","1302940","0.0-11.0-198.0","","","","false","","","","","","","","","","418.5","","1168.699999999255","","0","0","arrowleft","0","arrowleft","[0.675,0.325,0.15,0.85]","","",""
"sailing-trial","252","1305311","0.0-11.0-199.0","","","","false","","","","","","","","","","null","","744.5","","0","1","null","null","arrowup","[0.675,0.325,0.15,0.85]","","",""
"sailing-trial","253","1309061","0.0-11.0-200.0","","","","false","","","","","","","","","","527.1999999992549","","490.6000000014901","","0","1","arrowleft","0","arrowleft","[0.675,0.325,0.15,0.85]","","",""
"sailing-trial","254","1311996","0.0-11.0-201.0","","","","false","","","","","","","","","","null","","961.8000000007451","","0","1","null","null","arrowup","[0.675,0.325,0.15,0.85]","","",""
"sailing-trial","255","1315761","0.0-11.0-202.0","","","","false","","","","","","","","","","660.5","","216.90000000223517","","0","1","arrowleft","0","arrowleft","[0.675,0.325,0.15,0.85]","","",""
"sailing-trial","256","1318213","0.0-11.0-203.0","","","","false","","","","","","","","","","null","","665.3999999985099","","1","1","null","null","arrowup","[0.675,0.325,0.15,0.85]","","",""
"sailing-trial","257","1322064","0.0-11.0-204.0","","","","false","","","","","","","","","","486.80000000074506","","688.8999999985099","","0","1","arrowleft","0","arrowleft","[0.675,0.325,0.15,0.85]","","",""
"sailing-trial","258","1324312","0.0-11.0-205.0","","","","false","","","","","","","","","","null","","1137.5","","0","0","null","null","arrowup","[0.675,0.325,0.15,0.85]","","",""
"sailing-trial","259","1328552","0.0-11.0-206.0","","","","false","","","","","","","","","","1500.800000000745","","137.80000000074506","","2","0","arrowright","1","arrowleft","[0.675,0.325,0.15,0.85]","","",""
"sailing-trial","260","1331430","0.0-11.0-207.0","","","","false","","","","","","","","","","null","","960.1000000014901","","0","1","null","null","arrowup","[0.675,0.325,0.15,0.85]","","",""
"sailing-trial","261","1335048","0.0-11.0-208.0","","","","false","","","","","","","","","","391.80000000074506","","393.3999999985099","","0","1","arrowleft","0","arrowleft","[0.85,0.15,0.325,0.675]","","",""
"sailing-trial","262","1337138","0.0-11.0-209.0","","","","false","","","","","","","","","","null","","764","","3","0","null","null","arrowup","[0.85,0.15,0.325,0.675]","","",""
"sailing-trial","263","1341082","0.0-11.0-210.0","","","","false","","","","","","","","","","412.80000000074506","","256.5","","0","1","arrowleft","0","arrowleft","[0.85,0.15,0.325,0.675]","","",""
"sailing-trial","264","1344281","0.0-11.0-211.0","","","","false","","","","","","","","","","null","","1612.300000000745","","0","1","null","null","arrowup","[0.85,0.15,0.325,0.675]","","",""
"sailing-trial","265","1348582","0.0-11.0-212.0","","","","false","","","","","","","","","","556.6999999992549","","506","","0","1","arrowleft","0","arrowleft","[0.85,0.15,0.325,0.675]","","",""
"sailing-trial","266","1351313","0.0-11.0-213.0","","","","false","","","","","","","","","","null","","805","","2","1","null","null","arrowup","[0.85,0.15,0.325,0.675]","","",""
"sailing-trial","267","1355600","0.0-11.0-214.0","","","","false","","","","","","","","","","659.7999999970198","","369.69999999925494","","0","1","arrowleft","0","arrowleft","[0.85,0.15,0.325,0.675]","","",""
"sailing-trial","268","1357876","0.0-11.0-215.0","","","","false","","","","","","","","","","null","","773.1999999992549","","1","0","null","null","arrowup","[0.85,0.15,0.325,0.675]","","",""
"sailing-trial","269","1361568","0.0-11.0-216.0","","","","false","","","","","","","","","","408.5","","382","","0","1","arrowleft","0","arrowleft","[0.85,0.15,0.325,0.675]","","",""
"sailing-trial","270","1364451","0.0-11.0-217.0","","","","false","","","","","","","","","","null","","1050.8999999985099","","0","1","null","null","arrowup","[0.85,0.15,0.325,0.675]","","",""
"sailing-trial","271","1367815","0.0-11.0-218.0","","","","false","","","","","","","","","","426.1000000014901","","73.29999999701977","","0","1","arrowleft","0","arrowleft","[0.85,0.15,0.325,0.675]","","",""
"sailing-trial","272","1370465","0.0-11.0-219.0","","","","false","","","","","","","","","","null","","960.3999999985099","","3","1","null","null","arrowup","[0.85,0.15,0.325,0.675]","","",""
"sailing-trial","273","1374249","0.0-11.0-220.0","","","","false","","","","","","","","","","430.19999999925494","","512.8000000007451","","0","1","arrowleft","0","arrowleft","[0.85,0.15,0.325,0.675]","","",""
"sailing-trial","274","1376899","0.0-11.0-221.0","","","","false","","","","","","","","","","null","","863.9000000022352","","2","1","null","null","arrowup","[0.85,0.15,0.325,0.675]","","",""
"sailing-trial","275","1379983","0.0-11.0-222.0","","","","false","","","","","","","","","","311.30000000074506","","226.09999999776483","","0","1","arrowleft","0","arrowleft","[0.85,0.15,0.325,0.675]","","",""
"sailing-trial","276","1383042","0.0-11.0-223.0","","","","false","","","","","","","","","","null","","1133.7999999970198","","2","0","null","null","arrowup","[0.85,0.15,0.325,0.675]","","",""
"sailing-trial","277","1387440","0.0-11.0-224.0","","","","false","","","","","","","","","","550","","17.5","","0","1","arrowleft","0","arrowleft","[0.675,0.325,0.15,0.85]","","",""
"sailing-trial","278","1390269","0.0-11.0-225.0","","","","false","","","","","","","","","","null","","753.0999999977648","","0","1","null","null","arrowup","[0.675,0.325,0.15,0.85]","","",""
"sailing-trial","279","1394184","0.0-11.0-226.0","","","","false","","","","","","","","","","921.4000000022352","","2.5","","0","1","arrowleft","0","arrowleft","[0.675,0.325,0.15,0.85]","","",""
"sailing-trial","280","1396283","0.0-11.0-227.0","","","","false","","","","","","","","","","null","","691.7000000029802","","1","0","null","null","arrowup","[0.675,0.325,0.15,0.85]","","",""
"sailing-trial","281","1399787","0.0-11.0-228.0","","","","false","","","","","","","","","","394.8999999985099","","195.5","","0","1","arrowleft","0","arrowleft","[0.675,0.325,0.15,0.85]","","",""
"sailing-trial","282","1401914","0.0-11.0-229.0","","","","false","","","","","","","","","","null","","894.3000000007451","","2","0","null","null","arrowup","[0.675,0.325,0.15,0.85]","","",""
"sailing-trial","283","1405238","0.0-11.0-230.0","","","","false","","","","","","","","","","558.5999999977648","","351.6000000014901","","0","0","arrowleft","0","arrowleft","[0.675,0.325,0.15,0.85]","","",""
"sailing-trial","284","1408087","0.0-11.0-231.0","","","","false","","","","","","","","","","null","","622.5","","3","1","null","null","arrowup","[0.675,0.325,0.15,0.85]","","",""
"sailing-trial","285","1413606","0.0-11.0-232.0","","","","false","","","","","","","","","","689","","2125.10000000149","","0","1","arrowleft","0","arrowleft","[0.675,0.325,0.15,0.85]","","",""
"sailing-trial","286","1415828","0.0-11.0-233.0","","","","false","","","","","","","","","","null","","945.8000000007451","","0","0","null","null","arrowup","[0.675,0.325,0.15,0.85]","","",""
"sailing-trial","287","1419104","0.0-11.0-234.0","","","","false","","","","","","","","","","492.9000000022352","","126.10000000149012","","0","1","arrowleft","0","arrowleft","[0.675,0.325,0.15,0.85]","","",""
"sailing-trial","288","1423087","0.0-11.0-235.0","","","","false","","","","","","","","","","null","","1507.4000000022352","","1","0","null","null","arrowup","[0.675,0.325,0.15,0.85]","","",""
"sailing-trial","289","1427767","0.0-11.0-236.0","","","","false","","","","","","","","","","488.6000000014901","","789.8999999985099","","0","0","arrowleft","0","arrowleft","[0.675,0.325,0.15,0.85]","","",""
"sailing-trial","290","1431905","0.0-11.0-237.0","","","","false","","","","","","","","","","null","","1015.6000000014901","","3","1","null","null","arrowup","[0.675,0.325,0.15,0.85]","","",""
"sailing-trial","291","1438222","0.0-11.0-238.0","","","","false","","","","","","","","","","2145.199999999255","","774.5","","0","1","arrowleft","0","arrowleft","[0.675,0.325,0.15,0.85]","","",""
"sailing-trial","292","1442004","0.0-11.0-239.0","","","","false","","","","","","","","","","null","","1257.5","","1","1","null","null","arrowup","[0.675,0.325,0.15,0.85]","","",""
"sailing-trial","293","1446758","0.0-11.0-240.0","","","","false","","","","","","","","","","1088.300000000745","","962.8999999985099","","0","1","arrowleft","0","arrowleft","[0.675,0.325,0.15,0.85]","","",""
"sailing-trial","294","1449404","0.0-11.0-241.0","","","","false","","","","","","","","","","null","","1122.8999999985099","","3","0","null","null","arrowup","[0.675,0.325,0.15,0.85]","","",""
"sailing-trial","295","1453019","0.0-11.0-242.0","","","","false","","","","","","","","","","903","","81.5","","0","0","arrowleft","0","arrowleft","[0.675,0.325,0.15,0.85]","","",""
"sailing-trial","296","1455312","0.0-11.0-243.0","","","","false","","","","","","","","","","null","","1025.3999999985099","","1","0","null","null","arrowup","[0.675,0.325,0.15,0.85]","","",""
"sailing-trial","297","1458039","0.0-11.0-244.0","","","","false","","","","","","","","","","386.5","","155.60000000149012","","0","0","arrowleft","0","arrowleft","[0.325,0.675,0.85,0.15]","","",""
"sailing-trial","298","1460093","0.0-11.0-245.0","","","","false","","","","","","","","","","null","","742.7000000029802","","3","0","null","null","arrowup","[0.325,0.675,0.85,0.15]","","",""
"sailing-trial","299","1463507","0.0-11.0-246.0","","","","false","","","","","","","","","","478.30000000074506","","11.100000001490116","","2","1","arrowright","1","arrowleft","[0.325,0.675,0.85,0.15]","","",""
"sailing-trial","300","1465541","0.0-11.0-247.0","","","","false","","","","","","","","","","null","","749.5","","3","0","null","null","arrowup","[0.325,0.675,0.85,0.15]","","",""
"sailing-trial","301","1469025","0.0-11.0-248.0","","","","false","","","","","","","","","","443.1000000014901","","195.39999999850988","","2","1","arrowright","1","arrowleft","[0.325,0.675,0.85,0.15]","","",""
"sailing-trial","302","1471216","0.0-11.0-249.0","","","","false","","","","","","","","","","null","","771.8000000007451","","1","0","null","null","arrowup","[0.325,0.675,0.85,0.15]","","",""
"sailing-trial","303","1475725","0.0-11.0-250.0","","","","false","","","","","","","","","","511.1000000014901","","216.69999999925494","","2","1","arrowright","1","arrowleft","[0.325,0.675,0.85,0.15]","","",""
"sailing-trial","304","1478017","0.0-11.0-251.0","","","","false","","","","","","","","","","null","","917.7999999970198","","3","0","null","null","arrowup","[0.325,0.675,0.85,0.15]","","",""
"sailing-trial","305","1481976","0.0-11.0-252.0","","","","false","","","","","","","","","","439","","228.5","","2","1","arrowright","1","arrowleft","[0.325,0.675,0.85,0.15]","","",""
"sailing-trial","306","1484692","0.0-11.0-253.0","","","","false","","","","","","","","","","null","","808.6999999992549","","1","1","null","null","arrowup","[0.325,0.675,0.85,0.15]","","",""
"sailing-trial","307","1489243","0.0-11.0-254.0","","","","false","","","","","","","","","","748","","965.0999999977648","","2","1","arrowright","1","arrowleft","[0.325,0.675,0.85,0.15]","","",""
"sailing-trial","308","1491695","0.0-11.0-255.0","","","","false","","","","","","","","","","null","","660.5999999977648","","3","1","null","null","arrowup","[0.325,0.675,0.85,0.15]","","",""
"sailing-trial","309","1495560","0.0-11.0-256.0","","","","false","","","","","","","","","","338.3999999985099","","399.5999999977648","","2","1","arrowright","1","arrowleft","[0.325,0.675,0.85,0.15]","","",""
"sailing-trial","310","1497701","0.0-11.0-257.0","","","","false","","","","","","","","","","null","","867.8000000007451","","3","0","null","null","arrowup","[0.325,0.675,0.85,0.15]","","",""
"sailing-trial","311","1501328","0.0-11.0-258.0","","","","false","","","","","","","","","","426.5","","513.8000000007451","","2","1","arrowright","1","arrowleft","[0.325,0.675,0.85,0.15]","","",""
"sailing-trial","312","1503777","0.0-11.0-259.0","","","","false","","","","","","","","","","null","","697.8999999985099","","2","1","null","null","arrowup","[0.325,0.675,0.85,0.15]","","",""
"sailing-trial","313","1507446","0.0-11.0-260.0","","","","false","","","","","","","","","","519.9000000022352","","56.69999999925494","","2","1","arrowright","1","arrowleft","[0.325,0.675,0.85,0.15]","","",""
"sailing-trial","314","1510012","0.0-11.0-261.0","","","","false","","","","","","","","","","null","","821","","1","1","null","null","arrowup","[0.325,0.675,0.85,0.15]","","",""
"sailing-trial","315","1514528","0.0-11.0-262.0","","","","false","","","","","","","","","","429.6000000014901","","1210.199999999255","","2","1","arrowright","1","arrowleft","[0.325,0.675,0.85,0.15]","","",""
"sailing-trial","316","1516557","0.0-11.0-263.0","","","","false","","","","","","","","","","null","","763.3000000007451","","3","0","null","null","arrowup","[0.325,0.675,0.85,0.15]","","",""
"sailing-trial","317","1520546","0.0-11.0-264.0","","","","false","","","","","","","","","","347.1000000014901","","715.7000000029802","","2","1","arrowright","1","arrowleft","[0.15,0.85,0.675,0.325]","","",""
"sailing-trial","318","1522378","0.0-11.0-265.0","","","","false","","","","","","","","","","null","","703","","1","0","null","null","arrowup","[0.15,0.85,0.675,0.325]","","",""
"sailing-trial","319","1525796","0.0-11.0-266.0","","","","false","","","","","","","","","","380.5","","238","","2","1","arrowright","1","arrowleft","[0.15,0.85,0.675,0.325]","","",""
"sailing-trial","320","1527729","0.0-11.0-267.0","","","","false","","","","","","","","","","null","","675.5","","3","0","null","null","arrowup","[0.15,0.85,0.675,0.325]","","",""
"sailing-trial","321","1530894","0.0-11.0-268.0","","","","false","","","","","","","","","","590","","406.30000000074506","","2","0","arrowright","1","arrowleft","[0.15,0.85,0.675,0.325]","","",""
"sailing-trial","322","1533346","0.0-11.0-269.0","","","","false","","","","","","","","","","null","","710.6000000014901","","2","1","null","null","arrowup","[0.15,0.85,0.675,0.325]","","",""
"sailing-trial","323","1536416","0.0-11.0-270.0","","","","false","","","","","","","","","","462.19999999925494","","379.4000000022352","","2","0","arrowright","1","arrowleft","[0.15,0.85,0.675,0.325]","","",""
"sailing-trial","324","1538730","0.0-11.0-271.0","","","","false","","","","","","","","","","null","","641.5","","2","1","null","null","arrowup","[0.15,0.85,0.675,0.325]","","",""
"sailing-trial","325","1541801","0.0-11.0-272.0","","","","false","","","","","","","","","","420.8999999985099","","322.8999999985099","","2","0","arrowright","1","arrowleft","[0.15,0.85,0.675,0.325]","","",""
"sailing-trial","326","1544197","0.0-11.0-273.0","","","","false","","","","","","","","","","null","","772.8000000007451","","1","1","null","null","arrowup","[0.15,0.85,0.675,0.325]","","",""
"sailing-trial","327","1547370","0.0-11.0-274.0","","","","false","","","","","","","","","","438.5","","213.09999999776483","","0","0","arrowleft","0","arrowleft","[0.15,0.85,0.675,0.325]","","",""
"sailing-trial","328","1549932","0.0-11.0-275.0","","","","false","","","","","","","","","","null","","752.3999999985099","","1","1","null","null","arrowup","[0.15,0.85,0.675,0.325]","","",""
"sailing-trial","329","1553024","0.0-11.0-276.0","","","","false","","","","","","","","","","472","","347.4000000022352","","0","0","arrowleft","0","arrowleft","[0.15,0.85,0.675,0.325]","","",""
"sailing-trial","330","1555764","0.0-11.0-277.0","","","","false","","","","","","","","","","null","","1138.9000000022352","","0","1","null","null","arrowup","[0.15,0.85,0.675,0.325]","","",""
"sailing-trial","331","1559020","0.0-11.0-278.0","","","","false","","","","","","","","","","449.8999999985099","","426.5","","3","0","arrowright","1","arrowright","[0.15,0.85,0.675,0.325]","","",""
"sailing-trial","332","1561682","0.0-11.0-279.0","","","","false","","","","","","","","","","null","","818.8999999985099","","1","1","null","null","arrowup","[0.15,0.85,0.675,0.325]","","",""
"sailing-trial","333","1564989","0.0-11.0-280.0","","","","false","","","","","","","","","","565","","333.9000000022352","","1","0","arrowleft","0","arrowright","[0.325,0.675,0.85,0.15]","","",""
"sailing-trial","334","1566968","0.0-11.0-281.0","","","","false","","","","","","","","","","null","","755.1999999992549","","2","0","null","null","arrowup","[0.325,0.675,0.85,0.15]","","",""
"sailing-trial","335","1571101","0.0-11.0-282.0","","","","false","","","","","","","","","","520.8999999985099","","939.8999999985099","","0","1","arrowleft","0","arrowleft","[0.325,0.675,0.85,0.15]","","",""
"sailing-trial","336","1572906","0.0-11.0-283.0","","","","false","","","","","","","","","","null","","781","","3","0","null","null","arrowup","[0.325,0.675,0.85,0.15]","","",""
"sailing-trial","337","1576547","0.0-11.0-284.0","","","","false","","","","","","","","","","416","","939.3999999985099","","0","0","arrowleft","0","arrowleft","[0.325,0.675,0.85,0.15]","","",""
"sailing-trial","338","1579185","0.0-11.0-285.0","","","","false","","","","","","","","","","null","","803.0999999977648","","1","1","null","null","arrowup","[0.325,0.675,0.85,0.15]","","",""
"sailing-trial","339","1582567","0.0-11.0-286.0","","","","false","","","","","","","","","","628","","202.30000000074506","","2","1","arrowright","1","arrowleft","[0.325,0.675,0.85,0.15]","","",""
"sailing-trial","340","1584867","0.0-11.0-287.0","","","","false","","","","","","","","","","null","","792","","1","1","null","null","arrowup","[0.325,0.675,0.85,0.15]","","",""
"sailing-trial","341","1588568","0.0-11.0-288.0","","","","false","","","","","","","","","","475.30000000074506","","31.800000000745058","","2","1","arrowright","1","arrowleft","[0.325,0.675,0.85,0.15]","","",""
"sailing-trial","342","1591201","0.0-11.0-289.0","","","","false","","","","","","","","","","null","","898.3999999985099","","2","1","null","null","arrowup","[0.325,0.675,0.85,0.15]","","",""
"sailing-trial","343","1595086","0.0-11.0-290.0","","","","false","","","","","","","","","","531.5","","419.19999999925494","","2","1","arrowright","1","arrowleft","[0.325,0.675,0.85,0.15]","","",""
"sailing-trial","344","1597819","0.0-11.0-291.0","","","","false","","","","","","","","","","null","","806.8000000007451","","1","1","null","null","arrowup","[0.325,0.675,0.85,0.15]","","",""
"sailing-trial","345","1601484","0.0-11.0-292.0","","","","false","","","","","","","","","","388","","418.5999999977648","","2","1","arrowright","1","arrowleft","[0.325,0.675,0.85,0.15]","","",""
"sailing-trial","346","1605790","0.0-11.0-293.0","","","","false","","","","","","","","","","null","","1293","","0","0","null","null","arrowup","[0.325,0.675,0.85,0.15]","","",""
"sailing-trial","347","1610101","0.0-11.0-294.0","","","","false","","","","","","","","","","736.6999999992549","","540.5999999977648","","2","1","arrowright","1","arrowleft","[0.325,0.675,0.85,0.15]","","",""
"sailing-trial","348","1613235","0.0-11.0-295.0","","","","false","","","","","","","","","","null","","1194.699999999255","","0","1","null","null","arrowup","[0.325,0.675,0.85,0.15]","","",""
"sailing-trial","349","1617735","0.0-11.0-296.0","","","","false","","","","","","","","","","587.8999999985099","","334.70000000298023","","2","1","arrowright","1","arrowleft","[0.325,0.675,0.85,0.15]","","",""
"sailing-trial","350","1619785","0.0-11.0-297.0","","","","false","","","","","","","","","","null","","778.3000000007451","","3","0","null","null","arrowup","[0.325,0.675,0.85,0.15]","","",""
"sailing-trial","351","1623260","0.0-11.0-298.0","","","","false","","","","","","","","","","564.6000000014901","","387.69999999925494","","2","0","arrowright","1","arrowleft","[0.675,0.325,0.15,0.85]","","",""
"sailing-trial","352","1625888","0.0-11.0-299.0","","","","false","","","","","","","","","","null","","1009.5","","0","1","null","null","arrowup","[0.675,0.325,0.15,0.85]","","",""
"sailing-trial","353","1629524","0.0-11.0-300.0","","","","false","","","","","","","","","","1105.300000000745","","325.5","","2","0","arrowright","1","arrowleft","[0.675,0.325,0.15,0.85]","","",""
"sailing-trial","354","1631508","0.0-11.0-301.0","","","","false","","","","","","","","","","null","","900.3999999985099","","2","0","null","null","arrowup","[0.675,0.325,0.15,0.85]","","",""
"sailing-trial","355","1635839","0.0-11.0-302.0","","","","false","","","","","","","","","","516.2999999970198","","1049.7999999970198","","0","1","arrowleft","0","arrowleft","[0.675,0.325,0.15,0.85]","","",""
"sailing-trial","356","1638042","0.0-11.0-303.0","","","","false","","","","","","","","","","null","","804.9000000022352","","2","0","null","null","arrowup","[0.675,0.325,0.15,0.85]","","",""
"sailing-trial","357","1641587","0.0-11.0-304.0","","","","false","","","","","","","","","","436.8999999985099","","404.80000000074506","","0","1","arrowleft","0","arrowleft","[0.675,0.325,0.15,0.85]","","",""
"sailing-trial","358","1644272","0.0-11.0-305.0","","","","false","","","","","","","","","","null","","915.7999999970198","","0","1","null","null","arrowup","[0.675,0.325,0.15,0.85]","","",""
"sailing-trial","359","1648624","0.0-11.0-306.0","","","","false","","","","","","","","","","598.1000000014901","","278.5","","0","1","arrowleft","0","arrowleft","[0.675,0.325,0.15,0.85]","","",""
"sailing-trial","360","1651276","0.0-11.0-307.0","","","","false","","","","","","","","","","null","","930","","1","0","null","null","arrowup","[0.675,0.325,0.15,0.85]","","",""
"sailing-trial","361","1654564","0.0-11.0-308.0","","","","false","","","","","","","","","","371.30000000074506","","439.30000000074506","","0","0","arrowleft","0","arrowleft","[0.675,0.325,0.15,0.85]","","",""
"sailing-trial","362","1657189","0.0-11.0-309.0","","","","false","","","","","","","","","","null","","729.9000000022352","","0","1","null","null","arrowup","[0.675,0.325,0.15,0.85]","","",""
"sailing-trial","363","1660591","0.0-11.0-310.0","","","","false","","","","","","","","","","356.19999999925494","","379.9000000022352","","0","1","arrowleft","0","arrowleft","[0.675,0.325,0.15,0.85]","","",""
"sailing-trial","364","1662486","0.0-11.0-311.0","","","","false","","","","","","","","","","null","","780.5","","1","0","null","null","arrowup","[0.675,0.325,0.15,0.85]","","",""
"sailing-trial","365","1666241","0.0-11.0-312.0","","","","false","","","","","","","","","","411.3999999985099","","414.4000000022352","","0","1","arrowleft","0","arrowleft","[0.675,0.325,0.15,0.85]","","",""
"sailing-trial","366","1668259","0.0-11.0-313.0","","","","false","","","","","","","","","","null","","711.9000000022352","","3","0","null","null","arrowup","[0.675,0.325,0.15,0.85]","","",""
"sailing-trial","367","1671690","0.0-11.0-314.0","","","","false","","","","","","","","","","446","","42.19999999925494","","0","1","arrowleft","0","arrowleft","[0.675,0.325,0.15,0.85]","","",""
"sailing-trial","368","1673471","0.0-11.0-315.0","","","","false","","","","","","","","","","null","","592.4000000022352","","1","0","null","null","arrowup","[0.675,0.325,0.15,0.85]","","",""
"sailing-trial","369","1677607","0.0-11.0-316.0","","","","false","","","","","","","","","","512.1000000014901","","373.5","","0","1","arrowleft","0","arrowleft","[0.85,0.15,0.325,0.675]","","",""
"sailing-trial","370","1679905","0.0-11.0-317.0","","","","false","","","","","","","","","","null","","985.6999999992549","","3","0","null","null","arrowup","[0.85,0.15,0.325,0.675]","","",""
"sailing-trial","371","1683324","0.0-11.0-318.0","","","","false","","","","","","","","","","411.80000000074506","","133.10000000149012","","0","1","arrowleft","0","arrowleft","[0.85,0.15,0.325,0.675]","","",""
"sailing-trial","372","1685590","0.0-11.0-319.0","","","","false","","","","","","","","","","null","","587","","3","1","null","null","arrowup","[0.85,0.15,0.325,0.675]","","",""
"sailing-trial","373","1691011","0.0-11.0-320.0","","","","false","","","","","","","","","","433.3999999985099","","2143.099999997765","","0","1","arrowleft","0","arrowleft","[0.85,0.15,0.325,0.675]","","",""
"sailing-trial","374","1693643","0.0-11.0-321.0","","","","false","","","","","","","","","","null","","822.4000000022352","","0","1","null","null","arrowup","[0.85,0.15,0.325,0.675]","","",""
"sailing-trial","375","1697344","0.0-11.0-322.0","","","","false","","","","","","","","","","495.1000000014901","","126.5","","0","1","arrowleft","0","arrowleft","[0.85,0.15,0.325,0.675]","","",""
"sailing-trial","376","1699691","0.0-11.0-323.0","","","","false","","","","","","","","","","null","","1096.3999999985099","","2","0","null","null","arrowup","[0.85,0.15,0.325,0.675]","","",""
"sailing-trial","377","1703787","0.0-11.0-324.0","","","","false","","","","","","","","","","487.19999999925494","","1267.699999999255","","0","0","arrowleft","0","arrowleft","[0.85,0.15,0.325,0.675]","","",""
"sailing-trial","378","1705631","0.0-11.0-325.0","","","","false","","","","","","","","","","null","","727.6999999992549","","1","0","null","null","arrowup","[0.85,0.15,0.325,0.675]","","",""
"sailing-trial","379","1709543","0.0-11.0-326.0","","","","false","","","","","","","","","","343","","940","","0","1","arrowleft","0","arrowleft","[0.85,0.15,0.325,0.675]","","",""
"sailing-trial","380","1711603","0.0-11.0-327.0","","","","false","","","","","","","","","","null","","533.6999999992549","","2","0","null","null","arrowup","[0.85,0.15,0.325,0.675]","","",""
"sailing-trial","381","1716296","0.0-11.0-328.0","","","","false","","","","","","","","","","842.5","","690.7999999970198","","0","1","arrowleft","0","arrowleft","[0.85,0.15,0.325,0.675]","","",""
"sailing-trial","382","1719696","0.0-11.0-329.0","","","","false","","","","","","","","","","null","","1548.2000000029802","","0","1","null","null","arrowup","[0.85,0.15,0.325,0.675]","","",""
"sailing-trial","383","1724302","0.0-11.0-330.0","","","","false","","","","","","","","","","408.80000000074506","","199.30000000074506","","0","0","arrowleft","0","arrowleft","[0.85,0.15,0.325,0.675]","","",""
"sailing-trial","384","1726279","0.0-11.0-331.0","","","","false","","","","","","","","","","null","","778.2999999970198","","2","0","null","null","arrowup","[0.85,0.15,0.325,0.675]","","",""
"sailing-trial","385","1731043","0.0-11.0-332.0","","","","false","","","","","","","","","","511.69999999925494","","1210.5","","0","0","arrowleft","0","arrowleft","[0.85,0.15,0.325,0.675]","","",""
"sailing-trial","386","1736231","0.0-11.0-333.0","","","","false","","","","","","","","","","null","","787.1999999992549","","2","1","null","null","arrowup","[0.85,0.15,0.325,0.675]","","",""
"sailing-trial","387","1741414","0.0-11.0-334.0","","","","false","","","","","","","","","","929.5","","920","","0","1","arrowleft","0","arrowleft","[0.675,0.325,0.15,0.85]","","",""
"sailing-trial","388","1743606","0.0-11.0-335.0","","","","false","","","","","","","","","","null","","831.1999999992549","","3","0","null","null","arrowup","[0.675,0.325,0.15,0.85]","","",""
"sailing-trial","389","1746930","0.0-11.0-336.0","","","","false","","","","","","","","","","398.3999999985099","","232.19999999925494","","0","1","arrowleft","0","arrowleft","[0.675,0.325,0.15,0.85]","","",""
"sailing-trial","390","1749334","0.0-11.0-337.0","","","","false","","","","","","","","","","null","","1017.0999999977648","","2","0","null","null","arrowup","[0.675,0.325,0.15,0.85]","","",""
"sailing-trial","391","1753933","0.0-11.0-338.0","","","","false","","","","","","","","","","567","","184.59999999776483","","0","1","arrowleft","0","arrowleft","[0.675,0.325,0.15,0.85]","","",""
"sailing-trial","392","1756260","0.0-11.0-339.0","","","","false","","","","","","","","","","null","","852.1000000014901","","1","0","null","null","arrowup","[0.675,0.325,0.15,0.85]","","",""
"sailing-trial","393","1760026","0.0-11.0-340.0","","","","false","","","","","","","","","","973.6999999992549","","440.8999999985099","","0","0","arrowleft","0","arrowleft","[0.675,0.325,0.15,0.85]","","",""
"sailing-trial","394","1762898","0.0-11.0-341.0","","","","false","","","","","","","","","","null","","923","","1","1","null","null","arrowup","[0.675,0.325,0.15,0.85]","","",""
"sailing-trial","395","1766314","0.0-11.0-342.0","","","","false","","","","","","","","","","258.4000000022352","","14.400000002235174","","0","0","arrowleft","0","arrowleft","[0.675,0.325,0.15,0.85]","","",""
"sailing-trial","396","1768872","0.0-11.0-343.0","","","","false","","","","","","","","","","null","","1090.1000000014901","","0","0","null","null","arrowup","[0.675,0.325,0.15,0.85]","","",""
"sailing-trial","397","1772347","0.0-11.0-344.0","","","","false","","","","","","","","","","520.1999999992549","","228.5","","0","1","arrowleft","0","arrowleft","[0.675,0.325,0.15,0.85]","","",""
"sailing-trial","398","1774337","0.0-11.0-345.0","","","","false","","","","","","","","","","null","","807","","2","0","null","null","arrowup","[0.675,0.325,0.15,0.85]","","",""
"sailing-trial","399","1777308","0.0-11.0-346.0","","","","false","","","","","","","","","","691.8000000007451","","19.199999999254942","","0","0","arrowleft","0","arrowleft","[0.675,0.325,0.15,0.85]","","",""
"sailing-trial","400","1779778","0.0-11.0-347.0","","","","false","","","","","","","","","","null","","1342.1000000014901","","2","0","null","null","arrowup","[0.675,0.325,0.15,0.85]","","",""
"sailing-trial","401","1783635","0.0-11.0-348.0","","","","false","","","","","","","","","","494.4000000022352","","612.5999999977648","","0","1","arrowleft","0","arrowleft","[0.675,0.325,0.15,0.85]","","",""
"sailing-trial","402","1786712","0.0-11.0-349.0","","","","false","","","","","","","","","","null","","819.7999999970198","","3","1","null","null","arrowup","[0.675,0.325,0.15,0.85]","","",""
"sailing-trial","403","1791225","0.0-11.0-350.0","","","","false","","","","","","","","","","1180.5","","659.5","","0","1","arrowleft","0","arrowleft","[0.85,0.15,0.325,0.675]","","",""
"sailing-trial","404","1793832","0.0-11.0-351.0","","","","false","","","","","","","","","","null","","609.2000000029802","","1","0","null","null","arrowup","[0.85,0.15,0.325,0.675]","","",""
"sailing-trial","405","1798751","0.0-11.0-352.0","","","","false","","","","","","","","","","416.5999999977648","","1708.5","","0","1","arrowleft","0","arrowleft","[0.85,0.15,0.325,0.675]","","",""
"sailing-trial","406","1801055","0.0-11.0-353.0","","","","false","","","","","","","","","","null","","956.2000000029802","","2","0","null","null","arrowup","[0.85,0.15,0.325,0.675]","","",""
"sailing-trial","407","1804680","0.0-11.0-354.0","","","","false","","","","","","","","","","490","","540.7999999970198","","0","1","arrowleft","0","arrowleft","[0.85,0.15,0.325,0.675]","","",""
"sailing-trial","408","1807344","0.0-11.0-355.0","","","","false","","","","","","","","","","null","","742","","3","1","null","null","arrowup","[0.85,0.15,0.325,0.675]","","",""
"sailing-trial","409","1811043","0.0-11.0-356.0","","","","false","","","","","","","","","","329.69999999925494","","177.60000000149012","","0","1","arrowleft","0","arrowleft","[0.85,0.15,0.325,0.675]","","",""
"sailing-trial","410","1812916","0.0-11.0-357.0","","","","false","","","","","","","","","","null","","692.1999999992549","","1","0","null","null","arrowup","[0.85,0.15,0.325,0.675]","","",""
"sailing-trial","411","1817659","0.0-11.0-358.0","","","","false","","","","","","","","","","425.79999999701977","","1541.3999999985099","","0","1","arrowleft","0","arrowleft","[0.85,0.15,0.325,0.675]","","",""
"sailing-trial","412","1819941","0.0-11.0-359.0","","","","false","","","","","","","","","","null","","719","","3","1","null","null","arrowup","[0.85,0.15,0.325,0.675]","","",""
"sailing-trial","413","1824609","0.0-11.0-360.0","","","","false","","","","","","","","","","361.3999999985099","","1337.5","","0","1","arrowleft","0","arrowleft","[0.85,0.15,0.325,0.675]","","",""
"sailing-trial","414","1826939","0.0-11.0-361.0","","","","false","","","","","","","","","","null","","928.9000000022352","","1","0","null","null","arrowup","[0.85,0.15,0.325,0.675]","","",""
"sailing-trial","415","1830953","0.0-11.0-362.0","","","","false","","","","","","","","","","379.5999999977648","","35","","0","1","arrowleft","0","arrowleft","[0.85,0.15,0.325,0.675]","","",""
"sailing-trial","416","1833708","0.0-11.0-363.0","","","","false","","","","","","","","","","null","","1063.6000000014901","","1","1","null","null","arrowup","[0.85,0.15,0.325,0.675]","","",""
"sailing-trial","417","1837258","0.0-11.0-364.0","","","","false","","","","","","","","","","359.30000000074506","","22.600000001490116","","0","1","arrowleft","0","arrowleft","[0.85,0.15,0.325,0.675]","","",""
"sailing-trial","418","1839273","0.0-11.0-365.0","","","","false","","","","","","","","","","null","","719.5999999977648","","3","0","null","null","arrowup","[0.85,0.15,0.325,0.675]","","",""
"sailing-trial","419","1843857","0.0-11.0-366.0","","","","false","","","","","","","","","","422.3999999985099","","1261.800000000745","","0","1","arrowleft","0","arrowleft","[0.675,0.325,0.15,0.85]","","",""
"sailing-trial","420","1845600","0.0-11.0-367.0","","","","false","","","","","","","","","","null","","498.19999999925494","","2","0","null","null","arrowup","[0.675,0.325,0.15,0.85]","","",""
"sailing-trial","421","1848942","0.0-11.0-368.0","","","","false","","","","","","","","","","600.5","","61.19999999925494","","0","1","arrowleft","0","arrowleft","[0.675,0.325,0.15,0.85]","","",""
"sailing-trial","422","1851290","0.0-11.0-369.0","","","","false","","","","","","","","","","null","","742.9000000022352","","3","1","null","null","arrowup","[0.675,0.325,0.15,0.85]","","",""
"sailing-trial","423","1855108","0.0-11.0-370.0","","","","false","","","","","","","","","","462.1000000014901","","73.60000000149012","","0","1","arrowleft","0","arrowleft","[0.675,0.325,0.15,0.85]","","",""
"sailing-trial","424","1858424","0.0-11.0-371.0","","","","false","","","","","","","","","","null","","1546.300000000745","","0","1","null","null","arrowup","[0.675,0.325,0.15,0.85]","","",""
"sailing-trial","425","1862408","0.0-11.0-372.0","","","","false","","","","","","","","","","375.80000000074506","","433.5999999977648","","0","1","arrowleft","0","arrowleft","[0.675,0.325,0.15,0.85]","","",""
"sailing-trial","426","1864626","0.0-11.0-373.0","","","","false","","","","","","","","","","null","","966.2999999970198","","3","0","null","null","arrowup","[0.675,0.325,0.15,0.85]","","",""
"sailing-trial","427","1871008","0.0-11.0-374.0","","","","false","","","","","","","","","","1805","","1277.5","","0","1","arrowleft","0","arrowleft","[0.675,0.325,0.15,0.85]","","",""
"sailing-trial","428","1873775","0.0-11.0-375.0","","","","false","","","","","","","","","","null","","799.1999999992549","","0","1","null","null","arrowup","[0.675,0.325,0.15,0.85]","","",""
"sailing-trial","429","1877161","0.0-11.0-376.0","","","","false","","","","","","","","","","392.5","","284.20000000298023","","0","1","arrowleft","0","arrowleft","[0.675,0.325,0.15,0.85]","","",""
"sailing-trial","430","1879742","0.0-11.0-377.0","","","","false","","","","","","","","","","null","","715.8999999985099","","0","1","null","null","arrowup","[0.675,0.325,0.15,0.85]","","",""
"sailing-trial","431","1883810","0.0-11.0-378.0","","","","false","","","","","","","","","","557.3000000007451","","189.40000000223517","","0","1","arrowleft","0","arrowleft","[0.675,0.325,0.15,0.85]","","",""
"sailing-trial","432","1885965","0.0-11.0-379.0","","","","false","","","","","","","","","","null","","811.8999999985099","","0","0","null","null","arrowup","[0.675,0.325,0.15,0.85]","","",""
"sailing-trial","433","1890277","0.0-11.0-380.0","","","","false","","","","","","","","","","1185.199999999255","","267.6000000014901","","0","1","arrowleft","0","arrowleft","[0.675,0.325,0.15,0.85]","","",""
"sailing-trial","434","1892174","0.0-11.0-381.0","","","","false","","","","","","","","","","null","","696.5","","2","0","null","null","arrowup","[0.675,0.325,0.15,0.85]","","",""
"sailing-trial","435","1895509","0.0-11.0-382.0","","","","false","","","","","","","","","","480.0999999977648","","341","","0","0","arrowleft","0","arrowleft","[0.675,0.325,0.15,0.85]","","",""
"sailing-trial","436","1897892","0.0-11.0-383.0","","","","false","","","","","","","","","","null","","674.2999999970198","","0","1","null","null","arrowup","[0.675,0.325,0.15,0.85]","","",""
"sailing-trial","437","1901760","0.0-11.0-384.0","","","","false","","","","","","","","","","587.5","","224.30000000074506","","0","1","arrowleft","0","arrowleft","[0.85,0.15,0.325,0.675]","","",""
"sailing-trial","438","1904410","0.0-11.0-385.0","","","","false","","","","","","","","","","null","","867.5","","0","1","null","null","arrowup","[0.85,0.15,0.325,0.675]","","",""
"sailing-trial","439","1907744","0.0-11.0-386.0","","","","false","","","","","","","","","","474.1000000014901","","79.39999999850988","","0","1","arrowleft","0","arrowleft","[0.85,0.15,0.325,0.675]","","",""
"sailing-trial","440","1909761","0.0-11.0-387.0","","","","false","","","","","","","","","","null","","736","","2","0","null","null","arrowup","[0.85,0.15,0.325,0.675]","","",""
"sailing-trial","441","1913346","0.0-11.0-388.0","","","","false","","","","","","","","","","874.5","","387.5999999977648","","0","0","arrowleft","0","arrowleft","[0.85,0.15,0.325,0.675]","","",""
"sailing-trial","442","1915928","0.0-11.0-389.0","","","","false","","","","","","","","","","null","","772.1999999992549","","0","1","null","null","arrowup","[0.85,0.15,0.325,0.675]","","",""
"sailing-trial","443","1919562","0.0-11.0-390.0","","","","false","","","","","","","","","","390.29999999701977","","1048","","0","0","arrowleft","0","arrowleft","[0.85,0.15,0.325,0.675]","","",""
"sailing-trial","444","1921703","0.0-11.0-391.0","","","","false","","","","","","","","","","null","","833.8000000007451","","1","0","null","null","arrowup","[0.85,0.15,0.325,0.675]","","",""
"sailing-trial","445","1926430","0.0-11.0-392.0","","","","false","","","","","","","","","","331.0999999977648","","1458.6000000014901","","0","1","arrowleft","0","arrowleft","[0.85,0.15,0.325,0.675]","","",""
"sailing-trial","446","1929119","0.0-11.0-393.0","","","","false","","","","","","","","","","null","","632.6999999992549","","2","0","null","null","arrowup","[0.85,0.15,0.325,0.675]","","",""
"sailing-trial","447","1932629","0.0-11.0-394.0","","","","false","","","","","","","","","","422","","169.30000000074506","","0","1","arrowleft","0","arrowleft","[0.85,0.15,0.325,0.675]","","",""
"sailing-trial","448","1934691","0.0-11.0-395.0","","","","false","","","","","","","","","","null","","804.8000000007451","","1","0","null","null","arrowup","[0.85,0.15,0.325,0.675]","","",""
"sailing-trial","449","1938597","0.0-11.0-396.0","","","","false","","","","","","","","","","573.9000000022352","","276.30000000074506","","0","1","arrowleft","0","arrowleft","[0.85,0.15,0.325,0.675]","","",""
"sailing-trial","450","1940875","0.0-11.0-397.0","","","","false","","","","","","","","","","null","","908.4000000022352","","0","0","null","null","arrowup","[0.85,0.15,0.325,0.675]","","",""
"sailing-trial","451","1945164","0.0-11.0-398.0","","","","false","","","","","","","","","","572.9000000022352","","1390.9000000022352","","0","0","arrowleft","0","arrowleft","[0.85,0.15,0.325,0.675]","","",""
"sailing-trial","452","1947082","0.0-11.0-399.0","","","","false","","","","","","","","","","null","","746.5999999977648","","1","0","null","null","arrowup","[0.85,0.15,0.325,0.675]","","",""
"instructions","453","1971918","0.0-12.0","","","","","","","","","","24835.699999999255","","","","","","","","","","","","","","","","[{""page_index"":0,""viewing_time"":24825.199999999255}]"
"survey-debrief","454","2025163","0.0-13.0","","","","","","","","","","53243.300000000745","","","","","","","","","","","","","","{""difficulty"":""5"",""fun"":""1"",""clarity"":""5"",""strategy"":""left shops"",""feedback"":""""}","",""
