"trial_type","trial_index","time_elapsed","internal_node_id","value","metadata","success","timeout","failed_images","failed_audio","failed_video","browser_interaction","low_quality","rt","stimulus","response","button_pressed","island_rt","island_response","boat_rt","boat_response","boat","reward","island_key","island","boat_key","reward_probabilities","responses","num_errors","view_history"
"pavlovia","0","6","0.0-0.0","","","","","","","","","","","","","","","","","","","","","","","","","",""
"call-function","1","6","0.0-1.0","","{""task_version"":""sailing_part1_v1"",""task_condition"":""good"",""boats"":[""C"",""A"",""D"",""B""],""boats_demo"":[""G"",""H"",""F"",""E""],""islands"":[""B"",""A""],""subject_id"":""14946"",""age"":""18"",""gender"":""Female""}","","","","","","","","","","","","","","","","","","","","","","","",""
"preload","2","1732","0.0-2.0","","","true","false","[]","[]","[]","[{""event"":""fullscreenenter"",""trial"":3,""time"":9251}]","false","","","","","","","","","","","","","","","","",""
"fullscreen","3","10223","0.0-3.0","","","true","","","","","","","","","","","","","","","","","","","","","","",""
"audio-keyboard-response","4","12557","0.0-4.0-0.0","","","","","","","","","","1861.3333333333333","audio/beep_loop.wav"," ","","","","","","","","","","","","","",""
"audio-test","5","14264","0.0-4.0-1.0","","","","","","","","","","null","audio/turtle.mp3","","3","","","","","","","","","","","","",""
"audio-test","6","16295","0.0-4.0-2.0","","","","","","","","","","null","audio/shark.mp3","","2","","","","","","","","","","","","",""
"sailing-instructions","7","49624","0.0-5.0-0.0-0.0","","","","","","","","","","","","","","null","null","null","null","null","null","","","","","","",""
"sailing-trial","8","55632","0.0-5.0-0.0-1.0-0.0","","","","false","","","","","","","","","","4843","","null","","null","null","arrowleft","0","null","null","","",""
"sailing-trial","9","58084","0.0-5.0-0.0-1.0-1.0","","","","false","","","","","","","","","","1297.6000003814697","","null","","null","null","arrowright","1","null","null","","",""
"sailing-trial","10","60986","0.0-5.0-0.0-1.0-2.0","","","","false","","","","","","","","","","1787.8999996185303","","null","","null","null","arrowleft","0","null","null","","",""
"sailing-instructions","11","105864","0.0-5.0-0.0-2.0","","","","","","","","","","","","","","null","null","null","null","0","null","","","","","","",""
"sailing-trial","12","110981","0.0-5.0-0.0-3.0-0.0","","","","false","","","","","","","","","","null","","1645","","2","1","null","null","arrowleft","[1,1,1,1]","","",""
"sailing-trial","13","114284","0.0-5.0-0.0-3.0-1.0","","","","false","","","","","","","","","","null","","764.4000005722046","","3","1","null","null","arrowright","[1,1,1,1]","","",""
"sailing-trial","14","118065","0.0-5.0-0.0-3.0-2.0","","","","false","","","","","","","","","","null","","1001.8000001907349","","2","0","null","null","arrowleft","[0,0,0,0]","","",""
"sailing-instructions","15","125474","0.0-5.0-0.0-4.0","","","","","","","","","","","","","","null","null","null","null","null","null","","","","","","",""
"sailing-comprehension","16","140605","0.0-5.0-0.0-5.0","","","","","","","","","","10050.60000038147","","","","","","","","","","","","","","[""true"",""true"",""false"",""true""]","0",""
"sailing-instructions","17","205798","0.0-6.0-0.0-0.0","","","","","","","","","","","","","","null","null","null","null","null","null","","","","","","",""
"sailing-comprehension","18","217741","0.0-6.0-0.0-1.0","","","","","","","","","","10332.5","","","","","","","","","","","","","","[""true"",""false"",""true""]","0",""
"sailing-instructions","19","233349","0.0-7.0-0.0-0.0","","","","","","","","","","","","","","null","null","null","null","null","null","","","","","","",""
"sailing-trial","20","238623","0.0-7.0-0.0-1.0-0.0","","","","false","","","","","","","","","","null","","2563.5","","0","0","null","null","arrowup","[0.2,0.8,0.2,0.8]","","",""
"sailing-trial","21","242848","0.0-7.0-0.0-1.0-1.0","","","","false","","","","","","","","","","null","","2719.6000003814697","","1","0","null","null","arrowup","[0.2,0.8,0.2,0.8]","","",""
"sailing-trial","22","245927","0.0-7.0-0.0-1.0-2.0","","","","false","","","","","","","","","","null","","1606.3000001907349","","2","0","null","null","arrowup","[0.2,0.8,0.2,0.8]","","",""
"sailing-trial","23","249248","0.0-7.0-0.0-1.0-3.0","","","","false","","","","","","","","","","null","","1289.8999996185303","","3","1","null","null","arrowup","[0.2,0.8,0.2,0.8]","","",""
"sailing-comprehension","24","254089","0.0-7.0-0.0-2.0","","","","","","","","","","3482.199999809265","","","","","","","","","","","","","","[""false""]","0",""
"sailing-instructions","25","265197","0.0-8.0-0.0-0.0","","","","","","","","","","","","","","null","null","null","null","null","null","","","","","","",""
"sailing-comprehension","26","269600","0.0-8.0-0.0-1.0","","","","","","","","","","3114.3999996185303","","","","","","","","","","","","","","[""true""]","0",""
"sailing-instructions","27","292913","0.0-9.0-0.0-0.0","","","","","","","","","","","","","","null","null","null","null","null","null","","","","","","",""
"sailing-trial","28","298159","0.0-9.0-0.0-1.0-0.0","","","","false","","","","","","","","","","1115.6999998092651","","854.5","","0","0","arrowleft","0","arrowleft","[0.2,0.8,0.2,0.8]","","",""
"sailing-trial","29","301605","0.0-9.0-0.0-1.0-1.0","","","","false","","","","","","","","","","740","","126.80000019073486","","2","0","arrowright","1","arrowleft","[0.2,0.8,0.2,0.8]","","",""
"sailing-trial","30","304072","0.0-9.0-0.0-1.0-2.0","","","","false","","","","","","","","","","null","","1099.5","","0","0","null","null","arrowup","[0.2,0.8,0.2,0.8]","","",""
"sailing-trial","31","307919","0.0-9.0-0.0-1.0-3.0","","","","false","","","","","","","","","","647.1999998092651","","278.0999994277954","","3","0","arrowright","1","arrowright","[0.2,0.8,0.2,0.8]","","",""
"sailing-trial","32","311088","0.0-9.0-0.0-1.0-4.0","","","","false","","","","","","","","","","null","","751.2000007629395","","3","1","null","null","arrowup","[0.2,0.8,0.2,0.8]","","",""
"sailing-trial","33","315279","0.0-9.0-0.0-1.0-5.0","","","","false","","","","","","","","","","1039.3000001907349","","49.59999942779541","","0","1","arrowleft","0","arrowleft","[0.2,0.8,0.2,0.8]","","",""
"sailing-instructions","34","341590","0.0-10.0","","","","","","","","","","","","","","null","null","null","null","null","null","","","","","","",""
"sailing-trial","35","347853","0.0-11.0-0.0","","","","false","","","","","","","","","","1323.6999998092651","","1358.5","","0","1","arrowleft","0","arrowleft","[0.85,0.15,0.325,0.675]","","",""
"sailing-trial","36","350988","0.0-11.0-1.0","","","","false","","","","","","","","","","null","","1228.1999998092651","","0","1","null","null","arrowup","[0.85,0.15,0.325,0.675]","","",""
"sailing-trial","37","354942","0.0-11.0-2.0","","","","false","","","","","","","","","","557.1999998092651","","515.8000001907349","","3","0","arrowright","1","arrowright","[0.85,0.15,0.325,0.675]","","",""
"sailing-trial","38","357822","0.0-11.0-3.0","","","","false","","","","","","","","","","null","","896.8000001907349","","3","1","null","null","arrowup","[0.85,0.15,0.325,0.675]","","",""
"sailing-trial","39","362025","0.0-11.0-4.0","","","","false","","","","","","","","","","711.5999994277954","","508.79999923706055","","2","1","arrowright","1","arrowleft","[0.85,0.15,0.325,0.675]","","",""
"sailing-trial","40","364237","0.0-11.0-5.0","","","","false","","","","","","","","","","null","","756.5","","2","0","null","null","arrowup","[0.85,0.15,0.325,0.675]","","",""
"sailing-trial","41","369174","0.0-11.0-6.0","","","","false","","","","","","","","","","1200.3999996185303","","354.4000005722046","","3","0","arrowright","1","arrowright","[0.85,0.15,0.325,0.675]","","",""
"sailing-trial","42","371016","0.0-11.0-7.0","","","","false","","","","","","","","","","null","","444.20000076293945","","1","0","null","null","arrowup","[0.85,0.15,0.325,0.675]","","",""
"sailing-trial","43","374590","0.0-11.0-8.0","","","","false","","","","","","","","","","450.3999996185303","","94.79999923706055","","1","1","arrowleft","0","arrowright","[0.85,0.15,0.325,0.675]","","",""
"sailing-trial","44","376365","0.0-11.0-9.0","","","","false","","","","","","","","","","null","","445.19999980926514","","3","0","null","null","arrowup","[0.85,0.15,0.325,0.675]","","",""
"sailing-trial","45","380610","0.0-11.0-10.0","","","","false","","","","","","","","","","658.3000001907349","","297.5","","0","1","arrowleft","0","arrowleft","[0.85,0.15,0.325,0.675]","","",""
"sailing-trial","46","382138","0.0-11.0-11.0","","","","false","","","","","","","","","","null","","294.19999980926514","","3","0","null","null","arrowup","[0.85,0.15,0.325,0.675]","","",""
"sailing-trial","47","385506","0.0-11.0-12.0","","","","false","","","","","","","","","","576.8000001907349","","291.29999923706055","","1","0","arrowleft","0","arrowright","[0.85,0.15,0.325,0.675]","","",""
"sailing-trial","48","387793","0.0-11.0-13.0","","","","false","","","","","","","","","","null","","621.6999998092651","","3","1","null","null","arrowup","[0.85,0.15,0.325,0.675]","","",""
"sailing-trial","49","391125","0.0-11.0-14.0","","","","false","","","","","","","","","","412.1000003814697","","344.69999980926514","","2","0","arrowright","1","arrowleft","[0.85,0.15,0.325,0.675]","","",""
"sailing-trial","50","392740","0.0-11.0-15.0","","","","false","","","","","","","","","","null","","417.70000076293945","","1","0","null","null","arrowup","[0.85,0.15,0.325,0.675]","","",""
"sailing-trial","51","395806","0.0-11.0-16.0","","","","false","","","","","","","","","","371.9000005722046","","225.4000005722046","","3","0","arrowright","1","arrowright","[0.85,0.15,0.325,0.675]","","",""
"sailing-trial","52","397477","0.0-11.0-17.0","","","","false","","","","","","","","","","null","","287.8999996185303","","3","0","null","null","arrowup","[0.85,0.15,0.325,0.675]","","",""
"sailing-trial","53","401617","0.0-11.0-18.0","","","","false","","","","","","","","","","490.5","","464.20000076293945","","0","1","arrowleft","0","arrowleft","[0.85,0.15,0.325,0.675]","","",""
"sailing-trial","54","403476","0.0-11.0-19.0","","","","false","","","","","","","","","","null","","541.9000005722046","","1","0","null","null","arrowup","[0.85,0.15,0.325,0.675]","","",""
"sailing-trial","55","406913","0.0-11.0-20.0","","","","false","","","","","","","","","","452.70000076293945","","105.80000019073486","","0","1","arrowleft","0","arrowleft","[0.675,0.325,0.15,0.85]","","",""
"sailing-trial","56","408989","0.0-11.0-21.0","","","","false","","","","","","","","","","null","","706.5","","2","0","null","null","arrowup","[0.675,0.325,0.15,0.85]","","",""
"sailing-trial","57","411829","0.0-11.0-22.0","","","","false","","","","","","","","","","400.30000019073486","","154.5","","0","0","arrowleft","0","arrowleft","[0.675,0.325,0.15,0.85]","","",""
"sailing-trial","58","414106","0.0-11.0-23.0","","","","false","","","","","","","","","","null","","508.80000019073486","","0","1","null","null","arrowup","[0.675,0.325,0.15,0.85]","","",""
"sailing-trial","59","417456","0.0-11.0-24.0","","","","false","","","","","","","","","","453.8999996185303","","250.19999980926514","","1","0","arrowleft","0","arrowright","[0.675,0.325,0.15,0.85]","","",""
"sailing-trial","60","419153","0.0-11.0-25.0","","","","false","","","","","","","","","","null","","340.19999980926514","","2","0","null","null","arrowup","[0.675,0.325,0.15,0.85]","","",""
"sailing-trial","61","422816","0.0-11.0-26.0","","","","false","","","","","","","","","","252.60000038146973","","361.6000003814697","","0","1","arrowleft","0","arrowleft","[0.675,0.325,0.15,0.85]","","",""
"sailing-trial","62","424791","0.0-11.0-27.0","","","","false","","","","","","","","","","null","","245.0999994277954","","0","1","null","null","arrowup","[0.675,0.325,0.15,0.85]","","",""
"sailing-trial","63","429575","0.0-11.0-28.0","","","","false","","","","","","","","","","432.69999980926514","","108.40000057220459","","0","0","arrowleft","0","arrowleft","[0.675,0.325,0.15,0.85]","","",""
"sailing-trial","64","431568","0.0-11.0-29.0","","","","false","","","","","","","","","","null","","317.6000003814697","","0","1","null","null","arrowup","[0.675,0.325,0.15,0.85]","","",""
"sailing-trial","65","434858","0.0-11.0-30.0","","","","false","","","","","","","","","","426.8999996185303","","255","","2","0","arrowright","1","arrowleft","[0.675,0.325,0.15,0.85]","","",""
"sailing-trial","66","436325","0.0-11.0-31.0","","","","false","","","","","","","","","","null","","331.9000005722046","","0","0","null","null","arrowup","[0.675,0.325,0.15,0.85]","","",""
"sailing-trial","67","439577","0.0-11.0-32.0","","","","false","","","","","","","","","","289.5999994277954","","162.30000019073486","","3","1","arrowright","1","arrowright","[0.675,0.325,0.15,0.85]","","",""
"sailing-trial","68","441633","0.0-11.0-33.0","","","","false","","","","","","","","","","null","","91.90000057220459","","0","1","null","null","arrowup","[0.675,0.325,0.15,0.85]","","",""
"sailing-trial","69","444954","0.0-11.0-34.0","","","","false","","","","","","","","","","436.69999980926514","","241.69999980926514","","3","1","arrowright","1","arrowright","[0.675,0.325,0.15,0.85]","","",""
"sailing-trial","70","447477","0.0-11.0-35.0","","","","false","","","","","","","","","","null","","846.6999998092651","","1","1","null","null","arrowup","[0.675,0.325,0.15,0.85]","","",""
"sailing-trial","71","450935","0.0-11.0-36.0","","","","false","","","","","","","","","","351.19999980926514","","229.10000038146973","","3","1","arrowright","1","arrowright","[0.85,0.15,0.325,0.675]","","",""
"sailing-trial","72","452958","0.0-11.0-37.0","","","","false","","","","","","","","","","null","","263","","0","1","null","null","arrowup","[0.85,0.15,0.325,0.675]","","",""
"sailing-trial","73","455822","0.0-11.0-38.0","","","","false","","","","","","","","","","389.19999980926514","","288.69999980926514","","3","0","arrowright","1","arrowright","[0.85,0.15,0.325,0.675]","","",""
"sailing-trial","74","458087","0.0-11.0-39.0","","","","false","","","","","","","","","","null","","456.30000019073486","","3","1","null","null","arrowup","[0.85,0.15,0.325,0.675]","","",""
"sailing-trial","75","461769","0.0-11.0-40.0","","","","false","","","","","","","","","","499.30000019073486","","118.30000019073486","","0","1","arrowleft","0","arrowleft","[0.85,0.15,0.325,0.675]","","",""
"sailing-trial","76","463667","0.0-11.0-41.0","","","","false","","","","","","","","","","null","","115.80000019073486","","0","1","null","null","arrowup","[0.85,0.15,0.325,0.675]","","",""
"sailing-trial","77","467149","0.0-11.0-42.0","","","","false","","","","","","","","","","361","","221.39999961853027","","0","1","arrowleft","0","arrowleft","[0.85,0.15,0.325,0.675]","","",""
"sailing-trial","78","469642","0.0-11.0-43.0","","","","false","","","","","","","","","","null","","836.1999998092651","","3","1","null","null","arrowup","[0.85,0.15,0.325,0.675]","","",""
"sailing-trial","79","473154","0.0-11.0-44.0","","","","false","","","","","","","","","","365.9000005722046","","320.79999923706055","","0","1","arrowleft","0","arrowleft","[0.85,0.15,0.325,0.675]","","",""
"sailing-trial","80","474891","0.0-11.0-45.0","","","","false","","","","","","","","","","null","","466.69999980926514","","1","0","null","null","arrowup","[0.85,0.15,0.325,0.675]","","",""
"sailing-trial","81","478738","0.0-11.0-46.0","","","","false","","","","","","","","","","495.6000003814697","","739","","0","1","arrowleft","0","arrowleft","[0.85,0.15,0.325,0.675]","","",""
"sailing-trial","82","482209","0.0-11.0-47.0","","","","false","","","","","","","","","","null","","1725.2999992370605","","0","1","null","null","arrowup","[0.85,0.15,0.325,0.675]","","",""
"sailing-trial","83","485759","0.0-11.0-48.0","","","","false","","","","","","","","","","536.8000001907349","","388.69999980926514","","0","1","arrowleft","0","arrowleft","[0.85,0.15,0.325,0.675]","","",""
"sailing-trial","84","487488","0.0-11.0-49.0","","","","false","","","","","","","","","","null","","655.9000005722046","","2","0","null","null","arrowup","[0.85,0.15,0.325,0.675]","","",""
"sailing-trial","85","490783","0.0-11.0-50.0","","","","false","","","","","","","","","","574.8000001907349","","167.80000019073486","","1","0","arrowleft","0","arrowright","[0.85,0.15,0.325,0.675]","","",""
"sailing-trial","86","492614","0.0-11.0-51.0","","","","false","","","","","","","","","","null","","382.0999994277954","","1","0","null","null","arrowup","[0.85,0.15,0.325,0.675]","","",""
"sailing-trial","87","496154","0.0-11.0-52.0","","","","false","","","","","","","","","","367.5999994277954","","300.5999994277954","","0","1","arrowleft","0","arrowleft","[0.85,0.15,0.325,0.675]","","",""
"sailing-trial","88","498505","0.0-11.0-53.0","","","","false","","","","","","","","","","null","","703.2999992370605","","0","1","null","null","arrowup","[0.85,0.15,0.325,0.675]","","",""
"sailing-trial","89","501829","0.0-11.0-54.0","","","","false","","","","","","","","","","288","","228.39999961853027","","0","1","arrowleft","0","arrowleft","[0.675,0.325,0.15,0.85]","","",""
"sailing-trial","90","503919","0.0-11.0-55.0","","","","false","","","","","","","","","","null","","809.7999992370605","","2","0","null","null","arrowup","[0.675,0.325,0.15,0.85]","","",""
"sailing-trial","91","507488","0.0-11.0-56.0","","","","false","","","","","","","","","","397.3999996185303","","258.3999996185303","","0","1","arrowleft","0","arrowleft","[0.675,0.325,0.15,0.85]","","",""
"sailing-trial","92","509609","0.0-11.0-57.0","","","","false","","","","","","","","","","null","","362.70000076293945","","3","1","null","null","arrowup","[0.675,0.325,0.15,0.85]","","",""
"sailing-trial","93","512421","0.0-11.0-58.0","","","","false","","","","","","","","","","390.19999980926514","","263.69999980926514","","0","0","arrowleft","0","arrowleft","[0.675,0.325,0.15,0.85]","","",""
"sailing-trial","94","513991","0.0-11.0-59.0","","","","false","","","","","","","","","","null","","408.5","","2","0","null","null","arrowup","[0.675,0.325,0.15,0.85]","","",""
"sailing-trial","95","517398","0.0-11.0-60.0","","","","false","","","","","","","","","","345.69999980926514","","356.19999980926514","","3","1","arrowright","1","arrowright","[0.675,0.325,0.15,0.85]","","",""
"sailing-trial","96","519757","0.0-11.0-61.0","","","","false","","","","","","","","","","null","","699.3999996185303","","3","1","null","null","arrowup","[0.675,0.325,0.15,0.85]","","",""
"sailing-trial","97","523191","0.0-11.0-62.0","","","","false","","","","","","","","","","124.89999961853027","","112.09999942779541","","3","1","arrowright","1","arrowright","[0.675,0.325,0.15,0.85]","","",""
"sailing-trial","98","525054","0.0-11.0-63.0","","","","false","","","","","","","","","","null","","490.9000005722046","","3","0","null","null","arrowup","[0.675,0.325,0.15,0.85]","","",""
"sailing-trial","99","528315","0.0-11.0-64.0","","","","false","","","","","","","","","","498.5","","529","","2","0","arrowright","1","arrowleft","[0.675,0.325,0.15,0.85]","","",""
"sailing-trial","100","529946","0.0-11.0-65.0","","","","false","","","","","","","","","","null","","534.5","","2","0","null","null","arrowup","[0.675,0.325,0.15,0.85]","","",""
"sailing-trial","101","533211","0.0-11.0-66.0","","","","false","","","","","","","","","","468.8999996185303","","137.89999961853027","","3","1","arrowright","1","arrowright","[0.675,0.325,0.15,0.85]","","",""
"sailing-trial","102","535907","0.0-11.0-67.0","","","","false","","","","","","","","","","null","","941.1999998092651","","0","1","null","null","arrowup","[0.675,0.325,0.15,0.85]","","",""
"sailing-trial","103","539458","0.0-11.0-68.0","","","","false","","","","","","","","","","142.69999980926514","","570.1999998092651","","3","1","arrowright","1","arrowright","[0.675,0.325,0.15,0.85]","","",""
"sailing-trial","104","542375","0.0-11.0-69.0","","","","false","","","","","","","","","","null","","1278.6999998092651","","3","1","null","null","arrowup","[0.675,0.325,0.15,0.85]","","",""
"sailing-trial","105","545407","0.0-11.0-70.0","","","","false","","","","","","","","","","319.30000019073486","","129","","3","1","arrowright","1","arrowright","[0.85,0.15,0.325,0.675]","","",""
"sailing-trial","106","546903","0.0-11.0-71.0","","","","false","","","","","","","","","","null","","304.69999980926514","","1","0","null","null","arrowup","[0.85,0.15,0.325,0.675]","","",""
"sailing-trial","107","550121","0.0-11.0-72.0","","","","false","","","","","","","","","","423.80000019073486","","160.80000019073486","","3","1","arrowright","1","arrowright","[0.85,0.15,0.325,0.675]","","",""
"sailing-trial","108","552051","0.0-11.0-73.0","","","","false","","","","","","","","","","null","","259.69999980926514","","0","1","null","null","arrowup","[0.85,0.15,0.325,0.675]","","",""
"sailing-trial","109","555223","0.0-11.0-74.0","","","","false","","","","","","","","","","330.8999996185303","","87.79999923706055","","3","1","arrowright","1","arrowright","[0.85,0.15,0.325,0.675]","","",""
"sailing-trial","110","556742","0.0-11.0-75.0","","","","false","","","","","","","","","","null","","298.6000003814697","","1","0","null","null","arrowup","[0.85,0.15,0.325,0.675]","","",""
"sailing-trial","111","559869","0.0-11.0-76.0","","","","false","","","","","","","","","","435.4000005722046","","491.30000019073486","","1","0","arrowleft","0","arrowright","[0.85,0.15,0.325,0.675]","","",""
"sailing-trial","112","562301","0.0-11.0-77.0","","","","false","","","","","","","","","","null","","458.30000019073486","","0","1","null","null","arrowup","[0.85,0.15,0.325,0.675]","","",""
"sailing-trial","113","565502","0.0-11.0-78.0","","","","false","","","","","","","","","","297.3999996185303","","118.69999980926514","","0","1","arrowleft","0","arrowleft","[0.85,0.15,0.325,0.675]","","",""
"sailing-trial","114","567347","0.0-11.0-79.0","","","","false","","","","","","","","","","null","","92.40000057220459","","1","1","null","null","arrowup","[0.85,0.15,0.325,0.675]","","",""
"sailing-trial","115","570815","0.0-11.0-80.0","","","","false","","","","","","","","","","148","","213.60000038146973","","0","1","arrowleft","0","arrowleft","[0.85,0.15,0.325,0.675]","","",""
"sailing-trial","116","572163","0.0-11.0-81.0","","","","false","","","","","","","","","","null","","145.10000038146973","","2","0","null","null","arrowup","[0.85,0.15,0.325,0.675]","","",""
"sailing-trial","117","575472","0.0-11.0-82.0","","","","false","","","","","","","","","","258.80000019073486","","271","","0","1","arrowleft","0","arrowleft","[0.85,0.15,0.325,0.675]","","",""
"sailing-trial","118","577109","0.0-11.0-83.0","","","","false","","","","","","","","","","null","","530.8000001907349","","2","0","null","null","arrowup","[0.85,0.15,0.325,0.675]","","",""
"sailing-trial","119","580884","0.0-11.0-84.0","","","","false","","","","","","","","","","566.1999998092651","","240.10000038146973","","0","1","arrowleft","0","arrowleft","[0.85,0.15,0.325,0.675]","","",""
"sailing-trial","120","582630","0.0-11.0-85.0","","","","false","","","","","","","","","","null","","499.19999980926514","","1","0","null","null","arrowup","[0.85,0.15,0.325,0.675]","","",""
"sailing-trial","121","586151","0.0-11.0-86.0","","","","false","","","","","","","","","","448.9000005722046","","306.5999994277954","","3","1","arrowright","1","arrowright","[0.85,0.15,0.325,0.675]","","",""
"sailing-trial","122","587689","0.0-11.0-87.0","","","","false","","","","","","","","","","null","","368.80000019073486","","2","0","null","null","arrowup","[0.85,0.15,0.325,0.675]","","",""
"sailing-trial","123","591101","0.0-11.0-88.0","","","","false","","","","","","","","","","466.3999996185303","","223.10000038146973","","2","1","arrowright","1","arrowleft","[0.85,0.15,0.325,0.675]","","",""
"sailing-trial","124","592907","0.0-11.0-89.0","","","","false","","","","","","","","","","null","","524.9000005722046","","1","0","null","null","arrowup","[0.85,0.15,0.325,0.675]","","",""
"sailing-trial","125","596729","0.0-11.0-90.0","","","","false","","","","","","","","","","516","","255.10000038146973","","3","1","arrowright","1","arrowright","[0.675,0.325,0.15,0.85]","","",""
"sailing-trial","126","598628","0.0-11.0-91.0","","","","false","","","","","","","","","","null","","417.3999996185303","","0","0","null","null","arrowup","[0.675,0.325,0.15,0.85]","","",""
"sailing-trial","127","601434","0.0-11.0-92.0","","","","false","","","","","","","","","","393.19999980926514","","227.20000076293945","","1","0","arrowleft","0","arrowright","[0.675,0.325,0.15,0.85]","","",""
"sailing-trial","128","603867","0.0-11.0-93.0","","","","false","","","","","","","","","","null","","468.6000003814697","","3","1","null","null","arrowup","[0.675,0.325,0.15,0.85]","","",""
"sailing-trial","129","607114","0.0-11.0-94.0","","","","false","","","","","","","","","","275","","276","","0","1","arrowleft","0","arrowleft","[0.675,0.325,0.15,0.85]","","",""
"sailing-trial","130","608981","0.0-11.0-95.0","","","","false","","","","","","","","","","null","","112.30000019073486","","0","1","null","null","arrowup","[0.675,0.325,0.15,0.85]","","",""
"sailing-trial","131","612231","0.0-11.0-96.0","","","","false","","","","","","","","","","212.0999994277954","","387.30000019073486","","0","1","arrowleft","0","arrowleft","[0.675,0.325,0.15,0.85]","","",""
"sailing-trial","132","614180","0.0-11.0-97.0","","","","false","","","","","","","","","","null","","673.6999998092651","","2","0","null","null","arrowup","[0.675,0.325,0.15,0.85]","","",""
"sailing-trial","133","617314","0.0-11.0-98.0","","","","false","","","","","","","","","","154.30000019073486","","124.89999961853027","","0","1","arrowleft","0","arrowleft","[0.675,0.325,0.15,0.85]","","",""
"sailing-trial","134","619483","0.0-11.0-99.0","","","","false","","","","","","","","","","null","","661.6999998092651","","0","0","null","null","arrowup","[0.675,0.325,0.15,0.85]","","",""
"sailing-trial","135","622418","0.0-11.0-100.0","","","","false","","","","","","","","","","184.5","","141.20000076293945","","3","1","arrowright","1","arrowright","[0.675,0.325,0.15,0.85]","","",""
"sailing-trial","136","624568","0.0-11.0-101.0","","","","false","","","","","","","","","","null","","575.3000001907349","","0","1","null","null","arrowup","[0.675,0.325,0.15,0.85]","","",""
"sailing-trial","137","629357","0.0-11.0-102.0","","","","false","","","","","","","","","","528.3999996185303","","220.20000076293945","","3","1","arrowright","1","arrowright","[0.675,0.325,0.15,0.85]","","",""
"sailing-trial","138","631564","0.0-11.0-103.0","","","","false","","","","","","","","","","null","","436.69999980926514","","0","1","null","null","arrowup","[0.675,0.325,0.15,0.85]","","",""
"sailing-trial","139","634805","0.0-11.0-104.0","","","","false","","","","","","","","","","135.30000019073486","","141.60000038146973","","3","1","arrowright","1","arrowright","[0.675,0.325,0.15,0.85]","","",""
"sailing-trial","140","636629","0.0-11.0-105.0","","","","false","","","","","","","","","","null","","3.59999942779541","","3","1","null","null","arrowup","[0.675,0.325,0.15,0.85]","","",""
"sailing-trial","141","639101","0.0-11.0-106.0","","","","false","","","","","","","","","","125.40000057220459","","170.30000019073486","","3","0","arrowright","1","arrowright","[0.325,0.675,0.85,0.15]","","",""
"sailing-trial","142","640841","0.0-11.0-107.0","","","","false","","","","","","","","","","null","","680.2999992370605","","1","0","null","null","arrowup","[0.325,0.675,0.85,0.15]","","",""
"sailing-trial","143","644302","0.0-11.0-108.0","","","","false","","","","","","","","","","577.8999996185303","","136.20000076293945","","2","1","arrowright","1","arrowleft","[0.325,0.675,0.85,0.15]","","",""
"sailing-trial","144","646467","0.0-11.0-109.0","","","","false","","","","","","","","","","null","","493.1000003814697","","1","1","null","null","arrowup","[0.325,0.675,0.85,0.15]","","",""
"sailing-trial","145","649895","0.0-11.0-110.0","","","","false","","","","","","","","","","481.5","","286","","2","1","arrowright","1","arrowleft","[0.325,0.675,0.85,0.15]","","",""
"sailing-trial","146","651443","0.0-11.0-111.0","","","","false","","","","","","","","","","null","","464.1000003814697","","3","0","null","null","arrowup","[0.325,0.675,0.85,0.15]","","",""
"sailing-trial","147","655062","0.0-11.0-112.0","","","","false","","","","","","","","","","458.5999994277954","","151.69999980926514","","2","1","arrowright","1","arrowleft","[0.325,0.675,0.85,0.15]","","",""
"sailing-trial","148","656983","0.0-11.0-113.0","","","","false","","","","","","","","","","null","","262.8999996185303","","2","1","null","null","arrowup","[0.325,0.675,0.85,0.15]","","",""
"sailing-trial","149","660928","0.0-11.0-114.0","","","","false","","","","","","","","","","433.1000003814697","","600.6999998092651","","2","1","arrowright","1","arrowleft","[0.325,0.675,0.85,0.15]","","",""
"sailing-trial","150","662843","0.0-11.0-115.0","","","","false","","","","","","","","","","null","","405.6000003814697","","0","0","null","null","arrowup","[0.325,0.675,0.85,0.15]","","",""
"sailing-trial","151","665479","0.0-11.0-116.0","","","","false","","","","","","","","","","208","","188","","0","0","arrowleft","0","arrowleft","[0.325,0.675,0.85,0.15]","","",""
"sailing-trial","152","667159","0.0-11.0-117.0","","","","false","","","","","","","","","","null","","460.5999994277954","","2","0","null","null","arrowup","[0.325,0.675,0.85,0.15]","","",""
"sailing-trial","153","670022","0.0-11.0-118.0","","","","false","","","","","","","","","","462.19999980926514","","79.30000019073486","","1","0","arrowleft","0","arrowright","[0.325,0.675,0.85,0.15]","","",""
"sailing-trial","154","672149","0.0-11.0-119.0","","","","false","","","","","","","","","","null","","295.69999980926514","","0","1","null","null","arrowup","[0.325,0.675,0.85,0.15]","","",""
"sailing-trial","155","674977","0.0-11.0-120.0","","","","false","","","","","","","","","","380.6000003814697","","137.10000038146973","","3","0","arrowright","1","arrowright","[0.325,0.675,0.85,0.15]","","",""
"sailing-trial","156","676960","0.0-11.0-121.0","","","","false","","","","","","","","","","null","","215.30000019073486","","2","1","null","null","arrowup","[0.325,0.675,0.85,0.15]","","",""
"sailing-trial","157","680260","0.0-11.0-122.0","","","","false","","","","","","","","","","454.3999996185303","","264.5999994277954","","2","1","arrowright","1","arrowleft","[0.325,0.675,0.85,0.15]","","",""
"sailing-trial","158","682160","0.0-11.0-123.0","","","","false","","","","","","","","","","null","","322.5","","2","1","null","null","arrowup","[0.325,0.675,0.85,0.15]","","",""
"sailing-trial","159","685460","0.0-11.0-124.0","","","","false","","","","","","","","","","324.9000005722046","","218.9000005722046","","2","1","arrowright","1","arrowleft","[0.15,0.85,0.675,0.325]","","",""
"sailing-trial","160","687280","0.0-11.0-125.0","","","","false","","","","","","","","","","null","","342","","3","0","null","null","arrowup","[0.15,0.85,0.675,0.325]","","",""
"sailing-trial","161","690203","0.0-11.0-126.0","","","","false","","","","","","","","","","342.3999996185303","","355.69999980926514","","2","0","arrowright","1","arrowleft","[0.15,0.85,0.675,0.325]","","",""
"sailing-trial","162","691842","0.0-11.0-127.0","","","","false","","","","","","","","","","null","","484.8999996185303","","0","0","null","null","arrowup","[0.15,0.85,0.675,0.325]","","",""
"sailing-trial","163","695142","0.0-11.0-128.0","","","","false","","","","","","","","","","516","","70.20000076293945","","3","1","arrowright","1","arrowright","[0.15,0.85,0.675,0.325]","","",""
"sailing-trial","164","697131","0.0-11.0-129.0","","","","false","","","","","","","","","","null","","255.9000005722046","","0","1","null","null","arrowup","[0.15,0.85,0.675,0.325]","","",""
"sailing-trial","165","699996","0.0-11.0-130.0","","","","false","","","","","","","","","","0.10000038146972656","","284.0999994277954","","3","1","arrowright","1","arrowright","[0.15,0.85,0.675,0.325]","","",""
"sailing-trial","166","701293","0.0-11.0-131.0","","","","false","","","","","","","","","","null","","81.19999980926514","","2","0","null","null","arrowup","[0.15,0.85,0.675,0.325]","","",""
"sailing-trial","167","704297","0.0-11.0-132.0","","","","false","","","","","","","","","","652.3999996185303","","155.80000019073486","","0","0","arrowleft","0","arrowleft","[0.15,0.85,0.675,0.325]","","",""
"sailing-trial","168","706563","0.0-11.0-133.0","","","","false","","","","","","","","","","null","","188.69999980926514","","2","1","null","null","arrowup","[0.15,0.85,0.675,0.325]","","",""
"sailing-trial","169","709117","0.0-11.0-134.0","","","","false","","","","","","","","","","100.60000038146973","","304.1000003814697","","3","0","arrowright","1","arrowright","[0.15,0.85,0.675,0.325]","","",""
"sailing-trial","170","710520","0.0-11.0-135.0","","","","false","","","","","","","","","","null","","343.8999996185303","","0","0","null","null","arrowup","[0.15,0.85,0.675,0.325]","","",""
"sailing-trial","171","713391","0.0-11.0-136.0","","","","false","","","","","","","","","","558.3999996185303","","174.5","","1","0","arrowleft","0","arrowright","[0.15,0.85,0.675,0.325]","","",""
"sailing-trial","172","714806","0.0-11.0-137.0","","","","false","","","","","","","","","","null","","312.69999980926514","","3","0","null","null","arrowup","[0.15,0.85,0.675,0.325]","","",""
"sailing-trial","173","718353","0.0-11.0-138.0","","","","false","","","","","","","","","","400.20000076293945","","199.69999980926514","","2","1","arrowright","1","arrowleft","[0.15,0.85,0.675,0.325]","","",""
"sailing-trial","174","720330","0.0-11.0-139.0","","","","false","","","","","","","","","","null","","240","","2","1","null","null","arrowup","[0.15,0.85,0.675,0.325]","","",""
"sailing-trial","175","723880","0.0-11.0-140.0","","","","false","","","","","","","","","","156.60000038146973","","137.60000038146973","","2","1","arrowright","1","arrowleft","[0.15,0.85,0.675,0.325]","","",""
"sailing-trial","176","726424","0.0-11.0-141.0","","","","false","","","","","","","","","","null","","157.80000019073486","","2","1","null","null","arrowup","[0.15,0.85,0.675,0.325]","","",""
"sailing-trial","177","729979","0.0-11.0-142.0","","","","false","","","","","","","","","","504.79999923706055","","320.79999923706055","","2","1","arrowright","1","arrowleft","[0.325,0.675,0.85,0.15]","","",""
"sailing-trial","178","731770","0.0-11.0-143.0","","","","false","","","","","","","","","","null","","47.89999961853027","","2","1","null","null","arrowup","[0.325,0.675,0.85,0.15]","","",""
"sailing-trial","179","735159","0.0-11.0-144.0","","","","false","","","","","","","","","","519.6000003814697","","68.5","","2","1","arrowright","1","arrowleft","[0.325,0.675,0.85,0.15]","","",""
"sailing-trial","180","737759","0.0-11.0-145.0","","","","false","","","","","","","","","","null","","14.5","","1","1","null","null","arrowup","[0.325,0.675,0.85,0.15]","","",""
"sailing-trial","181","742204","0.0-11.0-146.0","","","","false","","","","","","","","","","550.8000001907349","","167.19999980926514","","2","1","arrowright","1","arrowleft","[0.325,0.675,0.85,0.15]","","",""
"sailing-trial","182","743869","0.0-11.0-147.0","","","","false","","","","","","","","","","null","","567.8000001907349","","0","0","null","null","arrowup","[0.325,0.675,0.85,0.15]","","",""
"sailing-trial","183","747859","0.0-11.0-148.0","","","","false","","","","","","","","","","605.5999994277954","","184.4000005722046","","2","1","arrowright","1","arrowleft","[0.325,0.675,0.85,0.15]","","",""
"sailing-trial","184","749930","0.0-11.0-149.0","","","","false","","","","","","","","","","null","","309.69999980926514","","1","1","null","null","arrowup","[0.325,0.675,0.85,0.15]","","",""
"sailing-trial","185","753833","0.0-11.0-150.0","","","","false","","","","","","","","","","616","","288.3999996185303","","2","1","arrowright","1","arrowleft","[0.325,0.675,0.85,0.15]","","",""
"sailing-trial","186","755486","0.0-11.0-151.0","","","","false","","","","","","","","","","null","","138.69999980926514","","0","0","null","null","arrowup","[0.325,0.675,0.85,0.15]","","",""
"sailing-trial","187","759462","0.0-11.0-152.0","","","","false","","","","","","","","","","476.19999980926514","","399.3999996185303","","2","1","arrowright","1","arrowleft","[0.325,0.675,0.85,0.15]","","",""
"sailing-trial","188","761783","0.0-11.0-153.0","","","","false","","","","","","","","","","null","","580.3999996185303","","1","1","null","null","arrowup","[0.325,0.675,0.85,0.15]","","",""
"sailing-trial","189","765630","0.0-11.0-154.0","","","","false","","","","","","","","","","573.3000001907349","","245.5","","2","1","arrowright","1","arrowleft","[0.325,0.675,0.85,0.15]","","",""
"sailing-trial","190","768231","0.0-11.0-155.0","","","","false","","","","","","","","","","null","","686.6999998092651","","2","1","null","null","arrowup","[0.325,0.675,0.85,0.15]","","",""
"sailing-trial","191","771709","0.0-11.0-156.0","","","","false","","","","","","","","","","525.0999994277954","","206.10000038146973","","2","1","arrowright","1","arrowleft","[0.325,0.675,0.85,0.15]","","",""
"sailing-trial","192","773563","0.0-11.0-157.0","","","","false","","","","","","","","","","null","","434.5999994277954","","0","0","null","null","arrowup","[0.325,0.675,0.85,0.15]","","",""
"sailing-trial","193","776485","0.0-11.0-158.0","","","","false","","","","","","","","","","425.30000019073486","","217.0999994277954","","0","0","arrowleft","0","arrowleft","[0.15,0.85,0.675,0.325]","","",""
"sailing-trial","194","778494","0.0-11.0-159.0","","","","false","","","","","","","","","","null","","251.30000019073486","","1","1","null","null","arrowup","[0.15,0.85,0.675,0.325]","","",""
"sailing-trial","195","781874","0.0-11.0-160.0","","","","false","","","","","","","","","","430.3999996185303","","193.80000019073486","","1","1","arrowleft","0","arrowright","[0.15,0.85,0.675,0.325]","","",""
"sailing-trial","196","783991","0.0-11.0-161.0","","","","false","","","","","","","","","","null","","375.5","","1","1","null","null","arrowup","[0.15,0.85,0.675,0.325]","","",""
"sailing-trial","197","787341","0.0-11.0-162.0","","","","false","","","","","","","","","","400.8999996185303","","237","","1","1","arrowleft","0","arrowright","[0.15,0.85,0.675,0.325]","","",""
"sailing-trial","198","789392","0.0-11.0-163.0","","","","false","","","","","","","","","","null","","306.9000005722046","","3","1","null","null","arrowup","[0.15,0.85,0.675,0.325]","","",""
"sailing-trial","199","792941","0.0-11.0-164.0","","","","false","","","","","","","","","","463.80000019073486","","205.5999994277954","","1","1","arrowleft","0","arrowright","[0.15,0.85,0.675,0.325]","","",""
"sailing-trial","200","795208","0.0-11.0-165.0","","","","false","","","","","","","","","","null","","381.30000019073486","","3","1","null","null","arrowup","[0.15,0.85,0.675,0.325]","","",""
"sailing-trial","201","798645","0.0-11.0-166.0","","","","false","","","","","","","","","","434","","397.0999994277954","","1","1","arrowleft","0","arrowright","[0.15,0.85,0.675,0.325]","","",""
"sailing-trial","202","800692","0.0-11.0-167.0","","","","false","","","","","","","","","","null","","200.89999961853027","","3","1","null","null","arrowup","[0.15,0.85,0.675,0.325]","","",""
"sailing-trial","203","804097","0.0-11.0-168.0","","","","false","","","","","","","","","","532.5","","102.90000057220459","","1","1","arrowleft","0","arrowright","[0.15,0.85,0.675,0.325]","","",""
"sailing-trial","204","806899","0.0-11.0-169.0","","","","false","","","","","","","","","","null","","630.1999998092651","","1","1","null","null","arrowup","[0.15,0.85,0.675,0.325]","","",""
"sailing-trial","205","810307","0.0-11.0-170.0","","","","false","","","","","","","","","","543.3000001907349","","255.39999961853027","","1","1","arrowleft","0","arrowright","[0.15,0.85,0.675,0.325]","","",""
"sailing-trial","206","812395","0.0-11.0-171.0","","","","false","","","","","","","","","","null","","438","","1","1","null","null","arrowup","[0.15,0.85,0.675,0.325]","","",""
"sailing-trial","207","815758","0.0-11.0-172.0","","","","false","","","","","","","","","","454","","137.69999980926514","","1","1","arrowleft","0","arrowright","[0.15,0.85,0.675,0.325]","","",""
"sailing-trial","208","817575","0.0-11.0-173.0","","","","false","","","","","","","","","","null","","612","","1","0","null","null","arrowup","[0.15,0.85,0.675,0.325]","","",""
"sailing-trial","209","820572","0.0-11.0-174.0","","","","false","","","","","","","","","","493.70000076293945","","249.80000019073486","","0","0","arrowleft","0","arrowleft","[0.15,0.85,0.675,0.325]","","",""
"sailing-trial","210","822624","0.0-11.0-175.0","","","","false","","","","","","","","","","null","","429.80000019073486","","0","1","null","null","arrowup","[0.15,0.85,0.675,0.325]","","",""
"sailing-trial","211","826218","0.0-11.0-176.0","","","","false","","","","","","","","","","676.4000005722046","","176.70000076293945","","3","0","arrowright","1","arrowright","[0.85,0.15,0.325,0.675]","","",""
"sailing-trial","212","829255","0.0-11.0-177.0","","","","false","","","","","","","","","","null","","1140.6999998092651","","3","1","null","null","arrowup","[0.85,0.15,0.325,0.675]","","",""
"sailing-trial","213","832707","0.0-11.0-178.0","","","","false","","","","","","","","","","455","","318.5999994277954","","2","1","arrowright","1","arrowleft","[0.85,0.15,0.325,0.675]","","",""
"sailing-trial","214","834740","0.0-11.0-179.0","","","","false","","","","","","","","","","null","","193","","3","1","null","null","arrowup","[0.85,0.15,0.325,0.675]","","",""
"sailing-trial","215","838454","0.0-11.0-180.0","","","","false","","","","","","","","","","484.3999996185303","","1007.4000005722046","","1","0","arrowleft","0","arrowright","[0.85,0.15,0.325,0.675]","","",""
"sailing-trial","216","840439","0.0-11.0-181.0","","","","false","","","","","","","","","","null","","397.19999980926514","","3","1","null","null","arrowup","[0.85,0.15,0.325,0.675]","","",""
"sailing-trial","217","843654","0.0-11.0-182.0","","","","false","","","","","","","","","","545.4000005722046","","238.5999994277954","","2","0","arrowright","1","arrowleft","[0.85,0.15,0.325,0.675]","","",""
"sailing-trial","218","845290","0.0-11.0-183.0","","","","false","","","","","","","","","","null","","396.3999996185303","","1","0","null","null","arrowup","[0.85,0.15,0.325,0.675]","","",""
"sailing-trial","219","848810","0.0-11.0-184.0","","","","false","","","","","","","","","","677.5","","44.30000019073486","","3","1","arrowright","1","arrowright","[0.85,0.15,0.325,0.675]","","",""
"sailing-trial","220","851084","0.0-11.0-185.0","","","","false","","","","","","","","","","null","","472.8999996185303","","0","1","null","null","arrowup","[0.85,0.15,0.325,0.675]","","",""
"sailing-trial","221","855357","0.0-11.0-186.0","","","","false","","","","","","","","","","584.3000001907349","","785.1000003814697","","3","1","arrowright","1","arrowright","[0.85,0.15,0.325,0.675]","","",""
"sailing-trial","222","857060","0.0-11.0-187.0","","","","false","","","","","","","","","","null","","513.5","","2","0","null","null","arrowup","[0.85,0.15,0.325,0.675]","","",""
"sailing-trial","223","859986","0.0-11.0-188.0","","","","false","","","","","","","","","","471.69999980926514","","172.80000019073486","","2","0","arrowright","1","arrowleft","[0.85,0.15,0.325,0.675]","","",""
"sailing-trial","224","861524","0.0-11.0-189.0","","","","false","","","","","","","","","","null","","401.3999996185303","","3","0","null","null","arrowup","[0.85,0.15,0.325,0.675]","","",""
"sailing-trial","225","864639","0.0-11.0-190.0","","","","false","","","","","","","","","","462","","12.5","","0","1","arrowleft","0","arrowleft","[0.85,0.15,0.325,0.675]","","",""
"sailing-trial","226","866607","0.0-11.0-191.0","","","","false","","","","","","","","","","null","","209.5","","3","1","null","null","arrowup","[0.85,0.15,0.325,0.675]","","",""
"sailing-trial","227","869486","0.0-11.0-192.0","","","","false","","","","","","","","","","499.3999996185303","","157.79999923706055","","0","0","arrowleft","0","arrowleft","[0.85,0.15,0.325,0.675]","","",""
"sailing-trial","228","871740","0.0-11.0-193.0","","","","false","","","","","","","","","","null","","601.1999998092651","","0","1","null","null","arrowup","[0.85,0.15,0.325,0.675]","","",""
"sailing-trial","229","874803","0.0-11.0-194.0","","","","false","","","","","","","","","","634","","199.5","","1","0","arrowleft","0","arrowright","[0.85,0.15,0.325,0.675]","","",""
"sailing-trial","230","876694","0.0-11.0-195.0","","","","false","","","","","","","","","","null","","407.9000005722046","","0","0","null","null","arrowup","[0.85,0.15,0.325,0.675]","","",""
"sailing-trial","231","880651","0.0-11.0-196.0","","","","false","","","","","","","","","","450","","131.80000019073486","","2","0","arrowright","1","arrowleft","[0.325,0.675,0.85,0.15]","","",""
"sailing-trial","232","882217","0.0-11.0-197.0","","","","false","","","","","","","","","","null","","386.80000019073486","","3","0","null","null","arrowup","[0.325,0.675,0.85,0.15]","","",""
"sailing-trial","233","885008","0.0-11.0-198.0","","","","false","","","","","","","","","","431.0999994277954","","110.90000057220459","","3","0","arrowright","1","arrowright","[0.325,0.675,0.85,0.15]","","",""
"sailing-trial","234","886604","0.0-11.0-199.0","","","","false","","","","","","","","","","null","","397.30000019073486","","1","0","null","null","arrowup","[0.325,0.675,0.85,0.15]","","",""
"sailing-trial","235","889694","0.0-11.0-200.0","","","","false","","","","","","","","","","692.1999998092651","","116.69999980926514","","3","0","arrowright","1","arrowright","[0.325,0.675,0.85,0.15]","","",""
"sailing-trial","236","891926","0.0-11.0-201.0","","","","false","","","","","","","","","","null","","385.5999994277954","","2","1","null","null","arrowup","[0.325,0.675,0.85,0.15]","","",""
"sailing-trial","237","895011","0.0-11.0-202.0","","","","false","","","","","","","","","","577.9000005722046","","322.1000003814697","","0","0","arrowleft","0","arrowleft","[0.325,0.675,0.85,0.15]","","",""
"sailing-trial","238","897172","0.0-11.0-203.0","","","","false","","","","","","","","","","null","","433","","3","1","null","null","arrowup","[0.325,0.675,0.85,0.15]","","",""
"sailing-trial","239","900322","0.0-11.0-204.0","","","","false","","","","","","","","","","479.5","","151.89999961853027","","1","0","arrowleft","0","arrowright","[0.325,0.675,0.85,0.15]","","",""
"sailing-trial","240","902459","0.0-11.0-205.0","","","","false","","","","","","","","","","null","","410.5","","2","1","null","null","arrowup","[0.325,0.675,0.85,0.15]","","",""
"sailing-trial","241","905442","0.0-11.0-206.0","","","","false","","","","","","","","","","425.69999980926514","","303.5","","3","0","arrowright","1","arrowright","[0.325,0.675,0.85,0.15]","","",""
"sailing-trial","242","907422","0.0-11.0-207.0","","","","false","","","","","","","","","","null","","331.19999980926514","","2","1","null","null","arrowup","[0.325,0.675,0.85,0.15]","","",""
"sailing-trial","243","911171","0.0-11.0-208.0","","","","false","","","","","","","","","","462.79999923706055","","513.3999996185303","","2","1","arrowright","1","arrowleft","[0.325,0.675,0.85,0.15]","","",""
"sailing-trial","244","913392","0.0-11.0-209.0","","","","false","","","","","","","","","","null","","499.5","","1","1","null","null","arrowup","[0.325,0.675,0.85,0.15]","","",""
"sailing-trial","245","916805","0.0-11.0-210.0","","","","false","","","","","","","","","","498.79999923706055","","232.5","","2","1","arrowright","1","arrowleft","[0.325,0.675,0.85,0.15]","","",""
"sailing-trial","246","918525","0.0-11.0-211.0","","","","false","","","","","","","","","","null","","582.6000003814697","","3","0","null","null","arrowup","[0.325,0.675,0.85,0.15]","","",""
"sailing-trial","247","922003","0.0-11.0-212.0","","","","false","","","","","","","","","","507.80000019073486","","182.60000038146973","","2","1","arrowright","1","arrowleft","[0.15,0.85,0.675,0.325]","","",""
"sailing-trial","248","923458","0.0-11.0-213.0","","","","false","","","","","","","","","","null","","345.1000003814697","","0","0","null","null","arrowup","[0.15,0.85,0.675,0.325]","","",""
"sailing-trial","249","927253","0.0-11.0-214.0","","","","false","","","","","","","","","","1125.6999998092651","","294.30000019073486","","2","0","arrowright","1","arrowleft","[0.15,0.85,0.675,0.325]","","",""
"sailing-trial","250","929744","0.0-11.0-215.0","","","","false","","","","","","","","","","null","","560","","2","1","null","null","arrowup","[0.15,0.85,0.675,0.325]","","",""
"sailing-trial","251","933788","0.0-11.0-216.0","","","","false","","","","","","","","","","984.1999998092651","","295.5","","3","1","arrowright","1","arrowright","[0.15,0.85,0.675,0.325]","","",""
"sailing-trial","252","936020","0.0-11.0-217.0","","","","false","","","","","","","","","","null","","595.9000005722046","","1","1","null","null","arrowup","[0.15,0.85,0.675,0.325]","","",""
"sailing-trial","253","938838","0.0-11.0-218.0","","","","false","","","","","","","","","","358.8999996185303","","212.69999980926514","","3","0","arrowright","1","arrowright","[0.15,0.85,0.675,0.325]","","",""
"sailing-trial","254","940987","0.0-11.0-219.0","","","","false","","","","","","","","","","null","","580.8999996185303","","1","1","null","null","arrowup","[0.15,0.85,0.675,0.325]","","",""
"sailing-trial","255","944069","0.0-11.0-220.0","","","","false","","","","","","","","","","235.20000076293945","","232.60000038146973","","1","1","arrowleft","0","arrowright","[0.15,0.85,0.675,0.325]","","",""
"sailing-trial","256","946398","0.0-11.0-221.0","","","","false","","","","","","","","","","null","","1070.3000001907349","","0","0","null","null","arrowup","[0.15,0.85,0.675,0.325]","","",""
"sailing-trial","257","949851","0.0-11.0-222.0","","","","false","","","","","","","","","","694.3999996185303","","129.89999961853027","","1","1","arrowleft","0","arrowright","[0.15,0.85,0.675,0.325]","","",""
"sailing-trial","258","951791","0.0-11.0-223.0","","","","false","","","","","","","","","","null","","257.70000076293945","","1","1","null","null","arrowup","[0.15,0.85,0.675,0.325]","","",""
"sailing-trial","259","955102","0.0-11.0-224.0","","","","false","","","","","","","","","","195.9000005722046","","402.3999996185303","","1","1","arrowleft","0","arrowright","[0.15,0.85,0.675,0.325]","","",""
"sailing-trial","260","957240","0.0-11.0-225.0","","","","false","","","","","","","","","","null","","474.6000003814697","","1","1","null","null","arrowup","[0.15,0.85,0.675,0.325]","","",""
"sailing-trial","261","960179","0.0-11.0-226.0","","","","false","","","","","","","","","","445.3999996185303","","201.70000076293945","","1","0","arrowleft","0","arrowright","[0.15,0.85,0.675,0.325]","","",""
"sailing-trial","262","962085","0.0-11.0-227.0","","","","false","","","","","","","","","","null","","304.0999994277954","","0","1","null","null","arrowup","[0.15,0.85,0.675,0.325]","","",""
"sailing-trial","263","965795","0.0-11.0-228.0","","","","false","","","","","","","","","","277.30000019073486","","188.79999923706055","","1","1","arrowleft","0","arrowright","[0.325,0.675,0.85,0.15]","","",""
"sailing-trial","264","967533","0.0-11.0-229.0","","","","false","","","","","","","","","","null","","70.70000076293945","","0","0","null","null","arrowup","[0.325,0.675,0.85,0.15]","","",""
"sailing-trial","265","970413","0.0-11.0-230.0","","","","false","","","","","","","","","","530.2000007629395","","258.4000005722046","","0","0","arrowleft","0","arrowleft","[0.325,0.675,0.85,0.15]","","",""
"sailing-trial","266","972467","0.0-11.0-231.0","","","","false","","","","","","","","","","null","","193.69999980926514","","2","1","null","null","arrowup","[0.325,0.675,0.85,0.15]","","",""
"sailing-trial","267","975630","0.0-11.0-232.0","","","","false","","","","","","","","","","192.80000019073486","","209","","2","1","arrowright","1","arrowleft","[0.325,0.675,0.85,0.15]","","",""
"sailing-trial","268","977697","0.0-11.0-233.0","","","","false","","","","","","","","","","null","","432.5999994277954","","1","1","null","null","arrowup","[0.325,0.675,0.85,0.15]","","",""
"sailing-trial","269","981250","0.0-11.0-234.0","","","","false","","","","","","","","","","363.69999980926514","","251.20000076293945","","2","1","arrowright","1","arrowleft","[0.325,0.675,0.85,0.15]","","",""
"sailing-trial","270","982904","0.0-11.0-235.0","","","","false","","","","","","","","","","null","","461.8999996185303","","1","0","null","null","arrowup","[0.325,0.675,0.85,0.15]","","",""
"sailing-trial","271","985884","0.0-11.0-236.0","","","","false","","","","","","","","","","526.1999998092651","","201.69999980926514","","3","0","arrowright","1","arrowright","[0.325,0.675,0.85,0.15]","","",""
"sailing-trial","272","987450","0.0-11.0-237.0","","","","false","","","","","","","","","","null","","421.69999980926514","","3","0","null","null","arrowup","[0.325,0.675,0.85,0.15]","","",""
"sailing-trial","273","990768","0.0-11.0-238.0","","","","false","","","","","","","","","","434.1000003814697","","160","","2","1","arrowright","1","arrowleft","[0.325,0.675,0.85,0.15]","","",""
"sailing-trial","274","993120","0.0-11.0-239.0","","","","false","","","","","","","","","","null","","437.5","","1","1","null","null","arrowup","[0.325,0.675,0.85,0.15]","","",""
"sailing-trial","275","997100","0.0-11.0-240.0","","","","false","","","","","","","","","","931.4000005722046","","341.5","","2","1","arrowright","1","arrowleft","[0.325,0.675,0.85,0.15]","","",""
"sailing-trial","276","999303","0.0-11.0-241.0","","","","false","","","","","","","","","","null","","426.70000076293945","","3","1","null","null","arrowup","[0.325,0.675,0.85,0.15]","","",""
"sailing-trial","277","1002173","0.0-11.0-242.0","","","","false","","","","","","","","","","419.69999980926514","","155.5","","2","0","arrowright","1","arrowleft","[0.325,0.675,0.85,0.15]","","",""
"sailing-trial","278","1004077","0.0-11.0-243.0","","","","false","","","","","","","","","","null","","399.6000003814697","","1","0","null","null","arrowup","[0.325,0.675,0.85,0.15]","","",""
"sailing-trial","279","1007059","0.0-11.0-244.0","","","","false","","","","","","","","","","291.5999994277954","","144.5","","3","0","arrowright","1","arrowright","[0.325,0.675,0.85,0.15]","","",""
"sailing-trial","280","1008579","0.0-11.0-245.0","","","","false","","","","","","","","","","null","","335.8999996185303","","3","0","null","null","arrowup","[0.325,0.675,0.85,0.15]","","",""
"sailing-trial","281","1011894","0.0-11.0-246.0","","","","false","","","","","","","","","","442.1000003814697","","125.5","","1","1","arrowleft","0","arrowright","[0.675,0.325,0.15,0.85]","","",""
"sailing-trial","282","1013521","0.0-11.0-247.0","","","","false","","","","","","","","","","null","","312.4000005722046","","2","0","null","null","arrowup","[0.675,0.325,0.15,0.85]","","",""
"sailing-trial","283","1016644","0.0-11.0-248.0","","","","false","","","","","","","","","","445.19999980926514","","26.5","","0","1","arrowleft","0","arrowleft","[0.675,0.325,0.15,0.85]","","",""
"sailing-trial","284","1018359","0.0-11.0-249.0","","","","false","","","","","","","","","","null","","430.5","","2","0","null","null","arrowup","[0.675,0.325,0.15,0.85]","","",""
"sailing-trial","285","1021058","0.0-11.0-250.0","","","","false","","","","","","","","","","281.8999996185303","","317.19999980926514","","1","0","arrowleft","0","arrowright","[0.675,0.325,0.15,0.85]","","",""
"sailing-trial","286","1022760","0.0-11.0-251.0","","","","false","","","","","","","","","","null","","263.5","","2","0","null","null","arrowup","[0.675,0.325,0.15,0.85]","","",""
"sailing-trial","287","1026061","0.0-11.0-252.0","","","","false","","","","","","","","","","526.1999998092651","","165","","0","1","arrowleft","0","arrowleft","[0.675,0.325,0.15,0.85]","","",""
"sailing-trial","288","1028031","0.0-11.0-253.0","","","","false","","","","","","","","","","null","","198.20000076293945","","3","1","null","null","arrowup","[0.675,0.325,0.15,0.85]","","",""
"sailing-trial","289","1030477","0.0-11.0-254.0","","","","false","","","","","","","","","","168.10000038146973","","138.0999994277954","","3","0","arrowright","1","arrowright","[0.675,0.325,0.15,0.85]","","",""
"sailing-trial","290","1031876","0.0-11.0-255.0","","","","false","","","","","","","","","","null","","226.5999994277954","","2","0","null","null","arrowup","[0.675,0.325,0.15,0.85]","","",""
"sailing-trial","291","1034917","0.0-11.0-256.0","","","","false","","","","","","","","","","270.69999980926514","","23.200000762939453","","0","0","arrowleft","0","arrowleft","[0.675,0.325,0.15,0.85]","","",""
"sailing-trial","292","1036462","0.0-11.0-257.0","","","","false","","","","","","","","","","null","","158.5","","2","0","null","null","arrowup","[0.675,0.325,0.15,0.85]","","",""
"sailing-trial","293","1039282","0.0-11.0-258.0","","","","false","","","","","","","","","","262","","219.5999994277954","","0","0","arrowleft","0","arrowleft","[0.675,0.325,0.15,0.85]","","",""
"sailing-trial","294","1041836","0.0-11.0-259.0","","","","false","","","","","","","","","","null","","209.89999961853027","","0","1","null","null","arrowup","[0.675,0.325,0.15,0.85]","","",""
"sailing-trial","295","1044611","0.0-11.0-260.0","","","","false","","","","","","","","","","520.8999996185303","","94.5","","1","0","arrowleft","0","arrowright","[0.675,0.325,0.15,0.85]","","",""
"sailing-trial","296","1046057","0.0-11.0-261.0","","","","false","","","","","","","","","","null","","377","","1","0","null","null","arrowup","[0.675,0.325,0.15,0.85]","","",""
"sailing-trial","297","1049449","0.0-11.0-262.0","","","","false","","","","","","","","","","388.69999980926514","","52.19999980926514","","0","0","arrowleft","0","arrowleft","[0.85,0.15,0.325,0.675]","","",""
"sailing-trial","298","1051378","0.0-11.0-263.0","","","","false","","","","","","","","","","null","","266.80000019073486","","3","1","null","null","arrowup","[0.85,0.15,0.325,0.675]","","",""
"sailing-trial","299","1054383","0.0-11.0-264.0","","","","false","","","","","","","","","","45.10000038146973","","242.29999923706055","","3","1","arrowright","1","arrowright","[0.85,0.15,0.325,0.675]","","",""
"sailing-trial","300","1057336","0.0-11.0-265.0","","","","false","","","","","","","","","","null","","513.5999994277954","","3","1","null","null","arrowup","[0.85,0.15,0.325,0.675]","","",""
"sailing-trial","301","1060914","0.0-11.0-266.0","","","","false","","","","","","","","","","685.9000005722046","","51.40000057220459","","3","0","arrowright","1","arrowright","[0.85,0.15,0.325,0.675]","","",""
"sailing-trial","302","1064128","0.0-11.0-267.0","","","","false","","","","","","","","","","null","","1490.8999996185303","","0","1","null","null","arrowup","[0.85,0.15,0.325,0.675]","","",""
"sailing-trial","303","1067563","0.0-11.0-268.0","","","","false","","","","","","","","","","116.5","","36.39999961853027","","2","0","arrowright","1","arrowleft","[0.85,0.15,0.325,0.675]","","",""
"sailing-trial","304","1069326","0.0-11.0-269.0","","","","false","","","","","","","","","","null","","455.5999994277954","","2","0","null","null","arrowup","[0.85,0.15,0.325,0.675]","","",""
"sailing-trial","305","1072714","0.0-11.0-270.0","","","","false","","","","","","","","","","275.5","","399.80000019073486","","0","1","arrowleft","0","arrowleft","[0.85,0.15,0.325,0.675]","","",""
"sailing-trial","306","1075145","0.0-11.0-271.0","","","","false","","","","","","","","","","null","","80.09999942779541","","2","1","null","null","arrowup","[0.85,0.15,0.325,0.675]","","",""
"sailing-trial","307","1077773","0.0-11.0-272.0","","","","false","","","","","","","","","","201.30000019073486","","144.39999961853027","","0","0","arrowleft","0","arrowleft","[0.85,0.15,0.325,0.675]","","",""
"sailing-trial","308","1080548","0.0-11.0-273.0","","","","false","","","","","","","","","","null","","869.1999998092651","","0","1","null","null","arrowup","[0.85,0.15,0.325,0.675]","","",""
"sailing-trial","309","1084114","0.0-11.0-274.0","","","","false","","","","","","","","","","556.8999996185303","","297.1000003814697","","0","1","arrowleft","0","arrowleft","[0.85,0.15,0.325,0.675]","","",""
"sailing-trial","310","1085453","0.0-11.0-275.0","","","","false","","","","","","","","","","null","","145.79999923706055","","1","0","null","null","arrowup","[0.85,0.15,0.325,0.675]","","",""
"sailing-trial","311","1088963","0.0-11.0-276.0","","","","false","","","","","","","","","","486.1000003814697","","99.5","","0","1","arrowleft","0","arrowleft","[0.85,0.15,0.325,0.675]","","",""
"sailing-trial","312","1090801","0.0-11.0-277.0","","","","false","","","","","","","","","","null","","579.5","","2","0","null","null","arrowup","[0.85,0.15,0.325,0.675]","","",""
"sailing-trial","313","1094793","0.0-11.0-278.0","","","","false","","","","","","","","","","986.3000001907349","","336.19999980926514","","2","0","arrowright","1","arrowleft","[0.85,0.15,0.325,0.675]","","",""
"sailing-trial","314","1096345","0.0-11.0-279.0","","","","false","","","","","","","","","","null","","369.5","","1","0","null","null","arrowup","[0.85,0.15,0.325,0.675]","","",""
"sailing-trial","315","1100130","0.0-11.0-280.0","","","","false","","","","","","","","","","448.30000019073486","","213.30000019073486","","3","1","arrowright","1","arrowright","[0.85,0.15,0.325,0.675]","","",""
"sailing-trial","316","1102888","0.0-11.0-281.0","","","","false","","","","","","","","","","null","","1057.9000005722046","","0","1","null","null","arrowup","[0.85,0.15,0.325,0.675]","","",""
"sailing-trial","317","1117907","0.0-11.0-282.0","","","","true","","","","","","","","","","null","","null","","null","null","null","null","null","[0.675,0.325,0.15,0.85]","","",""
"sailing-trial","318","1127545","0.0-11.0-283.0","","","","false","","","","","","","","","","null","","7761.800000190735","","1","0","null","null","arrowup","[0.675,0.325,0.15,0.85]","","",""
"sailing-trial","319","1131647","0.0-11.0-284.0","","","","false","","","","","","","","","","1007.3000001907349","","207.5","","0","1","arrowleft","0","arrowleft","[0.675,0.325,0.15,0.85]","","",""
"sailing-trial","320","1134015","0.0-11.0-285.0","","","","false","","","","","","","","","","null","","597.6000003814697","","0","1","null","null","arrowup","[0.675,0.325,0.15,0.85]","","",""
"sailing-trial","321","1136941","0.0-11.0-286.0","","","","false","","","","","","","","","","589.5999994277954","","222.70000076293945","","0","0","arrowleft","0","arrowleft","[0.675,0.325,0.15,0.85]","","",""
"sailing-trial","322","1139234","0.0-11.0-287.0","","","","false","","","","","","","","","","null","","414.4000005722046","","0","1","null","null","arrowup","[0.675,0.325,0.15,0.85]","","",""
"sailing-trial","323","1142505","0.0-11.0-288.0","","","","false","","","","","","","","","","403.8999996185303","","583.9000005722046","","1","0","arrowleft","0","arrowright","[0.675,0.325,0.15,0.85]","","",""
"sailing-trial","324","1144576","0.0-11.0-289.0","","","","false","","","","","","","","","","null","","489.6000003814697","","0","1","null","null","arrowup","[0.675,0.325,0.15,0.85]","","",""
"sailing-trial","325","1147768","0.0-11.0-290.0","","","","false","","","","","","","","","","240.4000005722046","","122.30000019073486","","0","1","arrowleft","0","arrowleft","[0.675,0.325,0.15,0.85]","","",""
"sailing-trial","326","1149862","0.0-11.0-291.0","","","","false","","","","","","","","","","null","","425.30000019073486","","3","1","null","null","arrowup","[0.675,0.325,0.15,0.85]","","",""
"sailing-trial","327","1153295","0.0-11.0-292.0","","","","false","","","","","","","","","","480.19999980926514","","250.89999961853027","","0","1","arrowleft","0","arrowleft","[0.675,0.325,0.15,0.85]","","",""
"sailing-trial","328","1154813","0.0-11.0-293.0","","","","false","","","","","","","","","","null","","367.5999994277954","","2","0","null","null","arrowup","[0.675,0.325,0.15,0.85]","","",""
"sailing-trial","329","1158230","0.0-11.0-294.0","","","","false","","","","","","","","","","463.80000019073486","","215.9000005722046","","0","0","arrowleft","0","arrowleft","[0.675,0.325,0.15,0.85]","","",""
"sailing-trial","330","1159654","0.0-11.0-295.0","","","","false","","","","","","","","","","null","","311.1000003814697","","1","0","null","null","arrowup","[0.675,0.325,0.15,0.85]","","",""
"sailing-trial","331","1162746","0.0-11.0-296.0","","","","false","","","","","","","","","","398","","194.4000005722046","","3","0","arrowright","1","arrowright","[0.675,0.325,0.15,0.85]","","",""
"sailing-trial","332","1164692","0.0-11.0-297.0","","","","false","","","","","","","","","","null","","384.29999923706055","","3","1","null","null","arrowup","[0.675,0.325,0.15,0.85]","","",""
"sailing-trial","333","1167403","0.0-11.0-298.0","","","","false","","","","","","","","","","365.20000076293945","","189.30000019073486","","2","0","arrowright","1","arrowleft","[0.15,0.85,0.675,0.325]","","",""
"sailing-trial","334","1168991","0.0-11.0-299.0","","","","false","","","","","","","","","","null","","521","","2","0","null","null","arrowup","[0.15,0.85,0.675,0.325]","","",""
"sailing-trial","335","1171974","0.0-11.0-300.0","","","","false","","","","","","","","","","392.6000003814697","","174.39999961853027","","0","0","arrowleft","0","arrowleft","[0.15,0.85,0.675,0.325]","","",""
"sailing-trial","336","1173655","0.0-11.0-301.0","","","","false","","","","","","","","","","null","","311.19999980926514","","3","0","null","null","arrowup","[0.15,0.85,0.675,0.325]","","",""
"sailing-trial","337","1177180","0.0-11.0-302.0","","","","false","","","","","","","","","","463.5","","279.3999996185303","","1","1","arrowleft","0","arrowright","[0.15,0.85,0.675,0.325]","","",""
"sailing-trial","338","1178763","0.0-11.0-303.0","","","","false","","","","","","","","","","null","","522.8000001907349","","3","0","null","null","arrowup","[0.15,0.85,0.675,0.325]","","",""
"sailing-trial","339","1182376","0.0-11.0-304.0","","","","false","","","","","","","","","","494.80000019073486","","141.80000019073486","","1","1","arrowleft","0","arrowright","[0.15,0.85,0.675,0.325]","","",""
"sailing-trial","340","1183786","0.0-11.0-305.0","","","","false","","","","","","","","","","null","","325.4000005722046","","3","0","null","null","arrowup","[0.15,0.85,0.675,0.325]","","",""
"sailing-trial","341","1187290","0.0-11.0-306.0","","","","false","","","","","","","","","","715.4000005722046","","107.59999942779541","","1","0","arrowleft","0","arrowright","[0.15,0.85,0.675,0.325]","","",""
"sailing-trial","342","1188766","0.0-11.0-307.0","","","","false","","","","","","","","","","null","","395.5999994277954","","2","0","null","null","arrowup","[0.15,0.85,0.675,0.325]","","",""
"sailing-trial","343","1191771","0.0-11.0-308.0","","","","false","","","","","","","","","","716.5999994277954","","10.09999942779541","","3","0","arrowright","1","arrowright","[0.15,0.85,0.675,0.325]","","",""
"sailing-trial","344","1193725","0.0-11.0-309.0","","","","false","","","","","","","","","","null","","333.9000005722046","","2","1","null","null","arrowup","[0.15,0.85,0.675,0.325]","","",""
"sailing-trial","345","1196649","0.0-11.0-310.0","","","","false","","","","","","","","","","453.8999996185303","","295.5","","2","0","arrowright","1","arrowleft","[0.15,0.85,0.675,0.325]","","",""
"sailing-trial","346","1198174","0.0-11.0-311.0","","","","false","","","","","","","","","","null","","421.6000003814697","","3","0","null","null","arrowup","[0.15,0.85,0.675,0.325]","","",""
"sailing-trial","347","1200969","0.0-11.0-312.0","","","","false","","","","","","","","","","350","","192.89999961853027","","0","0","arrowleft","0","arrowleft","[0.15,0.85,0.675,0.325]","","",""
"sailing-trial","348","1202878","0.0-11.0-313.0","","","","false","","","","","","","","","","null","","314.9000005722046","","2","1","null","null","arrowup","[0.15,0.85,0.675,0.325]","","",""
"sailing-trial","349","1206051","0.0-11.0-314.0","","","","false","","","","","","","","","","866.8000001907349","","84.69999980926514","","0","0","arrowleft","0","arrowleft","[0.15,0.85,0.675,0.325]","","",""
"sailing-trial","350","1207920","0.0-11.0-315.0","","","","false","","","","","","","","","","null","","346.80000019073486","","2","0","null","null","arrowup","[0.15,0.85,0.675,0.325]","","",""
"sailing-trial","351","1210446","0.0-11.0-316.0","","","","false","","","","","","","","","","279.3999996185303","","50.60000038146973","","2","0","arrowright","1","arrowleft","[0.15,0.85,0.675,0.325]","","",""
"sailing-trial","352","1212026","0.0-11.0-317.0","","","","false","","","","","","","","","","null","","303.8999996185303","","3","0","null","null","arrowup","[0.15,0.85,0.675,0.325]","","",""
"sailing-trial","353","1215260","0.0-11.0-318.0","","","","false","","","","","","","","","","280.80000019073486","","267.80000019073486","","1","1","arrowleft","0","arrowright","[0.15,0.85,0.675,0.325]","","",""
"sailing-trial","354","1216871","0.0-11.0-319.0","","","","false","","","","","","","","","","null","","211.19999980926514","","2","0","null","null","arrowup","[0.15,0.85,0.675,0.325]","","",""
"sailing-trial","355","1220312","0.0-11.0-320.0","","","","false","","","","","","","","","","427.69999980926514","","168.70000076293945","","0","1","arrowleft","0","arrowleft","[0.675,0.325,0.15,0.85]","","",""
"sailing-trial","356","1221903","0.0-11.0-321.0","","","","false","","","","","","","","","","null","","145.60000038146973","","0","0","null","null","arrowup","[0.675,0.325,0.15,0.85]","","",""
"sailing-trial","357","1226238","0.0-11.0-322.0","","","","false","","","","","","","","","","1073.8000001907349","","416.9000005722046","","2","1","arrowright","1","arrowleft","[0.675,0.325,0.15,0.85]","","",""
"sailing-trial","358","1229422","0.0-11.0-323.0","","","","false","","","","","","","","","","null","","840.6000003814697","","3","1","null","null","arrowup","[0.675,0.325,0.15,0.85]","","",""
"sailing-trial","359","1233196","0.0-11.0-324.0","","","","false","","","","","","","","","","530.5","","505.1000003814697","","0","1","arrowleft","0","arrowleft","[0.675,0.325,0.15,0.85]","","",""
"sailing-trial","360","1235036","0.0-11.0-325.0","","","","false","","","","","","","","","","null","","589.3000001907349","","1","0","null","null","arrowup","[0.675,0.325,0.15,0.85]","","",""
"sailing-trial","361","1238815","0.0-11.0-326.0","","","","false","","","","","","","","","","463.20000076293945","","151","","2","0","arrowright","1","arrowleft","[0.675,0.325,0.15,0.85]","","",""
"sailing-trial","362","1240636","0.0-11.0-327.0","","","","false","","","","","","","","","","null","","597.6000003814697","","3","0","null","null","arrowup","[0.675,0.325,0.15,0.85]","","",""
"sailing-trial","363","1244370","0.0-11.0-328.0","","","","false","","","","","","","","","","677.4000005722046","","255.19999980926514","","1","1","arrowleft","0","arrowright","[0.675,0.325,0.15,0.85]","","",""
"sailing-trial","364","1246611","0.0-11.0-329.0","","","","false","","","","","","","","","","null","","441.80000019073486","","0","1","null","null","arrowup","[0.675,0.325,0.15,0.85]","","",""
"sailing-trial","365","1249936","0.0-11.0-330.0","","","","false","","","","","","","","","","526.9000005722046","","499","","1","0","arrowleft","0","arrowright","[0.675,0.325,0.15,0.85]","","",""
"sailing-trial","366","1251409","0.0-11.0-331.0","","","","false","","","","","","","","","","null","","344.8999996185303","","1","0","null","null","arrowup","[0.675,0.325,0.15,0.85]","","",""
"sailing-trial","367","1254688","0.0-11.0-332.0","","","","false","","","","","","","","","","355.3999996185303","","83.09999942779541","","0","1","arrowleft","0","arrowleft","[0.675,0.325,0.15,0.85]","","",""
"sailing-trial","368","1256974","0.0-11.0-333.0","","","","false","","","","","","","","","","null","","629","","2","1","null","null","arrowup","[0.675,0.325,0.15,0.85]","","",""
"sailing-trial","369","1260056","0.0-11.0-334.0","","","","false","","","","","","","","","","228.60000038146973","","106.19999980926514","","0","1","arrowleft","0","arrowleft","[0.675,0.325,0.15,0.85]","","",""
"sailing-trial","370","1262162","0.0-11.0-335.0","","","","false","","","","","","","","","","null","","40.5","","3","1","null","null","arrowup","[0.675,0.325,0.15,0.85]","","",""
"sailing-trial","371","1265125","0.0-11.0-336.0","","","","false","","","","","","","","","","25.40000057220459","","115.30000019073486","","0","1","arrowleft","0","arrowleft","[0.675,0.325,0.15,0.85]","","",""
"sailing-trial","372","1267404","0.0-11.0-337.0","","","","false","","","","","","","","","","null","","529.6999998092651","","3","1","null","null","arrowup","[0.675,0.325,0.15,0.85]","","",""
"sailing-trial","373","1271035","0.0-11.0-338.0","","","","false","","","","","","","","","","630","","192.70000076293945","","0","1","arrowleft","0","arrowleft","[0.675,0.325,0.15,0.85]","","",""
"sailing-trial","374","1273135","0.0-11.0-339.0","","","","false","","","","","","","","","","null","","464.30000019073486","","0","1","null","null","arrowup","[0.675,0.325,0.15,0.85]","","",""
"sailing-trial","375","1276577","0.0-11.0-340.0","","","","false","","","","","","","","","","453.69999980926514","","200.5","","0","0","arrowleft","0","arrowleft","[0.675,0.325,0.15,0.85]","","",""
"sailing-trial","376","1278633","0.0-11.0-341.0","","","","false","","","","","","","","","","null","","465.6000003814697","","3","1","null","null","arrowup","[0.675,0.325,0.15,0.85]","","",""
"sailing-trial","377","1281354","0.0-11.0-342.0","","","","false","","","","","","","","","","358.19999980926514","","156.70000076293945","","3","0","arrowright","1","arrowright","[0.85,0.15,0.325,0.675]","","",""
"sailing-trial","378","1283499","0.0-11.0-343.0","","","","false","","","","","","","","","","null","","516","","0","1","null","null","arrowup","[0.85,0.15,0.325,0.675]","","",""
"sailing-trial","379","1286332","0.0-11.0-344.0","","","","false","","","","","","","","","","477.70000076293945","","187.9000005722046","","0","0","arrowleft","0","arrowleft","[0.85,0.15,0.325,0.675]","","",""
"sailing-trial","380","1287948","0.0-11.0-345.0","","","","false","","","","","","","","","","null","","490.19999980926514","","1","0","null","null","arrowup","[0.85,0.15,0.325,0.675]","","",""
"sailing-trial","381","1291297","0.0-11.0-346.0","","","","false","","","","","","","","","","598","","137.5","","1","0","arrowleft","0","arrowright","[0.85,0.15,0.325,0.675]","","",""
"sailing-trial","382","1292762","0.0-11.0-347.0","","","","false","","","","","","","","","","null","","233.4000005722046","","1","0","null","null","arrowup","[0.85,0.15,0.325,0.675]","","",""
"sailing-trial","383","1295348","0.0-11.0-348.0","","","","false","","","","","","","","","","389.19999980926514","","69.69999980926514","","2","0","arrowright","1","arrowleft","[0.85,0.15,0.325,0.675]","","",""
"sailing-trial","384","1297492","0.0-11.0-349.0","","","","false","","","","","","","","","","null","","450.69999980926514","","3","1","null","null","arrowup","[0.85,0.15,0.325,0.675]","","",""
"sailing-trial","385","1300037","0.0-11.0-350.0","","","","false","","","","","","","","","","168.5","","276.29999923706055","","3","0","arrowright","1","arrowright","[0.85,0.15,0.325,0.675]","","",""
"sailing-trial","386","1302065","0.0-11.0-351.0","","","","false","","","","","","","","","","null","","415.30000019073486","","0","1","null","null","arrowup","[0.85,0.15,0.325,0.675]","","",""
"sailing-trial","387","1305417","0.0-11.0-352.0","","","","false","","","","","","","","","","482.69999980926514","","186.5","","0","1","arrowleft","0","arrowleft","[0.85,0.15,0.325,0.675]","","",""
"sailing-trial","388","1306863","0.0-11.0-353.0","","","","false","","","","","","","","","","null","","183.30000019073486","","3","0","null","null","arrowup","[0.85,0.15,0.325,0.675]","","",""
"sailing-trial","389","1310182","0.0-11.0-354.0","","","","false","","","","","","","","","","387.80000019073486","","67.30000019073486","","0","1","arrowleft","0","arrowleft","[0.85,0.15,0.325,0.675]","","",""
"sailing-trial","390","1311661","0.0-11.0-355.0","","","","false","","","","","","","","","","null","","245.69999980926514","","1","0","null","null","arrowup","[0.85,0.15,0.325,0.675]","","",""
"sailing-trial","391","1314865","0.0-11.0-356.0","","","","false","","","","","","","","","","411.30000019073486","","149","","0","1","arrowleft","0","arrowleft","[0.85,0.15,0.325,0.675]","","",""
"sailing-trial","392","1316495","0.0-11.0-357.0","","","","false","","","","","","","","","","null","","386.19999980926514","","1","0","null","null","arrowup","[0.85,0.15,0.325,0.675]","","",""
"sailing-trial","393","1319567","0.0-11.0-358.0","","","","false","","","","","","","","","","395.69999980926514","","38.29999923706055","","0","1","arrowleft","0","arrowleft","[0.85,0.15,0.325,0.675]","","",""
"sailing-trial","394","1321152","0.0-11.0-359.0","","","","false","","","","","","","","","","null","","331.19999980926514","","2","0","null","null","arrowup","[0.85,0.15,0.325,0.675]","","",""
"sailing-trial","395","1323976","0.0-11.0-360.0","","","","false","","","","","","","","","","397.20000076293945","","22.800000190734863","","0","0","arrowleft","0","arrowleft","[0.675,0.325,0.15,0.85]","","",""
"sailing-trial","396","1325454","0.0-11.0-361.0","","","","false","","","","","","","","","","null","","380.80000019073486","","2","0","null","null","arrowup","[0.675,0.325,0.15,0.85]","","",""
"sailing-trial","397","1328847","0.0-11.0-362.0","","","","false","","","","","","","","","","222.69999980926514","","454.5999994277954","","3","1","arrowright","1","arrowright","[0.675,0.325,0.15,0.85]","","",""
"sailing-trial","398","1330519","0.0-11.0-363.0","","","","false","","","","","","","","","","null","","424.5","","1","0","null","null","arrowup","[0.675,0.325,0.15,0.85]","","",""
"sailing-trial","399","1333453","0.0-11.0-364.0","","","","false","","","","","","","","","","594.1000003814697","","194.19999980926514","","3","0","arrowright","1","arrowright","[0.675,0.325,0.15,0.85]","","",""
"sailing-trial","400","1335080","0.0-11.0-365.0","","","","false","","","","","","","","","","null","","456.4000005722046","","2","0","null","null","arrowup","[0.675,0.325,0.15,0.85]","","",""
"sailing-trial","401","1337952","0.0-11.0-366.0","","","","false","","","","","","","","","","403.0999994277954","","239.60000038146973","","1","0","arrowleft","0","arrowright","[0.675,0.325,0.15,0.85]","","",""
"sailing-trial","402","1340125","0.0-11.0-367.0","","","","false","","","","","","","","","","null","","411.19999980926514","","1","1","null","null","arrowup","[0.675,0.325,0.15,0.85]","","",""
"sailing-trial","403","1342866","0.0-11.0-368.0","","","","false","","","","","","","","","","331.6000003814697","","228.80000019073486","","1","0","arrowleft","0","arrowright","[0.675,0.325,0.15,0.85]","","",""
"sailing-trial","404","1344875","0.0-11.0-369.0","","","","false","","","","","","","","","","null","","417.9000005722046","","3","1","null","null","arrowup","[0.675,0.325,0.15,0.85]","","",""
"sailing-trial","405","1347518","0.0-11.0-370.0","","","","false","","","","","","","","","","290.69999980926514","","154.10000038146973","","1","0","arrowleft","0","arrowright","[0.675,0.325,0.15,0.85]","","",""
"sailing-trial","406","1349084","0.0-11.0-371.0","","","","false","","","","","","","","","","null","","394.70000076293945","","1","0","null","null","arrowup","[0.675,0.325,0.15,0.85]","","",""
"sailing-trial","407","1351728","0.0-11.0-372.0","","","","false","","","","","","","","","","361.1000003814697","","94.20000076293945","","0","0","arrowleft","0","arrowleft","[0.675,0.325,0.15,0.85]","","",""
"sailing-trial","408","1353802","0.0-11.0-373.0","","","","false","","","","","","","","","","null","","276.19999980926514","","0","1","null","null","arrowup","[0.675,0.325,0.15,0.85]","","",""
"sailing-trial","409","1356605","0.0-11.0-374.0","","","","false","","","","","","","","","","29.399999618530273","","204","","0","1","arrowleft","0","arrowleft","[0.675,0.325,0.15,0.85]","","",""
"sailing-trial","410","1358073","0.0-11.0-375.0","","","","false","","","","","","","","","","null","","388.0999994277954","","3","0","null","null","arrowup","[0.675,0.325,0.15,0.85]","","",""
"sailing-trial","411","1360888","0.0-11.0-376.0","","","","false","","","","","","","","","","466.9000005722046","","162.89999961853027","","0","0","arrowleft","0","arrowleft","[0.85,0.15,0.325,0.675]","","",""
"sailing-trial","412","1362320","0.0-11.0-377.0","","","","false","","","","","","","","","","null","","351.30000019073486","","2","0","null","null","arrowup","[0.85,0.15,0.325,0.675]","","",""
"sailing-trial","413","1365826","0.0-11.0-378.0","","","","false","","","","","","","","","","679.0999994277954","","3.6000003814697266","","0","1","arrowleft","0","arrowleft","[0.85,0.15,0.325,0.675]","","",""
"sailing-trial","414","1367517","0.0-11.0-379.0","","","","false","","","","","","","","","","null","","203.89999961853027","","2","0","null","null","arrowup","[0.85,0.15,0.325,0.675]","","",""
"sailing-trial","415","1371387","0.0-11.0-380.0","","","","false","","","","","","","","","","879.2999992370605","","225.19999980926514","","0","1","arrowleft","0","arrowleft","[0.85,0.15,0.325,0.675]","","",""
"sailing-trial","416","1373442","0.0-11.0-381.0","","","","false","","","","","","","","","","null","","357.8999996185303","","1","1","null","null","arrowup","[0.85,0.15,0.325,0.675]","","",""
"sailing-trial","417","1376507","0.0-11.0-382.0","","","","false","","","","","","","","","","159.0999994277954","","63.60000038146973","","0","1","arrowleft","0","arrowleft","[0.85,0.15,0.325,0.675]","","",""
"sailing-trial","418","1378973","0.0-11.0-383.0","","","","false","","","","","","","","","","null","","139.89999961853027","","0","1","null","null","arrowup","[0.85,0.15,0.325,0.675]","","",""
"sailing-trial","419","1381538","0.0-11.0-384.0","","","","false","","","","","","","","","","154.60000038146973","","40.30000019073486","","0","0","arrowleft","0","arrowleft","[0.85,0.15,0.325,0.675]","","",""
"sailing-trial","420","1383122","0.0-11.0-385.0","","","","false","","","","","","","","","","null","","469.6000003814697","","1","0","null","null","arrowup","[0.85,0.15,0.325,0.675]","","",""
"sailing-trial","421","1386503","0.0-11.0-386.0","","","","false","","","","","","","","","","389.6000003814697","","163.10000038146973","","0","1","arrowleft","0","arrowleft","[0.85,0.15,0.325,0.675]","","",""
"sailing-trial","422","1388000","0.0-11.0-387.0","","","","false","","","","","","","","","","null","","230.4000005722046","","2","0","null","null","arrowup","[0.85,0.15,0.325,0.675]","","",""
"sailing-trial","423","1391432","0.0-11.0-388.0","","","","false","","","","","","","","","","340.3999996185303","","320.5","","0","1","arrowleft","0","arrowleft","[0.85,0.15,0.325,0.675]","","",""
"sailing-trial","424","1393700","0.0-11.0-389.0","","","","false","","","","","","","","","","null","","243.4000005722046","","0","1","null","null","arrowup","[0.85,0.15,0.325,0.675]","","",""
"sailing-trial","425","1397157","0.0-11.0-390.0","","","","false","","","","","","","","","","418.3999996185303","","88.19999980926514","","0","1","arrowleft","0","arrowleft","[0.85,0.15,0.325,0.675]","","",""
"sailing-trial","426","1398796","0.0-11.0-391.0","","","","false","","","","","","","","","","null","","402.19999980926514","","1","0","null","null","arrowup","[0.85,0.15,0.325,0.675]","","",""
"sailing-trial","427","1402005","0.0-11.0-392.0","","","","false","","","","","","","","","","416.79999923706055","","1.2999992370605469","","0","1","arrowleft","0","arrowleft","[0.85,0.15,0.325,0.675]","","",""
"sailing-trial","428","1403554","0.0-11.0-393.0","","","","false","","","","","","","","","","null","","221.60000038146973","","1","0","null","null","arrowup","[0.85,0.15,0.325,0.675]","","",""
"sailing-trial","429","1406932","0.0-11.0-394.0","","","","false","","","","","","","","","","403.8999996185303","","17.300000190734863","","0","1","arrowleft","0","arrowleft","[0.85,0.15,0.325,0.675]","","",""
"sailing-trial","430","1409152","0.0-11.0-395.0","","","","false","","","","","","","","","","null","","528.5999994277954","","2","1","null","null","arrowup","[0.85,0.15,0.325,0.675]","","",""
"sailing-trial","431","1411965","0.0-11.0-396.0","","","","false","","","","","","","","","","478.5","","212.5999994277954","","0","0","arrowleft","0","arrowleft","[0.85,0.15,0.325,0.675]","","",""
"sailing-trial","432","1414070","0.0-11.0-397.0","","","","false","","","","","","","","","","null","","344.19999980926514","","0","1","null","null","arrowup","[0.85,0.15,0.325,0.675]","","",""
"sailing-trial","433","1416746","0.0-11.0-398.0","","","","false","","","","","","","","","","414.30000019073486","","57.19999980926514","","0","0","arrowleft","0","arrowleft","[0.85,0.15,0.325,0.675]","","",""
"sailing-trial","434","1418516","0.0-11.0-399.0","","","","false","","","","","","","","","","null","","548.6000003814697","","3","0","null","null","arrowup","[0.85,0.15,0.325,0.675]","","",""
"instructions","435","1422819","0.0-12.0","","","","","","","","","","4301.89999961853","","","","","","","","","","","","","","","","[{""page_index"":0,""viewing_time"":4300.099999427795}]"
"survey-debrief","436","1471280","0.0-13.0","","","","","","","","","","48451.800000190735","","","","","","","","","","","","","","{""difficulty"":""5"",""fun"":""4"",""clarity"":""5"",""strategy"":""AFter the first shop, if the same color kept popping up and providing gold, I would use that color for the next section when there was no more gold left in the originial color"",""feedback"":""None""}","",""
