"trial_type","trial_index","time_elapsed","internal_node_id","value","metadata","success","timeout","failed_images","failed_audio","failed_video","browser_interaction","low_quality","rt","stimulus","response","button_pressed","island_rt","island_response","boat_rt","boat_response","boat","reward","island_key","island","boat_key","reward_probabilities","responses","num_errors","view_history"
"pavlovia","0","3","0.0-0.0","","","","","","","","","","","","","","","","","","","","","","","","","",""
"call-function","1","4","0.0-1.0","","{""task_version"":""sailing_part1_v1"",""task_condition"":""good"",""boats"":[""A"",""C"",""B"",""D""],""boats_demo"":[""F"",""H"",""E"",""G""],""islands"":[""B"",""A""],""subject_id"":""14381"",""age"":""21"",""gender"":""Female""}","","","","","","","","","","","","","","","","","","","","","","","",""
"preload","2","2079","0.0-2.0","","","true","false","[]","[]","[]","[{""event"":""fullscreenenter"",""trial"":3,""time"":4355}]","false","","","","","","","","","","","","","","","","",""
"fullscreen","3","5320","0.0-3.0","","","true","","","","","","","","","","","","","","","","","","","","","","",""
"audio-keyboard-response","4","7625","0.0-4.0-0.0","","","","","","","","","","2280","audio/beep_loop.wav"," ","","","","","","","","","","","","","",""
"audio-test","5","9904","0.0-4.0-1.0","","","","","","","","","","null","audio/turtle.mp3","","3","","","","","","","","","","","","",""
"audio-test","6","12525","0.0-4.0-2.0","","","","","","","","","","null","audio/shark.mp3","","2","","","","","","","","","","","","",""
"sailing-instructions","7","56915","0.0-5.0-0.0-0.0","","","","","","","","","","","","","","null","null","null","null","null","null","","","","","","",""
"sailing-trial","8","60376","0.0-5.0-0.0-1.0-0.0","","","","false","","","","","","","","","","2284.600000023842","","null","","null","null","arrowleft","0","null","null","","",""
"sailing-trial","9","63077","0.0-5.0-0.0-1.0-1.0","","","","false","","","","","","","","","","1574.7000000476837","","null","","null","null","arrowright","1","null","null","","",""
"sailing-trial","10","68197","0.0-5.0-0.0-1.0-2.0","","","","false","","","","","","","","","","3994.899999976158","","null","","null","null","arrowleft","0","null","null","","",""
"sailing-instructions","11","108413","0.0-5.0-0.0-2.0","","","","","","","","","","","","","","null","null","null","null","0","null","","","","","","",""
"sailing-trial","12","114964","0.0-5.0-0.0-3.0-0.0","","","","false","","","","","","","","","","null","","3343.399999976158","","2","1","null","null","arrowleft","[1,1,1,1]","","",""
"sailing-trial","13","117665","0.0-5.0-0.0-3.0-1.0","","","","false","","","","","","","","","","null","","260.60000002384186","","3","1","null","null","arrowright","[1,1,1,1]","","",""
"sailing-trial","14","120994","0.0-5.0-0.0-3.0-2.0","","","","false","","","","","","","","","","null","","646","","2","0","null","null","arrowleft","[0,0,0,0]","","",""
"sailing-instructions","15","128273","0.0-5.0-0.0-4.0","","","","","","","","","","","","","","null","null","null","null","null","null","","","","","","",""
"sailing-comprehension","16","142874","0.0-5.0-0.0-5.0","","","","","","","","","","10722.399999976158","","","","","","","","","","","","","","[""true"",""true"",""false"",""true""]","0",""
"sailing-instructions","17","200923","0.0-6.0-0.0-0.0","","","","","","","","","","","","","","null","null","null","null","null","null","","","","","","",""
"sailing-comprehension","18","210593","0.0-6.0-0.0-1.0","","","","","","","","","","8340.199999928474","","","","","","","","","","","","","","[""true"",""false"",""true""]","0",""
"sailing-instructions","19","224292","0.0-7.0-0.0-0.0","","","","","","","","","","","","","","null","null","null","null","null","null","","","","","","",""
"sailing-trial","20","230425","0.0-7.0-0.0-1.0-0.0","","","","false","","","","","","","","","","null","","3557.6999999284744","","0","0","null","null","arrowup","[0.2,0.8,0.2,0.8]","","",""
"sailing-trial","21","234245","0.0-7.0-0.0-1.0-1.0","","","","false","","","","","","","","","","null","","1945.3999999761581","","1","1","null","null","arrowup","[0.2,0.8,0.2,0.8]","","",""
"sailing-trial","22","236313","0.0-7.0-0.0-1.0-2.0","","","","false","","","","","","","","","","null","","774.7999999523163","","2","0","null","null","arrowup","[0.2,0.8,0.2,0.8]","","",""
"sailing-trial","23","239014","0.0-7.0-0.0-1.0-3.0","","","","false","","","","","","","","","","null","","847.2999999523163","","3","1","null","null","arrowup","[0.2,0.8,0.2,0.8]","","",""
"sailing-comprehension","24","249373","0.0-7.0-0.0-2.0","","","","","","","","","","6079.799999952316","","","","","","","","","","","","","","[""true""]","1",""
"sailing-instructions","25","262445","0.0-7.0-0.1-0.1","","","","","","","","","","","","","","null","null","null","null","null","null","","","","","","",""
"sailing-trial","26","265793","0.0-7.0-0.1-1.1-0.1","","","","false","","","","","","","","","","null","","1825.2000000476837","","0","0","null","null","arrowup","[0.2,0.8,0.2,0.8]","","",""
"sailing-trial","27","267835","0.0-7.0-0.1-1.1-1.1","","","","false","","","","","","","","","","null","","399.10000002384186","","1","1","null","null","arrowup","[0.2,0.8,0.2,0.8]","","",""
"sailing-trial","28","271214","0.0-7.0-0.1-1.1-2.1","","","","false","","","","","","","","","","null","","2055.899999976158","","2","0","null","null","arrowup","[0.2,0.8,0.2,0.8]","","",""
"sailing-trial","29","274121","0.0-7.0-0.1-1.1-3.1","","","","false","","","","","","","","","","null","","1288.1000000238419","","3","1","null","null","arrowup","[0.2,0.8,0.2,0.8]","","",""
"sailing-comprehension","30","284132","0.0-7.0-0.1-2.1","","","","","","","","","","8860.399999976158","","","","","","","","","","","","","","[""false""]","0",""
"sailing-instructions","31","293853","0.0-8.0-0.0-0.0","","","","","","","","","","","","","","null","null","null","null","null","null","","","","","","",""
"sailing-comprehension","32","297134","0.0-8.0-0.0-1.0","","","","","","","","","","2328.600000023842","","","","","","","","","","","","","","[""true""]","0",""
"sailing-instructions","33","328172","0.0-9.0-0.0-0.0","","","","","","","","","","","","","","null","null","null","null","null","null","","","","","","",""
"sailing-trial","34","332183","0.0-9.0-0.0-1.0-0.0","","","","false","","","","","","","","","","1348.5","","2.299999952316284","","2","0","arrowright","1","arrowleft","[0.2,0.8,0.2,0.8]","","",""
"sailing-trial","35","336515","0.0-9.0-0.0-1.0-1.0","","","","false","","","","","","","","","","607.6000000238419","","674.5","","3","1","arrowright","1","arrowright","[0.2,0.8,0.2,0.8]","","",""
"sailing-trial","36","339145","0.0-9.0-0.0-1.0-2.0","","","","false","","","","","","","","","","null","","1287.1999999284744","","0","0","null","null","arrowup","[0.2,0.8,0.2,0.8]","","",""
"sailing-trial","37","343336","0.0-9.0-0.0-1.0-3.0","","","","false","","","","","","","","","","908","","351.2999999523163","","1","1","arrowleft","0","arrowright","[0.2,0.8,0.2,0.8]","","",""
"sailing-trial","38","346293","0.0-9.0-0.0-1.0-4.0","","","","false","","","","","","","","","","null","","1422.8999999761581","","3","0","null","null","arrowup","[0.2,0.8,0.2,0.8]","","",""
"sailing-trial","39","349863","0.0-9.0-0.0-1.0-5.0","","","","false","","","","","","","","","","706.6000000238419","","54.199999928474426","","0","0","arrowleft","0","arrowleft","[0.2,0.8,0.2,0.8]","","",""
"sailing-instructions","40","374505","0.0-10.0","","","","","","","","","","","","","","null","null","null","null","null","null","","","","","","",""
"sailing-trial","41","379895","0.0-11.0-0.0","","","","false","","","","","","","","","","2263.899999976158","","252.70000004768372","","3","1","arrowright","1","arrowright","[0.15,0.85,0.675,0.325]","","",""
"sailing-trial","42","382830","0.0-11.0-1.0","","","","false","","","","","","","","","","null","","1184.1999999284744","","1","1","null","null","arrowup","[0.15,0.85,0.675,0.325]","","",""
"sailing-trial","43","387563","0.0-11.0-2.0","","","","false","","","","","","","","","","589.1000000238419","","318.39999997615814","","0","0","arrowleft","0","arrowleft","[0.15,0.85,0.675,0.325]","","",""
"sailing-trial","44","390169","0.0-11.0-3.0","","","","false","","","","","","","","","","null","","1035.5999999046326","","1","1","null","null","arrowup","[0.15,0.85,0.675,0.325]","","",""
"sailing-trial","45","394523","0.0-11.0-4.0","","","","false","","","","","","","","","","620.2000000476837","","186.89999997615814","","2","0","arrowright","1","arrowleft","[0.15,0.85,0.675,0.325]","","",""
"sailing-trial","46","396990","0.0-11.0-5.0","","","","false","","","","","","","","","","null","","814.8000000715256","","1","1","null","null","arrowup","[0.15,0.85,0.675,0.325]","","",""
"sailing-trial","47","400542","0.0-11.0-6.0","","","","false","","","","","","","","","","559.8000000715256","","31.300000071525574","","3","1","arrowright","1","arrowright","[0.15,0.85,0.675,0.325]","","",""
"sailing-trial","48","403628","0.0-11.0-7.0","","","","false","","","","","","","","","","null","","1056.8999999761581","","2","1","null","null","arrowup","[0.15,0.85,0.675,0.325]","","",""
"sailing-trial","49","406704","0.0-11.0-8.0","","","","false","","","","","","","","","","631.8999999761581","","131.20000004768372","","3","0","arrowright","1","arrowright","[0.15,0.85,0.675,0.325]","","",""
"sailing-trial","50","409062","0.0-11.0-9.0","","","","false","","","","","","","","","","null","","1235.1000000238419","","0","0","null","null","arrowup","[0.15,0.85,0.675,0.325]","","",""
"sailing-trial","51","412416","0.0-11.0-10.0","","","","false","","","","","","","","","","386.90000009536743","","83.70000004768372","","1","1","arrowleft","0","arrowright","[0.15,0.85,0.675,0.325]","","",""
"sailing-trial","52","415286","0.0-11.0-11.0","","","","false","","","","","","","","","","null","","1181","","1","1","null","null","arrowup","[0.15,0.85,0.675,0.325]","","",""
"sailing-trial","53","418706","0.0-11.0-12.0","","","","false","","","","","","","","","","414","","108.5","","1","1","arrowleft","0","arrowright","[0.15,0.85,0.675,0.325]","","",""
"sailing-trial","54","421657","0.0-11.0-13.0","","","","false","","","","","","","","","","null","","1182.2000000476837","","2","1","null","null","arrowup","[0.15,0.85,0.675,0.325]","","",""
"sailing-trial","55","425092","0.0-11.0-14.0","","","","false","","","","","","","","","","454.2000000476837","","114.70000004768372","","1","1","arrowleft","0","arrowright","[0.15,0.85,0.675,0.325]","","",""
"sailing-trial","56","428162","0.0-11.0-15.0","","","","false","","","","","","","","","","null","","1238.1000000238419","","2","1","null","null","arrowup","[0.15,0.85,0.675,0.325]","","",""
"sailing-trial","57","431548","0.0-11.0-16.0","","","","false","","","","","","","","","","528.2000000476837","","74.19999992847443","","1","1","arrowleft","0","arrowright","[0.15,0.85,0.675,0.325]","","",""
"sailing-trial","58","433884","0.0-11.0-17.0","","","","false","","","","","","","","","","null","","1062.3000000715256","","3","0","null","null","arrowup","[0.15,0.85,0.675,0.325]","","",""
"sailing-trial","59","437167","0.0-11.0-18.0","","","","false","","","","","","","","","","535.3999999761581","","136.70000004768372","","1","1","arrowleft","0","arrowright","[0.15,0.85,0.675,0.325]","","",""
"sailing-trial","60","440054","0.0-11.0-19.0","","","","false","","","","","","","","","","null","","1091.3999999761581","","1","1","null","null","arrowup","[0.15,0.85,0.675,0.325]","","",""
"sailing-trial","61","442813","0.0-11.0-20.0","","","","false","","","","","","","","","","485.3000000715256","","127.09999990463257","","1","0","arrowleft","0","arrowright","[0.325,0.675,0.85,0.15]","","",""
"sailing-trial","62","445162","0.0-11.0-21.0","","","","false","","","","","","","","","","null","","1018.8999999761581","","3","0","null","null","arrowup","[0.325,0.675,0.85,0.15]","","",""
"sailing-trial","63","449109","0.0-11.0-22.0","","","","false","","","","","","","","","","936.2999999523163","","170.89999997615814","","1","1","arrowleft","0","arrowright","[0.325,0.675,0.85,0.15]","","",""
"sailing-trial","64","451325","0.0-11.0-23.0","","","","false","","","","","","","","","","null","","930.8000000715256","","3","0","null","null","arrowup","[0.325,0.675,0.85,0.15]","","",""
"sailing-trial","65","454979","0.0-11.0-24.0","","","","false","","","","","","","","","","702.5","","244.20000004768372","","1","1","arrowleft","0","arrowright","[0.325,0.675,0.85,0.15]","","",""
"sailing-trial","66","457619","0.0-11.0-25.0","","","","false","","","","","","","","","","null","","960.7999999523163","","1","1","null","null","arrowup","[0.325,0.675,0.85,0.15]","","",""
"sailing-trial","67","460801","0.0-11.0-26.0","","","","false","","","","","","","","","","389.89999997615814","","63","","1","1","arrowleft","0","arrowright","[0.325,0.675,0.85,0.15]","","",""
"sailing-trial","68","463836","0.0-11.0-27.0","","","","false","","","","","","","","","","null","","1177.2999999523163","","1","1","null","null","arrowup","[0.325,0.675,0.85,0.15]","","",""
"sailing-trial","69","467706","0.0-11.0-28.0","","","","false","","","","","","","","","","952.8999999761581","","67.79999995231628","","1","1","arrowleft","0","arrowright","[0.325,0.675,0.85,0.15]","","",""
"sailing-trial","70","470440","0.0-11.0-29.0","","","","false","","","","","","","","","","null","","962.1000000238419","","1","1","null","null","arrowup","[0.325,0.675,0.85,0.15]","","",""
"sailing-trial","71","473877","0.0-11.0-30.0","","","","false","","","","","","","","","","489.6999999284744","","258.10000002384186","","1","1","arrowleft","0","arrowright","[0.325,0.675,0.85,0.15]","","",""
"sailing-trial","72","476594","0.0-11.0-31.0","","","","false","","","","","","","","","","null","","961","","1","1","null","null","arrowup","[0.325,0.675,0.85,0.15]","","",""
"sailing-trial","73","480116","0.0-11.0-32.0","","","","false","","","","","","","","","","586.1000000238419","","192.79999995231628","","1","1","arrowleft","0","arrowright","[0.325,0.675,0.85,0.15]","","",""
"sailing-trial","74","482241","0.0-11.0-33.0","","","","false","","","","","","","","","","null","","952.7999999523163","","0","0","null","null","arrowup","[0.325,0.675,0.85,0.15]","","",""
"sailing-trial","75","485917","0.0-11.0-34.0","","","","false","","","","","","","","","","548.1999999284744","","59.39999997615814","","1","1","arrowleft","0","arrowright","[0.325,0.675,0.85,0.15]","","",""
"sailing-trial","76","489801","0.0-11.0-35.0","","","","false","","","","","","","","","","null","","1511.7000000476837","","0","0","null","null","arrowup","[0.325,0.675,0.85,0.15]","","",""
"sailing-trial","77","493004","0.0-11.0-36.0","","","","false","","","","","","","","","","367","","140.89999997615814","","1","1","arrowleft","0","arrowright","[0.325,0.675,0.85,0.15]","","",""
"sailing-trial","78","494900","0.0-11.0-37.0","","","","false","","","","","","","","","","null","","813.6000000238419","","0","0","null","null","arrowup","[0.325,0.675,0.85,0.15]","","",""
"sailing-trial","79","498275","0.0-11.0-38.0","","","","false","","","","","","","","","","499.2999999523163","","200.70000004768372","","1","1","arrowleft","0","arrowright","[0.15,0.85,0.675,0.325]","","",""
"sailing-trial","80","500450","0.0-11.0-39.0","","","","false","","","","","","","","","","null","","935.2000000476837","","3","0","null","null","arrowup","[0.15,0.85,0.675,0.325]","","",""
"sailing-trial","81","503728","0.0-11.0-40.0","","","","false","","","","","","","","","","370.2999999523163","","60.200000047683716","","1","1","arrowleft","0","arrowright","[0.15,0.85,0.675,0.325]","","",""
"sailing-trial","82","506464","0.0-11.0-41.0","","","","false","","","","","","","","","","null","","789.8999999761581","","2","1","null","null","arrowup","[0.15,0.85,0.675,0.325]","","",""
"sailing-trial","83","509451","0.0-11.0-42.0","","","","false","","","","","","","","","","464","","240.60000002384186","","1","0","arrowleft","0","arrowright","[0.15,0.85,0.675,0.325]","","",""
"sailing-trial","84","513460","0.0-11.0-43.0","","","","false","","","","","","","","","","null","","1087.8999999761581","","2","0","null","null","arrowup","[0.15,0.85,0.675,0.325]","","",""
"sailing-trial","85","516838","0.0-11.0-44.0","","","","false","","","","","","","","","","218.20000004768372","","182.70000004768372","","1","1","arrowleft","0","arrowright","[0.15,0.85,0.675,0.325]","","",""
"sailing-trial","86","519506","0.0-11.0-45.0","","","","false","","","","","","","","","","null","","820.0999999046326","","0","1","null","null","arrowup","[0.15,0.85,0.675,0.325]","","",""
"sailing-trial","87","522353","0.0-11.0-46.0","","","","false","","","","","","","","","","424.5","","137.10000002384186","","1","0","arrowleft","0","arrowright","[0.15,0.85,0.675,0.325]","","",""
"sailing-trial","88","525176","0.0-11.0-47.0","","","","false","","","","","","","","","","null","","975.2999999523163","","2","1","null","null","arrowup","[0.15,0.85,0.675,0.325]","","",""
"sailing-trial","89","528446","0.0-11.0-48.0","","","","false","","","","","","","","","","562.5","","54.60000002384186","","1","1","arrowleft","0","arrowright","[0.15,0.85,0.675,0.325]","","",""
"sailing-trial","90","530870","0.0-11.0-49.0","","","","false","","","","","","","","","","null","","1124.4000000953674","","3","0","null","null","arrowup","[0.15,0.85,0.675,0.325]","","",""
"sailing-trial","91","535162","0.0-11.0-50.0","","","","false","","","","","","","","","","497.7000000476837","","359.89999997615814","","1","0","arrowleft","0","arrowright","[0.15,0.85,0.675,0.325]","","",""
"sailing-trial","92","537102","0.0-11.0-51.0","","","","false","","","","","","","","","","null","","858.5","","0","0","null","null","arrowup","[0.15,0.85,0.675,0.325]","","",""
"sailing-trial","93","540556","0.0-11.0-52.0","","","","false","","","","","","","","","","406.10000002384186","","160.10000002384186","","1","1","arrowleft","0","arrowright","[0.15,0.85,0.675,0.325]","","",""
"sailing-trial","94","543424","0.0-11.0-53.0","","","","false","","","","","","","","","","null","","981.6000000238419","","1","1","null","null","arrowup","[0.15,0.85,0.675,0.325]","","",""
"sailing-trial","95","546421","0.0-11.0-54.0","","","","false","","","","","","","","","","563.7999999523163","","230.39999997615814","","1","0","arrowleft","0","arrowright","[0.15,0.85,0.675,0.325]","","",""
"sailing-trial","96","549345","0.0-11.0-55.0","","","","false","","","","","","","","","","null","","1099.7999999523163","","1","1","null","null","arrowup","[0.15,0.85,0.675,0.325]","","",""
"sailing-trial","97","553063","0.0-11.0-56.0","","","","false","","","","","","","","","","513.0999999046326","","470.3000000715256","","1","1","arrowleft","0","arrowright","[0.15,0.85,0.675,0.325]","","",""
"sailing-trial","98","555883","0.0-11.0-57.0","","","","false","","","","","","","","","","null","","1005.8999999761581","","2","1","null","null","arrowup","[0.15,0.85,0.675,0.325]","","",""
"sailing-trial","99","559768","0.0-11.0-58.0","","","","false","","","","","","","","","","497.40000009536743","","688.8999999761581","","1","1","arrowleft","0","arrowright","[0.325,0.675,0.85,0.15]","","",""
"sailing-trial","100","562152","0.0-11.0-59.0","","","","false","","","","","","","","","","null","","1111.7999999523163","","0","0","null","null","arrowup","[0.325,0.675,0.85,0.15]","","",""
"sailing-trial","101","565506","0.0-11.0-60.0","","","","false","","","","","","","","","","486.60000002384186","","255.89999997615814","","2","1","arrowright","1","arrowleft","[0.325,0.675,0.85,0.15]","","",""
"sailing-trial","102","567812","0.0-11.0-61.0","","","","false","","","","","","","","","","null","","1001.3999999761581","","3","0","null","null","arrowup","[0.325,0.675,0.85,0.15]","","",""
"sailing-trial","103","571343","0.0-11.0-62.0","","","","false","","","","","","","","","","496","","184.39999997615814","","2","1","arrowright","1","arrowleft","[0.325,0.675,0.85,0.15]","","",""
"sailing-trial","104","573979","0.0-11.0-63.0","","","","false","","","","","","","","","","null","","924.7999999523163","","1","1","null","null","arrowup","[0.325,0.675,0.85,0.15]","","",""
"sailing-trial","105","578080","0.0-11.0-64.0","","","","false","","","","","","","","","","38.89999997615814","","1339.6000000238419","","2","1","arrowright","1","arrowleft","[0.325,0.675,0.85,0.15]","","",""
"sailing-trial","106","580481","0.0-11.0-65.0","","","","false","","","","","","","","","","null","","818.1000000238419","","2","1","null","null","arrowup","[0.325,0.675,0.85,0.15]","","",""
"sailing-trial","107","583785","0.0-11.0-66.0","","","","false","","","","","","","","","","429","","222","","2","1","arrowright","1","arrowleft","[0.325,0.675,0.85,0.15]","","",""
"sailing-trial","108","585981","0.0-11.0-67.0","","","","false","","","","","","","","","","null","","954.5","","0","0","null","null","arrowup","[0.325,0.675,0.85,0.15]","","",""
"sailing-trial","109","589404","0.0-11.0-68.0","","","","false","","","","","","","","","","600.2999999523163","","31.200000047683716","","2","1","arrowright","1","arrowleft","[0.325,0.675,0.85,0.15]","","",""
"sailing-trial","110","592201","0.0-11.0-69.0","","","","false","","","","","","","","","","null","","843.7999999523163","","2","0","null","null","arrowup","[0.325,0.675,0.85,0.15]","","",""
"sailing-trial","111","595341","0.0-11.0-70.0","","","","false","","","","","","","","","","428.60000002384186","","37.199999928474426","","2","1","arrowright","1","arrowleft","[0.325,0.675,0.85,0.15]","","",""
"sailing-trial","112","597525","0.0-11.0-71.0","","","","false","","","","","","","","","","null","","1008.6000000238419","","3","0","null","null","arrowup","[0.325,0.675,0.85,0.15]","","",""
"sailing-trial","113","601146","0.0-11.0-72.0","","","","false","","","","","","","","","","442.7999999523163","","400.7999999523163","","2","1","arrowright","1","arrowleft","[0.325,0.675,0.85,0.15]","","",""
"sailing-trial","114","603162","0.0-11.0-73.0","","","","false","","","","","","","","","","null","","831.3999999761581","","3","0","null","null","arrowup","[0.325,0.675,0.85,0.15]","","",""
"sailing-trial","115","605862","0.0-11.0-74.0","","","","false","","","","","","","","","","426.2000000476837","","9","","2","0","arrowright","1","arrowleft","[0.85,0.15,0.325,0.675]","","",""
"sailing-trial","116","607912","0.0-11.0-75.0","","","","false","","","","","","","","","","null","","996.7000000476837","","2","0","null","null","arrowup","[0.85,0.15,0.325,0.675]","","",""
"sailing-trial","117","611154","0.0-11.0-76.0","","","","false","","","","","","","","","","381.7000000476837","","27.200000047683716","","1","1","arrowleft","0","arrowright","[0.85,0.15,0.325,0.675]","","",""
"sailing-trial","118","613672","0.0-11.0-77.0","","","","false","","","","","","","","","","null","","724.8000000715256","","1","1","null","null","arrowup","[0.85,0.15,0.325,0.675]","","",""
"sailing-trial","119","616571","0.0-11.0-78.0","","","","false","","","","","","","","","","446.10000002384186","","256.7000000476837","","1","0","arrowleft","0","arrowright","[0.85,0.15,0.325,0.675]","","",""
"sailing-trial","120","619341","0.0-11.0-79.0","","","","false","","","","","","","","","","null","","1108.3999999761581","","3","1","null","null","arrowup","[0.85,0.15,0.325,0.675]","","",""
"sailing-trial","121","621751","0.0-11.0-80.0","","","","false","","","","","","","","","","127.10000002384186","","162.10000002384186","","1","0","arrowleft","0","arrowright","[0.85,0.15,0.325,0.675]","","",""
"sailing-trial","122","624096","0.0-11.0-81.0","","","","false","","","","","","","","","","null","","758.5","","3","1","null","null","arrowup","[0.85,0.15,0.325,0.675]","","",""
"sailing-trial","123","627492","0.0-11.0-82.0","","","","false","","","","","","","","","","445.10000002384186","","491.7000000476837","","3","0","arrowright","1","arrowright","[0.85,0.15,0.325,0.675]","","",""
"sailing-trial","124","629932","0.0-11.0-83.0","","","","false","","","","","","","","","","null","","476.7000000476837","","3","1","null","null","arrowup","[0.85,0.15,0.325,0.675]","","",""
"sailing-trial","125","632801","0.0-11.0-84.0","","","","false","","","","","","","","","","436.89999997615814","","94.5","","3","0","arrowright","1","arrowright","[0.85,0.15,0.325,0.675]","","",""
"sailing-trial","126","635470","0.0-11.0-85.0","","","","false","","","","","","","","","","null","","1108.7999999523163","","0","1","null","null","arrowup","[0.85,0.15,0.325,0.675]","","",""
"sailing-trial","127","639090","0.0-11.0-86.0","","","","false","","","","","","","","","","337.7999999523163","","367.5","","0","1","arrowleft","0","arrowleft","[0.85,0.15,0.325,0.675]","","",""
"sailing-trial","128","641941","0.0-11.0-87.0","","","","false","","","","","","","","","","null","","49.89999997615814","","0","1","null","null","arrowup","[0.85,0.15,0.325,0.675]","","",""
"sailing-trial","129","645094","0.0-11.0-88.0","","","","false","","","","","","","","","","257.60000002384186","","180.79999995231628","","0","1","arrowleft","0","arrowleft","[0.85,0.15,0.325,0.675]","","",""
"sailing-trial","130","647384","0.0-11.0-89.0","","","","false","","","","","","","","","","null","","1143.7000000476837","","1","0","null","null","arrowup","[0.85,0.15,0.325,0.675]","","",""
"sailing-trial","131","650649","0.0-11.0-90.0","","","","false","","","","","","","","","","244.90000009536743","","153.60000002384186","","0","1","arrowleft","0","arrowleft","[0.675,0.325,0.15,0.85]","","",""
"sailing-trial","132","653833","0.0-11.0-91.0","","","","false","","","","","","","","","","null","","1321.3999999761581","","0","1","null","null","arrowup","[0.675,0.325,0.15,0.85]","","",""
"sailing-trial","133","657185","0.0-11.0-92.0","","","","false","","","","","","","","","","205.30000007152557","","228.30000007152557","","0","1","arrowleft","0","arrowleft","[0.675,0.325,0.15,0.85]","","",""
"sailing-trial","134","661037","0.0-11.0-93.0","","","","false","","","","","","","","","","null","","2195.1999999284744","","0","1","null","null","arrowup","[0.675,0.325,0.15,0.85]","","",""
"sailing-trial","135","665460","0.0-11.0-94.0","","","","false","","","","","","","","","","621.7000000476837","","427.39999997615814","","0","0","arrowleft","0","arrowleft","[0.675,0.325,0.15,0.85]","","",""
"sailing-trial","136","668509","0.0-11.0-95.0","","","","false","","","","","","","","","","null","","859.7000000476837","","2","1","null","null","arrowup","[0.675,0.325,0.15,0.85]","","",""
"sailing-trial","137","671994","0.0-11.0-96.0","","","","false","","","","","","","","","","419.2000000476837","","54.700000047683716","","0","1","arrowleft","0","arrowleft","[0.675,0.325,0.15,0.85]","","",""
"sailing-trial","138","674020","0.0-11.0-97.0","","","","false","","","","","","","","","","null","","684.3000000715256","","2","0","null","null","arrowup","[0.675,0.325,0.15,0.85]","","",""
"sailing-trial","139","677214","0.0-11.0-98.0","","","","false","","","","","","","","","","308","","50.39999997615814","","0","1","arrowleft","0","arrowleft","[0.675,0.325,0.15,0.85]","","",""
"sailing-trial","140","679322","0.0-11.0-99.0","","","","false","","","","","","","","","","null","","772.5","","2","0","null","null","arrowup","[0.675,0.325,0.15,0.85]","","",""
"sailing-trial","141","682402","0.0-11.0-100.0","","","","false","","","","","","","","","","175.80000007152557","","149.89999997615814","","0","1","arrowleft","0","arrowleft","[0.675,0.325,0.15,0.85]","","",""
"sailing-trial","142","685837","0.0-11.0-101.0","","","","false","","","","","","","","","","null","","1204.8999999761581","","3","1","null","null","arrowup","[0.675,0.325,0.15,0.85]","","",""
"sailing-trial","143","690071","0.0-11.0-102.0","","","","false","","","","","","","","","","279.39999997615814","","6.199999928474426","","0","0","arrowleft","0","arrowleft","[0.675,0.325,0.15,0.85]","","",""
"sailing-trial","144","692181","0.0-11.0-103.0","","","","false","","","","","","","","","","null","","786","","2","0","null","null","arrowup","[0.675,0.325,0.15,0.85]","","",""
"sailing-trial","145","695511","0.0-11.0-104.0","","","","false","","","","","","","","","","236.39999997615814","","92.80000007152557","","0","1","arrowleft","0","arrowleft","[0.675,0.325,0.15,0.85]","","",""
"sailing-trial","146","698829","0.0-11.0-105.0","","","","false","","","","","","","","","","null","","1205.1000000238419","","1","1","null","null","arrowup","[0.675,0.325,0.15,0.85]","","",""
"sailing-trial","147","701800","0.0-11.0-106.0","","","","false","","","","","","","","","","228.70000004768372","","372.60000002384186","","0","0","arrowleft","0","arrowleft","[0.675,0.325,0.15,0.85]","","",""
"sailing-trial","148","704283","0.0-11.0-107.0","","","","false","","","","","","","","","","null","","556.1000000238419","","2","1","null","null","arrowup","[0.675,0.325,0.15,0.85]","","",""
"sailing-trial","149","707369","0.0-11.0-108.0","","","","false","","","","","","","","","","224.5","","259.2999999523163","","3","1","arrowright","1","arrowright","[0.675,0.325,0.15,0.85]","","",""
"sailing-trial","150","710088","0.0-11.0-109.0","","","","false","","","","","","","","","","null","","817.9000000953674","","3","1","null","null","arrowup","[0.675,0.325,0.15,0.85]","","",""
"sailing-trial","151","713155","0.0-11.0-110.0","","","","false","","","","","","","","","","340.90000009536743","","19.299999952316284","","3","1","arrowright","1","arrowright","[0.675,0.325,0.15,0.85]","","",""
"sailing-trial","152","715179","0.0-11.0-111.0","","","","false","","","","","","","","","","null","","982","","1","0","null","null","arrowup","[0.675,0.325,0.15,0.85]","","",""
"sailing-trial","153","718210","0.0-11.0-112.0","","","","false","","","","","","","","","","168.79999995231628","","98.39999997615814","","3","1","arrowright","1","arrowright","[0.85,0.15,0.325,0.675]","","",""
"sailing-trial","154","720645","0.0-11.0-113.0","","","","false","","","","","","","","","","null","","808.3000000715256","","0","1","null","null","arrowup","[0.85,0.15,0.325,0.675]","","",""
"sailing-trial","155","722961","0.0-11.0-114.0","","","","false","","","","","","","","","","154.5","","5.700000047683716","","3","0","arrowright","1","arrowright","[0.85,0.15,0.325,0.675]","","",""
"sailing-trial","156","725881","0.0-11.0-115.0","","","","false","","","","","","","","","","null","","1136.8999999761581","","3","1","null","null","arrowup","[0.85,0.15,0.325,0.675]","","",""
"sailing-trial","157","729101","0.0-11.0-116.0","","","","false","","","","","","","","","","223.39999997615814","","240.89999997615814","","3","1","arrowright","1","arrowright","[0.85,0.15,0.325,0.675]","","",""
"sailing-trial","158","731492","0.0-11.0-117.0","","","","false","","","","","","","","","","null","","916","","2","0","null","null","arrowup","[0.85,0.15,0.325,0.675]","","",""
"sailing-trial","159","736406","0.0-11.0-118.0","","","","false","","","","","","","","","","255.5","","34.699999928474426","","3","1","arrowright","1","arrowright","[0.85,0.15,0.325,0.675]","","",""
"sailing-trial","160","739074","0.0-11.0-119.0","","","","false","","","","","","","","","","null","","952.9000000953674","","3","1","null","null","arrowup","[0.85,0.15,0.325,0.675]","","",""
"sailing-trial","161","742192","0.0-11.0-120.0","","","","false","","","","","","","","","","102.59999990463257","","195.20000004768372","","3","1","arrowright","1","arrowright","[0.85,0.15,0.325,0.675]","","",""
"sailing-trial","162","744761","0.0-11.0-121.0","","","","false","","","","","","","","","","null","","915","","3","1","null","null","arrowup","[0.85,0.15,0.325,0.675]","","",""
"sailing-trial","163","747489","0.0-11.0-122.0","","","","false","","","","","","","","","","59.5","","566.7000000476837","","3","0","arrowright","1","arrowright","[0.85,0.15,0.325,0.675]","","",""
"sailing-trial","164","750510","0.0-11.0-123.0","","","","false","","","","","","","","","","null","","171.90000009536743","","2","0","null","null","arrowup","[0.85,0.15,0.325,0.675]","","",""
"sailing-trial","165","754068","0.0-11.0-124.0","","","","false","","","","","","","","","","87.80000007152557","","261.5","","3","1","arrowright","1","arrowright","[0.85,0.15,0.325,0.675]","","",""
"sailing-trial","166","756339","0.0-11.0-125.0","","","","false","","","","","","","","","","null","","967.8999999761581","","3","0","null","null","arrowup","[0.85,0.15,0.325,0.675]","","",""
"sailing-trial","167","759606","0.0-11.0-126.0","","","","false","","","","","","","","","","47.60000002384186","","513.2999999523163","","3","1","arrowright","1","arrowright","[0.85,0.15,0.325,0.675]","","",""
"sailing-trial","168","762591","0.0-11.0-127.0","","","","false","","","","","","","","","","null","","1030.7000000476837","","0","1","null","null","arrowup","[0.85,0.15,0.325,0.675]","","",""
"sailing-trial","169","765150","0.0-11.0-128.0","","","","false","","","","","","","","","","95.69999992847443","","47.799999952316284","","3","0","arrowright","1","arrowright","[0.85,0.15,0.325,0.675]","","",""
"sailing-trial","170","769563","0.0-11.0-129.0","","","","false","","","","","","","","","","null","","2626.399999976158","","3","1","null","null","arrowup","[0.85,0.15,0.325,0.675]","","",""
"sailing-trial","171","772915","0.0-11.0-130.0","","","","false","","","","","","","","","","254","","367.39999997615814","","3","1","arrowright","1","arrowright","[0.675,0.325,0.15,0.85]","","",""
"sailing-trial","172","777933","0.0-11.0-131.0","","","","false","","","","","","","","","","null","","3203","","3","1","null","null","arrowup","[0.675,0.325,0.15,0.85]","","",""
"sailing-trial","173","780940","0.0-11.0-132.0","","","","false","","","","","","","","","","253.39999997615814","","335.89999997615814","","3","0","arrowright","1","arrowright","[0.675,0.325,0.15,0.85]","","",""
"sailing-trial","174","783549","0.0-11.0-133.0","","","","false","","","","","","","","","","null","","107.09999990463257","","2","0","null","null","arrowup","[0.675,0.325,0.15,0.85]","","",""
"sailing-trial","175","786640","0.0-11.0-134.0","","","","false","","","","","","","","","","158.60000002384186","","296.2999999523163","","0","1","arrowleft","0","arrowleft","[0.675,0.325,0.15,0.85]","","",""
"sailing-trial","176","788629","0.0-11.0-135.0","","","","false","","","","","","","","","","null","","837.3999999761581","","0","0","null","null","arrowup","[0.675,0.325,0.15,0.85]","","",""
"sailing-trial","177","792260","0.0-11.0-136.0","","","","false","","","","","","","","","","608.3000000715256","","356.3000000715256","","3","1","arrowright","1","arrowright","[0.675,0.325,0.15,0.85]","","",""
"sailing-trial","178","794499","0.0-11.0-137.0","","","","false","","","","","","","","","","null","","1065.9000000953674","","2","0","null","null","arrowup","[0.675,0.325,0.15,0.85]","","",""
"sailing-trial","179","797948","0.0-11.0-138.0","","","","false","","","","","","","","","","127.89999997615814","","421.89999997615814","","3","1","arrowright","1","arrowright","[0.675,0.325,0.15,0.85]","","",""
"sailing-trial","180","800060","0.0-11.0-139.0","","","","false","","","","","","","","","","null","","989.3999999761581","","0","0","null","null","arrowup","[0.675,0.325,0.15,0.85]","","",""
"sailing-trial","181","803567","0.0-11.0-140.0","","","","false","","","","","","","","","","186.39999997615814","","570.7000000476837","","3","1","arrowright","1","arrowright","[0.675,0.325,0.15,0.85]","","",""
"sailing-trial","182","806103","0.0-11.0-141.0","","","","false","","","","","","","","","","null","","418.7999999523163","","0","1","null","null","arrowup","[0.675,0.325,0.15,0.85]","","",""
"sailing-trial","183","809338","0.0-11.0-142.0","","","","false","","","","","","","","","","45.39999997615814","","454","","3","1","arrowright","1","arrowright","[0.675,0.325,0.15,0.85]","","",""
"sailing-trial","184","811469","0.0-11.0-143.0","","","","false","","","","","","","","","","null","","907.5","","1","0","null","null","arrowup","[0.675,0.325,0.15,0.85]","","",""
"sailing-trial","185","814458","0.0-11.0-144.0","","","","false","","","","","","","","","","118.70000004768372","","88.60000002384186","","3","1","arrowright","1","arrowright","[0.675,0.325,0.15,0.85]","","",""
"sailing-trial","186","817019","0.0-11.0-145.0","","","","false","","","","","","","","","","null","","1399.3999999761581","","1","0","null","null","arrowup","[0.675,0.325,0.15,0.85]","","",""
"sailing-trial","187","819997","0.0-11.0-146.0","","","","false","","","","","","","","","","97.59999990463257","","29.899999976158142","","3","1","arrowright","1","arrowright","[0.675,0.325,0.15,0.85]","","",""
"sailing-trial","188","823299","0.0-11.0-147.0","","","","false","","","","","","","","","","null","","1450","","0","0","null","null","arrowup","[0.675,0.325,0.15,0.85]","","",""
"sailing-trial","189","827316","0.0-11.0-148.0","","","","false","","","","","","","","","","777.2999999523163","","263.7000000476837","","3","1","arrowright","1","arrowright","[0.675,0.325,0.15,0.85]","","",""
"sailing-trial","190","830469","0.0-11.0-149.0","","","","false","","","","","","","","","","null","","1560.7999999523163","","3","1","null","null","arrowup","[0.675,0.325,0.15,0.85]","","",""
"sailing-trial","191","835298","0.0-11.0-150.0","","","","false","","","","","","","","","","776.6999999284744","","203.89999997615814","","3","0","arrowright","1","arrowright","[0.15,0.85,0.675,0.325]","","",""
"sailing-trial","192","838073","0.0-11.0-151.0","","","","false","","","","","","","","","","null","","1049.3000000715256","","0","0","null","null","arrowup","[0.15,0.85,0.675,0.325]","","",""
"sailing-trial","193","841299","0.0-11.0-152.0","","","","false","","","","","","","","","","524.2999999523163","","238.60000002384186","","3","0","arrowright","1","arrowright","[0.15,0.85,0.675,0.325]","","",""
"sailing-trial","194","844130","0.0-11.0-153.0","","","","false","","","","","","","","","","null","","879.7999999523163","","2","1","null","null","arrowup","[0.15,0.85,0.675,0.325]","","",""
"sailing-trial","195","846409","0.0-11.0-154.0","","","","false","","","","","","","","","","115.70000004768372","","23","","0","0","arrowleft","0","arrowleft","[0.15,0.85,0.675,0.325]","","",""
"sailing-trial","196","849499","0.0-11.0-155.0","","","","false","","","","","","","","","","null","","1297.7000000476837","","2","1","null","null","arrowup","[0.15,0.85,0.675,0.325]","","",""
"sailing-trial","197","852701","0.0-11.0-156.0","","","","false","","","","","","","","","","477","","22.5","","2","1","arrowright","1","arrowleft","[0.15,0.85,0.675,0.325]","","",""
"sailing-trial","198","855420","0.0-11.0-157.0","","","","false","","","","","","","","","","null","","1036.2000000476837","","2","1","null","null","arrowup","[0.15,0.85,0.675,0.325]","","",""
"sailing-trial","199","860020","0.0-11.0-158.0","","","","false","","","","","","","","","","897.3999999761581","","247.29999995231628","","2","0","arrowright","1","arrowleft","[0.15,0.85,0.675,0.325]","","",""
"sailing-trial","200","862641","0.0-11.0-159.0","","","","false","","","","","","","","","","null","","985.3999999761581","","3","1","null","null","arrowup","[0.15,0.85,0.675,0.325]","","",""
"sailing-trial","201","866520","0.0-11.0-160.0","","","","false","","","","","","","","","","376.5","","181.39999997615814","","2","0","arrowright","1","arrowleft","[0.15,0.85,0.675,0.325]","","",""
"sailing-trial","202","868700","0.0-11.0-161.0","","","","false","","","","","","","","","","null","","888.7999999523163","","3","0","null","null","arrowup","[0.15,0.85,0.675,0.325]","","",""
"sailing-trial","203","871522","0.0-11.0-162.0","","","","false","","","","","","","","","","327.40000009536743","","330","","1","0","arrowleft","0","arrowright","[0.15,0.85,0.675,0.325]","","",""
"sailing-trial","204","874283","0.0-11.0-163.0","","","","false","","","","","","","","","","null","","1136.6999999284744","","2","1","null","null","arrowup","[0.15,0.85,0.675,0.325]","","",""
"sailing-trial","205","877230","0.0-11.0-164.0","","","","false","","","","","","","","","","63.90000009536743","","721.3000000715256","","0","0","arrowleft","0","arrowleft","[0.15,0.85,0.675,0.325]","","",""
"sailing-trial","206","879854","0.0-11.0-165.0","","","","false","","","","","","","","","","null","","926.3999999761581","","1","1","null","null","arrowup","[0.15,0.85,0.675,0.325]","","",""
"sailing-trial","207","883259","0.0-11.0-166.0","","","","false","","","","","","","","","","803.2000000476837","","276.89999997615814","","1","0","arrowleft","0","arrowright","[0.325,0.675,0.85,0.15]","","",""
"sailing-trial","208","886841","0.0-11.0-167.0","","","","false","","","","","","","","","","null","","1777.5","","1","1","null","null","arrowup","[0.325,0.675,0.85,0.15]","","",""
"sailing-trial","209","891761","0.0-11.0-168.0","","","","false","","","","","","","","","","594.7000000476837","","143.30000007152557","","2","1","arrowright","1","arrowleft","[0.325,0.675,0.85,0.15]","","",""
"sailing-trial","210","895390","0.0-11.0-169.0","","","","false","","","","","","","","","","null","","1305","","3","0","null","null","arrowup","[0.325,0.675,0.85,0.15]","","",""
"sailing-trial","211","898700","0.0-11.0-170.0","","","","false","","","","","","","","","","296.10000002384186","","319.7000000476837","","1","1","arrowleft","0","arrowright","[0.325,0.675,0.85,0.15]","","",""
"sailing-trial","212","901518","0.0-11.0-171.0","","","","false","","","","","","","","","","null","","1116.8000000715256","","2","1","null","null","arrowup","[0.325,0.675,0.85,0.15]","","",""
"sailing-trial","213","904589","0.0-11.0-172.0","","","","false","","","","","","","","","","477.7999999523163","","433.1999999284744","","1","0","arrowleft","0","arrowright","[0.325,0.675,0.85,0.15]","","",""
"sailing-trial","214","906588","0.0-11.0-173.0","","","","false","","","","","","","","","","null","","876","","3","0","null","null","arrowup","[0.325,0.675,0.85,0.15]","","",""
"sailing-trial","215","909856","0.0-11.0-174.0","","","","false","","","","","","","","","","346.89999997615814","","1.2000000476837158","","0","1","arrowleft","0","arrowleft","[0.325,0.675,0.85,0.15]","","",""
"sailing-trial","216","912858","0.0-11.0-175.0","","","","false","","","","","","","","","","null","","1168.8999999761581","","3","1","null","null","arrowup","[0.325,0.675,0.85,0.15]","","",""
"sailing-trial","217","915608","0.0-11.0-176.0","","","","false","","","","","","","","","","366.1999999284744","","102.69999992847443","","0","0","arrowleft","0","arrowleft","[0.325,0.675,0.85,0.15]","","",""
"sailing-trial","218","918112","0.0-11.0-177.0","","","","false","","","","","","","","","","null","","788","","2","1","null","null","arrowup","[0.325,0.675,0.85,0.15]","","",""
"sailing-trial","219","921648","0.0-11.0-178.0","","","","false","","","","","","","","","","375.89999997615814","","329","","2","1","arrowright","1","arrowleft","[0.325,0.675,0.85,0.15]","","",""
"sailing-trial","220","924150","0.0-11.0-179.0","","","","false","","","","","","","","","","null","","848.3000000715256","","0","1","null","null","arrowup","[0.325,0.675,0.85,0.15]","","",""
"sailing-trial","221","927469","0.0-11.0-180.0","","","","false","","","","","","","","","","325.60000002384186","","311.39999997615814","","2","1","arrowright","1","arrowleft","[0.325,0.675,0.85,0.15]","","",""
"sailing-trial","222","929530","0.0-11.0-181.0","","","","false","","","","","","","","","","null","","776.6999999284744","","2","0","null","null","arrowup","[0.325,0.675,0.85,0.15]","","",""
"sailing-trial","223","932722","0.0-11.0-182.0","","","","false","","","","","","","","","","368.5","","192.19999992847443","","2","1","arrowright","1","arrowleft","[0.325,0.675,0.85,0.15]","","",""
"sailing-trial","224","937193","0.0-11.0-183.0","","","","false","","","","","","","","","","null","","1445.2000000476837","","2","0","null","null","arrowup","[0.325,0.675,0.85,0.15]","","",""
"sailing-trial","225","941510","0.0-11.0-184.0","","","","false","","","","","","","","","","212.60000002384186","","156.79999995231628","","0","0","arrowleft","0","arrowleft","[0.15,0.85,0.675,0.325]","","",""
"sailing-trial","226","943589","0.0-11.0-185.0","","","","false","","","","","","","","","","null","","866.1000000238419","","3","0","null","null","arrowup","[0.15,0.85,0.675,0.325]","","",""
"sailing-trial","227","947099","0.0-11.0-186.0","","","","false","","","","","","","","","","537.1999999284744","","155.29999995231628","","1","1","arrowleft","0","arrowright","[0.15,0.85,0.675,0.325]","","",""
"sailing-trial","228","949917","0.0-11.0-187.0","","","","false","","","","","","","","","","null","","1116.2999999523163","","0","1","null","null","arrowup","[0.15,0.85,0.675,0.325]","","",""
"sailing-trial","229","953170","0.0-11.0-188.0","","","","false","","","","","","","","","","280.39999997615814","","93.80000007152557","","1","1","arrowleft","0","arrowright","[0.15,0.85,0.675,0.325]","","",""
"sailing-trial","230","958708","0.0-11.0-189.0","","","","false","","","","","","","","","","null","","825.1999999284744","","1","1","null","null","arrowup","[0.15,0.85,0.675,0.325]","","",""
"sailing-trial","231","962428","0.0-11.0-190.0","","","","false","","","","","","","","","","798.6999999284744","","182.89999997615814","","2","1","arrowright","1","arrowleft","[0.15,0.85,0.675,0.325]","","",""
"sailing-trial","232","966159","0.0-11.0-191.0","","","","false","","","","","","","","","","null","","860","","0","0","null","null","arrowup","[0.15,0.85,0.675,0.325]","","",""
"sailing-trial","233","969232","0.0-11.0-192.0","","","","false","","","","","","","","","","97.19999992847443","","152.79999995231628","","1","1","arrowleft","0","arrowright","[0.15,0.85,0.675,0.325]","","",""
"sailing-trial","234","973602","0.0-11.0-193.0","","","","false","","","","","","","","","","null","","1733.7000000476837","","1","1","null","null","arrowup","[0.15,0.85,0.675,0.325]","","",""
"sailing-trial","235","976887","0.0-11.0-194.0","","","","false","","","","","","","","","","375.39999997615814","","190.89999997615814","","1","1","arrowleft","0","arrowright","[0.15,0.85,0.675,0.325]","","",""
"sailing-trial","236","979490","0.0-11.0-195.0","","","","false","","","","","","","","","","null","","320.1999999284744","","3","1","null","null","arrowup","[0.15,0.85,0.675,0.325]","","",""
"sailing-trial","237","982540","0.0-11.0-196.0","","","","false","","","","","","","","","","28.399999976158142","","373.2000000476837","","1","1","arrowleft","0","arrowright","[0.15,0.85,0.675,0.325]","","",""
"sailing-trial","238","985526","0.0-11.0-197.0","","","","false","","","","","","","","","","null","","1144.5","","1","1","null","null","arrowup","[0.15,0.85,0.675,0.325]","","",""
"sailing-trial","239","990846","0.0-11.0-198.0","","","","false","","","","","","","","","","2380.600000023842","","173.60000002384186","","1","1","arrowleft","0","arrowright","[0.15,0.85,0.675,0.325]","","",""
"sailing-trial","240","994140","0.0-11.0-199.0","","","","false","","","","","","","","","","null","","722.1000000238419","","2","0","null","null","arrowup","[0.15,0.85,0.675,0.325]","","",""
"sailing-trial","241","997418","0.0-11.0-200.0","","","","false","","","","","","","","","","94.60000002384186","","227.80000007152557","","1","1","arrowleft","0","arrowright","[0.15,0.85,0.675,0.325]","","",""
"sailing-trial","242","1004439","0.0-11.0-201.0","","","","false","","","","","","","","","","null","","5417.100000023842","","3","1","null","null","arrowup","[0.15,0.85,0.675,0.325]","","",""
"sailing-trial","243","1008042","0.0-11.0-202.0","","","","false","","","","","","","","","","576.2000000476837","","207.90000009536743","","1","1","arrowleft","0","arrowright","[0.325,0.675,0.85,0.15]","","",""
"sailing-trial","244","1014379","0.0-11.0-203.0","","","","false","","","","","","","","","","null","","1433.2000000476837","","2","1","null","null","arrowup","[0.325,0.675,0.85,0.15]","","",""
"sailing-trial","245","1018031","0.0-11.0-204.0","","","","false","","","","","","","","","","316.6999999284744","","212.10000002384186","","1","1","arrowleft","0","arrowright","[0.325,0.675,0.85,0.15]","","",""
"sailing-trial","246","1021801","0.0-11.0-205.0","","","","false","","","","","","","","","","null","","2095.100000023842","","2","1","null","null","arrowup","[0.325,0.675,0.85,0.15]","","",""
"sailing-trial","247","1024903","0.0-11.0-206.0","","","","false","","","","","","","","","","34.200000047683716","","363.39999997615814","","1","1","arrowleft","0","arrowright","[0.325,0.675,0.85,0.15]","","",""
"sailing-trial","248","1027588","0.0-11.0-207.0","","","","false","","","","","","","","","","null","","1654.2000000476837","","3","0","null","null","arrowup","[0.325,0.675,0.85,0.15]","","",""
"sailing-trial","249","1031810","0.0-11.0-208.0","","","","false","","","","","","","","","","1187.5999999046326","","306.89999997615814","","1","1","arrowleft","0","arrowright","[0.325,0.675,0.85,0.15]","","",""
"sailing-trial","250","1034709","0.0-11.0-209.0","","","","false","","","","","","","","","","null","","1294","","1","1","null","null","arrowup","[0.325,0.675,0.85,0.15]","","",""
"sailing-trial","251","1038989","0.0-11.0-210.0","","","","false","","","","","","","","","","465.10000002384186","","151.10000002384186","","1","0","arrowleft","0","arrowright","[0.325,0.675,0.85,0.15]","","",""
"sailing-trial","252","1042748","0.0-11.0-211.0","","","","false","","","","","","","","","","null","","727.2999999523163","","3","0","null","null","arrowup","[0.325,0.675,0.85,0.15]","","",""
"sailing-trial","253","1046486","0.0-11.0-212.0","","","","false","","","","","","","","","","457.89999997615814","","199.10000002384186","","1","1","arrowleft","0","arrowright","[0.325,0.675,0.85,0.15]","","",""
"sailing-trial","254","1052137","0.0-11.0-213.0","","","","false","","","","","","","","","","null","","2628.600000023842","","3","0","null","null","arrowup","[0.325,0.675,0.85,0.15]","","",""
"sailing-trial","255","1056108","0.0-11.0-214.0","","","","false","","","","","","","","","","228.20000004768372","","83","","1","1","arrowleft","0","arrowright","[0.325,0.675,0.85,0.15]","","",""
"sailing-trial","256","1061178","0.0-11.0-215.0","","","","false","","","","","","","","","","null","","1537","","0","1","null","null","arrowup","[0.325,0.675,0.85,0.15]","","",""
"sailing-trial","257","1064880","0.0-11.0-216.0","","","","false","","","","","","","","","","406.10000002384186","","259.5","","1","1","arrowleft","0","arrowright","[0.325,0.675,0.85,0.15]","","",""
"sailing-trial","258","1068418","0.0-11.0-217.0","","","","false","","","","","","","","","","null","","2085.399999976158","","0","0","null","null","arrowup","[0.325,0.675,0.85,0.15]","","",""
"sailing-trial","259","1072068","0.0-11.0-218.0","","","","false","","","","","","","","","","227.5","","314.60000002384186","","1","1","arrowleft","0","arrowright","[0.15,0.85,0.675,0.325]","","",""
"sailing-trial","260","1077439","0.0-11.0-219.0","","","","false","","","","","","","","","","null","","2377","","2","1","null","null","arrowup","[0.15,0.85,0.675,0.325]","","",""
"sailing-trial","261","1082907","0.0-11.0-220.0","","","","false","","","","","","","","","","1066.8000000715256","","322.39999997615814","","1","0","arrowleft","0","arrowright","[0.15,0.85,0.675,0.325]","","",""
"sailing-trial","262","1086960","0.0-11.0-221.0","","","","false","","","","","","","","","","null","","1026.8999999761581","","0","0","null","null","arrowup","[0.15,0.85,0.675,0.325]","","",""
"sailing-trial","263","1092199","0.0-11.0-222.0","","","","false","","","","","","","","","","1914.7999999523163","","624","","1","1","arrowleft","0","arrowright","[0.15,0.85,0.675,0.325]","","",""
"sailing-trial","264","1095767","0.0-11.0-223.0","","","","false","","","","","","","","","","null","","946.5","","1","1","null","null","arrowup","[0.15,0.85,0.675,0.325]","","",""
"sailing-trial","265","1098821","0.0-11.0-224.0","","","","false","","","","","","","","","","158.80000007152557","","278.89999997615814","","1","1","arrowleft","0","arrowright","[0.15,0.85,0.675,0.325]","","",""
"sailing-trial","266","1102738","0.0-11.0-225.0","","","","false","","","","","","","","","","null","","884.6999999284744","","0","0","null","null","arrowup","[0.15,0.85,0.675,0.325]","","",""
"sailing-trial","267","1107660","0.0-11.0-226.0","","","","false","","","","","","","","","","159","","247.89999997615814","","1","1","arrowleft","0","arrowright","[0.15,0.85,0.675,0.325]","","",""
"sailing-trial","268","1111712","0.0-11.0-227.0","","","","false","","","","","","","","","","null","","1024","","2","0","null","null","arrowup","[0.15,0.85,0.675,0.325]","","",""
"sailing-trial","269","1115899","0.0-11.0-228.0","","","","false","","","","","","","","","","253.20000004768372","","55.199999928474426","","1","1","arrowleft","0","arrowright","[0.15,0.85,0.675,0.325]","","",""
"sailing-trial","270","1119467","0.0-11.0-229.0","","","","false","","","","","","","","","","null","","1587.2999999523163","","3","0","null","null","arrowup","[0.15,0.85,0.675,0.325]","","",""
"sailing-trial","271","1122820","0.0-11.0-230.0","","","","false","","","","","","","","","","80.70000004768372","","476.2999999523163","","1","1","arrowleft","0","arrowright","[0.15,0.85,0.675,0.325]","","",""
"sailing-trial","272","1125571","0.0-11.0-231.0","","","","false","","","","","","","","","","null","","924.3999999761581","","2","1","null","null","arrowup","[0.15,0.85,0.675,0.325]","","",""
"sailing-trial","273","1131510","0.0-11.0-232.0","","","","false","","","","","","","","","","373.39999997615814","","1789.3000000715256","","1","1","arrowleft","0","arrowright","[0.15,0.85,0.675,0.325]","","",""
"sailing-trial","274","1136867","0.0-11.0-233.0","","","","false","","","","","","","","","","null","","2345.600000023842","","3","0","null","null","arrowup","[0.15,0.85,0.675,0.325]","","",""
"sailing-trial","275","1141456","0.0-11.0-234.0","","","","false","","","","","","","","","","329","","341.2000000476837","","1","0","arrowleft","0","arrowright","[0.85,0.15,0.325,0.675]","","",""
"sailing-trial","276","1144051","0.0-11.0-235.0","","","","false","","","","","","","","","","null","","318.7999999523163","","3","1","null","null","arrowup","[0.85,0.15,0.325,0.675]","","",""
"sailing-trial","277","1146737","0.0-11.0-236.0","","","","false","","","","","","","","","","23.100000023841858","","359.6999999284744","","1","0","arrowleft","0","arrowright","[0.85,0.15,0.325,0.675]","","",""
"sailing-trial","278","1149221","0.0-11.0-237.0","","","","false","","","","","","","","","","null","","847.2999999523163","","3","1","null","null","arrowup","[0.85,0.15,0.325,0.675]","","",""
"sailing-trial","279","1152941","0.0-11.0-238.0","","","","false","","","","","","","","","","543.1000000238419","","292.89999997615814","","3","1","arrowright","1","arrowright","[0.85,0.15,0.325,0.675]","","",""
"sailing-trial","280","1155443","0.0-11.0-239.0","","","","false","","","","","","","","","","null","","942.6000000238419","","1","1","null","null","arrowup","[0.85,0.15,0.325,0.675]","","",""
"sailing-trial","281","1159294","0.0-11.0-240.0","","","","false","","","","","","","","","","433.59999990463257","","211.89999997615814","","3","1","arrowright","1","arrowright","[0.85,0.15,0.325,0.675]","","",""
"sailing-trial","282","1163815","0.0-11.0-241.0","","","","false","","","","","","","","","","null","","2139.8000000715256","","0","1","null","null","arrowup","[0.85,0.15,0.325,0.675]","","",""
"sailing-trial","283","1168857","0.0-11.0-242.0","","","","false","","","","","","","","","","1932","","487.7999999523163","","3","0","arrowright","1","arrowright","[0.85,0.15,0.325,0.675]","","",""
"sailing-trial","284","1173921","0.0-11.0-243.0","","","","false","","","","","","","","","","null","","2918.399999976158","","0","1","null","null","arrowup","[0.85,0.15,0.325,0.675]","","",""
"sailing-trial","285","1178440","0.0-11.0-244.0","","","","false","","","","","","","","","","213.10000002384186","","245.5","","3","0","arrowright","1","arrowright","[0.85,0.15,0.325,0.675]","","",""
"sailing-trial","286","1182643","0.0-11.0-245.0","","","","false","","","","","","","","","","null","","2395.899999976158","","1","1","null","null","arrowup","[0.85,0.15,0.325,0.675]","","",""
"sailing-trial","287","1186281","0.0-11.0-246.0","","","","false","","","","","","","","","","241.20000004768372","","651.7000000476837","","3","1","arrowright","1","arrowright","[0.85,0.15,0.325,0.675]","","",""
"sailing-trial","288","1188469","0.0-11.0-247.0","","","","false","","","","","","","","","","null","","982.6999999284744","","2","0","null","null","arrowup","[0.85,0.15,0.325,0.675]","","",""
"sailing-trial","289","1191367","0.0-11.0-248.0","","","","false","","","","","","","","","","406.89999997615814","","362.2999999523163","","3","0","arrowright","1","arrowright","[0.85,0.15,0.325,0.675]","","",""
"sailing-trial","290","1195252","0.0-11.0-249.0","","","","false","","","","","","","","","","null","","1820.3000000715256","","2","1","null","null","arrowup","[0.85,0.15,0.325,0.675]","","",""
"sailing-trial","291","1198188","0.0-11.0-250.0","","","","false","","","","","","","","","","1.7000000476837158","","614.2999999523163","","0","0","arrowleft","0","arrowleft","[0.675,0.325,0.15,0.85]","","",""
"sailing-trial","292","1201290","0.0-11.0-251.0","","","","false","","","","","","","","","","null","","1056.1999999284744","","0","1","null","null","arrowup","[0.675,0.325,0.15,0.85]","","",""
"sailing-trial","293","1204157","0.0-11.0-252.0","","","","false","","","","","","","","","","224.19999992847443","","430.89999997615814","","2","0","arrowright","1","arrowleft","[0.675,0.325,0.15,0.85]","","",""
"sailing-trial","294","1206307","0.0-11.0-253.0","","","","false","","","","","","","","","","null","","907.5","","1","0","null","null","arrowup","[0.675,0.325,0.15,0.85]","","",""
"sailing-trial","295","1210063","0.0-11.0-254.0","","","","false","","","","","","","","","","457.10000002384186","","206.19999992847443","","0","1","arrowleft","0","arrowleft","[0.675,0.325,0.15,0.85]","","",""
"sailing-trial","296","1211967","0.0-11.0-255.0","","","","false","","","","","","","","","","null","","851.5999999046326","","0","0","null","null","arrowup","[0.675,0.325,0.15,0.85]","","",""
"sailing-trial","297","1215851","0.0-11.0-256.0","","","","false","","","","","","","","","","376.09999990463257","","305.39999997615814","","0","1","arrowleft","0","arrowleft","[0.675,0.325,0.15,0.85]","","",""
"sailing-trial","298","1219418","0.0-11.0-257.0","","","","false","","","","","","","","","","null","","1082.8999999761581","","2","0","null","null","arrowup","[0.675,0.325,0.15,0.85]","","",""
"sailing-trial","299","1222337","0.0-11.0-258.0","","","","false","","","","","","","","","","157.69999992847443","","158.80000007152557","","0","1","arrowleft","0","arrowleft","[0.675,0.325,0.15,0.85]","","",""
"sailing-trial","300","1226390","0.0-11.0-259.0","","","","false","","","","","","","","","","null","","1327.2000000476837","","0","1","null","null","arrowup","[0.675,0.325,0.15,0.85]","","",""
"sailing-trial","301","1230709","0.0-11.0-260.0","","","","false","","","","","","","","","","4.300000071525574","","1055.8999999761581","","0","1","arrowleft","0","arrowleft","[0.675,0.325,0.15,0.85]","","",""
"sailing-trial","302","1233629","0.0-11.0-261.0","","","","false","","","","","","","","","","null","","913.2000000476837","","1","1","null","null","arrowup","[0.675,0.325,0.15,0.85]","","",""
"sailing-trial","303","1236881","0.0-11.0-262.0","","","","false","","","","","","","","","","326.7000000476837","","1.5","","0","1","arrowleft","0","arrowleft","[0.675,0.325,0.15,0.85]","","",""
"sailing-trial","304","1239698","0.0-11.0-263.0","","","","false","","","","","","","","","","null","","1653.3999999761581","","2","0","null","null","arrowup","[0.675,0.325,0.15,0.85]","","",""
"sailing-trial","305","1245003","0.0-11.0-264.0","","","","false","","","","","","","","","","654.8999999761581","","567.2999999523163","","0","0","arrowleft","0","arrowleft","[0.675,0.325,0.15,0.85]","","",""
"sailing-trial","306","1252257","0.0-11.0-265.0","","","","false","","","","","","","","","","null","","3541.2999999523163","","0","1","null","null","arrowup","[0.675,0.325,0.15,0.85]","","",""
"sailing-trial","307","1255344","0.0-11.0-266.0","","","","false","","","","","","","","","","206.19999992847443","","268","","0","1","arrowleft","0","arrowleft","[0.675,0.325,0.15,0.85]","","",""
"sailing-trial","308","1258379","0.0-11.0-267.0","","","","false","","","","","","","","","","null","","779.8999999761581","","1","1","null","null","arrowup","[0.675,0.325,0.15,0.85]","","",""
"sailing-trial","309","1262365","0.0-11.0-268.0","","","","false","","","","","","","","","","55.300000071525574","","878.1000000238419","","0","1","arrowleft","0","arrowleft","[0.85,0.15,0.325,0.675]","","",""
"sailing-trial","310","1268936","0.0-11.0-269.0","","","","false","","","","","","","","","","null","","4089.6999999284744","","3","1","null","null","arrowup","[0.85,0.15,0.325,0.675]","","",""
"sailing-trial","311","1274425","0.0-11.0-270.0","","","","false","","","","","","","","","","1278.1999999284744","","1112.8999999761581","","0","1","arrowleft","0","arrowleft","[0.85,0.15,0.325,0.675]","","",""
"sailing-trial","312","1278811","0.0-11.0-271.0","","","","false","","","","","","","","","","null","","1619.5","","3","1","null","null","arrowup","[0.85,0.15,0.325,0.675]","","",""
"sailing-trial","313","1284047","0.0-11.0-272.0","","","","false","","","","","","","","","","262.89999997615814","","1667.7000000476837","","0","1","arrowleft","0","arrowleft","[0.85,0.15,0.325,0.675]","","",""
"sailing-trial","314","1288769","0.0-11.0-273.0","","","","false","","","","","","","","","","null","","2965.7999999523163","","3","1","null","null","arrowup","[0.85,0.15,0.325,0.675]","","",""
"sailing-trial","315","1291752","0.0-11.0-274.0","","","","false","","","","","","","","","","43.5","","235.09999990463257","","0","1","arrowleft","0","arrowleft","[0.85,0.15,0.325,0.675]","","",""
"sailing-trial","316","1294578","0.0-11.0-275.0","","","","false","","","","","","","","","","null","","1561.1999999284744","","1","0","null","null","arrowup","[0.85,0.15,0.325,0.675]","","",""
"sailing-trial","317","1298308","0.0-11.0-276.0","","","","false","","","","","","","","","","288.2000000476837","","912.1999999284744","","1","0","arrowleft","0","arrowright","[0.85,0.15,0.325,0.675]","","",""
"sailing-trial","318","1300609","0.0-11.0-277.0","","","","false","","","","","","","","","","null","","645.2000000476837","","0","1","null","null","arrowup","[0.85,0.15,0.325,0.675]","","",""
"sailing-trial","319","1304312","0.0-11.0-278.0","","","","false","","","","","","","","","","134.39999997615814","","735.1999999284744","","0","1","arrowleft","0","arrowleft","[0.85,0.15,0.325,0.675]","","",""
"sailing-trial","320","1307127","0.0-11.0-279.0","","","","false","","","","","","","","","","null","","1772.3999999761581","","2","0","null","null","arrowup","[0.85,0.15,0.325,0.675]","","",""
"sailing-trial","321","1310399","0.0-11.0-280.0","","","","false","","","","","","","","","","370.10000002384186","","147.39999997615814","","0","1","arrowleft","0","arrowleft","[0.85,0.15,0.325,0.675]","","",""
"sailing-trial","322","1314456","0.0-11.0-281.0","","","","false","","","","","","","","","","null","","2694.7000000476837","","3","0","null","null","arrowup","[0.85,0.15,0.325,0.675]","","",""
"sailing-trial","323","1318586","0.0-11.0-282.0","","","","false","","","","","","","","","","858.2999999523163","","175.69999992847443","","0","1","arrowleft","0","arrowleft","[0.85,0.15,0.325,0.675]","","",""
"sailing-trial","324","1322538","0.0-11.0-283.0","","","","false","","","","","","","","","","null","","2376.6999999284744","","2","0","null","null","arrowup","[0.85,0.15,0.325,0.675]","","",""
"sailing-trial","325","1326325","0.0-11.0-284.0","","","","false","","","","","","","","","","626","","448.5","","0","1","arrowleft","0","arrowleft","[0.675,0.325,0.15,0.85]","","",""
"sailing-trial","326","1330811","0.0-11.0-285.0","","","","false","","","","","","","","","","null","","2878.5","","0","1","null","null","arrowup","[0.675,0.325,0.15,0.85]","","",""
"sailing-trial","327","1335295","0.0-11.0-286.0","","","","false","","","","","","","","","","260.7999999523163","","2103","","0","0","arrowleft","0","arrowleft","[0.675,0.325,0.15,0.85]","","",""
"sailing-trial","328","1338025","0.0-11.0-287.0","","","","false","","","","","","","","","","null","","917.5","","2","0","null","null","arrowup","[0.675,0.325,0.15,0.85]","","",""
"sailing-trial","329","1341156","0.0-11.0-288.0","","","","false","","","","","","","","","","416.5","","131.60000002384186","","0","0","arrowleft","0","arrowleft","[0.675,0.325,0.15,0.85]","","",""
"sailing-trial","330","1345071","0.0-11.0-289.0","","","","false","","","","","","","","","","null","","888.8999999761581","","0","0","null","null","arrowup","[0.675,0.325,0.15,0.85]","","",""
"sailing-trial","331","1348491","0.0-11.0-290.0","","","","false","","","","","","","","","","241.80000007152557","","231.39999997615814","","0","1","arrowleft","0","arrowleft","[0.675,0.325,0.15,0.85]","","",""
"sailing-trial","332","1352895","0.0-11.0-291.0","","","","false","","","","","","","","","","null","","1982.3999999761581","","3","1","null","null","arrowup","[0.675,0.325,0.15,0.85]","","",""
"sailing-trial","333","1357985","0.0-11.0-292.0","","","","false","","","","","","","","","","227.19999992847443","","1055.5999999046326","","0","0","arrowleft","0","arrowleft","[0.675,0.325,0.15,0.85]","","",""
"sailing-trial","334","1363368","0.0-11.0-293.0","","","","false","","","","","","","","","","null","","3507.3000000715256","","0","1","null","null","arrowup","[0.675,0.325,0.15,0.85]","","",""
"sailing-trial","335","1367206","0.0-11.0-294.0","","","","false","","","","","","","","","","14.600000023841858","","1595.2000000476837","","0","0","arrowleft","0","arrowleft","[0.675,0.325,0.15,0.85]","","",""
"sailing-trial","336","1374308","0.0-11.0-295.0","","","","false","","","","","","","","","","null","","5366.899999976158","","0","1","null","null","arrowup","[0.675,0.325,0.15,0.85]","","",""
"sailing-trial","337","1377877","0.0-11.0-296.0","","","","false","","","","","","","","","","44.800000071525574","","1433.6999999284744","","0","0","arrowleft","0","arrowleft","[0.675,0.325,0.15,0.85]","","",""
"sailing-trial","338","1381780","0.0-11.0-297.0","","","","false","","","","","","","","","","null","","2076.2999999523163","","0","1","null","null","arrowup","[0.675,0.325,0.15,0.85]","","",""
"sailing-trial","339","1385302","0.0-11.0-298.0","","","","false","","","","","","","","","","432.7000000476837","","391.39999997615814","","0","1","arrowleft","0","arrowleft","[0.675,0.325,0.15,0.85]","","",""
"sailing-trial","340","1387258","0.0-11.0-299.0","","","","false","","","","","","","","","","null","","849.5","","2","0","null","null","arrowup","[0.675,0.325,0.15,0.85]","","",""
"sailing-trial","341","1390820","0.0-11.0-300.0","","","","false","","","","","","","","","","356.7000000476837","","464","","0","1","arrowleft","0","arrowleft","[0.85,0.15,0.325,0.675]","","",""
"sailing-trial","342","1393408","0.0-11.0-301.0","","","","false","","","","","","","","","","null","","972.8999999761581","","0","1","null","null","arrowup","[0.85,0.15,0.325,0.675]","","",""
"sailing-trial","343","1397058","0.0-11.0-302.0","","","","false","","","","","","","","","","596.2000000476837","","370.89999997615814","","0","1","arrowleft","0","arrowleft","[0.85,0.15,0.325,0.675]","","",""
"sailing-trial","344","1399328","0.0-11.0-303.0","","","","false","","","","","","","","","","null","","855.6000000238419","","1","0","null","null","arrowup","[0.85,0.15,0.325,0.675]","","",""
"sailing-trial","345","1403280","0.0-11.0-304.0","","","","false","","","","","","","","","","247.60000002384186","","868.1000000238419","","0","1","arrowleft","0","arrowleft","[0.85,0.15,0.325,0.675]","","",""
"sailing-trial","346","1405757","0.0-11.0-305.0","","","","false","","","","","","","","","","null","","893.5","","1","0","null","null","arrowup","[0.85,0.15,0.325,0.675]","","",""
"sailing-trial","347","1412635","0.0-11.0-306.0","","","","false","","","","","","","","","","2698","","249.10000002384186","","0","1","arrowleft","0","arrowleft","[0.85,0.15,0.325,0.675]","","",""
"sailing-trial","348","1414977","0.0-11.0-307.0","","","","false","","","","","","","","","","null","","1089","","2","0","null","null","arrowup","[0.85,0.15,0.325,0.675]","","",""
"sailing-trial","349","1418457","0.0-11.0-308.0","","","","false","","","","","","","","","","128.59999990463257","","82","","0","1","arrowleft","0","arrowleft","[0.85,0.15,0.325,0.675]","","",""
"sailing-trial","350","1421096","0.0-11.0-309.0","","","","false","","","","","","","","","","null","","1347.8000000715256","","1","0","null","null","arrowup","[0.85,0.15,0.325,0.675]","","",""
"sailing-trial","351","1424527","0.0-11.0-310.0","","","","false","","","","","","","","","","220","","88.89999997615814","","0","1","arrowleft","0","arrowleft","[0.85,0.15,0.325,0.675]","","",""
"sailing-trial","352","1426456","0.0-11.0-311.0","","","","false","","","","","","","","","","null","","786.8000000715256","","2","0","null","null","arrowup","[0.85,0.15,0.325,0.675]","","",""
"sailing-trial","353","1429397","0.0-11.0-312.0","","","","false","","","","","","","","","","517.9000000953674","","63.800000071525574","","0","0","arrowleft","0","arrowleft","[0.85,0.15,0.325,0.675]","","",""
"sailing-trial","354","1432049","0.0-11.0-313.0","","","","false","","","","","","","","","","null","","966.3000000715256","","3","1","null","null","arrowup","[0.85,0.15,0.325,0.675]","","",""
"sailing-trial","355","1437620","0.0-11.0-314.0","","","","false","","","","","","","","","","104","","2757.2999999523163","","0","1","arrowleft","0","arrowleft","[0.85,0.15,0.325,0.675]","","",""
"sailing-trial","356","1440289","0.0-11.0-315.0","","","","false","","","","","","","","","","null","","823.8000000715256","","3","1","null","null","arrowup","[0.85,0.15,0.325,0.675]","","",""
"sailing-trial","357","1443636","0.0-11.0-316.0","","","","false","","","","","","","","","","202.40000009536743","","947.8000000715256","","0","0","arrowleft","0","arrowleft","[0.85,0.15,0.325,0.675]","","",""
"sailing-trial","358","1450387","0.0-11.0-317.0","","","","false","","","","","","","","","","null","","5486.5","","1","0","null","null","arrowup","[0.85,0.15,0.325,0.675]","","",""
"sailing-trial","359","1456315","0.0-11.0-318.0","","","","false","","","","","","","","","","1605.7000000476837","","40.199999928474426","","0","1","arrowleft","0","arrowleft","[0.85,0.15,0.325,0.675]","","",""
"sailing-trial","360","1460895","0.0-11.0-319.0","","","","false","","","","","","","","","","null","","3398.6999999284744","","1","0","null","null","arrowup","[0.85,0.15,0.325,0.675]","","",""
"sailing-trial","361","1464567","0.0-11.0-320.0","","","","false","","","","","","","","","","419.2000000476837","","63.60000002384186","","0","0","arrowleft","0","arrowleft","[0.85,0.15,0.325,0.675]","","",""
"sailing-trial","362","1466687","0.0-11.0-321.0","","","","false","","","","","","","","","","null","","859","","1","0","null","null","arrowup","[0.85,0.15,0.325,0.675]","","",""
"sailing-trial","363","1469774","0.0-11.0-322.0","","","","false","","","","","","","","","","176.20000004768372","","200.60000002384186","","0","1","arrowleft","0","arrowleft","[0.675,0.325,0.15,0.85]","","",""
"sailing-trial","364","1474367","0.0-11.0-323.0","","","","false","","","","","","","","","","null","","2381.8000000715256","","2","0","null","null","arrowup","[0.675,0.325,0.15,0.85]","","",""
"sailing-trial","365","1477747","0.0-11.0-324.0","","","","false","","","","","","","","","","167.5","","7.5","","0","0","arrowleft","0","arrowleft","[0.675,0.325,0.15,0.85]","","",""
"sailing-trial","366","1480980","0.0-11.0-325.0","","","","false","","","","","","","","","","null","","1965.2999999523163","","3","0","null","null","arrowup","[0.675,0.325,0.15,0.85]","","",""
"sailing-trial","367","1484376","0.0-11.0-326.0","","","","false","","","","","","","","","","273.10000002384186","","247.20000004768372","","2","0","arrowright","1","arrowleft","[0.675,0.325,0.15,0.85]","","",""
"sailing-trial","368","1486395","0.0-11.0-327.0","","","","false","","","","","","","","","","null","","857.1000000238419","","0","0","null","null","arrowup","[0.675,0.325,0.15,0.85]","","",""
"sailing-trial","369","1489672","0.0-11.0-328.0","","","","false","","","","","","","","","","267.10000002384186","","322.89999997615814","","3","1","arrowright","1","arrowright","[0.675,0.325,0.15,0.85]","","",""
"sailing-trial","370","1492439","0.0-11.0-329.0","","","","false","","","","","","","","","","null","","312.39999997615814","","1","1","null","null","arrowup","[0.675,0.325,0.15,0.85]","","",""
"sailing-trial","371","1495525","0.0-11.0-330.0","","","","false","","","","","","","","","","265.1999999284744","","128.60000002384186","","3","1","arrowright","1","arrowright","[0.675,0.325,0.15,0.85]","","",""
"sailing-trial","372","1498060","0.0-11.0-331.0","","","","false","","","","","","","","","","null","","877.7000000476837","","3","1","null","null","arrowup","[0.675,0.325,0.15,0.85]","","",""
"sailing-trial","373","1501179","0.0-11.0-332.0","","","","false","","","","","","","","","","3.700000047683716","","94.79999995231628","","3","1","arrowright","1","arrowright","[0.675,0.325,0.15,0.85]","","",""
"sailing-trial","374","1503196","0.0-11.0-333.0","","","","false","","","","","","","","","","null","","874","","2","0","null","null","arrowup","[0.675,0.325,0.15,0.85]","","",""
"sailing-trial","375","1506666","0.0-11.0-334.0","","","","false","","","","","","","","","","96","","556","","3","1","arrowright","1","arrowright","[0.675,0.325,0.15,0.85]","","",""
"sailing-trial","376","1511359","0.0-11.0-335.0","","","","false","","","","","","","","","","null","","2835.5999999046326","","2","0","null","null","arrowup","[0.675,0.325,0.15,0.85]","","",""
"sailing-trial","377","1516556","0.0-11.0-336.0","","","","false","","","","","","","","","","164.10000002384186","","5.699999928474426","","3","1","arrowright","1","arrowright","[0.675,0.325,0.15,0.85]","","",""
"sailing-trial","378","1518785","0.0-11.0-337.0","","","","false","","","","","","","","","","null","","1185.6000000238419","","1","0","null","null","arrowup","[0.675,0.325,0.15,0.85]","","",""
"sailing-trial","379","1522916","0.0-11.0-338.0","","","","false","","","","","","","","","","416.8000000715256","","403.89999997615814","","3","0","arrowright","1","arrowright","[0.325,0.675,0.85,0.15]","","",""
"sailing-trial","380","1526630","0.0-11.0-339.0","","","","false","","","","","","","","","","null","","1906.0999999046326","","1","1","null","null","arrowup","[0.325,0.675,0.85,0.15]","","",""
"sailing-trial","381","1529328","0.0-11.0-340.0","","","","false","","","","","","","","","","292.8000000715256","","212.79999995231628","","3","0","arrowright","1","arrowright","[0.325,0.675,0.85,0.15]","","",""
"sailing-trial","382","1532146","0.0-11.0-341.0","","","","false","","","","","","","","","","null","","457.39999997615814","","0","0","null","null","arrowup","[0.325,0.675,0.85,0.15]","","",""
"sailing-trial","383","1535075","0.0-11.0-342.0","","","","false","","","","","","","","","","47.799999952316284","","121.60000002384186","","3","0","arrowright","1","arrowright","[0.325,0.675,0.85,0.15]","","",""
"sailing-trial","384","1537838","0.0-11.0-343.0","","","","false","","","","","","","","","","null","","958.1999999284744","","0","1","null","null","arrowup","[0.325,0.675,0.85,0.15]","","",""
"sailing-trial","385","1540366","0.0-11.0-344.0","","","","false","","","","","","","","","","175.70000004768372","","60.89999997615814","","3","0","arrowright","1","arrowright","[0.325,0.675,0.85,0.15]","","",""
"sailing-trial","386","1543324","0.0-11.0-345.0","","","","false","","","","","","","","","","null","","1226.1999999284744","","0","1","null","null","arrowup","[0.325,0.675,0.85,0.15]","","",""
"sailing-trial","387","1546375","0.0-11.0-346.0","","","","false","","","","","","","","","","468.6999999284744","","304.7999999523163","","0","0","arrowleft","0","arrowleft","[0.325,0.675,0.85,0.15]","","",""
"sailing-trial","388","1549078","0.0-11.0-347.0","","","","false","","","","","","","","","","null","","770","","3","1","null","null","arrowup","[0.325,0.675,0.85,0.15]","","",""
"sailing-trial","389","1554115","0.0-11.0-348.0","","","","false","","","","","","","","","","735.5","","273.5","","0","1","arrowleft","0","arrowleft","[0.325,0.675,0.85,0.15]","","",""
"sailing-trial","390","1557818","0.0-11.0-349.0","","","","false","","","","","","","","","","null","","1688.6999999284744","","1","1","null","null","arrowup","[0.325,0.675,0.85,0.15]","","",""
"sailing-trial","391","1561336","0.0-11.0-350.0","","","","false","","","","","","","","","","394.7999999523163","","364.7999999523163","","0","1","arrowleft","0","arrowleft","[0.325,0.675,0.85,0.15]","","",""
"sailing-trial","392","1564040","0.0-11.0-351.0","","","","false","","","","","","","","","","null","","1011.9000000953674","","1","1","null","null","arrowup","[0.325,0.675,0.85,0.15]","","",""
"sailing-trial","393","1567240","0.0-11.0-352.0","","","","false","","","","","","","","","","262.8000000715256","","149.70000004768372","","0","1","arrowleft","0","arrowleft","[0.325,0.675,0.85,0.15]","","",""
"sailing-trial","394","1571235","0.0-11.0-353.0","","","","false","","","","","","","","","","null","","2423","","1","0","null","null","arrowup","[0.325,0.675,0.85,0.15]","","",""
"sailing-trial","395","1574730","0.0-11.0-354.0","","","","false","","","","","","","","","","147.60000002384186","","708.2000000476837","","0","1","arrowleft","0","arrowleft","[0.325,0.675,0.85,0.15]","","",""
"sailing-trial","396","1577906","0.0-11.0-355.0","","","","false","","","","","","","","","","null","","2134.5","","0","0","null","null","arrowup","[0.325,0.675,0.85,0.15]","","",""
"sailing-trial","397","1580505","0.0-11.0-356.0","","","","false","","","","","","","","","","338.2999999523163","","5","","0","0","arrowleft","0","arrowleft","[0.325,0.675,0.85,0.15]","","",""
"sailing-trial","398","1583315","0.0-11.0-357.0","","","","false","","","","","","","","","","null","","1528.1000000238419","","0","0","null","null","arrowup","[0.325,0.675,0.85,0.15]","","",""
"sailing-trial","399","1586468","0.0-11.0-358.0","","","","false","","","","","","","","","","617.6000000238419","","289.3000000715256","","1","0","arrowleft","0","arrowright","[0.675,0.325,0.15,0.85]","","",""
"sailing-trial","400","1589357","0.0-11.0-359.0","","","","false","","","","","","","","","","null","","953.8000000715256","","3","0","null","null","arrowup","[0.675,0.325,0.15,0.85]","","",""
"sailing-trial","401","1593175","0.0-11.0-360.0","","","","false","","","","","","","","","","344.10000002384186","","516.2000000476837","","1","1","arrowleft","0","arrowright","[0.675,0.325,0.15,0.85]","","",""
"sailing-trial","402","1596555","0.0-11.0-361.0","","","","false","","","","","","","","","","null","","848.7000000476837","","2","0","null","null","arrowup","[0.675,0.325,0.15,0.85]","","",""
"sailing-trial","403","1600406","0.0-11.0-362.0","","","","false","","","","","","","","","","336.39999997615814","","140.60000002384186","","1","0","arrowleft","0","arrowright","[0.675,0.325,0.15,0.85]","","",""
"sailing-trial","404","1604075","0.0-11.0-363.0","","","","false","","","","","","","","","","null","","2195.5","","3","0","null","null","arrowup","[0.675,0.325,0.15,0.85]","","",""
"sailing-trial","405","1609973","0.0-11.0-364.0","","","","false","","","","","","","","","","2037.8999999761581","","1453.2000000476837","","1","0","arrowleft","0","arrowright","[0.675,0.325,0.15,0.85]","","",""
"sailing-trial","406","1613523","0.0-11.0-365.0","","","","false","","","","","","","","","","null","","1127.6999999284744","","3","1","null","null","arrowup","[0.675,0.325,0.15,0.85]","","",""
"sailing-trial","407","1616858","0.0-11.0-366.0","","","","false","","","","","","","","","","496.8000000715256","","111","","3","1","arrowright","1","arrowright","[0.675,0.325,0.15,0.85]","","",""
"sailing-trial","408","1621127","0.0-11.0-367.0","","","","false","","","","","","","","","","null","","1243","","1","0","null","null","arrowup","[0.675,0.325,0.15,0.85]","","",""
"sailing-trial","409","1627004","0.0-11.0-368.0","","","","false","","","","","","","","","","2634.2000000476837","","130.60000002384186","","3","0","arrowright","1","arrowright","[0.675,0.325,0.15,0.85]","","",""
"sailing-trial","410","1629436","0.0-11.0-369.0","","","","false","","","","","","","","","","null","","958.5","","2","0","null","null","arrowup","[0.675,0.325,0.15,0.85]","","",""
"sailing-trial","411","1633554","0.0-11.0-370.0","","","","false","","","","","","","","","","537","","76.39999997615814","","3","1","arrowright","1","arrowright","[0.675,0.325,0.15,0.85]","","",""
"sailing-trial","412","1635697","0.0-11.0-371.0","","","","false","","","","","","","","","","null","","906.8999999761581","","2","0","null","null","arrowup","[0.675,0.325,0.15,0.85]","","",""
"sailing-trial","413","1638957","0.0-11.0-372.0","","","","false","","","","","","","","","","267.5","","50.5","","0","1","arrowleft","0","arrowleft","[0.675,0.325,0.15,0.85]","","",""
"sailing-trial","414","1641237","0.0-11.0-373.0","","","","false","","","","","","","","","","null","","1223.8000000715256","","0","0","null","null","arrowup","[0.675,0.325,0.15,0.85]","","",""
"sailing-trial","415","1645228","0.0-11.0-374.0","","","","false","","","","","","","","","","485.60000002384186","","450.7999999523163","","3","1","arrowright","1","arrowright","[0.675,0.325,0.15,0.85]","","",""
"sailing-trial","416","1649130","0.0-11.0-375.0","","","","false","","","","","","","","","","null","","2152.7000000476837","","0","1","null","null","arrowup","[0.675,0.325,0.15,0.85]","","",""
"sailing-trial","417","1651874","0.0-11.0-376.0","","","","false","","","","","","","","","","63.10000002384186","","233.29999995231628","","3","0","arrowright","1","arrowright","[0.15,0.85,0.675,0.325]","","",""
"sailing-trial","418","1653805","0.0-11.0-377.0","","","","false","","","","","","","","","","null","","847.3999999761581","","0","0","null","null","arrowup","[0.15,0.85,0.675,0.325]","","",""
"sailing-trial","419","1657035","0.0-11.0-378.0","","","","false","","","","","","","","","","227.39999997615814","","119.89999997615814","","2","1","arrowright","1","arrowleft","[0.15,0.85,0.675,0.325]","","",""
"sailing-trial","420","1659488","0.0-11.0-379.0","","","","false","","","","","","","","","","null","","785.1000000238419","","1","1","null","null","arrowup","[0.15,0.85,0.675,0.325]","","",""
"sailing-trial","421","1662688","0.0-11.0-380.0","","","","false","","","","","","","","","","544.5","","372.5","","2","0","arrowright","1","arrowleft","[0.15,0.85,0.675,0.325]","","",""
"sailing-trial","422","1665425","0.0-11.0-381.0","","","","false","","","","","","","","","","null","","1103.1000000238419","","1","1","null","null","arrowup","[0.15,0.85,0.675,0.325]","","",""
"sailing-trial","423","1669961","0.0-11.0-382.0","","","","false","","","","","","","","","","476.7000000476837","","311.6999999284744","","1","1","arrowleft","0","arrowright","[0.15,0.85,0.675,0.325]","","",""
"sailing-trial","424","1672028","0.0-11.0-383.0","","","","false","","","","","","","","","","null","","1001.7000000476837","","0","0","null","null","arrowup","[0.15,0.85,0.675,0.325]","","",""
"sailing-trial","425","1675198","0.0-11.0-384.0","","","","false","","","","","","","","","","213.39999997615814","","264.8000000715256","","1","1","arrowleft","0","arrowright","[0.15,0.85,0.675,0.325]","","",""
"sailing-trial","426","1677916","0.0-11.0-385.0","","","","false","","","","","","","","","","null","","1032.5","","1","1","null","null","arrowup","[0.15,0.85,0.675,0.325]","","",""
"sailing-trial","427","1680984","0.0-11.0-386.0","","","","false","","","","","","","","","","165.40000009536743","","150.40000009536743","","1","1","arrowleft","0","arrowright","[0.15,0.85,0.675,0.325]","","",""
"sailing-trial","428","1683394","0.0-11.0-387.0","","","","false","","","","","","","","","","null","","1055.9000000953674","","1","0","null","null","arrowup","[0.15,0.85,0.675,0.325]","","",""
"sailing-trial","429","1686663","0.0-11.0-388.0","","","","false","","","","","","","","","","377.10000002384186","","74.89999997615814","","1","0","arrowleft","0","arrowright","[0.15,0.85,0.675,0.325]","","",""
"sailing-trial","430","1689692","0.0-11.0-389.0","","","","false","","","","","","","","","","null","","1078.3000000715256","","1","1","null","null","arrowup","[0.15,0.85,0.675,0.325]","","",""
"sailing-trial","431","1693143","0.0-11.0-390.0","","","","false","","","","","","","","","","259.2999999523163","","453","","1","1","arrowleft","0","arrowright","[0.15,0.85,0.675,0.325]","","",""
"sailing-trial","432","1696346","0.0-11.0-391.0","","","","false","","","","","","","","","","null","","1197.3000000715256","","1","1","null","null","arrowup","[0.15,0.85,0.675,0.325]","","",""
"sailing-trial","433","1699348","0.0-11.0-392.0","","","","false","","","","","","","","","","16.699999928474426","","220.60000002384186","","1","1","arrowleft","0","arrowright","[0.15,0.85,0.675,0.325]","","",""
"sailing-trial","434","1702533","0.0-11.0-393.0","","","","false","","","","","","","","","","null","","843","","2","1","null","null","arrowup","[0.15,0.85,0.675,0.325]","","",""
"sailing-trial","435","1705652","0.0-11.0-394.0","","","","false","","","","","","","","","","260.8000000715256","","250.60000002384186","","1","1","arrowleft","0","arrowright","[0.15,0.85,0.675,0.325]","","",""
"sailing-trial","436","1708446","0.0-11.0-395.0","","","","false","","","","","","","","","","null","","699.1000000238419","","0","0","null","null","arrowup","[0.15,0.85,0.675,0.325]","","",""
"sailing-trial","437","1711939","0.0-11.0-396.0","","","","false","","","","","","","","","","455.3000000715256","","249.29999995231628","","1","1","arrowleft","0","arrowright","[0.15,0.85,0.675,0.325]","","",""
"sailing-trial","438","1714358","0.0-11.0-397.0","","","","false","","","","","","","","","","null","","741.8000000715256","","3","1","null","null","arrowup","[0.15,0.85,0.675,0.325]","","",""
"sailing-trial","439","1717294","0.0-11.0-398.0","","","","false","","","","","","","","","","52.5","","266.5","","1","1","arrowleft","0","arrowright","[0.15,0.85,0.675,0.325]","","",""
"sailing-trial","440","1719235","0.0-11.0-399.0","","","","false","","","","","","","","","","null","","714.8999999761581","","3","0","null","null","arrowup","[0.15,0.85,0.675,0.325]","","",""
"instructions","441","1720743","0.0-12.0","","","","","","","","","","1506.8000000715256","","","","","","","","","","","","","","","","[{""page_index"":0,""viewing_time"":1506.7000000476837}]"
"survey-debrief","442","1751839","0.0-13.0","","","","","","","","","","31093.900000095367","","","","","","","","","","","","","","{""difficulty"":""5"",""fun"":""2"",""clarity"":""5"",""strategy"":""count 3 failures till change shop"",""feedback"":""""}","",""
