"trial_type","trial_index","time_elapsed","internal_node_id","value","metadata","success","timeout","failed_images","failed_audio","failed_video","browser_interaction","low_quality","rt","stimulus","response","button_pressed","island_rt","island_response","boat_rt","boat_response","boat","reward","island_key","island","boat_key","reward_probabilities","responses","num_errors","view_history"
"pavlovia","0","2","0.0-0.0","","","","","","","","","","","","","","","","","","","","","","","","","",""
"call-function","1","3","0.0-1.0","","{""task_version"":""sailing_part1_v1"",""task_condition"":""good"",""boats"":[""C"",""B"",""A"",""D""],""boats_demo"":[""G"",""E"",""F"",""H""],""islands"":[""B"",""A""],""subject_id"":""14547"",""age"":""16"",""gender"":""Male""}","","","","","","","","","","","","","","","","","","","","","","","",""
"preload","2","10906","0.0-2.0","","","true","false","[]","[]","[]","[{""event"":""fullscreenenter"",""trial"":3,""time"":12239}]","false","","","","","","","","","","","","","","","","",""
"fullscreen","3","13241","0.0-3.0","","","true","","","","","","","","","","","","","","","","","","","","","","",""
"audio-keyboard-response","4","14283","0.0-4.0-0.0","","","","","","","","","","10.666666666666666","audio/beep_loop.wav"," ","","","","","","","","","","","","","",""
"audio-test","5","16344","0.0-4.0-1.0","","","","","","","","","","null","audio/turtle.mp3","","3","","","","","","","","","","","","",""
"audio-test","6","22041","0.0-4.0-2.0","","","","","","","","","","null","audio/shark.mp3","","2","","","","","","","","","","","","",""
"sailing-instructions","7","61439","0.0-5.0-0.0-0.0","","","","","","","","","","","","","","null","null","null","null","null","null","","","","","","",""
"sailing-trial","8","65682","0.0-5.0-0.0-1.0-0.0","","","","false","","","","","","","","","","2906.3999996185303","","null","","null","null","arrowleft","0","null","null","","",""
"sailing-trial","9","69543","0.0-5.0-0.0-1.0-1.0","","","","false","","","","","","","","","","2736.0999999046326","","null","","null","null","arrowright","1","null","null","","",""
"sailing-trial","10","73111","0.0-5.0-0.0-1.0-2.0","","","","false","","","","","","","","","","2457","","null","","null","null","arrowleft","0","null","null","","",""
"sailing-instructions","11","134873","0.0-5.0-0.0-2.0","","","","","","","","","","","","","","null","null","null","null","0","null","","","","","","",""
"sailing-trial","12","141366","0.0-5.0-0.0-3.0-0.0","","","","false","","","","","","","","","","null","","2255.4000000953674","","2","1","null","null","arrowleft","[1,1,1,1]","","",""
"sailing-trial","13","145158","0.0-5.0-0.0-3.0-1.0","","","","false","","","","","","","","","","null","","1271.1999998092651","","3","1","null","null","arrowright","[1,1,1,1]","","",""
"sailing-trial","14","150888","0.0-5.0-0.0-3.0-2.0","","","","false","","","","","","","","","","null","","2202.4000000953674","","3","0","null","null","arrowright","[0,0,0,0]","","",""
"sailing-instructions","15","158714","0.0-5.0-0.0-4.0","","","","","","","","","","","","","","null","null","null","null","null","null","","","","","","",""
"sailing-comprehension","16","186539","0.0-5.0-0.0-5.0","","","","","","","","","","18743.700000286102","","","","","","","","","","","","","","[""true"",""false"",""false"",""false""]","2",""
"sailing-instructions","17","218605","0.0-5.0-0.1-0.1","","","","","","","","","","","","","","null","null","null","null","null","null","","","","","","",""
"sailing-trial","18","221295","0.0-5.0-0.1-1.1-0.1","","","","false","","","","","","","","","","1579.2999997138977","","null","","null","null","arrowleft","0","null","null","","",""
"sailing-trial","19","223316","0.0-5.0-0.1-1.1-1.1","","","","false","","","","","","","","","","909.7000002861023","","null","","null","null","arrowright","1","null","null","","",""
"sailing-trial","20","225429","0.0-5.0-0.1-1.1-2.1","","","","false","","","","","","","","","","998","","null","","null","null","arrowleft","0","null","null","","",""
"sailing-instructions","21","278010","0.0-5.0-0.1-2.1","","","","","","","","","","","","","","null","null","null","null","0","null","","","","","","",""
"sailing-trial","22","284192","0.0-5.0-0.1-3.1-0.1","","","","false","","","","","","","","","","null","","2331.9000000953674","","2","1","null","null","arrowleft","[1,1,1,1]","","",""
"sailing-trial","23","287294","0.0-5.0-0.1-3.1-1.1","","","","false","","","","","","","","","","null","","310.40000009536743","","3","1","null","null","arrowright","[1,1,1,1]","","",""
"sailing-trial","24","292706","0.0-5.0-0.1-3.1-2.1","","","","false","","","","","","","","","","null","","1810.1999998092651","","2","0","null","null","arrowleft","[0,0,0,0]","","",""
"sailing-instructions","25","300240","0.0-5.0-0.1-4.1","","","","","","","","","","","","","","null","null","null","null","null","null","","","","","","",""
"sailing-comprehension","26","317267","0.0-5.0-0.1-5.1","","","","","","","","","","11525.099999904633","","","","","","","","","","","","","","[""true"",""true"",""false"",""true""]","0",""
"sailing-instructions","27","383445","0.0-6.0-0.0-0.0","","","","","","","","","","","","","","null","null","null","null","null","null","","","","","","",""
"sailing-comprehension","28","400347","0.0-6.0-0.0-1.0","","","","","","","","","","14509.5","","","","","","","","","","","","","","[""true"",""false"",""true""]","0",""
"sailing-instructions","29","414208","0.0-7.0-0.0-0.0","","","","","","","","","","","","","","null","null","null","null","null","null","","","","","","",""
"sailing-trial","30","420651","0.0-7.0-0.0-1.0-0.0","","","","false","","","","","","","","","","null","","4257","","0","0","null","null","arrowup","[0.2,0.8,0.2,0.8]","","",""
"sailing-trial","31","424383","0.0-7.0-0.0-1.0-1.0","","","","false","","","","","","","","","","null","","1765.5999999046326","","1","0","null","null","arrowup","[0.2,0.8,0.2,0.8]","","",""
"sailing-trial","32","426627","0.0-7.0-0.0-1.0-2.0","","","","false","","","","","","","","","","null","","729.4000000953674","","2","0","null","null","arrowup","[0.2,0.8,0.2,0.8]","","",""
"sailing-trial","33","429527","0.0-7.0-0.0-1.0-3.0","","","","false","","","","","","","","","","null","","629.5999999046326","","3","1","null","null","arrowup","[0.2,0.8,0.2,0.8]","","",""
"sailing-comprehension","34","436625","0.0-7.0-0.0-2.0","","","","","","","","","","5531.799999713898","","","","","","","","","","","","","","[""false""]","0",""
"sailing-instructions","35","447251","0.0-8.0-0.0-0.0","","","","","","","","","","","","","","null","null","null","null","null","null","","","","","","",""
"sailing-comprehension","36","453315","0.0-8.0-0.0-1.0","","","","","","","","","","4241","","","","","","","","","","","","","","[""true""]","0",""
"sailing-instructions","37","475234","0.0-9.0-0.0-0.0","","","","","","","","","","","","","","null","null","null","null","null","null","","","","","","",""
"sailing-trial","38","481352","0.0-9.0-0.0-1.0-0.0","","","","false","","","","","","","","","","1393.7000002861023","","1305.7999997138977","","0","0","arrowleft","0","arrowleft","[0.2,0.8,0.2,0.8]","","",""
"sailing-trial","39","485789","0.0-9.0-0.0-1.0-1.0","","","","false","","","","","","","","","","1019.5","","299.19999980926514","","2","0","arrowright","1","arrowleft","[0.2,0.8,0.2,0.8]","","",""
"sailing-trial","40","488767","0.0-9.0-0.0-1.0-2.0","","","","false","","","","","","","","","","null","","1163.1999998092651","","0","0","null","null","arrowup","[0.2,0.8,0.2,0.8]","","",""
"sailing-trial","41","493429","0.0-9.0-0.0-1.0-3.0","","","","false","","","","","","","","","","956.4000000953674","","232","","1","1","arrowleft","0","arrowright","[0.2,0.8,0.2,0.8]","","",""
"sailing-trial","42","496628","0.0-9.0-0.0-1.0-4.0","","","","false","","","","","","","","","","null","","907.3000001907349","","3","1","null","null","arrowup","[0.2,0.8,0.2,0.8]","","",""
"sailing-trial","43","501468","0.0-9.0-0.0-1.0-5.0","","","","false","","","","","","","","","","797.7000002861023","","556.3000001907349","","2","1","arrowright","1","arrowleft","[0.2,0.8,0.2,0.8]","","",""
"sailing-instructions","44","525211","0.0-10.0","","","","","","","","","","","","","","null","null","null","null","null","null","","","","","","",""
"sailing-trial","45","530797","0.0-11.0-0.0","","","","false","","","","","","","","","","2023.1999998092651","","383.5","","0","1","arrowleft","0","arrowleft","[0.675,0.325,0.15,0.85]","","",""
"sailing-trial","46","534135","0.0-11.0-1.0","","","","false","","","","","","","","","","null","","1210.4000000953674","","0","0","null","null","arrowup","[0.675,0.325,0.15,0.85]","","",""
"sailing-trial","47","538142","0.0-11.0-2.0","","","","false","","","","","","","","","","775.1999998092651","","100.2999997138977","","2","0","arrowright","1","arrowleft","[0.675,0.325,0.15,0.85]","","",""
"sailing-trial","48","541484","0.0-11.0-3.0","","","","false","","","","","","","","","","null","","1718.7999997138977","","3","0","null","null","arrowup","[0.675,0.325,0.15,0.85]","","",""
"sailing-trial","49","545525","0.0-11.0-4.0","","","","false","","","","","","","","","","812.0999999046326","","4.5","","1","0","arrowleft","0","arrowright","[0.675,0.325,0.15,0.85]","","",""
"sailing-trial","50","548302","0.0-11.0-5.0","","","","false","","","","","","","","","","null","","734.5999999046326","","3","1","null","null","arrowup","[0.675,0.325,0.15,0.85]","","",""
"sailing-trial","51","552059","0.0-11.0-6.0","","","","false","","","","","","","","","","563.3000001907349","","197.69999980926514","","3","1","arrowright","1","arrowright","[0.675,0.325,0.15,0.85]","","",""
"sailing-trial","52","555146","0.0-11.0-7.0","","","","false","","","","","","","","","","null","","1570.3000001907349","","2","0","null","null","arrowup","[0.675,0.325,0.15,0.85]","","",""
"sailing-trial","53","558991","0.0-11.0-8.0","","","","false","","","","","","","","","","843.5","","27.09999990463257","","0","1","arrowleft","0","arrowleft","[0.675,0.325,0.15,0.85]","","",""
"sailing-trial","54","561193","0.0-11.0-9.0","","","","false","","","","","","","","","","null","","656.9000000953674","","1","0","null","null","arrowup","[0.675,0.325,0.15,0.85]","","",""
"sailing-trial","55","565937","0.0-11.0-10.0","","","","false","","","","","","","","","","1414.6999998092651","","687.8000001907349","","2","0","arrowright","1","arrowleft","[0.675,0.325,0.15,0.85]","","",""
"sailing-trial","56","568643","0.0-11.0-11.0","","","","false","","","","","","","","","","null","","668","","1","1","null","null","arrowup","[0.675,0.325,0.15,0.85]","","",""
"sailing-trial","57","572650","0.0-11.0-12.0","","","","false","","","","","","","","","","964.5","","440.2999997138977","","1","0","arrowleft","0","arrowright","[0.675,0.325,0.15,0.85]","","",""
"sailing-trial","58","575410","0.0-11.0-13.0","","","","false","","","","","","","","","","null","","1173.8999996185303","","3","0","null","null","arrowup","[0.675,0.325,0.15,0.85]","","",""
"sailing-trial","59","579554","0.0-11.0-14.0","","","","false","","","","","","","","","","862.9000000953674","","406.7000002861023","","0","1","arrowleft","0","arrowleft","[0.675,0.325,0.15,0.85]","","",""
"sailing-trial","60","582290","0.0-11.0-15.0","","","","false","","","","","","","","","","null","","1074.9000000953674","","2","0","null","null","arrowup","[0.675,0.325,0.15,0.85]","","",""
"sailing-trial","61","586317","0.0-11.0-16.0","","","","false","","","","","","","","","","706.5999999046326","","320","","2","1","arrowright","1","arrowleft","[0.325,0.675,0.85,0.15]","","",""
"sailing-trial","62","588769","0.0-11.0-17.0","","","","false","","","","","","","","","","null","","594.9000000953674","","0","1","null","null","arrowup","[0.325,0.675,0.85,0.15]","","",""
"sailing-trial","63","592807","0.0-11.0-18.0","","","","false","","","","","","","","","","673.9000000953674","","599.2000002861023","","0","0","arrowleft","0","arrowleft","[0.325,0.675,0.85,0.15]","","",""
"sailing-trial","64","595595","0.0-11.0-19.0","","","","false","","","","","","","","","","null","","897.3000001907349","","2","1","null","null","arrowup","[0.325,0.675,0.85,0.15]","","",""
"sailing-trial","65","599134","0.0-11.0-20.0","","","","false","","","","","","","","","","475.90000009536743","","345.2999997138977","","3","0","arrowright","1","arrowright","[0.325,0.675,0.85,0.15]","","",""
"sailing-trial","66","601193","0.0-11.0-21.0","","","","false","","","","","","","","","","null","","459.90000009536743","","3","0","null","null","arrowup","[0.325,0.675,0.85,0.15]","","",""
"sailing-trial","67","604484","0.0-11.0-22.0","","","","false","","","","","","","","","","523.8000001907349","","235.10000038146973","","0","0","arrowleft","0","arrowleft","[0.325,0.675,0.85,0.15]","","",""
"sailing-trial","68","606476","0.0-11.0-23.0","","","","false","","","","","","","","","","null","","650.8000001907349","","3","0","null","null","arrowup","[0.325,0.675,0.85,0.15]","","",""
"sailing-trial","69","610725","0.0-11.0-24.0","","","","false","","","","","","","","","","551.3999996185303","","448.6000003814697","","2","1","arrowright","1","arrowleft","[0.325,0.675,0.85,0.15]","","",""
"sailing-trial","70","612938","0.0-11.0-25.0","","","","false","","","","","","","","","","null","","607.9000000953674","","3","0","null","null","arrowup","[0.325,0.675,0.85,0.15]","","",""
"sailing-trial","71","616657","0.0-11.0-26.0","","","","false","","","","","","","","","","506.09999990463257","","280.19999980926514","","1","1","arrowleft","0","arrowright","[0.325,0.675,0.85,0.15]","","",""
"sailing-trial","72","619296","0.0-11.0-27.0","","","","false","","","","","","","","","","null","","837.4000000953674","","1","1","null","null","arrowup","[0.325,0.675,0.85,0.15]","","",""
"sailing-trial","73","622816","0.0-11.0-28.0","","","","false","","","","","","","","","","677.7999997138977","","15","","2","1","arrowright","1","arrowleft","[0.325,0.675,0.85,0.15]","","",""
"sailing-trial","74","625037","0.0-11.0-29.0","","","","false","","","","","","","","","","null","","479.5","","2","1","null","null","arrowup","[0.325,0.675,0.85,0.15]","","",""
"sailing-trial","75","628472","0.0-11.0-30.0","","","","false","","","","","","","","","","422.69999980926514","","477.90000009536743","","0","0","arrowleft","0","arrowleft","[0.325,0.675,0.85,0.15]","","",""
"sailing-trial","76","631010","0.0-11.0-31.0","","","","false","","","","","","","","","","null","","943","","1","0","null","null","arrowup","[0.325,0.675,0.85,0.15]","","",""
"sailing-trial","77","634474","0.0-11.0-32.0","","","","false","","","","","","","","","","544.5999999046326","","409.40000009536743","","3","0","arrowright","1","arrowright","[0.15,0.85,0.675,0.325]","","",""
"sailing-trial","78","636607","0.0-11.0-33.0","","","","false","","","","","","","","","","null","","675.4000000953674","","2","0","null","null","arrowup","[0.15,0.85,0.675,0.325]","","",""
"sailing-trial","79","640899","0.0-11.0-34.0","","","","false","","","","","","","","","","707.9000000953674","","639.5","","0","1","arrowleft","0","arrowleft","[0.15,0.85,0.675,0.325]","","",""
"sailing-trial","80","643814","0.0-11.0-35.0","","","","false","","","","","","","","","","null","","1064.3000001907349","","1","1","null","null","arrowup","[0.15,0.85,0.675,0.325]","","",""
"sailing-trial","81","647432","0.0-11.0-36.0","","","","false","","","","","","","","","","461.5","","110.80000019073486","","2","1","arrowright","1","arrowleft","[0.15,0.85,0.675,0.325]","","",""
"sailing-trial","82","649978","0.0-11.0-37.0","","","","false","","","","","","","","","","null","","970.5999999046326","","1","0","null","null","arrowup","[0.15,0.85,0.675,0.325]","","",""
"sailing-trial","83","653865","0.0-11.0-38.0","","","","false","","","","","","","","","","598.9000000953674","","348.3999996185303","","0","1","arrowleft","0","arrowleft","[0.15,0.85,0.675,0.325]","","",""
"sailing-trial","84","655827","0.0-11.0-39.0","","","","false","","","","","","","","","","null","","578.8000001907349","","3","0","null","null","arrowup","[0.15,0.85,0.675,0.325]","","",""
"sailing-trial","85","659925","0.0-11.0-40.0","","","","false","","","","","","","","","","879.6999998092651","","298.2000002861023","","1","1","arrowleft","0","arrowright","[0.15,0.85,0.675,0.325]","","",""
"sailing-trial","86","662386","0.0-11.0-41.0","","","","false","","","","","","","","","","null","","961.7000002861023","","3","0","null","null","arrowup","[0.15,0.85,0.675,0.325]","","",""
"sailing-trial","87","665844","0.0-11.0-42.0","","","","false","","","","","","","","","","678.8000001907349","","268.6000003814697","","2","0","arrowright","1","arrowleft","[0.15,0.85,0.675,0.325]","","",""
"sailing-trial","88","668356","0.0-11.0-43.0","","","","false","","","","","","","","","","null","","619","","1","1","null","null","arrowup","[0.15,0.85,0.675,0.325]","","",""
"sailing-trial","89","673714","0.0-11.0-44.0","","","","false","","","","","","","","","","1120","","1473.5","","0","0","arrowleft","0","arrowleft","[0.15,0.85,0.675,0.325]","","",""
"sailing-trial","90","676059","0.0-11.0-45.0","","","","false","","","","","","","","","","null","","831.6999998092651","","0","0","null","null","arrowup","[0.15,0.85,0.675,0.325]","","",""
"sailing-trial","91","679246","0.0-11.0-46.0","","","","false","","","","","","","","","","504.5","","40","","2","0","arrowright","1","arrowleft","[0.15,0.85,0.675,0.325]","","",""
"sailing-trial","92","681676","0.0-11.0-47.0","","","","false","","","","","","","","","","null","","524.5999999046326","","2","1","null","null","arrowup","[0.15,0.85,0.675,0.325]","","",""
"sailing-trial","93","685145","0.0-11.0-48.0","","","","false","","","","","","","","","","420.40000009536743","","362.5","","3","0","arrowright","1","arrowright","[0.15,0.85,0.675,0.325]","","",""
"sailing-trial","94","686980","0.0-11.0-49.0","","","","false","","","","","","","","","","null","","480.6000003814697","","1","0","null","null","arrowup","[0.15,0.85,0.675,0.325]","","",""
"sailing-trial","95","690034","0.0-11.0-50.0","","","","false","","","","","","","","","","484","","32.80000019073486","","0","0","arrowleft","0","arrowleft","[0.15,0.85,0.675,0.325]","","",""
"sailing-trial","96","692228","0.0-11.0-51.0","","","","false","","","","","","","","","","null","","759.7999997138977","","0","0","null","null","arrowup","[0.15,0.85,0.675,0.325]","","",""
"sailing-trial","97","697316","0.0-11.0-52.0","","","","false","","","","","","","","","","2033","","363","","1","0","arrowleft","0","arrowright","[0.325,0.675,0.85,0.15]","","",""
"sailing-trial","98","699975","0.0-11.0-53.0","","","","false","","","","","","","","","","null","","800.5","","1","1","null","null","arrowup","[0.325,0.675,0.85,0.15]","","",""
"sailing-trial","99","704769","0.0-11.0-54.0","","","","false","","","","","","","","","","1541.5999999046326","","579.8999996185303","","0","0","arrowleft","0","arrowleft","[0.325,0.675,0.85,0.15]","","",""
"sailing-trial","100","707348","0.0-11.0-55.0","","","","false","","","","","","","","","","null","","734","","0","1","null","null","arrowup","[0.325,0.675,0.85,0.15]","","",""
"sailing-trial","101","710960","0.0-11.0-56.0","","","","false","","","","","","","","","","504.40000009536743","","171.19999980926514","","3","1","arrowright","1","arrowright","[0.325,0.675,0.85,0.15]","","",""
"sailing-trial","102","713016","0.0-11.0-57.0","","","","false","","","","","","","","","","null","","781.1999998092651","","0","0","null","null","arrowup","[0.325,0.675,0.85,0.15]","","",""
"sailing-trial","103","717367","0.0-11.0-58.0","","","","false","","","","","","","","","","630.3000001907349","","1042.6999998092651","","1","0","arrowleft","0","arrowright","[0.325,0.675,0.85,0.15]","","",""
"sailing-trial","104","719622","0.0-11.0-59.0","","","","false","","","","","","","","","","null","","897.4000000953674","","0","0","null","null","arrowup","[0.325,0.675,0.85,0.15]","","",""
"sailing-trial","105","722925","0.0-11.0-60.0","","","","false","","","","","","","","","","706.3000001907349","","79.30000019073486","","2","0","arrowright","1","arrowleft","[0.325,0.675,0.85,0.15]","","",""
"sailing-trial","106","726215","0.0-11.0-61.0","","","","false","","","","","","","","","","null","","995.9000000953674","","0","1","null","null","arrowup","[0.325,0.675,0.85,0.15]","","",""
"sailing-trial","107","730141","0.0-11.0-62.0","","","","false","","","","","","","","","","994.0999999046326","","28.09999990463257","","1","1","arrowleft","0","arrowright","[0.325,0.675,0.85,0.15]","","",""
"sailing-trial","108","732535","0.0-11.0-63.0","","","","false","","","","","","","","","","null","","185","","1","0","null","null","arrowup","[0.325,0.675,0.85,0.15]","","",""
"sailing-trial","109","736599","0.0-11.0-64.0","","","","false","","","","","","","","","","973.6999998092651","","156.39999961853027","","0","1","arrowleft","0","arrowleft","[0.325,0.675,0.85,0.15]","","",""
"sailing-trial","110","738751","0.0-11.0-65.0","","","","false","","","","","","","","","","null","","405.5","","2","1","null","null","arrowup","[0.325,0.675,0.85,0.15]","","",""
"sailing-trial","111","742418","0.0-11.0-66.0","","","","false","","","","","","","","","","746.5999999046326","","115.30000019073486","","2","1","arrowright","1","arrowleft","[0.325,0.675,0.85,0.15]","","",""
"sailing-trial","112","744449","0.0-11.0-67.0","","","","false","","","","","","","","","","null","","627.2000002861023","","1","0","null","null","arrowup","[0.325,0.675,0.85,0.15]","","",""
"sailing-trial","113","748057","0.0-11.0-68.0","","","","false","","","","","","","","","","891.8999996185303","","300.80000019073486","","0","0","arrowleft","0","arrowleft","[0.325,0.675,0.85,0.15]","","",""
"sailing-trial","114","750673","0.0-11.0-69.0","","","","false","","","","","","","","","","null","","698.4000000953674","","1","1","null","null","arrowup","[0.325,0.675,0.85,0.15]","","",""
"sailing-trial","115","754766","0.0-11.0-70.0","","","","false","","","","","","","","","","1045.3999996185303","","121.40000009536743","","3","1","arrowright","1","arrowright","[0.85,0.15,0.325,0.675]","","",""
"sailing-trial","116","757113","0.0-11.0-71.0","","","","false","","","","","","","","","","null","","559.4000000953674","","2","1","null","null","arrowup","[0.85,0.15,0.325,0.675]","","",""
"sailing-trial","117","761139","0.0-11.0-72.0","","","","false","","","","","","","","","","404.59999990463257","","1120.0999999046326","","1","0","arrowleft","0","arrowright","[0.85,0.15,0.325,0.675]","","",""
"sailing-trial","118","763986","0.0-11.0-73.0","","","","false","","","","","","","","","","null","","884.8999996185303","","0","1","null","null","arrowup","[0.85,0.15,0.325,0.675]","","",""
"sailing-trial","119","767925","0.0-11.0-74.0","","","","false","","","","","","","","","","713.1000003814697","","325.30000019073486","","0","1","arrowleft","0","arrowleft","[0.85,0.15,0.325,0.675]","","",""
"sailing-trial","120","770708","0.0-11.0-75.0","","","","false","","","","","","","","","","null","","854.9000000953674","","0","1","null","null","arrowup","[0.85,0.15,0.325,0.675]","","",""
"sailing-trial","121","775167","0.0-11.0-76.0","","","","false","","","","","","","","","","1211.5999999046326","","232.30000019073486","","0","1","arrowleft","0","arrowleft","[0.85,0.15,0.325,0.675]","","",""
"sailing-trial","122","779007","0.0-11.0-77.0","","","","false","","","","","","","","","","null","","2158.5","","1","0","null","null","arrowup","[0.85,0.15,0.325,0.675]","","",""
"sailing-trial","123","783827","0.0-11.0-78.0","","","","false","","","","","","","","","","1168.8000001907349","","552.5","","3","1","arrowright","1","arrowright","[0.85,0.15,0.325,0.675]","","",""
"sailing-trial","124","786160","0.0-11.0-79.0","","","","false","","","","","","","","","","null","","717.1999998092651","","1","0","null","null","arrowup","[0.85,0.15,0.325,0.675]","","",""
"sailing-trial","125","789675","0.0-11.0-80.0","","","","false","","","","","","","","","","695","","395.2000002861023","","1","0","arrowleft","0","arrowright","[0.85,0.15,0.325,0.675]","","",""
"sailing-trial","126","792534","0.0-11.0-81.0","","","","false","","","","","","","","","","null","","791.5","","3","1","null","null","arrowup","[0.85,0.15,0.325,0.675]","","",""
"sailing-trial","127","796312","0.0-11.0-82.0","","","","false","","","","","","","","","","475.5","","351.19999980926514","","3","1","arrowright","1","arrowright","[0.85,0.15,0.325,0.675]","","",""
"sailing-trial","128","798937","0.0-11.0-83.0","","","","false","","","","","","","","","","null","","796.6000003814697","","0","1","null","null","arrowup","[0.85,0.15,0.325,0.675]","","",""
"sailing-trial","129","802555","0.0-11.0-84.0","","","","false","","","","","","","","","","545.0999999046326","","76.80000019073486","","0","1","arrowleft","0","arrowleft","[0.85,0.15,0.325,0.675]","","",""
"sailing-trial","130","805589","0.0-11.0-85.0","","","","false","","","","","","","","","","null","","986.6999998092651","","3","0","null","null","arrowup","[0.85,0.15,0.325,0.675]","","",""
"sailing-trial","131","809910","0.0-11.0-86.0","","","","false","","","","","","","","","","905.7000002861023","","483.5","","0","1","arrowleft","0","arrowleft","[0.15,0.85,0.675,0.325]","","",""
"sailing-trial","132","812583","0.0-11.0-87.0","","","","false","","","","","","","","","","null","","809.8000001907349","","1","1","null","null","arrowup","[0.15,0.85,0.675,0.325]","","",""
"sailing-trial","133","816311","0.0-11.0-88.0","","","","false","","","","","","","","","","551.3000001907349","","286.2999997138977","","1","1","arrowleft","0","arrowright","[0.15,0.85,0.675,0.325]","","",""
"sailing-trial","134","818873","0.0-11.0-89.0","","","","false","","","","","","","","","","null","","782.9000000953674","","3","1","null","null","arrowup","[0.15,0.85,0.675,0.325]","","",""
"sailing-trial","135","822851","0.0-11.0-90.0","","","","false","","","","","","","","","","773.5","","97.80000019073486","","3","0","arrowright","1","arrowright","[0.15,0.85,0.675,0.325]","","",""
"sailing-trial","136","825466","0.0-11.0-91.0","","","","false","","","","","","","","","","null","","1069.5","","0","0","null","null","arrowup","[0.15,0.85,0.675,0.325]","","",""
"sailing-trial","137","828933","0.0-11.0-92.0","","","","false","","","","","","","","","","767.5","","212.80000019073486","","2","0","arrowright","1","arrowleft","[0.15,0.85,0.675,0.325]","","",""
"sailing-trial","138","831986","0.0-11.0-93.0","","","","false","","","","","","","","","","null","","978.4000000953674","","1","1","null","null","arrowup","[0.15,0.85,0.675,0.325]","","",""
"sailing-trial","139","835478","0.0-11.0-94.0","","","","false","","","","","","","","","","546.1999998092651","","14.099999904632568","","1","1","arrowleft","0","arrowright","[0.15,0.85,0.675,0.325]","","",""
"sailing-trial","140","837712","0.0-11.0-95.0","","","","false","","","","","","","","","","null","","715.1999998092651","","3","0","null","null","arrowup","[0.15,0.85,0.675,0.325]","","",""
"sailing-trial","141","842290","0.0-11.0-96.0","","","","false","","","","","","","","","","1278.5","","288.40000009536743","","1","1","arrowleft","0","arrowright","[0.15,0.85,0.675,0.325]","","",""
"sailing-trial","142","845241","0.0-11.0-97.0","","","","false","","","","","","","","","","null","","1127.4000000953674","","1","1","null","null","arrowup","[0.15,0.85,0.675,0.325]","","",""
"sailing-trial","143","850193","0.0-11.0-98.0","","","","false","","","","","","","","","","1414.5","","320.5","","1","1","arrowleft","0","arrowright","[0.15,0.85,0.675,0.325]","","",""
"sailing-trial","144","853171","0.0-11.0-99.0","","","","false","","","","","","","","","","null","","658.8999996185303","","1","1","null","null","arrowup","[0.15,0.85,0.675,0.325]","","",""
"sailing-trial","145","856894","0.0-11.0-100.0","","","","false","","","","","","","","","","688","","88.7999997138977","","1","1","arrowleft","0","arrowright","[0.15,0.85,0.675,0.325]","","",""
"sailing-trial","146","859530","0.0-11.0-101.0","","","","false","","","","","","","","","","null","","758.3000001907349","","1","0","null","null","arrowup","[0.15,0.85,0.675,0.325]","","",""
"sailing-trial","147","863343","0.0-11.0-102.0","","","","false","","","","","","","","","","876.9000000953674","","377.80000019073486","","1","0","arrowleft","0","arrowright","[0.325,0.675,0.85,0.15]","","",""
"sailing-trial","148","866041","0.0-11.0-103.0","","","","false","","","","","","","","","","null","","865","","3","1","null","null","arrowup","[0.325,0.675,0.85,0.15]","","",""
"sailing-trial","149","869492","0.0-11.0-104.0","","","","false","","","","","","","","","","458.2999997138977","","123.09999990463257","","3","0","arrowright","1","arrowright","[0.325,0.675,0.85,0.15]","","",""
"sailing-trial","150","872247","0.0-11.0-105.0","","","","false","","","","","","","","","","null","","892.6999998092651","","0","1","null","null","arrowup","[0.325,0.675,0.85,0.15]","","",""
"sailing-trial","151","875261","0.0-11.0-106.0","","","","false","","","","","","","","","","399.90000009536743","","30","","0","0","arrowleft","0","arrowleft","[0.325,0.675,0.85,0.15]","","",""
"sailing-trial","152","877990","0.0-11.0-107.0","","","","false","","","","","","","","","","null","","759.5999999046326","","2","1","null","null","arrowup","[0.325,0.675,0.85,0.15]","","",""
"sailing-trial","153","881717","0.0-11.0-108.0","","","","false","","","","","","","","","","380.90000009536743","","269.6000003814697","","3","0","arrowright","1","arrowright","[0.325,0.675,0.85,0.15]","","",""
"sailing-trial","154","884330","0.0-11.0-109.0","","","","false","","","","","","","","","","null","","794.7000002861023","","2","1","null","null","arrowup","[0.325,0.675,0.85,0.15]","","",""
"sailing-trial","155","888464","0.0-11.0-110.0","","","","false","","","","","","","","","","919","","216.80000019073486","","2","1","arrowright","1","arrowleft","[0.325,0.675,0.85,0.15]","","",""
"sailing-trial","156","890934","0.0-11.0-111.0","","","","false","","","","","","","","","","null","","523.5","","2","1","null","null","arrowup","[0.325,0.675,0.85,0.15]","","",""
"sailing-trial","157","894137","0.0-11.0-112.0","","","","false","","","","","","","","","","530.2000002861023","","185.59999990463257","","0","0","arrowleft","0","arrowleft","[0.325,0.675,0.85,0.15]","","",""
"sailing-trial","158","896440","0.0-11.0-113.0","","","","false","","","","","","","","","","null","","721.0999999046326","","1","0","null","null","arrowup","[0.325,0.675,0.85,0.15]","","",""
"sailing-trial","159","900198","0.0-11.0-114.0","","","","false","","","","","","","","","","680.3000001907349","","66.7999997138977","","2","1","arrowright","1","arrowleft","[0.325,0.675,0.85,0.15]","","",""
"sailing-trial","160","902454","0.0-11.0-115.0","","","","false","","","","","","","","","","null","","846.8000001907349","","0","0","null","null","arrowup","[0.325,0.675,0.85,0.15]","","",""
"sailing-trial","161","906121","0.0-11.0-116.0","","","","false","","","","","","","","","","753.8000001907349","","340","","3","0","arrowright","1","arrowright","[0.325,0.675,0.85,0.15]","","",""
"sailing-trial","162","908262","0.0-11.0-117.0","","","","false","","","","","","","","","","null","","825.1999998092651","","0","0","null","null","arrowup","[0.325,0.675,0.85,0.15]","","",""
"sailing-trial","163","912101","0.0-11.0-118.0","","","","false","","","","","","","","","","590.5","","255.09999990463257","","2","1","arrowright","1","arrowleft","[0.15,0.85,0.675,0.325]","","",""
"sailing-trial","164","914824","0.0-11.0-119.0","","","","false","","","","","","","","","","null","","927.8000001907349","","1","1","null","null","arrowup","[0.15,0.85,0.675,0.325]","","",""
"sailing-trial","165","919323","0.0-11.0-120.0","","","","false","","","","","","","","","","579.9000000953674","","602.4000000953674","","1","1","arrowleft","0","arrowright","[0.15,0.85,0.675,0.325]","","",""
"sailing-trial","166","921664","0.0-11.0-121.0","","","","false","","","","","","","","","","null","","506.5","","2","1","null","null","arrowup","[0.15,0.85,0.675,0.325]","","",""
"sailing-trial","167","925226","0.0-11.0-122.0","","","","false","","","","","","","","","","522.0999999046326","","135.40000009536743","","2","1","arrowright","1","arrowleft","[0.15,0.85,0.675,0.325]","","",""
"sailing-trial","168","927193","0.0-11.0-123.0","","","","false","","","","","","","","","","null","","699.2999997138977","","0","0","null","null","arrowup","[0.15,0.85,0.675,0.325]","","",""
"sailing-trial","169","930844","0.0-11.0-124.0","","","","false","","","","","","","","","","550.2000002861023","","154.90000009536743","","2","1","arrowright","1","arrowleft","[0.15,0.85,0.675,0.325]","","",""
"sailing-trial","170","932838","0.0-11.0-125.0","","","","false","","","","","","","","","","null","","685","","0","0","null","null","arrowup","[0.15,0.85,0.675,0.325]","","",""
"sailing-trial","171","936350","0.0-11.0-126.0","","","","false","","","","","","","","","","593.4000000953674","","138.7999997138977","","2","1","arrowright","1","arrowleft","[0.15,0.85,0.675,0.325]","","",""
"sailing-trial","172","938872","0.0-11.0-127.0","","","","false","","","","","","","","","","null","","703.4000000953674","","2","1","null","null","arrowup","[0.15,0.85,0.675,0.325]","","",""
"sailing-trial","173","942857","0.0-11.0-128.0","","","","false","","","","","","","","","","577.9000000953674","","281.59999990463257","","2","1","arrowright","1","arrowleft","[0.15,0.85,0.675,0.325]","","",""
"sailing-trial","174","945273","0.0-11.0-129.0","","","","false","","","","","","","","","","null","","626.9000000953674","","1","1","null","null","arrowup","[0.15,0.85,0.675,0.325]","","",""
"sailing-trial","175","948733","0.0-11.0-130.0","","","","false","","","","","","","","","","391.59999990463257","","170.40000009536743","","1","1","arrowleft","0","arrowright","[0.15,0.85,0.675,0.325]","","",""
"sailing-trial","176","951003","0.0-11.0-131.0","","","","false","","","","","","","","","","null","","534.4000000953674","","3","1","null","null","arrowup","[0.15,0.85,0.675,0.325]","","",""
"sailing-trial","177","954462","0.0-11.0-132.0","","","","false","","","","","","","","","","455","","57.5","","3","1","arrowright","1","arrowright","[0.15,0.85,0.675,0.325]","","",""
"sailing-trial","178","956884","0.0-11.0-133.0","","","","false","","","","","","","","","","null","","574.1000003814697","","1","1","null","null","arrowup","[0.15,0.85,0.675,0.325]","","",""
"sailing-trial","179","959870","0.0-11.0-134.0","","","","false","","","","","","","","","","385.19999980926514","","288.2000002861023","","1","0","arrowleft","0","arrowright","[0.15,0.85,0.675,0.325]","","",""
"sailing-trial","180","962454","0.0-11.0-135.0","","","","false","","","","","","","","","","null","","864.4000000953674","","1","1","null","null","arrowup","[0.15,0.85,0.675,0.325]","","",""
"sailing-trial","181","965989","0.0-11.0-136.0","","","","false","","","","","","","","","","975.5999999046326","","233.30000019073486","","2","0","arrowright","1","arrowleft","[0.15,0.85,0.675,0.325]","","",""
"sailing-trial","182","968152","0.0-11.0-137.0","","","","false","","","","","","","","","","null","","824.5","","3","0","null","null","arrowup","[0.15,0.85,0.675,0.325]","","",""
"sailing-trial","183","971829","0.0-11.0-138.0","","","","false","","","","","","","","","","464.69999980926514","","286.90000009536743","","1","1","arrowleft","0","arrowright","[0.325,0.675,0.85,0.15]","","",""
"sailing-trial","184","974238","0.0-11.0-139.0","","","","false","","","","","","","","","","null","","697.4000000953674","","2","1","null","null","arrowup","[0.325,0.675,0.85,0.15]","","",""
"sailing-trial","185","977772","0.0-11.0-140.0","","","","false","","","","","","","","","","277.2999997138977","","301.90000009536743","","2","1","arrowright","1","arrowleft","[0.325,0.675,0.85,0.15]","","",""
"sailing-trial","186","980940","0.0-11.0-141.0","","","","false","","","","","","","","","","null","","1036.5999999046326","","2","1","null","null","arrowup","[0.325,0.675,0.85,0.15]","","",""
"sailing-trial","187","985690","0.0-11.0-142.0","","","","false","","","","","","","","","","1079.4000000953674","","782.3999996185303","","0","1","arrowleft","0","arrowleft","[0.325,0.675,0.85,0.15]","","",""
"sailing-trial","188","988239","0.0-11.0-143.0","","","","false","","","","","","","","","","null","","886.6999998092651","","3","0","null","null","arrowup","[0.325,0.675,0.85,0.15]","","",""
"sailing-trial","189","992544","0.0-11.0-144.0","","","","false","","","","","","","","","","911.5","","541.7000002861023","","2","1","arrowright","1","arrowleft","[0.325,0.675,0.85,0.15]","","",""
"sailing-trial","190","994701","0.0-11.0-145.0","","","","false","","","","","","","","","","null","","647.7000002861023","","1","0","null","null","arrowup","[0.325,0.675,0.85,0.15]","","",""
"sailing-trial","191","997973","0.0-11.0-146.0","","","","false","","","","","","","","","","577.2000002861023","","295","","0","0","arrowleft","0","arrowleft","[0.325,0.675,0.85,0.15]","","",""
"sailing-trial","192","1000446","0.0-11.0-147.0","","","","false","","","","","","","","","","null","","747.7000002861023","","0","1","null","null","arrowup","[0.325,0.675,0.85,0.15]","","",""
"sailing-trial","193","1004259","0.0-11.0-148.0","","","","false","","","","","","","","","","1121","","254.80000019073486","","0","0","arrowleft","0","arrowleft","[0.325,0.675,0.85,0.15]","","",""
"sailing-trial","194","1006246","0.0-11.0-149.0","","","","false","","","","","","","","","","null","","730.2999997138977","","2","0","null","null","arrowup","[0.325,0.675,0.85,0.15]","","",""
"sailing-trial","195","1009132","0.0-11.0-150.0","","","","false","","","","","","","","","","446.2999997138977","","117.80000019073486","","3","0","arrowright","1","arrowright","[0.325,0.675,0.85,0.15]","","",""
"sailing-trial","196","1011206","0.0-11.0-151.0","","","","false","","","","","","","","","","null","","743.9000000953674","","0","0","null","null","arrowup","[0.325,0.675,0.85,0.15]","","",""
"sailing-trial","197","1014474","0.0-11.0-152.0","","","","false","","","","","","","","","","703.4000000953674","","200.2999997138977","","1","0","arrowleft","0","arrowright","[0.325,0.675,0.85,0.15]","","",""
"sailing-trial","198","1016494","0.0-11.0-153.0","","","","false","","","","","","","","","","null","","680.5","","3","0","null","null","arrowup","[0.325,0.675,0.85,0.15]","","",""
"sailing-trial","199","1020495","0.0-11.0-154.0","","","","false","","","","","","","","","","501.90000009536743","","90","","0","1","arrowleft","0","arrowleft","[0.325,0.675,0.85,0.15]","","",""
"sailing-trial","200","1022793","0.0-11.0-155.0","","","","false","","","","","","","","","","null","","625","","3","1","null","null","arrowup","[0.325,0.675,0.85,0.15]","","",""
"sailing-trial","201","1026515","0.0-11.0-156.0","","","","false","","","","","","","","","","513.2000002861023","","270.40000009536743","","2","1","arrowright","1","arrowleft","[0.15,0.85,0.675,0.325]","","",""
"sailing-trial","202","1028475","0.0-11.0-157.0","","","","false","","","","","","","","","","null","","842.7000002861023","","0","0","null","null","arrowup","[0.15,0.85,0.675,0.325]","","",""
"sailing-trial","203","1031967","0.0-11.0-158.0","","","","false","","","","","","","","","","512.0999999046326","","177.09999990463257","","1","1","arrowleft","0","arrowright","[0.15,0.85,0.675,0.325]","","",""
"sailing-trial","204","1034243","0.0-11.0-159.0","","","","false","","","","","","","","","","null","","345.1000003814697","","2","1","null","null","arrowup","[0.15,0.85,0.675,0.325]","","",""
"sailing-trial","205","1037858","0.0-11.0-160.0","","","","false","","","","","","","","","","637.5","","171.40000009536743","","2","0","arrowright","1","arrowleft","[0.15,0.85,0.675,0.325]","","",""
"sailing-trial","206","1039956","0.0-11.0-161.0","","","","false","","","","","","","","","","null","","768","","3","0","null","null","arrowup","[0.15,0.85,0.675,0.325]","","",""
"sailing-trial","207","1043113","0.0-11.0-162.0","","","","false","","","","","","","","","","405.3999996185303","","66","","0","1","arrowleft","0","arrowleft","[0.15,0.85,0.675,0.325]","","",""
"sailing-trial","208","1045543","0.0-11.0-163.0","","","","false","","","","","","","","","","null","","867.8000001907349","","3","0","null","null","arrowup","[0.15,0.85,0.675,0.325]","","",""
"sailing-trial","209","1049417","0.0-11.0-164.0","","","","false","","","","","","","","","","582.7999997138977","","381.80000019073486","","3","1","arrowright","1","arrowright","[0.15,0.85,0.675,0.325]","","",""
"sailing-trial","210","1051805","0.0-11.0-165.0","","","","false","","","","","","","","","","null","","406","","3","1","null","null","arrowup","[0.15,0.85,0.675,0.325]","","",""
"sailing-trial","211","1055777","0.0-11.0-166.0","","","","false","","","","","","","","","","606.0999999046326","","417.30000019073486","","3","1","arrowright","1","arrowright","[0.15,0.85,0.675,0.325]","","",""
"sailing-trial","212","1058139","0.0-11.0-167.0","","","","false","","","","","","","","","","null","","677.0999999046326","","3","0","null","null","arrowup","[0.15,0.85,0.675,0.325]","","",""
"sailing-trial","213","1062327","0.0-11.0-168.0","","","","false","","","","","","","","","","1206.7999997138977","","169.5","","2","1","arrowright","1","arrowleft","[0.15,0.85,0.675,0.325]","","",""
"sailing-trial","214","1064953","0.0-11.0-169.0","","","","false","","","","","","","","","","null","","957.3000001907349","","0","0","null","null","arrowup","[0.15,0.85,0.675,0.325]","","",""
"sailing-trial","215","1068521","0.0-11.0-170.0","","","","false","","","","","","","","","","667.0999999046326","","102.7999997138977","","1","1","arrowleft","0","arrowright","[0.15,0.85,0.675,0.325]","","",""
"sailing-trial","216","1070992","0.0-11.0-171.0","","","","false","","","","","","","","","","null","","644.3000001907349","","2","1","null","null","arrowup","[0.15,0.85,0.675,0.325]","","",""
"sailing-trial","217","1075674","0.0-11.0-172.0","","","","false","","","","","","","","","","424.5","","1110.3000001907349","","1","1","arrowleft","0","arrowright","[0.15,0.85,0.675,0.325]","","",""
"sailing-trial","218","1078353","0.0-11.0-173.0","","","","false","","","","","","","","","","null","","838.0999999046326","","1","1","null","null","arrowup","[0.15,0.85,0.675,0.325]","","",""
"sailing-trial","219","1082300","0.0-11.0-174.0","","","","false","","","","","","","","","","555.5999999046326","","375.90000009536743","","1","1","arrowleft","0","arrowright","[0.15,0.85,0.675,0.325]","","",""
"sailing-trial","220","1084666","0.0-11.0-175.0","","","","false","","","","","","","","","","null","","586.1999998092651","","1","1","null","null","arrowup","[0.15,0.85,0.675,0.325]","","",""
"sailing-trial","221","1088333","0.0-11.0-176.0","","","","false","","","","","","","","","","429.2999997138977","","321.69999980926514","","1","1","arrowleft","0","arrowright","[0.15,0.85,0.675,0.325]","","",""
"sailing-trial","222","1090887","0.0-11.0-177.0","","","","false","","","","","","","","","","null","","655","","3","1","null","null","arrowup","[0.15,0.85,0.675,0.325]","","",""
"sailing-trial","223","1094132","0.0-11.0-178.0","","","","false","","","","","","","","","","321.80000019073486","","140","","3","1","arrowright","1","arrowright","[0.675,0.325,0.15,0.85]","","",""
"sailing-trial","224","1096624","0.0-11.0-179.0","","","","false","","","","","","","","","","null","","607.7999997138977","","3","1","null","null","arrowup","[0.675,0.325,0.15,0.85]","","",""
"sailing-trial","225","1100514","0.0-11.0-180.0","","","","false","","","","","","","","","","914.6000003814697","","167.5","","3","1","arrowright","1","arrowright","[0.675,0.325,0.15,0.85]","","",""
"sailing-trial","226","1103103","0.0-11.0-181.0","","","","false","","","","","","","","","","null","","598.2000002861023","","0","1","null","null","arrowup","[0.675,0.325,0.15,0.85]","","",""
"sailing-trial","227","1106482","0.0-11.0-182.0","","","","false","","","","","","","","","","333.2999997138977","","336.69999980926514","","0","0","arrowleft","0","arrowleft","[0.675,0.325,0.15,0.85]","","",""
"sailing-trial","228","1108869","0.0-11.0-183.0","","","","false","","","","","","","","","","null","","938.0999999046326","","2","0","null","null","arrowup","[0.675,0.325,0.15,0.85]","","",""
"sailing-trial","229","1112457","0.0-11.0-184.0","","","","false","","","","","","","","","","438.59999990463257","","32.30000019073486","","3","1","arrowright","1","arrowright","[0.675,0.325,0.15,0.85]","","",""
"sailing-trial","230","1114943","0.0-11.0-185.0","","","","false","","","","","","","","","","null","","724.8999996185303","","3","1","null","null","arrowup","[0.675,0.325,0.15,0.85]","","",""
"sailing-trial","231","1118444","0.0-11.0-186.0","","","","false","","","","","","","","","","410.90000009536743","","148.09999990463257","","3","1","arrowright","1","arrowright","[0.675,0.325,0.15,0.85]","","",""
"sailing-trial","232","1121172","0.0-11.0-187.0","","","","false","","","","","","","","","","null","","938.9000000953674","","1","1","null","null","arrowup","[0.675,0.325,0.15,0.85]","","",""
"sailing-trial","233","1124985","0.0-11.0-188.0","","","","false","","","","","","","","","","644","","258.59999990463257","","1","1","arrowleft","0","arrowright","[0.675,0.325,0.15,0.85]","","",""
"sailing-trial","234","1127347","0.0-11.0-189.0","","","","false","","","","","","","","","","null","","461.8999996185303","","3","1","null","null","arrowup","[0.675,0.325,0.15,0.85]","","",""
"sailing-trial","235","1131151","0.0-11.0-190.0","","","","false","","","","","","","","","","301.59999990463257","","470.7000002861023","","3","1","arrowright","1","arrowright","[0.675,0.325,0.15,0.85]","","",""
"sailing-trial","236","1133811","0.0-11.0-191.0","","","","false","","","","","","","","","","null","","861.0999999046326","","3","1","null","null","arrowup","[0.675,0.325,0.15,0.85]","","",""
"sailing-trial","237","1137497","0.0-11.0-192.0","","","","false","","","","","","","","","","296.40000009536743","","363.59999990463257","","3","1","arrowright","1","arrowright","[0.675,0.325,0.15,0.85]","","",""
"sailing-trial","238","1139706","0.0-11.0-193.0","","","","false","","","","","","","","","","null","","874.8000001907349","","1","0","null","null","arrowup","[0.675,0.325,0.15,0.85]","","",""
"sailing-trial","239","1143464","0.0-11.0-194.0","","","","false","","","","","","","","","","573.2999997138977","","192.09999990463257","","0","1","arrowleft","0","arrowleft","[0.675,0.325,0.15,0.85]","","",""
"sailing-trial","240","1145728","0.0-11.0-195.0","","","","false","","","","","","","","","","null","","897.7999997138977","","2","0","null","null","arrowup","[0.675,0.325,0.15,0.85]","","",""
"sailing-trial","241","1149790","0.0-11.0-196.0","","","","false","","","","","","","","","","1040.5","","135.30000019073486","","0","1","arrowleft","0","arrowleft","[0.85,0.15,0.325,0.675]","","",""
"sailing-trial","242","1152442","0.0-11.0-197.0","","","","false","","","","","","","","","","null","","763.5999999046326","","0","1","null","null","arrowup","[0.85,0.15,0.325,0.675]","","",""
"sailing-trial","243","1155804","0.0-11.0-198.0","","","","false","","","","","","","","","","555.5","","56","","0","0","arrowleft","0","arrowleft","[0.85,0.15,0.325,0.675]","","",""
"sailing-trial","244","1158545","0.0-11.0-199.0","","","","false","","","","","","","","","","null","","798.9000000953674","","2","1","null","null","arrowup","[0.85,0.15,0.325,0.675]","","",""
"sailing-trial","245","1161635","0.0-11.0-200.0","","","","false","","","","","","","","","","434.59999990463257","","168.19999980926514","","1","0","arrowleft","0","arrowright","[0.85,0.15,0.325,0.675]","","",""
"sailing-trial","246","1164754","0.0-11.0-201.0","","","","false","","","","","","","","","","null","","885.7999997138977","","0","1","null","null","arrowup","[0.85,0.15,0.325,0.675]","","",""
"sailing-trial","247","1168470","0.0-11.0-202.0","","","","false","","","","","","","","","","565.1999998092651","","216.59999990463257","","0","1","arrowleft","0","arrowleft","[0.85,0.15,0.325,0.675]","","",""
"sailing-trial","248","1170897","0.0-11.0-203.0","","","","false","","","","","","","","","","null","","849.5","","1","0","null","null","arrowup","[0.85,0.15,0.325,0.675]","","",""
"sailing-trial","249","1174490","0.0-11.0-204.0","","","","false","","","","","","","","","","628.9000000953674","","147.5","","0","1","arrowleft","0","arrowleft","[0.85,0.15,0.325,0.675]","","",""
"sailing-trial","250","1177045","0.0-11.0-205.0","","","","false","","","","","","","","","","null","","677.5999999046326","","0","1","null","null","arrowup","[0.85,0.15,0.325,0.675]","","",""
"sailing-trial","251","1180175","0.0-11.0-206.0","","","","false","","","","","","","","","","490.09999990463257","","230.30000019073486","","0","0","arrowleft","0","arrowleft","[0.85,0.15,0.325,0.675]","","",""
"sailing-trial","252","1182135","0.0-11.0-207.0","","","","false","","","","","","","","","","null","","719.7999997138977","","2","0","null","null","arrowup","[0.85,0.15,0.325,0.675]","","",""
"sailing-trial","253","1185644","0.0-11.0-208.0","","","","false","","","","","","","","","","401","","264.30000019073486","","3","1","arrowright","1","arrowright","[0.85,0.15,0.325,0.675]","","",""
"sailing-trial","254","1188226","0.0-11.0-209.0","","","","false","","","","","","","","","","null","","627","","0","1","null","null","arrowup","[0.85,0.15,0.325,0.675]","","",""
"sailing-trial","255","1191135","0.0-11.0-210.0","","","","false","","","","","","","","","","353.59999990463257","","178.59999990463257","","0","0","arrowleft","0","arrowleft","[0.85,0.15,0.325,0.675]","","",""
"sailing-trial","256","1193692","0.0-11.0-211.0","","","","false","","","","","","","","","","null","","889.2000002861023","","3","0","null","null","arrowup","[0.85,0.15,0.325,0.675]","","",""
"sailing-trial","257","1196934","0.0-11.0-212.0","","","","false","","","","","","","","","","604.5999999046326","","152","","1","0","arrowleft","0","arrowright","[0.675,0.325,0.15,0.85]","","",""
"sailing-trial","258","1199781","0.0-11.0-213.0","","","","false","","","","","","","","","","null","","779.9000000953674","","3","1","null","null","arrowup","[0.675,0.325,0.15,0.85]","","",""
"sailing-trial","259","1202777","0.0-11.0-214.0","","","","false","","","","","","","","","","457.09999990463257","","129","","2","0","arrowright","1","arrowleft","[0.675,0.325,0.15,0.85]","","",""
"sailing-trial","260","1204581","0.0-11.0-215.0","","","","false","","","","","","","","","","null","","593.7999997138977","","1","0","null","null","arrowup","[0.675,0.325,0.15,0.85]","","",""
"sailing-trial","261","1208409","0.0-11.0-216.0","","","","false","","","","","","","","","","939.5","","375","","3","0","arrowright","1","arrowright","[0.675,0.325,0.15,0.85]","","",""
"sailing-trial","262","1211636","0.0-11.0-217.0","","","","false","","","","","","","","","","null","","1212.4000000953674","","1","1","null","null","arrowup","[0.675,0.325,0.15,0.85]","","",""
"sailing-trial","263","1215483","0.0-11.0-218.0","","","","false","","","","","","","","","","505.7999997138977","","230.90000009536743","","0","1","arrowleft","0","arrowleft","[0.675,0.325,0.15,0.85]","","",""
"sailing-trial","264","1217738","0.0-11.0-219.0","","","","false","","","","","","","","","","null","","929.6999998092651","","2","0","null","null","arrowup","[0.675,0.325,0.15,0.85]","","",""
"sailing-trial","265","1221975","0.0-11.0-220.0","","","","false","","","","","","","","","","919.0999999046326","","288","","3","1","arrowright","1","arrowright","[0.675,0.325,0.15,0.85]","","",""
"sailing-trial","266","1225984","0.0-11.0-221.0","","","","false","","","","","","","","","","null","","1536.4000000953674","","3","1","null","null","arrowup","[0.675,0.325,0.15,0.85]","","",""
"sailing-trial","267","1230031","0.0-11.0-222.0","","","","false","","","","","","","","","","738.6000003814697","","206.90000009536743","","3","1","arrowright","1","arrowright","[0.675,0.325,0.15,0.85]","","",""
"sailing-trial","268","1233751","0.0-11.0-223.0","","","","false","","","","","","","","","","null","","1127.7000002861023","","2","1","null","null","arrowup","[0.675,0.325,0.15,0.85]","","",""
"sailing-trial","269","1237708","0.0-11.0-224.0","","","","false","","","","","","","","","","1059.2999997138977","","277.69999980926514","","2","0","arrowright","1","arrowleft","[0.675,0.325,0.15,0.85]","","",""
"sailing-trial","270","1240454","0.0-11.0-225.0","","","","false","","","","","","","","","","null","","1008.6999998092651","","3","1","null","null","arrowup","[0.675,0.325,0.15,0.85]","","",""
"sailing-trial","271","1244557","0.0-11.0-226.0","","","","false","","","","","","","","","","848.6999998092651","","242.80000019073486","","3","1","arrowright","1","arrowright","[0.675,0.325,0.15,0.85]","","",""
"sailing-trial","272","1247384","0.0-11.0-227.0","","","","false","","","","","","","","","","null","","770.6000003814697","","3","1","null","null","arrowup","[0.675,0.325,0.15,0.85]","","",""
"sailing-trial","273","1250932","0.0-11.0-228.0","","","","false","","","","","","","","","","364.90000009536743","","280.2000002861023","","3","1","arrowright","1","arrowright","[0.675,0.325,0.15,0.85]","","",""
"sailing-trial","274","1254466","0.0-11.0-229.0","","","","false","","","","","","","","","","null","","1527.2999997138977","","3","1","null","null","arrowup","[0.675,0.325,0.15,0.85]","","",""
"sailing-trial","275","1258446","0.0-11.0-230.0","","","","false","","","","","","","","","","747.6999998092651","","533.5","","3","1","arrowright","1","arrowright","[0.85,0.15,0.325,0.675]","","",""
"sailing-trial","276","1260952","0.0-11.0-231.0","","","","false","","","","","","","","","","null","","626.6000003814697","","0","1","null","null","arrowup","[0.85,0.15,0.325,0.675]","","",""
"sailing-trial","277","1264119","0.0-11.0-232.0","","","","false","","","","","","","","","","296.30000019073486","","60.90000009536743","","0","1","arrowleft","0","arrowleft","[0.85,0.15,0.325,0.675]","","",""
"sailing-trial","278","1266343","0.0-11.0-233.0","","","","false","","","","","","","","","","null","","514.7999997138977","","3","1","null","null","arrowup","[0.85,0.15,0.325,0.675]","","",""
"sailing-trial","279","1269100","0.0-11.0-234.0","","","","false","","","","","","","","","","474.30000019073486","","68.90000009536743","","3","0","arrowright","1","arrowright","[0.85,0.15,0.325,0.675]","","",""
"sailing-trial","280","1272172","0.0-11.0-235.0","","","","false","","","","","","","","","","null","","1783","","2","0","null","null","arrowup","[0.85,0.15,0.325,0.675]","","",""
"sailing-trial","281","1276242","0.0-11.0-236.0","","","","false","","","","","","","","","","1197.6999998092651","","540.6999998092651","","3","0","arrowright","1","arrowright","[0.85,0.15,0.325,0.675]","","",""
"sailing-trial","282","1279167","0.0-11.0-237.0","","","","false","","","","","","","","","","null","","844.4000000953674","","3","1","null","null","arrowup","[0.85,0.15,0.325,0.675]","","",""
"sailing-trial","283","1282799","0.0-11.0-238.0","","","","false","","","","","","","","","","322.09999990463257","","407.40000009536743","","0","1","arrowleft","0","arrowleft","[0.85,0.15,0.325,0.675]","","",""
"sailing-trial","284","1284500","0.0-11.0-239.0","","","","false","","","","","","","","","","null","","646.4000000953674","","2","0","null","null","arrowup","[0.85,0.15,0.325,0.675]","","",""
"sailing-trial","285","1287869","0.0-11.0-240.0","","","","false","","","","","","","","","","426.40000009536743","","55.59999990463257","","3","1","arrowright","1","arrowright","[0.85,0.15,0.325,0.675]","","",""
"sailing-trial","286","1290386","0.0-11.0-241.0","","","","false","","","","","","","","","","null","","670.4000000953674","","2","0","null","null","arrowup","[0.85,0.15,0.325,0.675]","","",""
"sailing-trial","287","1294731","0.0-11.0-242.0","","","","false","","","","","","","","","","650.0999999046326","","202.90000009536743","","3","1","arrowright","1","arrowright","[0.85,0.15,0.325,0.675]","","",""
"sailing-trial","288","1297632","0.0-11.0-243.0","","","","false","","","","","","","","","","null","","890.9000000953674","","3","1","null","null","arrowup","[0.85,0.15,0.325,0.675]","","",""
"sailing-trial","289","1301688","0.0-11.0-244.0","","","","false","","","","","","","","","","709.4000000953674","","43.40000009536743","","3","1","arrowright","1","arrowright","[0.85,0.15,0.325,0.675]","","",""
"sailing-trial","290","1305417","0.0-11.0-245.0","","","","false","","","","","","","","","","null","","1616.0999999046326","","3","1","null","null","arrowup","[0.85,0.15,0.325,0.675]","","",""
"sailing-trial","291","1309715","0.0-11.0-246.0","","","","false","","","","","","","","","","516.8000001907349","","118.40000009536743","","3","1","arrowright","1","arrowright","[0.675,0.325,0.15,0.85]","","",""
"sailing-trial","292","1312438","0.0-11.0-247.0","","","","false","","","","","","","","","","null","","980.7000002861023","","2","1","null","null","arrowup","[0.675,0.325,0.15,0.85]","","",""
"sailing-trial","293","1316064","0.0-11.0-248.0","","","","false","","","","","","","","","","1046","","347.7000002861023","","2","0","arrowright","1","arrowleft","[0.675,0.325,0.15,0.85]","","",""
"sailing-trial","294","1318605","0.0-11.0-249.0","","","","false","","","","","","","","","","null","","745.0999999046326","","1","1","null","null","arrowup","[0.675,0.325,0.15,0.85]","","",""
"sailing-trial","295","1321192","0.0-11.0-250.0","","","","false","","","","","","","","","","471","","54","","1","0","arrowleft","0","arrowright","[0.675,0.325,0.15,0.85]","","",""
"sailing-trial","296","1323725","0.0-11.0-251.0","","","","false","","","","","","","","","","null","","707.5","","0","0","null","null","arrowup","[0.675,0.325,0.15,0.85]","","",""
"sailing-trial","297","1327495","0.0-11.0-252.0","","","","false","","","","","","","","","","1415.5","","304.19999980926514","","2","0","arrowright","1","arrowleft","[0.675,0.325,0.15,0.85]","","",""
"sailing-trial","298","1330213","0.0-11.0-253.0","","","","false","","","","","","","","","","null","","580.4000000953674","","2","0","null","null","arrowup","[0.675,0.325,0.15,0.85]","","",""
"sailing-trial","299","1334271","0.0-11.0-254.0","","","","false","","","","","","","","","","1066.5999999046326","","166.09999990463257","","3","1","arrowright","1","arrowright","[0.675,0.325,0.15,0.85]","","",""
"sailing-trial","300","1338827","0.0-11.0-255.0","","","","false","","","","","","","","","","null","","3370.2000002861023","","2","0","null","null","arrowup","[0.675,0.325,0.15,0.85]","","",""
"sailing-trial","301","1343659","0.0-11.0-256.0","","","","false","","","","","","","","","","1832.7999997138977","","230.7000002861023","","3","1","arrowright","1","arrowright","[0.675,0.325,0.15,0.85]","","",""
"sailing-trial","302","1346708","0.0-11.0-257.0","","","","false","","","","","","","","","","null","","1117.9000000953674","","0","1","null","null","arrowup","[0.675,0.325,0.15,0.85]","","",""
"sailing-trial","303","1351084","0.0-11.0-258.0","","","","false","","","","","","","","","","1344.5","","202","","0","1","arrowleft","0","arrowleft","[0.675,0.325,0.15,0.85]","","",""
"sailing-trial","304","1353929","0.0-11.0-259.0","","","","false","","","","","","","","","","null","","1474.1999998092651","","3","0","null","null","arrowup","[0.675,0.325,0.15,0.85]","","",""
"sailing-trial","305","1357929","0.0-11.0-260.0","","","","false","","","","","","","","","","572.6999998092651","","320.90000009536743","","2","0","arrowright","1","arrowleft","[0.675,0.325,0.15,0.85]","","",""
"sailing-trial","306","1360473","0.0-11.0-261.0","","","","false","","","","","","","","","","null","","795.7999997138977","","0","1","null","null","arrowup","[0.675,0.325,0.15,0.85]","","",""
"sailing-trial","307","1365757","0.0-11.0-262.0","","","","false","","","","","","","","","","1041.9000000953674","","1442","","0","1","arrowleft","0","arrowleft","[0.675,0.325,0.15,0.85]","","",""
"sailing-trial","308","1371105","0.0-11.0-263.0","","","","false","","","","","","","","","","null","","2929.300000190735","","2","0","null","null","arrowup","[0.675,0.325,0.15,0.85]","","",""
"sailing-trial","309","1375258","0.0-11.0-264.0","","","","false","","","","","","","","","","1077","","293","","0","1","arrowleft","0","arrowleft","[0.85,0.15,0.325,0.675]","","",""
"sailing-trial","310","1377583","0.0-11.0-265.0","","","","false","","","","","","","","","","null","","682.9000000953674","","3","1","null","null","arrowup","[0.85,0.15,0.325,0.675]","","",""
"sailing-trial","311","1381033","0.0-11.0-266.0","","","","false","","","","","","","","","","589.8999996185303","","128","","3","0","arrowright","1","arrowright","[0.85,0.15,0.325,0.675]","","",""
"sailing-trial","312","1383535","0.0-11.0-267.0","","","","false","","","","","","","","","","null","","762.2999997138977","","0","1","null","null","arrowup","[0.85,0.15,0.325,0.675]","","",""
"sailing-trial","313","1387728","0.0-11.0-268.0","","","","false","","","","","","","","","","1002.7000002861023","","414","","0","1","arrowleft","0","arrowleft","[0.85,0.15,0.325,0.675]","","",""
"sailing-trial","314","1389658","0.0-11.0-269.0","","","","false","","","","","","","","","","null","","825.8999996185303","","2","0","null","null","arrowup","[0.85,0.15,0.325,0.675]","","",""
"sailing-trial","315","1393555","0.0-11.0-270.0","","","","false","","","","","","","","","","594.3999996185303","","166.39999961853027","","2","0","arrowright","1","arrowleft","[0.85,0.15,0.325,0.675]","","",""
"sailing-trial","316","1395424","0.0-11.0-271.0","","","","false","","","","","","","","","","null","","771.5","","2","0","null","null","arrowup","[0.85,0.15,0.325,0.675]","","",""
"sailing-trial","317","1399799","0.0-11.0-272.0","","","","false","","","","","","","","","","670","","265.19999980926514","","3","0","arrowright","1","arrowright","[0.85,0.15,0.325,0.675]","","",""
"sailing-trial","318","1402663","0.0-11.0-273.0","","","","false","","","","","","","","","","null","","1402.6000003814697","","1","0","null","null","arrowup","[0.85,0.15,0.325,0.675]","","",""
"sailing-trial","319","1407331","0.0-11.0-274.0","","","","false","","","","","","","","","","1120.6000003814697","","764.6000003814697","","0","1","arrowleft","0","arrowleft","[0.85,0.15,0.325,0.675]","","",""
"sailing-trial","320","1409435","0.0-11.0-275.0","","","","false","","","","","","","","","","null","","711.4000000953674","","1","0","null","null","arrowup","[0.85,0.15,0.325,0.675]","","",""
"sailing-trial","321","1412609","0.0-11.0-276.0","","","","false","","","","","","","","","","733","","214","","3","0","arrowright","1","arrowright","[0.85,0.15,0.325,0.675]","","",""
"sailing-trial","322","1415137","0.0-11.0-277.0","","","","false","","","","","","","","","","null","","806.6999998092651","","0","1","null","null","arrowup","[0.85,0.15,0.325,0.675]","","",""
"sailing-trial","323","1418803","0.0-11.0-278.0","","","","false","","","","","","","","","","438.2000002861023","","390.40000009536743","","0","1","arrowleft","0","arrowleft","[0.85,0.15,0.325,0.675]","","",""
"sailing-trial","324","1421762","0.0-11.0-279.0","","","","false","","","","","","","","","","null","","1164.1999998092651","","0","1","null","null","arrowup","[0.85,0.15,0.325,0.675]","","",""
"sailing-trial","325","1426262","0.0-11.0-280.0","","","","false","","","","","","","","","","1271.2999997138977","","520.5","","3","1","arrowright","1","arrowright","[0.675,0.325,0.15,0.85]","","",""
"sailing-trial","326","1428495","0.0-11.0-281.0","","","","false","","","","","","","","","","null","","1122.8000001907349","","1","0","null","null","arrowup","[0.675,0.325,0.15,0.85]","","",""
"sailing-trial","327","1432775","0.0-11.0-282.0","","","","false","","","","","","","","","","980.7999997138977","","552.6999998092651","","0","1","arrowleft","0","arrowleft","[0.675,0.325,0.15,0.85]","","",""
"sailing-trial","328","1435130","0.0-11.0-283.0","","","","false","","","","","","","","","","null","","690","","2","0","null","null","arrowup","[0.675,0.325,0.15,0.85]","","",""
"sailing-trial","329","1438629","0.0-11.0-284.0","","","","false","","","","","","","","","","625.9000000953674","","2.5999999046325684","","0","1","arrowleft","0","arrowleft","[0.675,0.325,0.15,0.85]","","",""
"sailing-trial","330","1440467","0.0-11.0-285.0","","","","false","","","","","","","","","","null","","318.2999997138977","","2","0","null","null","arrowup","[0.675,0.325,0.15,0.85]","","",""
"sailing-trial","331","1443608","0.0-11.0-286.0","","","","false","","","","","","","","","","407.5","","164.5","","3","1","arrowright","1","arrowright","[0.675,0.325,0.15,0.85]","","",""
"sailing-trial","332","1445876","0.0-11.0-287.0","","","","false","","","","","","","","","","null","","1100.9000000953674","","2","0","null","null","arrowup","[0.675,0.325,0.15,0.85]","","",""
"sailing-trial","333","1449281","0.0-11.0-288.0","","","","false","","","","","","","","","","576.1999998092651","","111.30000019073486","","0","1","arrowleft","0","arrowleft","[0.675,0.325,0.15,0.85]","","",""
"sailing-trial","334","1451295","0.0-11.0-289.0","","","","false","","","","","","","","","","null","","923.0999999046326","","1","0","null","null","arrowup","[0.675,0.325,0.15,0.85]","","",""
"sailing-trial","335","1454553","0.0-11.0-290.0","","","","false","","","","","","","","","","855.8000001907349","","29.199999809265137","","2","0","arrowright","1","arrowleft","[0.675,0.325,0.15,0.85]","","",""
"sailing-trial","336","1457748","0.0-11.0-291.0","","","","false","","","","","","","","","","null","","798.8000001907349","","0","1","null","null","arrowup","[0.675,0.325,0.15,0.85]","","",""
"sailing-trial","337","1463408","0.0-11.0-292.0","","","","false","","","","","","","","","","1912","","300.5","","3","1","arrowright","1","arrowright","[0.675,0.325,0.15,0.85]","","",""
"sailing-trial","338","1465594","0.0-11.0-293.0","","","","false","","","","","","","","","","null","","674","","1","1","null","null","arrowup","[0.675,0.325,0.15,0.85]","","",""
"sailing-trial","339","1469033","0.0-11.0-294.0","","","","false","","","","","","","","","","579.5999999046326","","43.60000038146973","","1","0","arrowleft","0","arrowright","[0.675,0.325,0.15,0.85]","","",""
"sailing-trial","340","1471894","0.0-11.0-295.0","","","","false","","","","","","","","","","null","","696.3000001907349","","3","1","null","null","arrowup","[0.675,0.325,0.15,0.85]","","",""
"sailing-trial","341","1475364","0.0-11.0-296.0","","","","false","","","","","","","","","","496.7000002861023","","246.30000019073486","","3","1","arrowright","1","arrowright","[0.85,0.15,0.325,0.675]","","",""
"sailing-trial","342","1477590","0.0-11.0-297.0","","","","false","","","","","","","","","","null","","578.8999996185303","","2","0","null","null","arrowup","[0.85,0.15,0.325,0.675]","","",""
"sailing-trial","343","1480615","0.0-11.0-298.0","","","","false","","","","","","","","","","439.2000002861023","","63.69999980926514","","0","1","arrowleft","0","arrowleft","[0.85,0.15,0.325,0.675]","","",""
"sailing-trial","344","1482420","0.0-11.0-299.0","","","","false","","","","","","","","","","null","","342.90000009536743","","3","0","null","null","arrowup","[0.85,0.15,0.325,0.675]","","",""
"sailing-trial","345","1487626","0.0-11.0-300.0","","","","false","","","","","","","","","","1995.5","","931.6999998092651","","1","0","arrowleft","0","arrowright","[0.85,0.15,0.325,0.675]","","",""
"sailing-trial","346","1490433","0.0-11.0-301.0","","","","false","","","","","","","","","","null","","706","","0","1","null","null","arrowup","[0.85,0.15,0.325,0.675]","","",""
"sailing-trial","347","1495614","0.0-11.0-302.0","","","","false","","","","","","","","","","945.5999999046326","","256.69999980926514","","0","1","arrowleft","0","arrowleft","[0.85,0.15,0.325,0.675]","","",""
"sailing-trial","348","1499525","0.0-11.0-303.0","","","","false","","","","","","","","","","null","","1896.0999999046326","","0","1","null","null","arrowup","[0.85,0.15,0.325,0.675]","","",""
"sailing-trial","349","1502976","0.0-11.0-304.0","","","","false","","","","","","","","","","545.4000000953674","","129.30000019073486","","3","1","arrowright","1","arrowright","[0.85,0.15,0.325,0.675]","","",""
"sailing-trial","350","1505899","0.0-11.0-305.0","","","","false","","","","","","","","","","null","","1094","","2","1","null","null","arrowup","[0.85,0.15,0.325,0.675]","","",""
"sailing-trial","351","1509246","0.0-11.0-306.0","","","","false","","","","","","","","","","477.30000019073486","","92.90000009536743","","0","1","arrowleft","0","arrowleft","[0.85,0.15,0.325,0.675]","","",""
"sailing-trial","352","1511656","0.0-11.0-307.0","","","","false","","","","","","","","","","null","","703.6999998092651","","3","1","null","null","arrowup","[0.85,0.15,0.325,0.675]","","",""
"sailing-trial","353","1514584","0.0-11.0-308.0","","","","false","","","","","","","","","","420.80000019073486","","255.09999990463257","","2","0","arrowright","1","arrowleft","[0.85,0.15,0.325,0.675]","","",""
"sailing-trial","354","1516928","0.0-11.0-309.0","","","","false","","","","","","","","","","null","","576","","0","1","null","null","arrowup","[0.85,0.15,0.325,0.675]","","",""
"sailing-trial","355","1520121","0.0-11.0-310.0","","","","false","","","","","","","","","","380.09999990463257","","277.09999990463257","","0","1","arrowleft","0","arrowleft","[0.85,0.15,0.325,0.675]","","",""
"sailing-trial","356","1522822","0.0-11.0-311.0","","","","false","","","","","","","","","","null","","985.5","","3","1","null","null","arrowup","[0.85,0.15,0.325,0.675]","","",""
"sailing-trial","357","1525851","0.0-11.0-312.0","","","","false","","","","","","","","","","684.8000001907349","","103.19999980926514","","1","0","arrowleft","0","arrowright","[0.85,0.15,0.325,0.675]","","",""
"sailing-trial","358","1528398","0.0-11.0-313.0","","","","false","","","","","","","","","","null","","645.2999997138977","","0","1","null","null","arrowup","[0.85,0.15,0.325,0.675]","","",""
"sailing-trial","359","1531800","0.0-11.0-314.0","","","","false","","","","","","","","","","704.7999997138977","","260.5","","0","0","arrowleft","0","arrowleft","[0.85,0.15,0.325,0.675]","","",""
"sailing-trial","360","1533859","0.0-11.0-315.0","","","","false","","","","","","","","","","null","","949.5999999046326","","1","0","null","null","arrowup","[0.85,0.15,0.325,0.675]","","",""
"sailing-trial","361","1536598","0.0-11.0-316.0","","","","false","","","","","","","","","","376.09999990463257","","256.59999990463257","","2","0","arrowright","1","arrowleft","[0.675,0.325,0.15,0.85]","","",""
"sailing-trial","362","1538347","0.0-11.0-317.0","","","","false","","","","","","","","","","null","","389.7999997138977","","2","0","null","null","arrowup","[0.675,0.325,0.15,0.85]","","",""
"sailing-trial","363","1542619","0.0-11.0-318.0","","","","false","","","","","","","","","","778","","513.4000000953674","","3","1","arrowright","1","arrowright","[0.675,0.325,0.15,0.85]","","",""
"sailing-trial","364","1545002","0.0-11.0-319.0","","","","false","","","","","","","","","","null","","698.9000000953674","","2","1","null","null","arrowup","[0.675,0.325,0.15,0.85]","","",""
"sailing-trial","365","1548328","0.0-11.0-320.0","","","","false","","","","","","","","","","468.40000009536743","","126.5","","3","1","arrowright","1","arrowright","[0.675,0.325,0.15,0.85]","","",""
"sailing-trial","366","1550056","0.0-11.0-321.0","","","","false","","","","","","","","","","null","","258.59999990463257","","0","0","null","null","arrowup","[0.675,0.325,0.15,0.85]","","",""
"sailing-trial","367","1552986","0.0-11.0-322.0","","","","false","","","","","","","","","","394.19999980926514","","135.2000002861023","","1","0","arrowleft","0","arrowright","[0.675,0.325,0.15,0.85]","","",""
"sailing-trial","368","1555035","0.0-11.0-323.0","","","","false","","","","","","","","","","null","","942.6999998092651","","1","0","null","null","arrowup","[0.675,0.325,0.15,0.85]","","",""
"sailing-trial","369","1558110","0.0-11.0-324.0","","","","false","","","","","","","","","","515","","390.5","","2","0","arrowright","1","arrowleft","[0.675,0.325,0.15,0.85]","","",""
"sailing-trial","370","1560823","0.0-11.0-325.0","","","","false","","","","","","","","","","null","","847.9000000953674","","3","1","null","null","arrowup","[0.675,0.325,0.15,0.85]","","",""
"sailing-trial","371","1565009","0.0-11.0-326.0","","","","false","","","","","","","","","","809.9000000953674","","309.30000019073486","","3","1","arrowright","1","arrowright","[0.675,0.325,0.15,0.85]","","",""
"sailing-trial","372","1567864","0.0-11.0-327.0","","","","false","","","","","","","","","","null","","746.0999999046326","","1","1","null","null","arrowup","[0.675,0.325,0.15,0.85]","","",""
"sailing-trial","373","1571134","0.0-11.0-328.0","","","","false","","","","","","","","","","665.2000002861023","","10","","0","1","arrowleft","0","arrowleft","[0.675,0.325,0.15,0.85]","","",""
"sailing-trial","374","1573193","0.0-11.0-329.0","","","","false","","","","","","","","","","null","","483.09999990463257","","0","1","null","null","arrowup","[0.675,0.325,0.15,0.85]","","",""
"sailing-trial","375","1576522","0.0-11.0-330.0","","","","false","","","","","","","","","","356.09999990463257","","381.40000009536743","","0","1","arrowleft","0","arrowleft","[0.675,0.325,0.15,0.85]","","",""
"sailing-trial","376","1578408","0.0-11.0-331.0","","","","false","","","","","","","","","","null","","534.4000000953674","","2","0","null","null","arrowup","[0.675,0.325,0.15,0.85]","","",""
"sailing-trial","377","1581738","0.0-11.0-332.0","","","","false","","","","","","","","","","394.7999997138977","","103.59999990463257","","3","1","arrowright","1","arrowright","[0.675,0.325,0.15,0.85]","","",""
"sailing-trial","378","1583401","0.0-11.0-333.0","","","","false","","","","","","","","","","null","","336.40000009536743","","2","0","null","null","arrowup","[0.675,0.325,0.15,0.85]","","",""
"sailing-trial","379","1586030","0.0-11.0-334.0","","","","false","","","","","","","","","","373.1000003814697","","167.90000009536743","","1","0","arrowleft","0","arrowright","[0.675,0.325,0.15,0.85]","","",""
"sailing-trial","380","1588352","0.0-11.0-335.0","","","","false","","","","","","","","","","null","","554.3999996185303","","1","0","null","null","arrowup","[0.675,0.325,0.15,0.85]","","",""
"sailing-trial","381","1591738","0.0-11.0-336.0","","","","false","","","","","","","","","","404.59999990463257","","341.19999980926514","","0","1","arrowleft","0","arrowleft","[0.675,0.325,0.15,0.85]","","",""
"sailing-trial","382","1593750","0.0-11.0-337.0","","","","false","","","","","","","","","","null","","762.1000003814697","","2","0","null","null","arrowup","[0.675,0.325,0.15,0.85]","","",""
"sailing-trial","383","1596687","0.0-11.0-338.0","","","","false","","","","","","","","","","507","","173.09999990463257","","3","0","arrowright","1","arrowright","[0.675,0.325,0.15,0.85]","","",""
"sailing-trial","384","1598882","0.0-11.0-339.0","","","","false","","","","","","","","","","null","","616.3000001907349","","3","1","null","null","arrowup","[0.675,0.325,0.15,0.85]","","",""
"sailing-trial","385","1602787","0.0-11.0-340.0","","","","false","","","","","","","","","","749.2000002861023","","16.299999713897705","","0","0","arrowleft","0","arrowleft","[0.85,0.15,0.325,0.675]","","",""
"sailing-trial","386","1607703","0.0-11.0-341.0","","","","false","","","","","","","","","","null","","1261.4000000953674","","2","1","null","null","arrowup","[0.85,0.15,0.325,0.675]","","",""
"sailing-trial","387","1613403","0.0-11.0-342.0","","","","false","","","","","","","","","","2023.4000000953674","","576.0999999046326","","0","1","arrowleft","0","arrowleft","[0.85,0.15,0.325,0.675]","","",""
"sailing-trial","388","1615959","0.0-11.0-343.0","","","","false","","","","","","","","","","null","","587.6999998092651","","3","1","null","null","arrowup","[0.85,0.15,0.325,0.675]","","",""
"sailing-trial","389","1619715","0.0-11.0-344.0","","","","false","","","","","","","","","","712.6999998092651","","254.5","","3","1","arrowright","1","arrowright","[0.85,0.15,0.325,0.675]","","",""
"sailing-trial","390","1621914","0.0-11.0-345.0","","","","false","","","","","","","","","","null","","694.5","","1","0","null","null","arrowup","[0.85,0.15,0.325,0.675]","","",""
"sailing-trial","391","1625875","0.0-11.0-346.0","","","","false","","","","","","","","","","627.5","","377.30000019073486","","0","1","arrowleft","0","arrowleft","[0.85,0.15,0.325,0.675]","","",""
"sailing-trial","392","1628417","0.0-11.0-347.0","","","","false","","","","","","","","","","null","","603.5","","0","1","null","null","arrowup","[0.85,0.15,0.325,0.675]","","",""
"sailing-trial","393","1633293","0.0-11.0-348.0","","","","false","","","","","","","","","","624.0999999046326","","1225.3999996185303","","0","1","arrowleft","0","arrowleft","[0.85,0.15,0.325,0.675]","","",""
"sailing-trial","394","1634714","0.0-11.0-349.0","","","","false","","","","","","","","","","null","","169","","1","0","null","null","arrowup","[0.85,0.15,0.325,0.675]","","",""
"sailing-trial","395","1638528","0.0-11.0-350.0","","","","false","","","","","","","","","","630.6999998092651","","347.90000009536743","","3","1","arrowright","1","arrowright","[0.85,0.15,0.325,0.675]","","",""
"sailing-trial","396","1640418","0.0-11.0-351.0","","","","false","","","","","","","","","","null","","845.1999998092651","","1","0","null","null","arrowup","[0.85,0.15,0.325,0.675]","","",""
"sailing-trial","397","1644142","0.0-11.0-352.0","","","","false","","","","","","","","","","737.8999996185303","","192.80000019073486","","0","1","arrowleft","0","arrowleft","[0.85,0.15,0.325,0.675]","","",""
"sailing-trial","398","1646312","0.0-11.0-353.0","","","","false","","","","","","","","","","null","","1016.5","","1","0","null","null","arrowup","[0.85,0.15,0.325,0.675]","","",""
"sailing-trial","399","1650047","0.0-11.0-354.0","","","","false","","","","","","","","","","563.5","","374.80000019073486","","3","1","arrowright","1","arrowright","[0.85,0.15,0.325,0.675]","","",""
"sailing-trial","400","1651944","0.0-11.0-355.0","","","","false","","","","","","","","","","null","","112.40000009536743","","0","1","null","null","arrowup","[0.85,0.15,0.325,0.675]","","",""
"sailing-trial","401","1655749","0.0-11.0-356.0","","","","false","","","","","","","","","","577.8000001907349","","419.7000002861023","","0","1","arrowleft","0","arrowleft","[0.85,0.15,0.325,0.675]","","",""
"sailing-trial","402","1658210","0.0-11.0-357.0","","","","false","","","","","","","","","","null","","1185.7999997138977","","2","0","null","null","arrowup","[0.85,0.15,0.325,0.675]","","",""
"sailing-trial","403","1661736","0.0-11.0-358.0","","","","false","","","","","","","","","","738.2999997138977","","143.09999990463257","","3","1","arrowright","1","arrowright","[0.85,0.15,0.325,0.675]","","",""
"sailing-trial","404","1662829","0.0-11.0-359.0","","","","false","","","","","","","","","","null","","4.299999713897705","","2","0","null","null","arrowup","[0.85,0.15,0.325,0.675]","","",""
"sailing-trial","405","1665739","0.0-11.0-360.0","","","","false","","","","","","","","","","776.8000001907349","","41.5","","0","0","arrowleft","0","arrowleft","[0.325,0.675,0.85,0.15]","","",""
"sailing-trial","406","1668236","0.0-11.0-361.0","","","","false","","","","","","","","","","null","","934.5999999046326","","0","1","null","null","arrowup","[0.325,0.675,0.85,0.15]","","",""
"sailing-trial","407","1671492","0.0-11.0-362.0","","","","false","","","","","","","","","","555.6000003814697","","118.90000009536743","","2","1","arrowright","1","arrowleft","[0.325,0.675,0.85,0.15]","","",""
"sailing-trial","408","1673638","0.0-11.0-363.0","","","","false","","","","","","","","","","null","","533.4000000953674","","2","1","null","null","arrowup","[0.325,0.675,0.85,0.15]","","",""
"sailing-trial","409","1676277","0.0-11.0-364.0","","","","false","","","","","","","","","","240.2999997138977","","121.59999990463257","","3","0","arrowright","1","arrowright","[0.325,0.675,0.85,0.15]","","",""
"sailing-trial","410","1678417","0.0-11.0-365.0","","","","false","","","","","","","","","","null","","804.8999996185303","","0","0","null","null","arrowup","[0.325,0.675,0.85,0.15]","","",""
"sailing-trial","411","1682116","0.0-11.0-366.0","","","","false","","","","","","","","","","1072.4000000953674","","140.19999980926514","","0","0","arrowleft","0","arrowleft","[0.325,0.675,0.85,0.15]","","",""
"sailing-trial","412","1684632","0.0-11.0-367.0","","","","false","","","","","","","","","","null","","1277.6999998092651","","3","0","null","null","arrowup","[0.325,0.675,0.85,0.15]","","",""
"sailing-trial","413","1689101","0.0-11.0-368.0","","","","false","","","","","","","","","","1772.8000001907349","","406.5","","2","0","arrowright","1","arrowleft","[0.325,0.675,0.85,0.15]","","",""
"sailing-trial","414","1693375","0.0-11.0-369.0","","","","false","","","","","","","","","","null","","1073.3000001907349","","2","1","null","null","arrowup","[0.325,0.675,0.85,0.15]","","",""
"sailing-trial","415","1698450","0.0-11.0-370.0","","","","false","","","","","","","","","","1148.6999998092651","","925.5999999046326","","1","1","arrowleft","0","arrowright","[0.325,0.675,0.85,0.15]","","",""
"sailing-trial","416","1700329","0.0-11.0-371.0","","","","false","","","","","","","","","","null","","528.3000001907349","","0","0","null","null","arrowup","[0.325,0.675,0.85,0.15]","","",""
"sailing-trial","417","1706028","0.0-11.0-372.0","","","","false","","","","","","","","","","778.5","","910.5","","0","0","arrowleft","0","arrowleft","[0.325,0.675,0.85,0.15]","","",""
"sailing-trial","418","1708147","0.0-11.0-373.0","","","","false","","","","","","","","","","null","","783","","1","0","null","null","arrowup","[0.325,0.675,0.85,0.15]","","",""
"sailing-trial","419","1711207","0.0-11.0-374.0","","","","false","","","","","","","","","","681.5","","310.7000002861023","","3","0","arrowright","1","arrowright","[0.325,0.675,0.85,0.15]","","",""
"sailing-trial","420","1713205","0.0-11.0-375.0","","","","false","","","","","","","","","","null","","726.8999996185303","","0","0","null","null","arrowup","[0.325,0.675,0.85,0.15]","","",""
"sailing-trial","421","1716408","0.0-11.0-376.0","","","","false","","","","","","","","","","571.0999999046326","","144.39999961853027","","0","0","arrowleft","0","arrowleft","[0.325,0.675,0.85,0.15]","","",""
"sailing-trial","422","1720525","0.0-11.0-377.0","","","","false","","","","","","","","","","null","","822.5999999046326","","2","1","null","null","arrowup","[0.325,0.675,0.85,0.15]","","",""
"sailing-trial","423","1724361","0.0-11.0-378.0","","","","false","","","","","","","","","","1081.4000000953674","","285.59999990463257","","2","0","arrowright","1","arrowleft","[0.325,0.675,0.85,0.15]","","",""
"sailing-trial","424","1726426","0.0-11.0-379.0","","","","false","","","","","","","","","","null","","889.9000000953674","","3","0","null","null","arrowup","[0.325,0.675,0.85,0.15]","","",""
"sailing-trial","425","1730130","0.0-11.0-380.0","","","","false","","","","","","","","","","1141.3000001907349","","59.59999990463257","","0","0","arrowleft","0","arrowleft","[0.325,0.675,0.85,0.15]","","",""
"sailing-trial","426","1732914","0.0-11.0-381.0","","","","false","","","","","","","","","","null","","668.5","","3","0","null","null","arrowup","[0.325,0.675,0.85,0.15]","","",""
"sailing-trial","427","1738512","0.0-11.0-382.0","","","","false","","","","","","","","","","2141.9000000953674","","502.6000003814697","","3","1","arrowright","1","arrowright","[0.675,0.325,0.15,0.85]","","",""
"sailing-trial","428","1741138","0.0-11.0-383.0","","","","false","","","","","","","","","","null","","1433.5999999046326","","0","0","null","null","arrowup","[0.675,0.325,0.15,0.85]","","",""
"sailing-trial","429","1744424","0.0-11.0-384.0","","","","false","","","","","","","","","","717.2000002861023","","169.09999990463257","","1","0","arrowleft","0","arrowright","[0.675,0.325,0.15,0.85]","","",""
"sailing-trial","430","1747073","0.0-11.0-385.0","","","","false","","","","","","","","","","null","","765","","0","1","null","null","arrowup","[0.675,0.325,0.15,0.85]","","",""
"sailing-trial","431","1751931","0.0-11.0-386.0","","","","false","","","","","","","","","","1017.5999999046326","","1025.9000000953674","","0","1","arrowleft","0","arrowleft","[0.675,0.325,0.15,0.85]","","",""
"sailing-trial","432","1753858","0.0-11.0-387.0","","","","false","","","","","","","","","","null","","736.5","","0","0","null","null","arrowup","[0.675,0.325,0.15,0.85]","","",""
"sailing-trial","433","1756925","0.0-11.0-388.0","","","","false","","","","","","","","","","680.9000000953674","","107.30000019073486","","2","0","arrowright","1","arrowleft","[0.675,0.325,0.15,0.85]","","",""
"sailing-trial","434","1759927","0.0-11.0-389.0","","","","false","","","","","","","","","","null","","1474.5999999046326","","1","1","null","null","arrowup","[0.675,0.325,0.15,0.85]","","",""
"sailing-trial","435","1763281","0.0-11.0-390.0","","","","false","","","","","","","","","","428.69999980926514","","209.30000019073486","","1","1","arrowleft","0","arrowright","[0.675,0.325,0.15,0.85]","","",""
"sailing-trial","436","1765573","0.0-11.0-391.0","","","","false","","","","","","","","","","null","","713.4000000953674","","3","1","null","null","arrowup","[0.675,0.325,0.15,0.85]","","",""
"sailing-trial","437","1769163","0.0-11.0-392.0","","","","false","","","","","","","","","","356.7000002861023","","428.5","","3","1","arrowright","1","arrowright","[0.675,0.325,0.15,0.85]","","",""
"sailing-trial","438","1771538","0.0-11.0-393.0","","","","false","","","","","","","","","","null","","561.6999998092651","","1","1","null","null","arrowup","[0.675,0.325,0.15,0.85]","","",""
"sailing-trial","439","1775158","0.0-11.0-394.0","","","","false","","","","","","","","","","450.69999980926514","","193.90000009536743","","1","0","arrowleft","0","arrowright","[0.675,0.325,0.15,0.85]","","",""
"sailing-trial","440","1776824","0.0-11.0-395.0","","","","false","","","","","","","","","","null","","608.7999997138977","","2","0","null","null","arrowup","[0.675,0.325,0.15,0.85]","","",""
"sailing-trial","441","1781031","0.0-11.0-396.0","","","","false","","","","","","","","","","399.80000019073486","","247.90000009536743","","0","1","arrowleft","0","arrowleft","[0.675,0.325,0.15,0.85]","","",""
"sailing-trial","442","1783607","0.0-11.0-397.0","","","","false","","","","","","","","","","null","","792.5","","0","1","null","null","arrowup","[0.675,0.325,0.15,0.85]","","",""
"sailing-trial","443","1787635","0.0-11.0-398.0","","","","false","","","","","","","","","","745.4000000953674","","400.09999990463257","","3","1","arrowright","1","arrowright","[0.675,0.325,0.15,0.85]","","",""
"sailing-trial","444","1802639","0.0-11.0-399.0","","","","true","","","","","","","","","","null","","null","","null","null","null","null","null","[0.675,0.325,0.15,0.85]","","",""
"instructions","445","1821212","0.0-12.0","","","","","","","","","","18570.299999713898","","","","","","","","","","","","","","","","[{""page_index"":0,""viewing_time"":18569.39999961853}]"
"survey-debrief","446","1841872","0.0-13.0","","","","","","","","","","20657.5","","","","","","","","","","","","","","{""difficulty"":""5"",""fun"":""4"",""clarity"":""5"",""strategy"":""no"",""feedback"":""no""}","",""
