"trial_type","trial_index","time_elapsed","internal_node_id","value","metadata","success","timeout","failed_images","failed_audio","failed_video","browser_interaction","low_quality","rt","stimulus","response","button_pressed","island_rt","island_response","boat_rt","boat_response","boat","reward","island_key","island","boat_key","reward_probabilities","responses","num_errors","view_history"
"pavlovia","0","2","0.0-0.0","","","","","","","","","","","","","","","","","","","","","","","","","",""
"call-function","1","3","0.0-1.0","","{""task_version"":""sailing_part1_v1"",""task_condition"":""good"",""boats"":[""A"",""B"",""C"",""D""],""boats_demo"":[""H"",""G"",""F"",""E""],""islands"":[""A"",""B""],""subject_id"":""13790"",""age"":""8"",""gender"":""Male""}","","","","","","","","","","","","","","","","","","","","","","","",""
"preload","2","6278","0.0-2.0","","","true","false","[]","[]","[]","[{""event"":""fullscreenenter"",""trial"":3,""time"":11983}]","false","","","","","","","","","","","","","","","","",""
"fullscreen","3","12978","0.0-3.0","","","true","","","","","","","","","","","","","","","","","","","","","","",""
"audio-keyboard-response","4","15227","0.0-4.0-0.0","","","","","","","","","","2061.333333333333","audio/beep_loop.wav"," ","","","","","","","","","","","","","",""
"audio-test","5","17683","0.0-4.0-1.0","","","","","","","","","","null","audio/turtle.mp3","","3","","","","","","","","","","","","",""
"audio-test","6","21979","0.0-4.0-2.0","","","","","","","","","","null","audio/shark.mp3","","2","","","","","","","","","","","","",""
"sailing-instructions","7","78299","0.0-5.0-0.0-0.0","","","","","","","","","","","","","","null","null","null","null","null","null","","","","","","",""
"sailing-trial","8","91650","0.0-5.0-0.0-1.0-0.0","","","","false","","","","","","","","","","12244.599999904633","","null","","null","null","arrowleft","0","null","null","","",""
"sailing-trial","9","95448","0.0-5.0-0.0-1.0-1.0","","","","false","","","","","","","","","","2687","","null","","null","null","arrowright","1","null","null","","",""
"sailing-trial","10","98733","0.0-5.0-0.0-1.0-2.0","","","","false","","","","","","","","","","2168.5","","null","","null","null","arrowleft","0","null","null","","",""
"sailing-instructions","11","146946","0.0-5.0-0.0-2.0","","","","","","","","","","","","","","null","null","null","null","0","null","","","","","","",""
"sailing-trial","12","156511","0.0-5.0-0.0-3.0-0.0","","","","false","","","","","","","","","","null","","3857.9000000953674","","2","1","null","null","arrowleft","[1,1,1,1]","","",""
"sailing-trial","13","160261","0.0-5.0-0.0-3.0-1.0","","","","false","","","","","","","","","","null","","1392.0999999046326","","3","1","null","null","arrowright","[1,1,1,1]","","",""
"sailing-trial","14","164969","0.0-5.0-0.0-3.0-2.0","","","","false","","","","","","","","","","null","","2225.7000000476837","","2","0","null","null","arrowleft","[0,0,0,0]","","",""
"sailing-instructions","15","174130","0.0-5.0-0.0-4.0","","","","","","","","","","","","","","null","null","null","null","null","null","","","","","","",""
"sailing-comprehension","16","226858","0.0-5.0-0.0-5.0","","","","","","","","","","40839","","","","","","","","","","","","","","[""true"",""false"",""false"",""true""]","1",""
"sailing-instructions","17","261978","0.0-5.0-0.1-0.1","","","","","","","","","","","","","","null","null","null","null","null","null","","","","","","",""
"sailing-trial","18","266296","0.0-5.0-0.1-1.1-0.1","","","","false","","","","","","","","","","3206.600000143051","","null","","null","null","arrowleft","0","null","null","","",""
"sailing-trial","19","268595","0.0-5.0-0.1-1.1-1.1","","","","false","","","","","","","","","","1184.6000001430511","","null","","null","null","arrowright","1","null","null","","",""
"sailing-trial","20","271290","0.0-5.0-0.1-1.1-2.1","","","","false","","","","","","","","","","1565.9000000953674","","null","","null","null","arrowleft","0","null","null","","",""
"sailing-instructions","21","358562","0.0-5.0-0.1-2.1","","","","","","","","","","","","","","null","null","null","null","0","null","","","","","","",""
"sailing-trial","22","364637","0.0-5.0-0.1-3.1-0.1","","","","false","","","","","","","","","","null","","2131.100000143051","","2","1","null","null","arrowleft","[1,1,1,1]","","",""
"sailing-trial","23","368415","0.0-5.0-0.1-3.1-1.1","","","","false","","","","","","","","","","null","","1402","","3","1","null","null","arrowright","[1,1,1,1]","","",""
"sailing-trial","24","370976","0.0-5.0-0.1-3.1-2.1","","","","false","","","","","","","","","","null","","152.10000014305115","","2","0","null","null","arrowleft","[0,0,0,0]","","",""
"sailing-instructions","25","379178","0.0-5.0-0.1-4.1","","","","","","","","","","","","","","null","null","null","null","null","null","","","","","","",""
"sailing-comprehension","26","404331","0.0-5.0-0.1-5.1","","","","","","","","","","21847.299999952316","","","","","","","","","","","","","","[""true"",""true"",""false"",""true""]","0",""
"sailing-instructions","27","481083","0.0-6.0-0.0-0.0","","","","","","","","","","","","","","null","null","null","null","null","null","","","","","","",""
"sailing-comprehension","28","529465","0.0-6.0-0.0-1.0","","","","","","","","","","39732.700000047684","","","","","","","","","","","","","","[""true"",""false"",""false""]","1",""
"sailing-instructions","29","600793","0.0-6.0-0.1-0.1","","","","","","","","","","","","","","null","null","null","null","null","null","","","","","","",""
"sailing-comprehension","30","629865","0.0-6.0-0.1-1.1","","","","","","","","","","27287","","","","","","","","","","","","","","[""true"",""false"",""true""]","0",""
"sailing-instructions","31","645289","0.0-7.0-0.0-0.0","","","","","","","","","","","","","","null","null","null","null","null","null","","","","","","",""
"sailing-trial","32","654269","0.0-7.0-0.0-1.0-0.0","","","","false","","","","","","","","","","null","","5942.900000095367","","0","0","null","null","arrowup","[0.2,0.8,0.2,0.8]","","",""
"sailing-trial","33","659534","0.0-7.0-0.0-1.0-1.0","","","","false","","","","","","","","","","null","","3946.4000000953674","","1","0","null","null","arrowup","[0.2,0.8,0.2,0.8]","","",""
"sailing-trial","34","661582","0.0-7.0-0.0-1.0-2.0","","","","false","","","","","","","","","","null","","833.2999999523163","","2","0","null","null","arrowup","[0.2,0.8,0.2,0.8]","","",""
"sailing-trial","35","663617","0.0-7.0-0.0-1.0-3.0","","","","false","","","","","","","","","","null","","169.5","","3","1","null","null","arrowup","[0.2,0.8,0.2,0.8]","","",""
"sailing-comprehension","36","673778","0.0-7.0-0.0-2.0","","","","","","","","","","8856","","","","","","","","","","","","","","[""false""]","0",""
"sailing-instructions","37","688866","0.0-8.0-0.0-0.0","","","","","","","","","","","","","","null","null","null","null","null","null","","","","","","",""
"sailing-comprehension","38","693690","0.0-8.0-0.0-1.0","","","","","","","","","","3390.7999999523163","","","","","","","","","","","","","","[""true""]","0",""
"sailing-instructions","39","745129","0.0-9.0-0.0-0.0","","","","","","","","","","","","","","null","null","null","null","null","null","","","","","","",""
"sailing-trial","40","757568","0.0-9.0-0.0-1.0-0.0","","","","false","","","","","","","","","","2198","","6250","","0","1","arrowleft","0","arrowleft","[0.2,0.8,0.2,0.8]","","",""
"sailing-trial","41","763144","0.0-9.0-0.0-1.0-1.0","","","","false","","","","","","","","","","1672","","879.2999999523163","","1","1","arrowleft","0","arrowright","[0.2,0.8,0.2,0.8]","","",""
"sailing-trial","42","768238","0.0-9.0-0.0-1.0-2.0","","","","false","","","","","","","","","","null","","2190","","0","0","null","null","arrowup","[0.2,0.8,0.2,0.8]","","",""
"sailing-trial","43","774476","0.0-9.0-0.0-1.0-3.0","","","","false","","","","","","","","","","2656.899999856949","","1001.9000000953674","","2","0","arrowright","1","arrowleft","[0.2,0.8,0.2,0.8]","","",""
"sailing-trial","44","778558","0.0-9.0-0.0-1.0-4.0","","","","false","","","","","","","","","","null","","2146.399999856949","","3","1","null","null","arrowup","[0.2,0.8,0.2,0.8]","","",""
"sailing-trial","45","783391","0.0-9.0-0.0-1.0-5.0","","","","false","","","","","","","","","","1577.1000001430511","","401.2999999523163","","3","1","arrowright","1","arrowright","[0.2,0.8,0.2,0.8]","","",""
"sailing-instructions","46","818001","0.0-10.0","","","","","","","","","","","","","","null","null","null","null","null","null","","","","","","",""
"sailing-trial","47","827096","0.0-11.0-0.0","","","","false","","","","","","","","","","2790.100000143051","","618.6000001430511","","0","1","arrowleft","0","arrowleft","[0.325,0.675,0.85,0.15]","","",""
"sailing-trial","48","831034","0.0-11.0-1.0","","","","false","","","","","","","","","","null","","1438.7999999523163","","3","0","null","null","arrowup","[0.325,0.675,0.85,0.15]","","",""
"sailing-trial","49","835131","0.0-11.0-2.0","","","","false","","","","","","","","","","1101.2000000476837","","597.8999998569489","","3","0","arrowright","1","arrowright","[0.325,0.675,0.85,0.15]","","",""
"sailing-trial","50","837713","0.0-11.0-3.0","","","","false","","","","","","","","","","null","","1243.8000001907349","","3","0","null","null","arrowup","[0.325,0.675,0.85,0.15]","","",""
"sailing-trial","51","841242","0.0-11.0-4.0","","","","false","","","","","","","","","","541.2999999523163","","113.29999995231628","","1","1","arrowleft","0","arrowright","[0.325,0.675,0.85,0.15]","","",""
"sailing-trial","52","843839","0.0-11.0-5.0","","","","false","","","","","","","","","","null","","1276.7000000476837","","3","0","null","null","arrowup","[0.325,0.675,0.85,0.15]","","",""
"sailing-trial","53","846902","0.0-11.0-6.0","","","","false","","","","","","","","","","591.5","","195.70000004768372","","0","0","arrowleft","0","arrowleft","[0.325,0.675,0.85,0.15]","","",""
"sailing-trial","54","850128","0.0-11.0-7.0","","","","false","","","","","","","","","","null","","1281","","2","1","null","null","arrowup","[0.325,0.675,0.85,0.15]","","",""
"sailing-trial","55","855161","0.0-11.0-8.0","","","","false","","","","","","","","","","1383.0999999046326","","529.5","","1","1","arrowleft","0","arrowright","[0.325,0.675,0.85,0.15]","","",""
"sailing-trial","56","858238","0.0-11.0-9.0","","","","false","","","","","","","","","","null","","1181.5","","1","1","null","null","arrowup","[0.325,0.675,0.85,0.15]","","",""
"sailing-trial","57","866218","0.0-11.0-10.0","","","","false","","","","","","","","","","1161.7000000476837","","80.19999980926514","","1","1","arrowleft","0","arrowright","[0.325,0.675,0.85,0.15]","","",""
"sailing-trial","58","869314","0.0-11.0-11.0","","","","false","","","","","","","","","","null","","1253.2000000476837","","1","1","null","null","arrowup","[0.325,0.675,0.85,0.15]","","",""
"sailing-trial","59","874173","0.0-11.0-12.0","","","","false","","","","","","","","","","757.3000001907349","","1260.6000001430511","","1","0","arrowleft","0","arrowright","[0.325,0.675,0.85,0.15]","","",""
"sailing-trial","60","877697","0.0-11.0-13.0","","","","false","","","","","","","","","","null","","1666.2000000476837","","2","1","null","null","arrowup","[0.325,0.675,0.85,0.15]","","",""
"sailing-trial","61","882378","0.0-11.0-14.0","","","","false","","","","","","","","","","1158.5","","443.60000014305115","","1","1","arrowleft","0","arrowright","[0.325,0.675,0.85,0.15]","","",""
"sailing-trial","62","884685","0.0-11.0-15.0","","","","false","","","","","","","","","","null","","1133.3999998569489","","3","0","null","null","arrowup","[0.325,0.675,0.85,0.15]","","",""
"sailing-trial","63","888635","0.0-11.0-16.0","","","","false","","","","","","","","","","825.7000000476837","","121.29999995231628","","1","1","arrowleft","0","arrowright","[0.15,0.85,0.675,0.325]","","",""
"sailing-trial","64","892933","0.0-11.0-17.0","","","","false","","","","","","","","","","null","","2907.899999856949","","0","0","null","null","arrowup","[0.15,0.85,0.675,0.325]","","",""
"sailing-trial","65","901587","0.0-11.0-18.0","","","","false","","","","","","","","","","930","","388.40000009536743","","1","1","arrowleft","0","arrowright","[0.15,0.85,0.675,0.325]","","",""
"sailing-trial","66","904392","0.0-11.0-19.0","","","","false","","","","","","","","","","null","","939.7000000476837","","2","1","null","null","arrowup","[0.15,0.85,0.675,0.325]","","",""
"sailing-trial","67","908504","0.0-11.0-20.0","","","","false","","","","","","","","","","712.0999999046326","","369.2000000476837","","1","1","arrowleft","0","arrowright","[0.15,0.85,0.675,0.325]","","",""
"sailing-trial","68","912184","0.0-11.0-21.0","","","","false","","","","","","","","","","null","","1855.2999999523163","","1","1","null","null","arrowup","[0.15,0.85,0.675,0.325]","","",""
"sailing-trial","69","917538","0.0-11.0-22.0","","","","false","","","","","","","","","","1374.9000000953674","","1001.0999999046326","","2","1","arrowright","1","arrowleft","[0.15,0.85,0.675,0.325]","","",""
"sailing-trial","70","921017","0.0-11.0-23.0","","","","false","","","","","","","","","","null","","1693.3000001907349","","1","1","null","null","arrowup","[0.15,0.85,0.675,0.325]","","",""
"sailing-trial","71","924622","0.0-11.0-24.0","","","","false","","","","","","","","","","910.2999999523163","","145.70000004768372","","1","1","arrowleft","0","arrowright","[0.15,0.85,0.675,0.325]","","",""
"sailing-trial","72","927205","0.0-11.0-25.0","","","","false","","","","","","","","","","null","","1281.5","","2","0","null","null","arrowup","[0.15,0.85,0.675,0.325]","","",""
"sailing-trial","73","933510","0.0-11.0-26.0","","","","false","","","","","","","","","","2650.5","","379","","1","1","arrowleft","0","arrowright","[0.15,0.85,0.675,0.325]","","",""
"sailing-trial","74","936962","0.0-11.0-27.0","","","","false","","","","","","","","","","null","","440.90000009536743","","0","0","null","null","arrowup","[0.15,0.85,0.675,0.325]","","",""
"sailing-trial","75","942642","0.0-11.0-28.0","","","","false","","","","","","","","","","1725.5","","96.59999990463257","","1","1","arrowleft","0","arrowright","[0.15,0.85,0.675,0.325]","","",""
"sailing-trial","76","945420","0.0-11.0-29.0","","","","false","","","","","","","","","","null","","1436.5","","3","0","null","null","arrowup","[0.15,0.85,0.675,0.325]","","",""
"sailing-trial","77","950148","0.0-11.0-30.0","","","","false","","","","","","","","","","859.4000000953674","","586.2000000476837","","1","1","arrowleft","0","arrowright","[0.15,0.85,0.675,0.325]","","",""
"sailing-trial","78","953759","0.0-11.0-31.0","","","","false","","","","","","","","","","null","","1474.9000000953674","","3","1","null","null","arrowup","[0.15,0.85,0.675,0.325]","","",""
"sailing-trial","79","963280","0.0-11.0-32.0","","","","false","","","","","","","","","","1368","","444.40000009536743","","1","1","arrowleft","0","arrowright","[0.15,0.85,0.675,0.325]","","",""
"sailing-trial","80","965526","0.0-11.0-33.0","","","","false","","","","","","","","","","null","","1151.7999999523163","","3","0","null","null","arrowup","[0.15,0.85,0.675,0.325]","","",""
"sailing-trial","81","968733","0.0-11.0-34.0","","","","false","","","","","","","","","","833.3999998569489","","55.200000047683716","","1","0","arrowleft","0","arrowright","[0.675,0.325,0.15,0.85]","","",""
"sailing-trial","82","972997","0.0-11.0-35.0","","","","false","","","","","","","","","","null","","2969.7000000476837","","0","0","null","null","arrowup","[0.675,0.325,0.15,0.85]","","",""
"sailing-trial","83","977440","0.0-11.0-36.0","","","","false","","","","","","","","","","794","","633.7000000476837","","0","1","arrowleft","0","arrowleft","[0.675,0.325,0.15,0.85]","","",""
"sailing-trial","84","979509","0.0-11.0-37.0","","","","false","","","","","","","","","","null","","911.5","","2","0","null","null","arrowup","[0.675,0.325,0.15,0.85]","","",""
"sailing-trial","85","983198","0.0-11.0-38.0","","","","false","","","","","","","","","","634.7999999523163","","336.2999999523163","","0","0","arrowleft","0","arrowleft","[0.675,0.325,0.15,0.85]","","",""
"sailing-trial","86","985757","0.0-11.0-39.0","","","","false","","","","","","","","","","null","","912.3000001907349","","0","0","null","null","arrowup","[0.675,0.325,0.15,0.85]","","",""
"sailing-trial","87","990023","0.0-11.0-40.0","","","","false","","","","","","","","","","850","","11.5","","3","1","arrowright","1","arrowright","[0.675,0.325,0.15,0.85]","","",""
"sailing-trial","88","993433","0.0-11.0-41.0","","","","false","","","","","","","","","","null","","1311.7999999523163","","0","1","null","null","arrowup","[0.675,0.325,0.15,0.85]","","",""
"sailing-trial","89","997287","0.0-11.0-42.0","","","","false","","","","","","","","","","581.5999999046326","","418.7999999523163","","3","1","arrowright","1","arrowright","[0.675,0.325,0.15,0.85]","","",""
"sailing-trial","90","1000086","0.0-11.0-43.0","","","","false","","","","","","","","","","null","","1055.3999998569489","","1","1","null","null","arrowup","[0.675,0.325,0.15,0.85]","","",""
"sailing-trial","91","1003677","0.0-11.0-44.0","","","","false","","","","","","","","","","664.9000000953674","","179.09999990463257","","3","1","arrowright","1","arrowright","[0.675,0.325,0.15,0.85]","","",""
"sailing-trial","92","1007357","0.0-11.0-45.0","","","","false","","","","","","","","","","null","","2353.7000000476837","","2","0","null","null","arrowup","[0.675,0.325,0.15,0.85]","","",""
"sailing-trial","93","1011593","0.0-11.0-46.0","","","","false","","","","","","","","","","681.9000000953674","","560.1000001430511","","3","1","arrowright","1","arrowright","[0.675,0.325,0.15,0.85]","","",""
"sailing-trial","94","1015328","0.0-11.0-47.0","","","","false","","","","","","","","","","null","","1702.1000001430511","","3","1","null","null","arrowup","[0.675,0.325,0.15,0.85]","","",""
"sailing-trial","95","1020857","0.0-11.0-48.0","","","","false","","","","","","","","","","1790.7000000476837","","714.7000000476837","","3","1","arrowright","1","arrowright","[0.675,0.325,0.15,0.85]","","",""
"sailing-trial","96","1022972","0.0-11.0-49.0","","","","false","","","","","","","","","","null","","372.5","","2","0","null","null","arrowup","[0.675,0.325,0.15,0.85]","","",""
"sailing-trial","97","1027356","0.0-11.0-50.0","","","","false","","","","","","","","","","682.1999998092651","","826.6000001430511","","3","0","arrowright","1","arrowright","[0.85,0.15,0.325,0.675]","","",""
"sailing-trial","98","1029725","0.0-11.0-51.0","","","","false","","","","","","","","","","null","","1266.5","","1","0","null","null","arrowup","[0.85,0.15,0.325,0.675]","","",""
"sailing-trial","99","1033336","0.0-11.0-52.0","","","","false","","","","","","","","","","490.10000014305115","","402.2999999523163","","3","1","arrowright","1","arrowright","[0.85,0.15,0.325,0.675]","","",""
"sailing-trial","100","1038149","0.0-11.0-53.0","","","","false","","","","","","","","","","null","","3398.699999809265","","0","0","null","null","arrowup","[0.85,0.15,0.325,0.675]","","",""
"sailing-trial","101","1042016","0.0-11.0-54.0","","","","false","","","","","","","","","","713.7999999523163","","260","","3","1","arrowright","1","arrowright","[0.85,0.15,0.325,0.675]","","",""
"sailing-trial","102","1044940","0.0-11.0-55.0","","","","false","","","","","","","","","","null","","1294.4000000953674","","1","0","null","null","arrowup","[0.85,0.15,0.325,0.675]","","",""
"sailing-trial","103","1049196","0.0-11.0-56.0","","","","false","","","","","","","","","","835","","342.90000009536743","","3","1","arrowright","1","arrowright","[0.85,0.15,0.325,0.675]","","",""
"sailing-trial","104","1053795","0.0-11.0-57.0","","","","false","","","","","","","","","","null","","2706.0999999046326","","3","1","null","null","arrowup","[0.85,0.15,0.325,0.675]","","",""
"sailing-trial","105","1058350","0.0-11.0-58.0","","","","false","","","","","","","","","","1642.2000000476837","","220.39999985694885","","3","1","arrowright","1","arrowright","[0.85,0.15,0.325,0.675]","","",""
"sailing-trial","106","1061287","0.0-11.0-59.0","","","","false","","","","","","","","","","null","","1031.5","","0","1","null","null","arrowup","[0.85,0.15,0.325,0.675]","","",""
"sailing-trial","107","1064268","0.0-11.0-60.0","","","","false","","","","","","","","","","551.7999999523163","","312.59999990463257","","3","0","arrowright","1","arrowright","[0.85,0.15,0.325,0.675]","","",""
"sailing-trial","108","1069774","0.0-11.0-61.0","","","","false","","","","","","","","","","null","","3474.300000190735","","3","1","null","null","arrowup","[0.85,0.15,0.325,0.675]","","",""
"sailing-trial","109","1073481","0.0-11.0-62.0","","","","false","","","","","","","","","","768","","353.59999990463257","","3","1","arrowright","1","arrowright","[0.85,0.15,0.325,0.675]","","",""
"sailing-trial","110","1076392","0.0-11.0-63.0","","","","false","","","","","","","","","","null","","1029","","2","1","null","null","arrowup","[0.85,0.15,0.325,0.675]","","",""
"sailing-trial","111","1081233","0.0-11.0-64.0","","","","false","","","","","","","","","","853.9000000953674","","564.4000000953674","","3","1","arrowright","1","arrowright","[0.85,0.15,0.325,0.675]","","",""
"sailing-trial","112","1084670","0.0-11.0-65.0","","","","false","","","","","","","","","","null","","1685.0999999046326","","3","1","null","null","arrowup","[0.85,0.15,0.325,0.675]","","",""
"sailing-trial","113","1089537","0.0-11.0-66.0","","","","false","","","","","","","","","","1416.2000000476837","","413.5","","3","1","arrowright","1","arrowright","[0.85,0.15,0.325,0.675]","","",""
"sailing-trial","114","1093219","0.0-11.0-67.0","","","","false","","","","","","","","","","null","","2044.1999998092651","","1","0","null","null","arrowup","[0.85,0.15,0.325,0.675]","","",""
"sailing-trial","115","1096926","0.0-11.0-68.0","","","","false","","","","","","","","","","778.8999998569489","","832.8999998569489","","3","0","arrowright","1","arrowright","[0.325,0.675,0.85,0.15]","","",""
"sailing-trial","116","1101753","0.0-11.0-69.0","","","","false","","","","","","","","","","null","","1816.5","","3","0","null","null","arrowup","[0.325,0.675,0.85,0.15]","","",""
"sailing-trial","117","1105704","0.0-11.0-70.0","","","","false","","","","","","","","","","660","","460.7000000476837","","1","1","arrowleft","0","arrowright","[0.325,0.675,0.85,0.15]","","",""
"sailing-trial","118","1108388","0.0-11.0-71.0","","","","false","","","","","","","","","","null","","1165.9000000953674","","3","0","null","null","arrowup","[0.325,0.675,0.85,0.15]","","",""
"sailing-trial","119","1113287","0.0-11.0-72.0","","","","false","","","","","","","","","","641.9000000953674","","980.4000000953674","","1","1","arrowleft","0","arrowright","[0.325,0.675,0.85,0.15]","","",""
"sailing-trial","120","1116307","0.0-11.0-73.0","","","","false","","","","","","","","","","null","","967.0999999046326","","1","1","null","null","arrowup","[0.325,0.675,0.85,0.15]","","",""
"sailing-trial","121","1120697","0.0-11.0-74.0","","","","false","","","","","","","","","","634.7000000476837","","871.7999999523163","","1","1","arrowleft","0","arrowright","[0.325,0.675,0.85,0.15]","","",""
"sailing-trial","122","1123601","0.0-11.0-75.0","","","","false","","","","","","","","","","null","","966.7000000476837","","2","1","null","null","arrowup","[0.325,0.675,0.85,0.15]","","",""
"sailing-trial","123","1130539","0.0-11.0-76.0","","","","false","","","","","","","","","","3413","","730.2999999523163","","1","1","arrowleft","0","arrowright","[0.325,0.675,0.85,0.15]","","",""
"sailing-trial","124","1133302","0.0-11.0-77.0","","","","false","","","","","","","","","","null","","1091.7000000476837","","1","1","null","null","arrowup","[0.325,0.675,0.85,0.15]","","",""
"sailing-trial","125","1137441","0.0-11.0-78.0","","","","false","","","","","","","","","","1001.2000000476837","","328.89999985694885","","1","1","arrowleft","0","arrowright","[0.325,0.675,0.85,0.15]","","",""
"sailing-trial","126","1142629","0.0-11.0-79.0","","","","false","","","","","","","","","","null","","3333","","0","0","null","null","arrowup","[0.325,0.675,0.85,0.15]","","",""
"sailing-trial","127","1147017","0.0-11.0-80.0","","","","false","","","","","","","","","","944.3999998569489","","440.7000000476837","","1","1","arrowleft","0","arrowright","[0.325,0.675,0.85,0.15]","","",""
"sailing-trial","128","1152236","0.0-11.0-81.0","","","","false","","","","","","","","","","null","","3318","","3","0","null","null","arrowup","[0.325,0.675,0.85,0.15]","","",""
"sailing-trial","129","1157594","0.0-11.0-82.0","","","","false","","","","","","","","","","1218","","1165.5999999046326","","1","1","arrowleft","0","arrowright","[0.325,0.675,0.85,0.15]","","",""
"sailing-trial","130","1160677","0.0-11.0-83.0","","","","false","","","","","","","","","","null","","1605","","3","0","null","null","arrowup","[0.325,0.675,0.85,0.15]","","",""
"sailing-trial","131","1164824","0.0-11.0-84.0","","","","false","","","","","","","","","","745.7999999523163","","391.7000000476837","","1","1","arrowleft","0","arrowright","[0.325,0.675,0.85,0.15]","","",""
"sailing-trial","132","1168685","0.0-11.0-85.0","","","","false","","","","","","","","","","null","","2782.2000000476837","","0","0","null","null","arrowup","[0.325,0.675,0.85,0.15]","","",""
"sailing-trial","133","1172900","0.0-11.0-86.0","","","","false","","","","","","","","","","1034.0999999046326","","307.39999985694885","","1","1","arrowleft","0","arrowright","[0.15,0.85,0.675,0.325]","","",""
"sailing-trial","134","1177018","0.0-11.0-87.0","","","","false","","","","","","","","","","null","","1970.5999999046326","","3","1","null","null","arrowup","[0.15,0.85,0.675,0.325]","","",""
"sailing-trial","135","1182935","0.0-11.0-88.0","","","","false","","","","","","","","","","884.9000000953674","","1529.0999999046326","","1","1","arrowleft","0","arrowright","[0.15,0.85,0.675,0.325]","","",""
"sailing-trial","136","1185717","0.0-11.0-89.0","","","","false","","","","","","","","","","null","","1070.5","","2","0","null","null","arrowup","[0.15,0.85,0.675,0.325]","","",""
"sailing-trial","137","1189573","0.0-11.0-90.0","","","","false","","","","","","","","","","810.2999999523163","","159.90000009536743","","1","1","arrowleft","0","arrowright","[0.15,0.85,0.675,0.325]","","",""
"sailing-trial","138","1192393","0.0-11.0-91.0","","","","false","","","","","","","","","","null","","921.8999998569489","","2","1","null","null","arrowup","[0.15,0.85,0.675,0.325]","","",""
"sailing-trial","139","1196380","0.0-11.0-92.0","","","","false","","","","","","","","","","765.6000001430511","","288.2000000476837","","1","0","arrowleft","0","arrowright","[0.15,0.85,0.675,0.325]","","",""
"sailing-trial","140","1199204","0.0-11.0-93.0","","","","false","","","","","","","","","","null","","1161.7999999523163","","1","1","null","null","arrowup","[0.15,0.85,0.675,0.325]","","",""
"sailing-trial","141","1204295","0.0-11.0-94.0","","","","false","","","","","","","","","","1202","","564.9000000953674","","1","1","arrowleft","0","arrowright","[0.15,0.85,0.675,0.325]","","",""
"sailing-trial","142","1206879","0.0-11.0-95.0","","","","false","","","","","","","","","","null","","991.7000000476837","","2","1","null","null","arrowup","[0.15,0.85,0.675,0.325]","","",""
"sailing-trial","143","1210865","0.0-11.0-96.0","","","","false","","","","","","","","","","1063","","305.09999990463257","","1","1","arrowleft","0","arrowright","[0.15,0.85,0.675,0.325]","","",""
"sailing-trial","144","1214156","0.0-11.0-97.0","","","","false","","","","","","","","","","null","","1244.5999999046326","","0","1","null","null","arrowup","[0.15,0.85,0.675,0.325]","","",""
"sailing-trial","145","1217580","0.0-11.0-98.0","","","","false","","","","","","","","","","650","","433.2000000476837","","1","0","arrowleft","0","arrowright","[0.15,0.85,0.675,0.325]","","",""
"sailing-trial","146","1220820","0.0-11.0-99.0","","","","false","","","","","","","","","","null","","2210.199999809265","","0","0","null","null","arrowup","[0.15,0.85,0.675,0.325]","","",""
"sailing-trial","147","1226683","0.0-11.0-100.0","","","","false","","","","","","","","","","826.2000000476837","","98","","1","1","arrowleft","0","arrowright","[0.15,0.85,0.675,0.325]","","",""
"sailing-trial","148","1229164","0.0-11.0-101.0","","","","false","","","","","","","","","","null","","1130.7000000476837","","0","0","null","null","arrowup","[0.15,0.85,0.675,0.325]","","",""
"sailing-trial","149","1233220","0.0-11.0-102.0","","","","false","","","","","","","","","","977.2999999523163","","116.89999985694885","","1","0","arrowleft","0","arrowright","[0.325,0.675,0.85,0.15]","","",""
"sailing-trial","150","1237386","0.0-11.0-103.0","","","","false","","","","","","","","","","null","","2098.600000143051","","1","1","null","null","arrowup","[0.325,0.675,0.85,0.15]","","",""
"sailing-trial","151","1241396","0.0-11.0-104.0","","","","false","","","","","","","","","","940","","465.2000000476837","","1","0","arrowleft","0","arrowright","[0.325,0.675,0.85,0.15]","","",""
"sailing-trial","152","1245184","0.0-11.0-105.0","","","","false","","","","","","","","","","null","","1826.8999998569489","","1","1","null","null","arrowup","[0.325,0.675,0.85,0.15]","","",""
"sailing-trial","153","1250913","0.0-11.0-106.0","","","","false","","","","","","","","","","1373.4000000953674","","92","","1","1","arrowleft","0","arrowright","[0.325,0.675,0.85,0.15]","","",""
"sailing-trial","154","1256803","0.0-11.0-107.0","","","","false","","","","","","","","","","null","","3202.5999999046326","","3","0","null","null","arrowup","[0.325,0.675,0.85,0.15]","","",""
"sailing-trial","155","1261142","0.0-11.0-108.0","","","","false","","","","","","","","","","905.8000001907349","","227.40000009536743","","1","1","arrowleft","0","arrowright","[0.325,0.675,0.85,0.15]","","",""
"sailing-trial","156","1264559","0.0-11.0-109.0","","","","false","","","","","","","","","","null","","1583.5","","2","1","null","null","arrowup","[0.325,0.675,0.85,0.15]","","",""
"sailing-trial","157","1267995","0.0-11.0-110.0","","","","false","","","","","","","","","","1166.1000001430511","","61.200000047683716","","3","0","arrowright","1","arrowright","[0.325,0.675,0.85,0.15]","","",""
"sailing-trial","158","1270533","0.0-11.0-111.0","","","","false","","","","","","","","","","null","","1210","","0","0","null","null","arrowup","[0.325,0.675,0.85,0.15]","","",""
"sailing-trial","159","1274400","0.0-11.0-112.0","","","","false","","","","","","","","","","808.5","","364.7000000476837","","2","1","arrowright","1","arrowleft","[0.325,0.675,0.85,0.15]","","",""
"sailing-trial","160","1277232","0.0-11.0-113.0","","","","false","","","","","","","","","","null","","862.2000000476837","","0","1","null","null","arrowup","[0.325,0.675,0.85,0.15]","","",""
"sailing-trial","161","1281871","0.0-11.0-114.0","","","","false","","","","","","","","","","1189.8999998569489","","392.7000000476837","","2","1","arrowright","1","arrowleft","[0.325,0.675,0.85,0.15]","","",""
"sailing-trial","162","1285833","0.0-11.0-115.0","","","","false","","","","","","","","","","null","","2230.0999999046326","","2","1","null","null","arrowup","[0.325,0.675,0.85,0.15]","","",""
"sailing-trial","163","1289983","0.0-11.0-116.0","","","","false","","","","","","","","","","1012.6000001430511","","198.90000009536743","","2","1","arrowright","1","arrowleft","[0.325,0.675,0.85,0.15]","","",""
"sailing-trial","164","1294003","0.0-11.0-117.0","","","","false","","","","","","","","","","null","","2702.600000143051","","0","0","null","null","arrowup","[0.325,0.675,0.85,0.15]","","",""
"sailing-trial","165","1299607","0.0-11.0-118.0","","","","false","","","","","","","","","","538.2999999523163","","1056.5999999046326","","0","0","arrowleft","0","arrowleft","[0.15,0.85,0.675,0.325]","","",""
"sailing-trial","166","1304684","0.0-11.0-119.0","","","","false","","","","","","","","","","null","","1926.8999998569489","","2","1","null","null","arrowup","[0.15,0.85,0.675,0.325]","","",""
"sailing-trial","167","1309970","0.0-11.0-120.0","","","","false","","","","","","","","","","569.7000000476837","","645.4000000953674","","2","1","arrowright","1","arrowleft","[0.15,0.85,0.675,0.325]","","",""
"sailing-trial","168","1312879","0.0-11.0-121.0","","","","false","","","","","","","","","","null","","1363.9000000953674","","3","1","null","null","arrowup","[0.15,0.85,0.675,0.325]","","",""
"sailing-trial","169","1315709","0.0-11.0-122.0","","","","false","","","","","","","","","","510.5","","43.10000014305115","","2","0","arrowright","1","arrowleft","[0.15,0.85,0.675,0.325]","","",""
"sailing-trial","170","1319316","0.0-11.0-123.0","","","","false","","","","","","","","","","null","","1617.7999999523163","","1","1","null","null","arrowup","[0.15,0.85,0.675,0.325]","","",""
"sailing-trial","171","1323998","0.0-11.0-124.0","","","","false","","","","","","","","","","746.1999998092651","","1063.2999999523163","","2","1","arrowright","1","arrowleft","[0.15,0.85,0.675,0.325]","","",""
"sailing-trial","172","1326975","0.0-11.0-125.0","","","","false","","","","","","","","","","null","","1103.5","","3","1","null","null","arrowup","[0.15,0.85,0.675,0.325]","","",""
"sailing-trial","173","1332051","0.0-11.0-126.0","","","","false","","","","","","","","","","837.9000000953674","","754.9000000953674","","2","1","arrowright","1","arrowleft","[0.15,0.85,0.675,0.325]","","",""
"sailing-trial","174","1335740","0.0-11.0-127.0","","","","false","","","","","","","","","","null","","1801.3000001907349","","2","1","null","null","arrowup","[0.15,0.85,0.675,0.325]","","",""
"sailing-trial","175","1340031","0.0-11.0-128.0","","","","false","","","","","","","","","","1017.3000001907349","","561.0999999046326","","2","1","arrowright","1","arrowleft","[0.15,0.85,0.675,0.325]","","",""
"sailing-trial","176","1343080","0.0-11.0-129.0","","","","false","","","","","","","","","","null","","1205.9000000953674","","2","1","null","null","arrowup","[0.15,0.85,0.675,0.325]","","",""
"sailing-trial","177","1346355","0.0-11.0-130.0","","","","false","","","","","","","","","","661.5","","258.60000014305115","","2","0","arrowright","1","arrowleft","[0.15,0.85,0.675,0.325]","","",""
"sailing-trial","178","1348924","0.0-11.0-131.0","","","","false","","","","","","","","","","null","","1082.4000000953674","","0","0","null","null","arrowup","[0.15,0.85,0.675,0.325]","","",""
"sailing-trial","179","1352732","0.0-11.0-132.0","","","","false","","","","","","","","","","608.7000000476837","","368.5","","2","1","arrowright","1","arrowleft","[0.15,0.85,0.675,0.325]","","",""
"sailing-trial","180","1355448","0.0-11.0-133.0","","","","false","","","","","","","","","","null","","497.40000009536743","","2","1","null","null","arrowup","[0.15,0.85,0.675,0.325]","","",""
"sailing-trial","181","1359206","0.0-11.0-134.0","","","","false","","","","","","","","","","662.4000000953674","","215.79999995231628","","2","1","arrowright","1","arrowleft","[0.325,0.675,0.85,0.15]","","",""
"sailing-trial","182","1361837","0.0-11.0-135.0","","","","false","","","","","","","","","","null","","87.80000019073486","","0","1","null","null","arrowup","[0.325,0.675,0.85,0.15]","","",""
"sailing-trial","183","1365860","0.0-11.0-136.0","","","","false","","","","","","","","","","1040.5","","356.2000000476837","","2","0","arrowright","1","arrowleft","[0.325,0.675,0.85,0.15]","","",""
"sailing-trial","184","1368482","0.0-11.0-137.0","","","","false","","","","","","","","","","null","","865.9000000953674","","2","1","null","null","arrowup","[0.325,0.675,0.85,0.15]","","",""
"sailing-trial","185","1378921","0.0-11.0-138.0","","","","false","","","","","","","","","","1219.4000000953674","","9.600000143051147","","2","1","arrowright","1","arrowleft","[0.325,0.675,0.85,0.15]","","",""
"sailing-trial","186","1382135","0.0-11.0-139.0","","","","false","","","","","","","","","","null","","1388.7000000476837","","1","1","null","null","arrowup","[0.325,0.675,0.85,0.15]","","",""
"sailing-trial","187","1387045","0.0-11.0-140.0","","","","false","","","","","","","","","","2741.7000000476837","","10.200000047683716","","2","0","arrowright","1","arrowleft","[0.325,0.675,0.85,0.15]","","",""
"sailing-trial","188","1390660","0.0-11.0-141.0","","","","false","","","","","","","","","","null","","1064.7000000476837","","0","0","null","null","arrowup","[0.325,0.675,0.85,0.15]","","",""
"sailing-trial","189","1394715","0.0-11.0-142.0","","","","false","","","","","","","","","","905.4000000953674","","458.7999999523163","","2","0","arrowright","1","arrowleft","[0.325,0.675,0.85,0.15]","","",""
"sailing-trial","190","1398566","0.0-11.0-143.0","","","","false","","","","","","","","","","null","","1953.2000000476837","","1","1","null","null","arrowup","[0.325,0.675,0.85,0.15]","","",""
"sailing-trial","191","1402469","0.0-11.0-144.0","","","","false","","","","","","","","","","510.40000009536743","","571.9000000953674","","1","1","arrowleft","0","arrowright","[0.325,0.675,0.85,0.15]","","",""
"sailing-trial","192","1405525","0.0-11.0-145.0","","","","false","","","","","","","","","","null","","960.4000000953674","","2","1","null","null","arrowup","[0.325,0.675,0.85,0.15]","","",""
"sailing-trial","193","1409132","0.0-11.0-146.0","","","","false","","","","","","","","","","695.7000000476837","","416.2000000476837","","1","0","arrowleft","0","arrowright","[0.325,0.675,0.85,0.15]","","",""
"sailing-trial","194","1412371","0.0-11.0-147.0","","","","false","","","","","","","","","","null","","1658.2999999523163","","0","0","null","null","arrowup","[0.325,0.675,0.85,0.15]","","",""
"sailing-trial","195","1416131","0.0-11.0-148.0","","","","false","","","","","","","","","","809.7000000476837","","537.6999998092651","","1","0","arrowleft","0","arrowright","[0.325,0.675,0.85,0.15]","","",""
"sailing-trial","196","1418716","0.0-11.0-149.0","","","","false","","","","","","","","","","null","","1122.7000000476837","","1","0","null","null","arrowup","[0.325,0.675,0.85,0.15]","","",""
"sailing-trial","197","1423098","0.0-11.0-150.0","","","","false","","","","","","","","","","1281.7999999523163","","557.7000000476837","","0","0","arrowleft","0","arrowleft","[0.325,0.675,0.85,0.15]","","",""
"sailing-trial","198","1430365","0.0-11.0-151.0","","","","false","","","","","","","","","","null","","5250.300000190735","","0","1","null","null","arrowup","[0.325,0.675,0.85,0.15]","","",""
"sailing-trial","199","1439304","0.0-11.0-152.0","","","","false","","","","","","","","","","2208.899999856949","","2683.4000000953674","","3","0","arrowright","1","arrowright","[0.15,0.85,0.675,0.325]","","",""
"sailing-trial","200","1443268","0.0-11.0-153.0","","","","false","","","","","","","","","","null","","1789.2999999523163","","1","1","null","null","arrowup","[0.15,0.85,0.675,0.325]","","",""
"sailing-trial","201","1447755","0.0-11.0-154.0","","","","false","","","","","","","","","","1033.4000000953674","","339.80000019073486","","2","0","arrowright","1","arrowleft","[0.15,0.85,0.675,0.325]","","",""
"sailing-trial","202","1452157","0.0-11.0-155.0","","","","false","","","","","","","","","","null","","2425.699999809265","","1","1","null","null","arrowup","[0.15,0.85,0.675,0.325]","","",""
"sailing-trial","203","1456614","0.0-11.0-156.0","","","","false","","","","","","","","","","1112.4000000953674","","137.80000019073486","","2","1","arrowright","1","arrowleft","[0.15,0.85,0.675,0.325]","","",""
"sailing-trial","204","1459698","0.0-11.0-157.0","","","","false","","","","","","","","","","null","","1086.3999998569489","","1","1","null","null","arrowup","[0.15,0.85,0.675,0.325]","","",""
"sailing-trial","205","1463316","0.0-11.0-158.0","","","","false","","","","","","","","","","514.2000000476837","","135.20000004768372","","2","1","arrowright","1","arrowleft","[0.15,0.85,0.675,0.325]","","",""
"sailing-trial","206","1465685","0.0-11.0-159.0","","","","false","","","","","","","","","","null","","0.5999999046325684","","2","1","null","null","arrowup","[0.15,0.85,0.675,0.325]","","",""
"sailing-trial","207","1470219","0.0-11.0-160.0","","","","false","","","","","","","","","","903.7999999523163","","441.10000014305115","","2","1","arrowright","1","arrowleft","[0.15,0.85,0.675,0.325]","","",""
"sailing-trial","208","1475067","0.0-11.0-161.0","","","","false","","","","","","","","","","null","","3481.600000143051","","3","0","null","null","arrowup","[0.15,0.85,0.675,0.325]","","",""
"sailing-trial","209","1480187","0.0-11.0-162.0","","","","false","","","","","","","","","","785.5","","343.90000009536743","","2","0","arrowright","1","arrowleft","[0.15,0.85,0.675,0.325]","","",""
"sailing-trial","210","1485478","0.0-11.0-163.0","","","","false","","","","","","","","","","null","","2531","","1","1","null","null","arrowup","[0.15,0.85,0.675,0.325]","","",""
"sailing-trial","211","1489143","0.0-11.0-164.0","","","","false","","","","","","","","","","727.5999999046326","","5.599999904632568","","2","1","arrowright","1","arrowleft","[0.15,0.85,0.675,0.325]","","",""
"sailing-trial","212","1492191","0.0-11.0-165.0","","","","false","","","","","","","","","","null","","1223.2999999523163","","2","1","null","null","arrowup","[0.15,0.85,0.675,0.325]","","",""
"sailing-trial","213","1497916","0.0-11.0-166.0","","","","false","","","","","","","","","","2046.2000000476837","","1074.2999999523163","","2","0","arrowright","1","arrowleft","[0.15,0.85,0.675,0.325]","","",""
"sailing-trial","214","1501386","0.0-11.0-167.0","","","","false","","","","","","","","","","null","","1337.9000000953674","","1","1","null","null","arrowup","[0.15,0.85,0.675,0.325]","","",""
"sailing-trial","215","1506407","0.0-11.0-168.0","","","","false","","","","","","","","","","1908.0999999046326","","458.2000000476837","","2","1","arrowright","1","arrowleft","[0.15,0.85,0.675,0.325]","","",""
"sailing-trial","216","1510192","0.0-11.0-169.0","","","","false","","","","","","","","","","null","","1967","","2","1","null","null","arrowup","[0.15,0.85,0.675,0.325]","","",""
"sailing-trial","217","1514931","0.0-11.0-170.0","","","","false","","","","","","","","","","2221.199999809265","","123","","2","0","arrowright","1","arrowleft","[0.15,0.85,0.675,0.325]","","",""
"sailing-trial","218","1517852","0.0-11.0-171.0","","","","false","","","","","","","","","","null","","1034","","2","1","null","null","arrowup","[0.15,0.85,0.675,0.325]","","",""
"sailing-trial","219","1522901","0.0-11.0-172.0","","","","false","","","","","","","","","","810","","329.09999990463257","","2","1","arrowright","1","arrowleft","[0.15,0.85,0.675,0.325]","","",""
"sailing-trial","220","1526083","0.0-11.0-173.0","","","","false","","","","","","","","","","null","","1785.2000000476837","","3","0","null","null","arrowup","[0.15,0.85,0.675,0.325]","","",""
"sailing-trial","221","1529548","0.0-11.0-174.0","","","","false","","","","","","","","","","706","","373","","0","0","arrowleft","0","arrowleft","[0.325,0.675,0.85,0.15]","","",""
"sailing-trial","222","1533047","0.0-11.0-175.0","","","","false","","","","","","","","","","null","","1345.2000000476837","","0","1","null","null","arrowup","[0.325,0.675,0.85,0.15]","","",""
"sailing-trial","223","1537254","0.0-11.0-176.0","","","","false","","","","","","","","","","798.2000000476837","","581.5","","1","1","arrowleft","0","arrowright","[0.325,0.675,0.85,0.15]","","",""
"sailing-trial","224","1540296","0.0-11.0-177.0","","","","false","","","","","","","","","","null","","1327.5","","3","1","null","null","arrowup","[0.325,0.675,0.85,0.15]","","",""
"sailing-trial","225","1544838","0.0-11.0-178.0","","","","false","","","","","","","","","","1548.5","","181.09999990463257","","1","1","arrowleft","0","arrowright","[0.325,0.675,0.85,0.15]","","",""
"sailing-trial","226","1548677","0.0-11.0-179.0","","","","false","","","","","","","","","","null","","1983.5999999046326","","3","1","null","null","arrowup","[0.325,0.675,0.85,0.15]","","",""
"sailing-trial","227","1552259","0.0-11.0-180.0","","","","false","","","","","","","","","","672.2000000476837","","459","","1","0","arrowleft","0","arrowright","[0.325,0.675,0.85,0.15]","","",""
"sailing-trial","228","1555461","0.0-11.0-181.0","","","","false","","","","","","","","","","null","","1154.2999999523163","","0","1","null","null","arrowup","[0.325,0.675,0.85,0.15]","","",""
"sailing-trial","229","1558939","0.0-11.0-182.0","","","","false","","","","","","","","","","1008","","132.70000004768372","","1","0","arrowleft","0","arrowright","[0.325,0.675,0.85,0.15]","","",""
"sailing-trial","230","1573943","0.0-11.0-183.0","","","","true","","","","","","","","","","null","","null","","null","null","null","null","null","[0.325,0.675,0.85,0.15]","","",""
"sailing-trial","231","1580038","0.0-11.0-184.0","","","","false","","","","","","","","","","1797.7999999523163","","530.8000001907349","","2","1","arrowright","1","arrowleft","[0.325,0.675,0.85,0.15]","","",""
"sailing-trial","232","1583170","0.0-11.0-185.0","","","","false","","","","","","","","","","null","","1246.5999999046326","","0","1","null","null","arrowup","[0.325,0.675,0.85,0.15]","","",""
"sailing-trial","233","1587143","0.0-11.0-186.0","","","","false","","","","","","","","","","491.2999999523163","","778.8999998569489","","0","1","arrowleft","0","arrowleft","[0.325,0.675,0.85,0.15]","","",""
"sailing-trial","234","1590852","0.0-11.0-187.0","","","","false","","","","","","","","","","null","","1117.4000000953674","","3","1","null","null","arrowup","[0.325,0.675,0.85,0.15]","","",""
"sailing-trial","235","1594643","0.0-11.0-188.0","","","","false","","","","","","","","","","913.1000001430511","","553.6000001430511","","0","0","arrowleft","0","arrowleft","[0.325,0.675,0.85,0.15]","","",""
"sailing-trial","236","1597083","0.0-11.0-189.0","","","","false","","","","","","","","","","null","","1130.2000000476837","","2","0","null","null","arrowup","[0.325,0.675,0.85,0.15]","","",""
"sailing-trial","237","1603219","0.0-11.0-190.0","","","","false","","","","","","","","","","2570.5","","362.09999990463257","","0","1","arrowleft","0","arrowleft","[0.325,0.675,0.85,0.15]","","",""
"sailing-trial","238","1606998","0.0-11.0-191.0","","","","false","","","","","","","","","","null","","1873.5","","1","1","null","null","arrowup","[0.325,0.675,0.85,0.15]","","",""
"sailing-trial","239","1611011","0.0-11.0-192.0","","","","false","","","","","","","","","","614.0999999046326","","858.5999999046326","","0","1","arrowleft","0","arrowleft","[0.675,0.325,0.15,0.85]","","",""
"sailing-trial","240","1613274","0.0-11.0-193.0","","","","false","","","","","","","","","","null","","1051.4000000953674","","0","0","null","null","arrowup","[0.675,0.325,0.15,0.85]","","",""
"sailing-trial","241","1618247","0.0-11.0-194.0","","","","false","","","","","","","","","","1787","","21.5","","0","1","arrowleft","0","arrowleft","[0.675,0.325,0.15,0.85]","","",""
"sailing-trial","242","1620782","0.0-11.0-195.0","","","","false","","","","","","","","","","null","","900.7999999523163","","3","1","null","null","arrowup","[0.675,0.325,0.15,0.85]","","",""
"sailing-trial","243","1624351","0.0-11.0-196.0","","","","false","","","","","","","","","","759","","48.40000009536743","","0","1","arrowleft","0","arrowleft","[0.675,0.325,0.15,0.85]","","",""
"sailing-trial","244","1625778","0.0-11.0-197.0","","","","false","","","","","","","","","","null","","125.59999990463257","","0","0","null","null","arrowup","[0.675,0.325,0.15,0.85]","","",""
"sailing-trial","245","1628411","0.0-11.0-198.0","","","","false","","","","","","","","","","561.6000001430511","","7.599999904632568","","0","0","arrowleft","0","arrowleft","[0.675,0.325,0.15,0.85]","","",""
"sailing-trial","246","1630074","0.0-11.0-199.0","","","","false","","","","","","","","","","null","","457.5","","2","0","null","null","arrowup","[0.675,0.325,0.15,0.85]","","",""
"sailing-trial","247","1632611","0.0-11.0-200.0","","","","false","","","","","","","","","","225.89999985694885","","20.200000047683716","","0","0","arrowleft","0","arrowleft","[0.675,0.325,0.15,0.85]","","",""
"sailing-trial","248","1634532","0.0-11.0-201.0","","","","false","","","","","","","","","","null","","289.40000009536743","","0","1","null","null","arrowup","[0.675,0.325,0.15,0.85]","","",""
"sailing-trial","249","1637892","0.0-11.0-202.0","","","","false","","","","","","","","","","672.5","","108","","0","1","arrowleft","0","arrowleft","[0.675,0.325,0.15,0.85]","","",""
"sailing-trial","250","1639650","0.0-11.0-203.0","","","","false","","","","","","","","","","null","","192.5","","1","1","null","null","arrowup","[0.675,0.325,0.15,0.85]","","",""
"sailing-trial","251","1643191","0.0-11.0-204.0","","","","false","","","","","","","","","","793.6999998092651","","32.89999985694885","","2","1","arrowright","1","arrowleft","[0.675,0.325,0.15,0.85]","","",""
"sailing-trial","252","1647623","0.0-11.0-205.0","","","","false","","","","","","","","","","null","","2357.7000000476837","","3","1","null","null","arrowup","[0.675,0.325,0.15,0.85]","","",""
"sailing-trial","253","1650275","0.0-11.0-206.0","","","","false","","","","","","","","","","629","","3.200000047683716","","2","0","arrowright","1","arrowleft","[0.675,0.325,0.15,0.85]","","",""
"sailing-trial","254","1652627","0.0-11.0-207.0","","","","false","","","","","","","","","","null","","1337.6000001430511","","2","0","null","null","arrowup","[0.675,0.325,0.15,0.85]","","",""
"sailing-trial","255","1659157","0.0-11.0-208.0","","","","false","","","","","","","","","","3265.7000000476837","","444.7000000476837","","0","1","arrowleft","0","arrowleft","[0.85,0.15,0.325,0.675]","","",""
"sailing-trial","256","1664053","0.0-11.0-209.0","","","","false","","","","","","","","","","null","","2247","","0","1","null","null","arrowup","[0.85,0.15,0.325,0.675]","","",""
"sailing-trial","257","1668116","0.0-11.0-210.0","","","","false","","","","","","","","","","511.10000014305115","","369.59999990463257","","0","1","arrowleft","0","arrowleft","[0.85,0.15,0.325,0.675]","","",""
"sailing-trial","258","1670411","0.0-11.0-211.0","","","","false","","","","","","","","","","null","","919.7999999523163","","0","0","null","null","arrowup","[0.85,0.15,0.325,0.675]","","",""
"sailing-trial","259","1674886","0.0-11.0-212.0","","","","false","","","","","","","","","","800.7000000476837","","427.5","","0","1","arrowleft","0","arrowleft","[0.85,0.15,0.325,0.675]","","",""
"sailing-trial","260","1677642","0.0-11.0-213.0","","","","false","","","","","","","","","","null","","1014.1999998092651","","0","1","null","null","arrowup","[0.85,0.15,0.325,0.675]","","",""
"sailing-trial","261","1681303","0.0-11.0-214.0","","","","false","","","","","","","","","","913.5","","81.40000009536743","","0","1","arrowleft","0","arrowleft","[0.85,0.15,0.325,0.675]","","",""
"sailing-trial","262","1685845","0.0-11.0-215.0","","","","false","","","","","","","","","","null","","1533.4000000953674","","1","0","null","null","arrowup","[0.85,0.15,0.325,0.675]","","",""
"sailing-trial","263","1689686","0.0-11.0-216.0","","","","false","","","","","","","","","","775.2000000476837","","282.7999999523163","","0","1","arrowleft","0","arrowleft","[0.85,0.15,0.325,0.675]","","",""
"sailing-trial","264","1693102","0.0-11.0-217.0","","","","false","","","","","","","","","","null","","1230.5","","1","1","null","null","arrowup","[0.85,0.15,0.325,0.675]","","",""
"sailing-trial","265","1697066","0.0-11.0-218.0","","","","false","","","","","","","","","","1118.2999999523163","","164.90000009536743","","0","1","arrowleft","0","arrowleft","[0.85,0.15,0.325,0.675]","","",""
"sailing-trial","266","1701546","0.0-11.0-219.0","","","","false","","","","","","","","","","null","","3266","","1","0","null","null","arrowup","[0.85,0.15,0.325,0.675]","","",""
"sailing-trial","267","1705219","0.0-11.0-220.0","","","","false","","","","","","","","","","753.4000000953674","","26.700000047683716","","0","1","arrowleft","0","arrowleft","[0.85,0.15,0.325,0.675]","","",""
"sailing-trial","268","1709250","0.0-11.0-221.0","","","","false","","","","","","","","","","null","","2513.2000000476837","","2","0","null","null","arrowup","[0.85,0.15,0.325,0.675]","","",""
"sailing-trial","269","1713458","0.0-11.0-222.0","","","","false","","","","","","","","","","1378","","463.89999985694885","","2","0","arrowright","1","arrowleft","[0.85,0.15,0.325,0.675]","","",""
"sailing-trial","270","1715658","0.0-11.0-223.0","","","","false","","","","","","","","","","null","","985.0999999046326","","1","0","null","null","arrowup","[0.85,0.15,0.325,0.675]","","",""
"sailing-trial","271","1719693","0.0-11.0-224.0","","","","false","","","","","","","","","","402.09999990463257","","461.09999990463257","","0","1","arrowleft","0","arrowleft","[0.85,0.15,0.325,0.675]","","",""
"sailing-trial","272","1723043","0.0-11.0-225.0","","","","false","","","","","","","","","","null","","2160","","2","0","null","null","arrowup","[0.85,0.15,0.325,0.675]","","",""
"sailing-trial","273","1726740","0.0-11.0-226.0","","","","false","","","","","","","","","","465.59999990463257","","72.40000009536743","","0","1","arrowleft","0","arrowleft","[0.85,0.15,0.325,0.675]","","",""
"sailing-trial","274","1728778","0.0-11.0-227.0","","","","false","","","","","","","","","","null","","871.7999999523163","","1","0","null","null","arrowup","[0.85,0.15,0.325,0.675]","","",""
"sailing-trial","275","1734545","0.0-11.0-228.0","","","","false","","","","","","","","","","1354","","817.7000000476837","","0","1","arrowleft","0","arrowleft","[0.675,0.325,0.15,0.85]","","",""
"sailing-trial","276","1737580","0.0-11.0-229.0","","","","false","","","","","","","","","","null","","1194.7999999523163","","3","1","null","null","arrowup","[0.675,0.325,0.15,0.85]","","",""
"sailing-trial","277","1743858","0.0-11.0-230.0","","","","false","","","","","","","","","","3191.2999999523163","","432.90000009536743","","0","1","arrowleft","0","arrowleft","[0.675,0.325,0.15,0.85]","","",""
"sailing-trial","278","1747002","0.0-11.0-231.0","","","","false","","","","","","","","","","null","","1833.7000000476837","","0","0","null","null","arrowup","[0.675,0.325,0.15,0.85]","","",""
"sailing-trial","279","1752831","0.0-11.0-232.0","","","","false","","","","","","","","","","794","","724.8000001907349","","0","1","arrowleft","0","arrowleft","[0.675,0.325,0.15,0.85]","","",""
"sailing-trial","280","1755594","0.0-11.0-233.0","","","","false","","","","","","","","","","null","","1292.4000000953674","","0","0","null","null","arrowup","[0.675,0.325,0.15,0.85]","","",""
"sailing-trial","281","1760122","0.0-11.0-234.0","","","","false","","","","","","","","","","842.2000000476837","","161.59999990463257","","0","1","arrowleft","0","arrowleft","[0.675,0.325,0.15,0.85]","","",""
"sailing-trial","282","1762220","0.0-11.0-235.0","","","","false","","","","","","","","","","null","","393.2999999523163","","0","1","null","null","arrowup","[0.675,0.325,0.15,0.85]","","",""
"sailing-trial","283","1765555","0.0-11.0-236.0","","","","false","","","","","","","","","","512.1999998092651","","242.20000004768372","","0","0","arrowleft","0","arrowleft","[0.675,0.325,0.15,0.85]","","",""
"sailing-trial","284","1768894","0.0-11.0-237.0","","","","false","","","","","","","","","","null","","1137.5","","0","1","null","null","arrowup","[0.675,0.325,0.15,0.85]","","",""
"sailing-trial","285","1772913","0.0-11.0-238.0","","","","false","","","","","","","","","","942.4000000953674","","139","","0","1","arrowleft","0","arrowleft","[0.675,0.325,0.15,0.85]","","",""
"sailing-trial","286","1775530","0.0-11.0-239.0","","","","false","","","","","","","","","","null","","1210.5999999046326","","1","0","null","null","arrowup","[0.675,0.325,0.15,0.85]","","",""
"sailing-trial","287","1780407","0.0-11.0-240.0","","","","false","","","","","","","","","","1250.2000000476837","","450.7000000476837","","0","1","arrowleft","0","arrowleft","[0.675,0.325,0.15,0.85]","","",""
"sailing-trial","288","1783303","0.0-11.0-241.0","","","","false","","","","","","","","","","null","","1124.7999999523163","","0","1","null","null","arrowup","[0.675,0.325,0.15,0.85]","","",""
"sailing-trial","289","1787006","0.0-11.0-242.0","","","","false","","","","","","","","","","428.5","","267.5","","0","1","arrowleft","0","arrowleft","[0.675,0.325,0.15,0.85]","","",""
"sailing-trial","290","1789601","0.0-11.0-243.0","","","","false","","","","","","","","","","null","","591.0999999046326","","0","1","null","null","arrowup","[0.675,0.325,0.15,0.85]","","",""
"sailing-trial","291","1795317","0.0-11.0-244.0","","","","false","","","","","","","","","","1338.4000000953674","","371.60000014305115","","0","0","arrowleft","0","arrowleft","[0.675,0.325,0.15,0.85]","","",""
"sailing-trial","292","1797602","0.0-11.0-245.0","","","","false","","","","","","","","","","null","","39.90000009536743","","2","0","null","null","arrowup","[0.675,0.325,0.15,0.85]","","",""
"sailing-trial","293","1801595","0.0-11.0-246.0","","","","false","","","","","","","","","","642.6999998092651","","369.2999999523163","","0","1","arrowleft","0","arrowleft","[0.675,0.325,0.15,0.85]","","",""
"sailing-trial","294","1803994","0.0-11.0-247.0","","","","false","","","","","","","","","","null","","776.4000000953674","","1","0","null","null","arrowup","[0.675,0.325,0.15,0.85]","","",""
"sailing-trial","295","1807949","0.0-11.0-248.0","","","","false","","","","","","","","","","832.8000001907349","","553.7000000476837","","0","1","arrowleft","0","arrowleft","[0.85,0.15,0.325,0.675]","","",""
"sailing-trial","296","1810518","0.0-11.0-249.0","","","","false","","","","","","","","","","null","","623.2000000476837","","0","1","null","null","arrowup","[0.85,0.15,0.325,0.675]","","",""
"sailing-trial","297","1814526","0.0-11.0-250.0","","","","false","","","","","","","","","","805.8999998569489","","12.5","","0","1","arrowleft","0","arrowleft","[0.85,0.15,0.325,0.675]","","",""
"sailing-trial","298","1816793","0.0-11.0-251.0","","","","false","","","","","","","","","","null","","925.5","","2","0","null","null","arrowup","[0.85,0.15,0.325,0.675]","","",""
"sailing-trial","299","1820497","0.0-11.0-252.0","","","","false","","","","","","","","","","890.5","","37","","0","1","arrowleft","0","arrowleft","[0.85,0.15,0.325,0.675]","","",""
"sailing-trial","300","1825134","0.0-11.0-253.0","","","","false","","","","","","","","","","null","","2642.5999999046326","","3","1","null","null","arrowup","[0.85,0.15,0.325,0.675]","","",""
"sailing-trial","301","1828540","0.0-11.0-254.0","","","","false","","","","","","","","","","741.9000000953674","","41.10000014305115","","2","1","arrowright","1","arrowleft","[0.85,0.15,0.325,0.675]","","",""
"sailing-trial","302","1831002","0.0-11.0-255.0","","","","false","","","","","","","","","","null","","1063.7999999523163","","2","0","null","null","arrowup","[0.85,0.15,0.325,0.675]","","",""
"sailing-trial","303","1835748","0.0-11.0-256.0","","","","false","","","","","","","","","","1098","","778.2999999523163","","2","1","arrowright","1","arrowleft","[0.85,0.15,0.325,0.675]","","",""
"sailing-trial","304","1837945","0.0-11.0-257.0","","","","false","","","","","","","","","","null","","1087.2000000476837","","2","0","null","null","arrowup","[0.85,0.15,0.325,0.675]","","",""
"sailing-trial","305","1841451","0.0-11.0-258.0","","","","false","","","","","","","","","","898.5999999046326","","379.90000009536743","","2","0","arrowright","1","arrowleft","[0.85,0.15,0.325,0.675]","","",""
"sailing-trial","306","1843905","0.0-11.0-259.0","","","","false","","","","","","","","","","null","","953.2000000476837","","2","0","null","null","arrowup","[0.85,0.15,0.325,0.675]","","",""
"sailing-trial","307","1847042","0.0-11.0-260.0","","","","false","","","","","","","","","","554.7000000476837","","232.59999990463257","","2","0","arrowright","1","arrowleft","[0.85,0.15,0.325,0.675]","","",""
"sailing-trial","308","1851853","0.0-11.0-261.0","","","","false","","","","","","","","","","null","","3081.2000000476837","","0","1","null","null","arrowup","[0.85,0.15,0.325,0.675]","","",""
"sailing-trial","309","1855762","0.0-11.0-262.0","","","","false","","","","","","","","","","815.2000000476837","","762.1000001430511","","2","0","arrowright","1","arrowleft","[0.85,0.15,0.325,0.675]","","",""
"sailing-trial","310","1857995","0.0-11.0-263.0","","","","false","","","","","","","","","","null","","930.1000001430511","","2","0","null","null","arrowup","[0.85,0.15,0.325,0.675]","","",""
"sailing-trial","311","1862429","0.0-11.0-264.0","","","","false","","","","","","","","","","338.09999990463257","","371.09999990463257","","0","1","arrowleft","0","arrowleft","[0.85,0.15,0.325,0.675]","","",""
"sailing-trial","312","1864499","0.0-11.0-265.0","","","","false","","","","","","","","","","null","","1023","","1","0","null","null","arrowup","[0.85,0.15,0.325,0.675]","","",""
"sailing-trial","313","1868146","0.0-11.0-266.0","","","","false","","","","","","","","","","665.8999998569489","","437.2000000476837","","0","0","arrowleft","0","arrowleft","[0.85,0.15,0.325,0.675]","","",""
"sailing-trial","314","1870979","0.0-11.0-267.0","","","","false","","","","","","","","","","null","","1426.2000000476837","","2","0","null","null","arrowup","[0.85,0.15,0.325,0.675]","","",""
"sailing-trial","315","1874845","0.0-11.0-268.0","","","","false","","","","","","","","","","505.5","","460.59999990463257","","0","1","arrowleft","0","arrowleft","[0.15,0.85,0.675,0.325]","","",""
"sailing-trial","316","1878525","0.0-11.0-269.0","","","","false","","","","","","","","","","null","","1614.7000000476837","","3","1","null","null","arrowup","[0.15,0.85,0.675,0.325]","","",""
"sailing-trial","317","1883068","0.0-11.0-270.0","","","","false","","","","","","","","","","1431.2000000476837","","356.2000000476837","","1","1","arrowleft","0","arrowright","[0.15,0.85,0.675,0.325]","","",""
"sailing-trial","318","1886596","0.0-11.0-271.0","","","","false","","","","","","","","","","null","","1703.9000000953674","","1","1","null","null","arrowup","[0.15,0.85,0.675,0.325]","","",""
"sailing-trial","319","1895679","0.0-11.0-272.0","","","","false","","","","","","","","","","3664.2000000476837","","97.29999995231628","","1","1","arrowleft","0","arrowright","[0.15,0.85,0.675,0.325]","","",""
"sailing-trial","320","1898135","0.0-11.0-273.0","","","","false","","","","","","","","","","null","","885.1000001430511","","0","0","null","null","arrowup","[0.15,0.85,0.675,0.325]","","",""
"sailing-trial","321","1903941","0.0-11.0-274.0","","","","false","","","","","","","","","","1333.9000000953674","","889.6000001430511","","1","1","arrowleft","0","arrowright","[0.15,0.85,0.675,0.325]","","",""
"sailing-trial","322","1907783","0.0-11.0-275.0","","","","false","","","","","","","","","","null","","2318.199999809265","","1","1","null","null","arrowup","[0.15,0.85,0.675,0.325]","","",""
"sailing-trial","323","1911489","0.0-11.0-276.0","","","","false","","","","","","","","","","844.8000001907349","","625.7999999523163","","1","0","arrowleft","0","arrowright","[0.15,0.85,0.675,0.325]","","",""
"sailing-trial","324","1913610","0.0-11.0-277.0","","","","false","","","","","","","","","","null","","1099.2999999523163","","2","0","null","null","arrowup","[0.15,0.85,0.675,0.325]","","",""
"sailing-trial","325","1916970","0.0-11.0-278.0","","","","false","","","","","","","","","","865.2000000476837","","202","","0","0","arrowleft","0","arrowleft","[0.15,0.85,0.675,0.325]","","",""
"sailing-trial","326","1920090","0.0-11.0-279.0","","","","false","","","","","","","","","","null","","1682.2999999523163","","2","0","null","null","arrowup","[0.15,0.85,0.675,0.325]","","",""
"sailing-trial","327","1924755","0.0-11.0-280.0","","","","false","","","","","","","","","","769.1000001430511","","943","","2","1","arrowright","1","arrowleft","[0.15,0.85,0.675,0.325]","","",""
"sailing-trial","328","1926818","0.0-11.0-281.0","","","","false","","","","","","","","","","null","","912.4000000953674","","0","0","null","null","arrowup","[0.15,0.85,0.675,0.325]","","",""
"sailing-trial","329","1930283","0.0-11.0-282.0","","","","false","","","","","","","","","","737.2000000476837","","8.599999904632568","","2","1","arrowright","1","arrowleft","[0.15,0.85,0.675,0.325]","","",""
"sailing-trial","330","1933477","0.0-11.0-283.0","","","","false","","","","","","","","","","null","","1328.7000000476837","","1","1","null","null","arrowup","[0.15,0.85,0.675,0.325]","","",""
"sailing-trial","331","1938221","0.0-11.0-284.0","","","","false","","","","","","","","","","1711.4000000953674","","423.39999985694885","","2","1","arrowright","1","arrowleft","[0.15,0.85,0.675,0.325]","","",""
"sailing-trial","332","1941146","0.0-11.0-285.0","","","","false","","","","","","","","","","null","","1039.0999999046326","","3","0","null","null","arrowup","[0.15,0.85,0.675,0.325]","","",""
"sailing-trial","333","1945474","0.0-11.0-286.0","","","","false","","","","","","","","","","1769.7000000476837","","350.7999999523163","","2","0","arrowright","1","arrowleft","[0.85,0.15,0.325,0.675]","","",""
"sailing-trial","334","1950299","0.0-11.0-287.0","","","","false","","","","","","","","","","null","","3281.199999809265","","3","0","null","null","arrowup","[0.85,0.15,0.325,0.675]","","",""
"sailing-trial","335","1955762","0.0-11.0-288.0","","","","false","","","","","","","","","","2568.800000190735","","49.299999952316284","","0","1","arrowleft","0","arrowleft","[0.85,0.15,0.325,0.675]","","",""
"sailing-trial","336","1958485","0.0-11.0-289.0","","","","false","","","","","","","","","","null","","912.8999998569489","","0","1","null","null","arrowup","[0.85,0.15,0.325,0.675]","","",""
"sailing-trial","337","1961641","0.0-11.0-290.0","","","","false","","","","","","","","","","518.7999999523163","","347.40000009536743","","0","0","arrowleft","0","arrowleft","[0.85,0.15,0.325,0.675]","","",""
"sailing-trial","338","1963658","0.0-11.0-291.0","","","","false","","","","","","","","","","null","","898.2999999523163","","1","0","null","null","arrowup","[0.85,0.15,0.325,0.675]","","",""
"sailing-trial","339","1969121","0.0-11.0-292.0","","","","false","","","","","","","","","","402.2000000476837","","1803.7999999523163","","2","0","arrowright","1","arrowleft","[0.85,0.15,0.325,0.675]","","",""
"sailing-trial","340","1972845","0.0-11.0-293.0","","","","false","","","","","","","","","","null","","1754.8999998569489","","3","1","null","null","arrowup","[0.85,0.15,0.325,0.675]","","",""
"sailing-trial","341","1977457","0.0-11.0-294.0","","","","false","","","","","","","","","","799.7999999523163","","988.6999998092651","","0","1","arrowleft","0","arrowleft","[0.85,0.15,0.325,0.675]","","",""
"sailing-trial","342","1981132","0.0-11.0-295.0","","","","false","","","","","","","","","","null","","2261.2000000476837","","1","0","null","null","arrowup","[0.85,0.15,0.325,0.675]","","",""
"sailing-trial","343","1984578","0.0-11.0-296.0","","","","false","","","","","","","","","","873.2999999523163","","226","","2","0","arrowright","1","arrowleft","[0.85,0.15,0.325,0.675]","","",""
"sailing-trial","344","1986730","0.0-11.0-297.0","","","","false","","","","","","","","","","null","","913.2999999523163","","3","0","null","null","arrowup","[0.85,0.15,0.325,0.675]","","",""
"sailing-trial","345","1991117","0.0-11.0-298.0","","","","false","","","","","","","","","","1570","","296.2999999523163","","0","1","arrowleft","0","arrowleft","[0.85,0.15,0.325,0.675]","","",""
"sailing-trial","346","1993106","0.0-11.0-299.0","","","","false","","","","","","","","","","null","","815.5","","3","0","null","null","arrowup","[0.85,0.15,0.325,0.675]","","",""
"sailing-trial","347","1997957","0.0-11.0-300.0","","","","false","","","","","","","","","","1194.5999999046326","","623.3999998569489","","3","1","arrowright","1","arrowright","[0.85,0.15,0.325,0.675]","","",""
"sailing-trial","348","2000874","0.0-11.0-301.0","","","","false","","","","","","","","","","null","","958.2999999523163","","0","1","null","null","arrowup","[0.85,0.15,0.325,0.675]","","",""
"sailing-trial","349","2006193","0.0-11.0-302.0","","","","false","","","","","","","","","","378.59999990463257","","2295.800000190735","","3","1","arrowright","1","arrowright","[0.85,0.15,0.325,0.675]","","",""
"sailing-trial","350","2008922","0.0-11.0-303.0","","","","false","","","","","","","","","","null","","1074.5999999046326","","3","1","null","null","arrowup","[0.85,0.15,0.325,0.675]","","",""
"sailing-trial","351","2012970","0.0-11.0-304.0","","","","false","","","","","","","","","","1378.2999999523163","","407.5","","3","0","arrowright","1","arrowright","[0.85,0.15,0.325,0.675]","","",""
"sailing-trial","352","2015845","0.0-11.0-305.0","","","","false","","","","","","","","","","null","","833.7000000476837","","0","1","null","null","arrowup","[0.85,0.15,0.325,0.675]","","",""
"sailing-trial","353","2019609","0.0-11.0-306.0","","","","false","","","","","","","","","","710.5","","202.20000004768372","","3","1","arrowright","1","arrowright","[0.675,0.325,0.15,0.85]","","",""
"sailing-trial","354","2023034","0.0-11.0-307.0","","","","false","","","","","","","","","","null","","1506.2000000476837","","0","1","null","null","arrowup","[0.675,0.325,0.15,0.85]","","",""
"sailing-trial","355","2028950","0.0-11.0-308.0","","","","false","","","","","","","","","","666","","1843.4000000953674","","3","1","arrowright","1","arrowright","[0.675,0.325,0.15,0.85]","","",""
"sailing-trial","356","2032763","0.0-11.0-309.0","","","","false","","","","","","","","","","null","","1381","","0","1","null","null","arrowup","[0.675,0.325,0.15,0.85]","","",""
"sailing-trial","357","2037227","0.0-11.0-310.0","","","","false","","","","","","","","","","824.2000000476837","","459.5","","3","1","arrowright","1","arrowright","[0.675,0.325,0.15,0.85]","","",""
"sailing-trial","358","2040207","0.0-11.0-311.0","","","","false","","","","","","","","","","null","","1064.8000001907349","","0","1","null","null","arrowup","[0.675,0.325,0.15,0.85]","","",""
"sailing-trial","359","2043585","0.0-11.0-312.0","","","","false","","","","","","","","","","700","","436.2999999523163","","2","0","arrowright","1","arrowleft","[0.675,0.325,0.15,0.85]","","",""
"sailing-trial","360","2045657","0.0-11.0-313.0","","","","false","","","","","","","","","","null","","977.8000001907349","","2","0","null","null","arrowup","[0.675,0.325,0.15,0.85]","","",""
"sailing-trial","361","2049130","0.0-11.0-314.0","","","","false","","","","","","","","","","466.2999999523163","","245","","3","1","arrowright","1","arrowright","[0.675,0.325,0.15,0.85]","","",""
"sailing-trial","362","2050897","0.0-11.0-315.0","","","","false","","","","","","","","","","null","","441.40000009536743","","0","0","null","null","arrowup","[0.675,0.325,0.15,0.85]","","",""
"sailing-trial","363","2055971","0.0-11.0-316.0","","","","false","","","","","","","","","","1401.7999999523163","","815.2000000476837","","3","1","arrowright","1","arrowright","[0.675,0.325,0.15,0.85]","","",""
"sailing-trial","364","2057889","0.0-11.0-317.0","","","","false","","","","","","","","","","null","","800.1000001430511","","2","0","null","null","arrowup","[0.675,0.325,0.15,0.85]","","",""
"sailing-trial","365","2060937","0.0-11.0-318.0","","","","false","","","","","","","","","","321.7999999523163","","330","","0","0","arrowleft","0","arrowleft","[0.675,0.325,0.15,0.85]","","",""
"sailing-trial","366","2063541","0.0-11.0-319.0","","","","false","","","","","","","","","","null","","906.0999999046326","","3","1","null","null","arrowup","[0.675,0.325,0.15,0.85]","","",""
"sailing-trial","367","2066489","0.0-11.0-320.0","","","","false","","","","","","","","","","686.9000000953674","","124.30000019073486","","1","0","arrowleft","0","arrowright","[0.675,0.325,0.15,0.85]","","",""
"sailing-trial","368","2071541","0.0-11.0-321.0","","","","false","","","","","","","","","","null","","2057.5999999046326","","0","1","null","null","arrowup","[0.675,0.325,0.15,0.85]","","",""
"sailing-trial","369","2074513","0.0-11.0-322.0","","","","false","","","","","","","","","","630.2000000476837","","187","","1","0","arrowleft","0","arrowright","[0.85,0.15,0.325,0.675]","","",""
"sailing-trial","370","2077068","0.0-11.0-323.0","","","","false","","","","","","","","","","null","","770","","3","1","null","null","arrowup","[0.85,0.15,0.325,0.675]","","",""
"sailing-trial","371","2080692","0.0-11.0-324.0","","","","false","","","","","","","","","","599.7000000476837","","247.5","","0","1","arrowleft","0","arrowleft","[0.85,0.15,0.325,0.675]","","",""
"sailing-trial","372","2083242","0.0-11.0-325.0","","","","false","","","","","","","","","","null","","998.4000000953674","","3","1","null","null","arrowup","[0.85,0.15,0.325,0.675]","","",""
"sailing-trial","373","2086715","0.0-11.0-326.0","","","","false","","","","","","","","","","648.5","","89.5","","0","1","arrowleft","0","arrowleft","[0.85,0.15,0.325,0.675]","","",""
"sailing-trial","374","2088929","0.0-11.0-327.0","","","","false","","","","","","","","","","null","","929","","1","0","null","null","arrowup","[0.85,0.15,0.325,0.675]","","",""
"sailing-trial","375","2092501","0.0-11.0-328.0","","","","false","","","","","","","","","","570.7999999523163","","380.2999999523163","","0","1","arrowleft","0","arrowleft","[0.85,0.15,0.325,0.675]","","",""
"sailing-trial","376","2096850","0.0-11.0-329.0","","","","false","","","","","","","","","","null","","2838.7999999523163","","2","0","null","null","arrowup","[0.85,0.15,0.325,0.675]","","",""
"sailing-trial","377","2102951","0.0-11.0-330.0","","","","false","","","","","","","","","","650","","2588.2000000476837","","0","1","arrowleft","0","arrowleft","[0.85,0.15,0.325,0.675]","","",""
"sailing-trial","378","2106242","0.0-11.0-331.0","","","","false","","","","","","","","","","null","","1356.6000001430511","","1","1","null","null","arrowup","[0.85,0.15,0.325,0.675]","","",""
"sailing-trial","379","2110611","0.0-11.0-332.0","","","","false","","","","","","","","","","689.8000001907349","","615.9000000953674","","0","1","arrowleft","0","arrowleft","[0.85,0.15,0.325,0.675]","","",""
"sailing-trial","380","2113645","0.0-11.0-333.0","","","","false","","","","","","","","","","null","","1080.9000000953674","","0","1","null","null","arrowup","[0.85,0.15,0.325,0.675]","","",""
"sailing-trial","381","2117708","0.0-11.0-334.0","","","","false","","","","","","","","","","687.2999999523163","","540.5","","0","1","arrowleft","0","arrowleft","[0.85,0.15,0.325,0.675]","","",""
"sailing-trial","382","2119930","0.0-11.0-335.0","","","","false","","","","","","","","","","null","","991.3999998569489","","3","0","null","null","arrowup","[0.85,0.15,0.325,0.675]","","",""
"sailing-trial","383","2123610","0.0-11.0-336.0","","","","false","","","","","","","","","","648.6999998092651","","311.2000000476837","","2","1","arrowright","1","arrowleft","[0.85,0.15,0.325,0.675]","","",""
"sailing-trial","384","2126297","0.0-11.0-337.0","","","","false","","","","","","","","","","null","","1122.1000001430511","","2","1","null","null","arrowup","[0.85,0.15,0.325,0.675]","","",""
"sailing-trial","385","2131007","0.0-11.0-338.0","","","","false","","","","","","","","","","1538.7000000476837","","249.29999995231628","","0","1","arrowleft","0","arrowleft","[0.675,0.325,0.15,0.85]","","",""
"sailing-trial","386","2134130","0.0-11.0-339.0","","","","false","","","","","","","","","","null","","1732.5","","1","0","null","null","arrowup","[0.675,0.325,0.15,0.85]","","",""
"sailing-trial","387","2138909","0.0-11.0-340.0","","","","false","","","","","","","","","","1002.5","","173.09999990463257","","0","1","arrowleft","0","arrowleft","[0.675,0.325,0.15,0.85]","","",""
"sailing-trial","388","2141121","0.0-11.0-341.0","","","","false","","","","","","","","","","null","","869.9000000953674","","0","0","null","null","arrowup","[0.675,0.325,0.15,0.85]","","",""
"sailing-trial","389","2145158","0.0-11.0-342.0","","","","false","","","","","","","","","","657.5","","280.2999999523163","","0","1","arrowleft","0","arrowleft","[0.675,0.325,0.15,0.85]","","",""
"sailing-trial","390","2147875","0.0-11.0-343.0","","","","false","","","","","","","","","","null","","828.7999999523163","","3","1","null","null","arrowup","[0.675,0.325,0.15,0.85]","","",""
"sailing-trial","391","2150513","0.0-11.0-344.0","","","","false","","","","","","","","","","280.90000009536743","","18.299999952316284","","0","0","arrowleft","0","arrowleft","[0.675,0.325,0.15,0.85]","","",""
"sailing-trial","392","2153950","0.0-11.0-345.0","","","","false","","","","","","","","","","null","","1234.2000000476837","","3","1","null","null","arrowup","[0.675,0.325,0.15,0.85]","","",""
"sailing-trial","393","2162597","0.0-11.0-346.0","","","","false","","","","","","","","","","5629.599999904633","","96.70000004768372","","2","1","arrowright","1","arrowleft","[0.675,0.325,0.15,0.85]","","",""
"sailing-trial","394","2165025","0.0-11.0-347.0","","","","false","","","","","","","","","","null","","1054.4000000953674","","1","0","null","null","arrowup","[0.675,0.325,0.15,0.85]","","",""
"sailing-trial","395","2169178","0.0-11.0-348.0","","","","false","","","","","","","","","","1330.6000001430511","","184.09999990463257","","2","0","arrowright","1","arrowleft","[0.675,0.325,0.15,0.85]","","",""
"sailing-trial","396","2171853","0.0-11.0-349.0","","","","false","","","","","","","","","","null","","961.6000001430511","","3","1","null","null","arrowup","[0.675,0.325,0.15,0.85]","","",""
"sailing-trial","397","2175596","0.0-11.0-350.0","","","","false","","","","","","","","","","750.9000000953674","","131.20000004768372","","0","1","arrowleft","0","arrowleft","[0.675,0.325,0.15,0.85]","","",""
"sailing-trial","398","2178667","0.0-11.0-351.0","","","","false","","","","","","","","","","null","","929.6000001430511","","3","1","null","null","arrowup","[0.675,0.325,0.15,0.85]","","",""
"sailing-trial","399","2182501","0.0-11.0-352.0","","","","false","","","","","","","","","","808.7999999523163","","322","","0","1","arrowleft","0","arrowleft","[0.675,0.325,0.15,0.85]","","",""
"sailing-trial","400","2187393","0.0-11.0-353.0","","","","false","","","","","","","","","","null","","3582","","2","0","null","null","arrowup","[0.675,0.325,0.15,0.85]","","",""
"sailing-trial","401","2191910","0.0-11.0-354.0","","","","false","","","","","","","","","","1386.2000000476837","","144.19999980926514","","0","1","arrowleft","0","arrowleft","[0.675,0.325,0.15,0.85]","","",""
"sailing-trial","402","2194113","0.0-11.0-355.0","","","","false","","","","","","","","","","null","","989.5","","1","0","null","null","arrowup","[0.675,0.325,0.15,0.85]","","",""
"sailing-trial","403","2198401","0.0-11.0-356.0","","","","false","","","","","","","","","","1290.2999999523163","","481.2999999523163","","0","0","arrowleft","0","arrowleft","[0.675,0.325,0.15,0.85]","","",""
"sailing-trial","404","2200930","0.0-11.0-357.0","","","","false","","","","","","","","","","null","","1281.2999999523163","","2","0","null","null","arrowup","[0.675,0.325,0.15,0.85]","","",""
"sailing-trial","405","2206193","0.0-11.0-358.0","","","","false","","","","","","","","","","1817.5","","92.09999990463257","","2","1","arrowright","1","arrowleft","[0.675,0.325,0.15,0.85]","","",""
"sailing-trial","406","2209057","0.0-11.0-359.0","","","","false","","","","","","","","","","null","","1825.7999999523163","","2","0","null","null","arrowup","[0.675,0.325,0.15,0.85]","","",""
"sailing-trial","407","2213381","0.0-11.0-360.0","","","","false","","","","","","","","","","978.2000000476837","","416.2999999523163","","0","1","arrowleft","0","arrowleft","[0.85,0.15,0.325,0.675]","","",""
"sailing-trial","408","2216173","0.0-11.0-361.0","","","","false","","","","","","","","","","null","","942.6999998092651","","1","1","null","null","arrowup","[0.85,0.15,0.325,0.675]","","",""
"sailing-trial","409","2220915","0.0-11.0-362.0","","","","false","","","","","","","","","","1718","","391.60000014305115","","0","1","arrowleft","0","arrowleft","[0.85,0.15,0.325,0.675]","","",""
"sailing-trial","410","2223507","0.0-11.0-363.0","","","","false","","","","","","","","","","null","","775.2000000476837","","3","1","null","null","arrowup","[0.85,0.15,0.325,0.675]","","",""
"sailing-trial","411","2227757","0.0-11.0-364.0","","","","false","","","","","","","","","","799.9000000953674","","359.80000019073486","","0","1","arrowleft","0","arrowleft","[0.85,0.15,0.325,0.675]","","",""
"sailing-trial","412","2229617","0.0-11.0-365.0","","","","false","","","","","","","","","","null","","678.2000000476837","","2","0","null","null","arrowup","[0.85,0.15,0.325,0.675]","","",""
"sailing-trial","413","2233513","0.0-11.0-366.0","","","","false","","","","","","","","","","841.7999999523163","","287.39999985694885","","2","1","arrowright","1","arrowleft","[0.85,0.15,0.325,0.675]","","",""
"sailing-trial","414","2235880","0.0-11.0-367.0","","","","false","","","","","","","","","","null","","770.6000001430511","","2","1","null","null","arrowup","[0.85,0.15,0.325,0.675]","","",""
"sailing-trial","415","2238810","0.0-11.0-368.0","","","","false","","","","","","","","","","587","","17","","2","0","arrowright","1","arrowleft","[0.85,0.15,0.325,0.675]","","",""
"sailing-trial","416","2241638","0.0-11.0-369.0","","","","false","","","","","","","","","","null","","1017.1000001430511","","2","1","null","null","arrowup","[0.85,0.15,0.325,0.675]","","",""
"sailing-trial","417","2245241","0.0-11.0-370.0","","","","false","","","","","","","","","","982.2999999523163","","278.09999990463257","","2","0","arrowright","1","arrowleft","[0.85,0.15,0.325,0.675]","","",""
"sailing-trial","418","2248070","0.0-11.0-371.0","","","","false","","","","","","","","","","null","","762","","2","1","null","null","arrowup","[0.85,0.15,0.325,0.675]","","",""
"sailing-trial","419","2251701","0.0-11.0-372.0","","","","false","","","","","","","","","","653.4000000953674","","280.5","","2","1","arrowright","1","arrowleft","[0.85,0.15,0.325,0.675]","","",""
"sailing-trial","420","2253802","0.0-11.0-373.0","","","","false","","","","","","","","","","null","","942.5","","1","0","null","null","arrowup","[0.85,0.15,0.325,0.675]","","",""
"sailing-trial","421","2257210","0.0-11.0-374.0","","","","false","","","","","","","","","","762.2000000476837","","361.10000014305115","","3","0","arrowright","1","arrowright","[0.85,0.15,0.325,0.675]","","",""
"sailing-trial","422","2259441","0.0-11.0-375.0","","","","false","","","","","","","","","","null","","857.1999998092651","","1","0","null","null","arrowup","[0.85,0.15,0.325,0.675]","","",""
"sailing-trial","423","2262936","0.0-11.0-376.0","","","","false","","","","","","","","","","593.9000000953674","","85.59999990463257","","0","1","arrowleft","0","arrowleft","[0.325,0.675,0.85,0.15]","","",""
"sailing-trial","424","2265826","0.0-11.0-377.0","","","","false","","","","","","","","","","null","","1570.5999999046326","","3","0","null","null","arrowup","[0.325,0.675,0.85,0.15]","","",""
"sailing-trial","425","2269097","0.0-11.0-378.0","","","","false","","","","","","","","","","865.1999998092651","","178.10000014305115","","0","0","arrowleft","0","arrowleft","[0.325,0.675,0.85,0.15]","","",""
"sailing-trial","426","2272360","0.0-11.0-379.0","","","","false","","","","","","","","","","null","","945.7999999523163","","1","1","null","null","arrowup","[0.325,0.675,0.85,0.15]","","",""
"sailing-trial","427","2276746","0.0-11.0-380.0","","","","false","","","","","","","","","","1938.9000000953674","","21.600000143051147","","0","0","arrowleft","0","arrowleft","[0.325,0.675,0.85,0.15]","","",""
"sailing-trial","428","2278824","0.0-11.0-381.0","","","","false","","","","","","","","","","null","","1024.5999999046326","","3","0","null","null","arrowup","[0.325,0.675,0.85,0.15]","","",""
"sailing-trial","429","2281904","0.0-11.0-382.0","","","","false","","","","","","","","","","818.5999999046326","","194.5","","2","0","arrowright","1","arrowleft","[0.325,0.675,0.85,0.15]","","",""
"sailing-trial","430","2286187","0.0-11.0-383.0","","","","false","","","","","","","","","","null","","2627.2000000476837","","1","1","null","null","arrowup","[0.325,0.675,0.85,0.15]","","",""
"sailing-trial","431","2290278","0.0-11.0-384.0","","","","false","","","","","","","","","","655.5999999046326","","616.7000000476837","","1","1","arrowleft","0","arrowright","[0.325,0.675,0.85,0.15]","","",""
"sailing-trial","432","2292736","0.0-11.0-385.0","","","","false","","","","","","","","","","null","","932.2999999523163","","1","1","null","null","arrowup","[0.325,0.675,0.85,0.15]","","",""
"sailing-trial","433","2296232","0.0-11.0-386.0","","","","false","","","","","","","","","","1058","","121.5","","1","0","arrowleft","0","arrowright","[0.325,0.675,0.85,0.15]","","",""
"sailing-trial","434","2299041","0.0-11.0-387.0","","","","false","","","","","","","","","","null","","721.7000000476837","","3","0","null","null","arrowup","[0.325,0.675,0.85,0.15]","","",""
"sailing-trial","435","2302403","0.0-11.0-388.0","","","","false","","","","","","","","","","481.7000000476837","","15.099999904632568","","1","1","arrowleft","0","arrowright","[0.325,0.675,0.85,0.15]","","",""
"sailing-trial","436","2305597","0.0-11.0-389.0","","","","false","","","","","","","","","","null","","1287.3000001907349","","1","1","null","null","arrowup","[0.325,0.675,0.85,0.15]","","",""
"sailing-trial","437","2308833","0.0-11.0-390.0","","","","false","","","","","","","","","","604.7999999523163","","464.7999999523163","","1","0","arrowleft","0","arrowright","[0.325,0.675,0.85,0.15]","","",""
"sailing-trial","438","2311216","0.0-11.0-391.0","","","","false","","","","","","","","","","null","","929.5999999046326","","0","0","null","null","arrowup","[0.325,0.675,0.85,0.15]","","",""
"sailing-trial","439","2314853","0.0-11.0-392.0","","","","false","","","","","","","","","","513.2999999523163","","289","","1","1","arrowleft","0","arrowright","[0.325,0.675,0.85,0.15]","","",""
"sailing-trial","440","2318437","0.0-11.0-393.0","","","","false","","","","","","","","","","null","","1493.7999999523163","","2","1","null","null","arrowup","[0.325,0.675,0.85,0.15]","","",""
"sailing-trial","441","2321360","0.0-11.0-394.0","","","","false","","","","","","","","","","557.5","","72.20000004768372","","1","0","arrowleft","0","arrowright","[0.325,0.675,0.85,0.15]","","",""
"sailing-trial","442","2324888","0.0-11.0-395.0","","","","false","","","","","","","","","","null","","1626.4000000953674","","1","1","null","null","arrowup","[0.325,0.675,0.85,0.15]","","",""
"sailing-trial","443","2327793","0.0-11.0-396.0","","","","false","","","","","","","","","","666","","164.5","","1","0","arrowleft","0","arrowright","[0.325,0.675,0.85,0.15]","","",""
"sailing-trial","444","2330526","0.0-11.0-397.0","","","","false","","","","","","","","","","null","","905.4000000953674","","3","1","null","null","arrowup","[0.325,0.675,0.85,0.15]","","",""
"sailing-trial","445","2334481","0.0-11.0-398.0","","","","false","","","","","","","","","","1195.8999998569489","","431.7000000476837","","1","0","arrowleft","0","arrowright","[0.325,0.675,0.85,0.15]","","",""
"sailing-trial","446","2338229","0.0-11.0-399.0","","","","false","","","","","","","","","","null","","1674.2000000476837","","3","1","null","null","arrowup","[0.325,0.675,0.85,0.15]","","",""
"instructions","447","2343132","0.0-12.0","","","","","","","","","","4902.299999952316","","","","","","","","","","","","","","","","[{""page_index"":0,""viewing_time"":4901.599999904633}]"
"survey-debrief","448","2367045","0.0-13.0","","","","","","","","","","23910.900000095367","","","","","","","","","","","","","","{""difficulty"":""1"",""fun"":""1"",""clarity"":""4"",""strategy"":""yes"",""feedback"":""""}","",""
