"trial_type","trial_index","time_elapsed","internal_node_id","value","metadata","success","timeout","failed_images","failed_audio","failed_video","browser_interaction","low_quality","rt","stimulus","response","button_pressed","island_rt","island_response","boat_rt","boat_response","boat","reward","island_key","island","boat_key","reward_probabilities","responses","num_errors","view_history"
"pavlovia","0","5","0.0-0.0","","","","","","","","","","","","","","","","","","","","","","","","","",""
"call-function","1","5","0.0-1.0","","{""task_version"":""sailing_part1_v1"",""task_condition"":""good"",""boats"":[""C"",""B"",""A"",""D""],""boats_demo"":[""F"",""G"",""H"",""E""],""islands"":[""B"",""A""],""subject_id"":""14533"",""age"":""10"",""gender"":""Male""}","","","","","","","","","","","","","","","","","","","","","","","",""
"preload","2","1716","0.0-2.0","","","true","false","[]","[]","[]","[{""event"":""fullscreenenter"",""trial"":3,""time"":3895}]","false","","","","","","","","","","","","","","","","",""
"fullscreen","3","4843","0.0-3.0","","","true","","","","","","","","","","","","","","","","","","","","","","",""
"audio-keyboard-response","4","6837","0.0-4.0-0.0","","","","","","","","","","1741.3333333333335","audio/beep_loop.wav"," ","","","","","","","","","","","","","",""
"audio-test","5","9901","0.0-4.0-1.0","","","","","","","","","","null","audio/turtle.mp3","","3","","","","","","","","","","","","",""
"audio-test","6","12419","0.0-4.0-2.0","","","","","","","","","","null","audio/shark.mp3","","2","","","","","","","","","","","","",""
"sailing-instructions","7","50701","0.0-5.0-0.0-0.0","","","","","","","","","","","","","","null","null","null","null","null","null","","","","","","",""
"sailing-trial","8","58396","0.0-5.0-0.0-1.0-0.0","","","","false","","","","","","","","","","6456","","null","","null","null","arrowleft","0","null","null","","",""
"sailing-trial","9","61354","0.0-5.0-0.0-1.0-1.0","","","","false","","","","","","","","","","1850.1000000238419","","null","","null","null","arrowright","1","null","null","","",""
"sailing-trial","10","65183","0.0-5.0-0.0-1.0-2.0","","","","false","","","","","","","","","","2698.199999988079","","null","","null","null","arrowleft","0","null","null","","",""
"sailing-instructions","11","114482","0.0-5.0-0.0-2.0","","","","","","","","","","","","","","null","null","null","null","0","null","","","","","","",""
"sailing-trial","12","127059","0.0-5.0-0.0-3.0-0.0","","","","false","","","","","","","","","","null","","6817","","2","1","null","null","arrowleft","[1,1,1,1]","","",""
"sailing-trial","13","132280","0.0-5.0-0.0-3.0-1.0","","","","false","","","","","","","","","","null","","1557.1000000238419","","3","1","null","null","arrowright","[1,1,1,1]","","",""
"sailing-trial","14","137846","0.0-5.0-0.0-3.0-2.0","","","","false","","","","","","","","","","null","","2488.699999988079","","3","0","null","null","arrowright","[0,0,0,0]","","",""
"sailing-instructions","15","145649","0.0-5.0-0.0-4.0","","","","","","","","","","","","","","null","null","null","null","null","null","","","","","","",""
"sailing-comprehension","16","190239","0.0-5.0-0.0-5.0","","","","","","","","","","38760.89999997616","","","","","","","","","","","","","","[""true"",""true"",""false"",""true""]","0",""
"sailing-instructions","17","262255","0.0-6.0-0.0-0.0","","","","","","","","","","","","","","null","null","null","null","null","null","","","","","","",""
"sailing-comprehension","18","297362","0.0-6.0-0.0-1.0","","","","","","","","","","21077","","","","","","","","","","","","","","[""true"",""false"",""true""]","0",""
"sailing-instructions","19","312557","0.0-7.0-0.0-0.0","","","","","","","","","","","","","","null","null","null","null","null","null","","","","","","",""
"sailing-trial","20","321220","0.0-7.0-0.0-1.0-0.0","","","","false","","","","","","","","","","null","","5948.300000011921","","0","1","null","null","arrowup","[0.2,0.8,0.2,0.8]","","",""
"sailing-trial","21","328786","0.0-7.0-0.0-1.0-1.0","","","","false","","","","","","","","","","null","","4412.799999952316","","1","1","null","null","arrowup","[0.2,0.8,0.2,0.8]","","",""
"sailing-trial","22","333203","0.0-7.0-0.0-1.0-2.0","","","","false","","","","","","","","","","null","","2149.400000035763","","2","1","null","null","arrowup","[0.2,0.8,0.2,0.8]","","",""
"sailing-trial","23","336682","0.0-7.0-0.0-1.0-3.0","","","","false","","","","","","","","","","null","","1585.7999999523163","","3","0","null","null","arrowup","[0.2,0.8,0.2,0.8]","","",""
"sailing-comprehension","24","359721","0.0-7.0-0.0-2.0","","","","","","","","","","16437.80000001192","","","","","","","","","","","","","","[""false""]","0",""
"sailing-instructions","25","372322","0.0-8.0-0.0-0.0","","","","","","","","","","","","","","null","null","null","null","null","null","","","","","","",""
"sailing-comprehension","26","383414","0.0-8.0-0.0-1.0","","","","","","","","","","3680.2999999523163","","","","","","","","","","","","","","[""true""]","0",""
"sailing-instructions","27","406555","0.0-9.0-0.0-0.0","","","","","","","","","","","","","","null","null","null","null","null","null","","","","","","",""
"sailing-trial","28","414785","0.0-9.0-0.0-1.0-0.0","","","","false","","","","","","","","","","1061.699999988079","","3109.899999976158","","2","0","arrowright","1","arrowleft","[0.2,0.8,0.2,0.8]","","",""
"sailing-trial","29","420191","0.0-9.0-0.0-1.0-1.0","","","","false","","","","","","","","","","1982.8999999761581","","363.5","","1","1","arrowleft","0","arrowright","[0.2,0.8,0.2,0.8]","","",""
"sailing-trial","30","424646","0.0-9.0-0.0-1.0-2.0","","","","false","","","","","","","","","","null","","2627.900000035763","","0","0","null","null","arrowup","[0.2,0.8,0.2,0.8]","","",""
"sailing-trial","31","430530","0.0-9.0-0.0-1.0-3.0","","","","false","","","","","","","","","","2033","","1210.2999999523163","","2","0","arrowright","1","arrowleft","[0.2,0.8,0.2,0.8]","","",""
"sailing-trial","32","434354","0.0-9.0-0.0-1.0-4.0","","","","false","","","","","","","","","","null","","1909.0999999642372","","3","1","null","null","arrowup","[0.2,0.8,0.2,0.8]","","",""
"sailing-trial","33","439918","0.0-9.0-0.0-1.0-5.0","","","","false","","","","","","","","","","1357.8999999761581","","1339.0999999642372","","1","0","arrowleft","0","arrowright","[0.2,0.8,0.2,0.8]","","",""
"sailing-instructions","34","466508","0.0-10.0","","","","","","","","","","","","","","null","null","null","null","null","null","","","","","","",""
"sailing-trial","35","472051","0.0-11.0-0.0","","","","false","","","","","","","","","","1643","","871.5","","2","0","arrowright","1","arrowleft","[0.325,0.675,0.15,0.85]","","",""
"sailing-trial","36","475572","0.0-11.0-1.0","","","","false","","","","","","","","","","null","","2045.1000000238419","","2","0","null","null","arrowup","[0.325,0.675,0.15,0.85]","","",""
"sailing-trial","37","479999","0.0-11.0-2.0","","","","false","","","","","","","","","","1281","","141.80000001192093","","1","1","arrowleft","0","arrowright","[0.325,0.675,0.15,0.85]","","",""
"sailing-trial","38","483787","0.0-11.0-3.0","","","","false","","","","","","","","","","null","","1563.6000000238419","","3","1","null","null","arrowup","[0.325,0.675,0.15,0.85]","","",""
"sailing-trial","39","488358","0.0-11.0-4.0","","","","false","","","","","","","","","","1094.8999999761581","","510.5","","3","1","arrowright","1","arrowright","[0.325,0.675,0.15,0.85]","","",""
"sailing-trial","40","491405","0.0-11.0-5.0","","","","false","","","","","","","","","","null","","1142.800000011921","","3","1","null","null","arrowup","[0.325,0.675,0.15,0.85]","","",""
"sailing-trial","41","495035","0.0-11.0-6.0","","","","false","","","","","","","","","","672.8999999761581","","353.60000002384186","","0","0","arrowleft","0","arrowleft","[0.325,0.675,0.15,0.85]","","",""
"sailing-trial","42","497919","0.0-11.0-7.0","","","","false","","","","","","","","","","null","","1301.7000000476837","","0","0","null","null","arrowup","[0.325,0.675,0.15,0.85]","","",""
"sailing-trial","43","502611","0.0-11.0-8.0","","","","false","","","","","","","","","","1169.0999999642372","","487","","1","1","arrowleft","0","arrowright","[0.325,0.675,0.15,0.85]","","",""
"sailing-trial","44","505157","0.0-11.0-9.0","","","","false","","","","","","","","","","null","","1035.1000000238419","","0","0","null","null","arrowup","[0.325,0.675,0.15,0.85]","","",""
"sailing-trial","45","508656","0.0-11.0-10.0","","","","false","","","","","","","","","","677.5","","287.30000001192093","","2","0","arrowright","1","arrowleft","[0.325,0.675,0.15,0.85]","","",""
"sailing-trial","46","511657","0.0-11.0-11.0","","","","false","","","","","","","","","","null","","1139.199999988079","","3","1","null","null","arrowup","[0.325,0.675,0.15,0.85]","","",""
"sailing-trial","47","515419","0.0-11.0-12.0","","","","false","","","","","","","","","","513.5","","299.89999997615814","","1","1","arrowleft","0","arrowright","[0.325,0.675,0.15,0.85]","","",""
"sailing-trial","48","517958","0.0-11.0-13.0","","","","false","","","","","","","","","","null","","1147.5","","2","0","null","null","arrowup","[0.325,0.675,0.15,0.85]","","",""
"sailing-trial","49","522504","0.0-11.0-14.0","","","","false","","","","","","","","","","707.1000000238419","","928.3000000119209","","3","1","arrowright","1","arrowright","[0.325,0.675,0.15,0.85]","","",""
"sailing-trial","50","525537","0.0-11.0-15.0","","","","false","","","","","","","","","","null","","1159.699999988079","","0","1","null","null","arrowup","[0.325,0.675,0.15,0.85]","","",""
"sailing-trial","51","529285","0.0-11.0-16.0","","","","false","","","","","","","","","","466.39999997615814","","514.8000000119209","","1","0","arrowleft","0","arrowright","[0.15,0.85,0.325,0.675]","","",""
"sailing-trial","52","533193","0.0-11.0-17.0","","","","false","","","","","","","","","","null","","1113.800000011921","","2","1","null","null","arrowup","[0.15,0.85,0.325,0.675]","","",""
"sailing-trial","53","537284","0.0-11.0-18.0","","","","false","","","","","","","","","","789.4000000357628","","694.6999999880791","","2","0","arrowright","1","arrowleft","[0.15,0.85,0.325,0.675]","","",""
"sailing-trial","54","540318","0.0-11.0-19.0","","","","false","","","","","","","","","","null","","1023.6999999880791","","1","1","null","null","arrowup","[0.15,0.85,0.325,0.675]","","",""
"sailing-trial","55","544794","0.0-11.0-20.0","","","","false","","","","","","","","","","948.2999999523163","","948.1999999880791","","2","0","arrowright","1","arrowleft","[0.15,0.85,0.325,0.675]","","",""
"sailing-trial","56","547646","0.0-11.0-21.0","","","","false","","","","","","","","","","null","","1341.0999999642372","","2","0","null","null","arrowup","[0.15,0.85,0.325,0.675]","","",""
"sailing-trial","57","551273","0.0-11.0-22.0","","","","false","","","","","","","","","","585.0999999642372","","129.5","","0","1","arrowleft","0","arrowleft","[0.15,0.85,0.325,0.675]","","",""
"sailing-trial","58","554308","0.0-11.0-23.0","","","","false","","","","","","","","","","null","","998","","1","1","null","null","arrowup","[0.15,0.85,0.325,0.675]","","",""
"sailing-trial","59","557892","0.0-11.0-24.0","","","","false","","","","","","","","","","597.1000000238419","","124.30000001192093","","3","1","arrowright","1","arrowright","[0.15,0.85,0.325,0.675]","","",""
"sailing-trial","60","560579","0.0-11.0-25.0","","","","false","","","","","","","","","","null","","1105.0999999642372","","1","0","null","null","arrowup","[0.15,0.85,0.325,0.675]","","",""
"sailing-trial","61","564180","0.0-11.0-26.0","","","","false","","","","","","","","","","769.1000000238419","","415.80000001192093","","0","0","arrowleft","0","arrowleft","[0.15,0.85,0.325,0.675]","","",""
"sailing-trial","62","567079","0.0-11.0-27.0","","","","false","","","","","","","","","","null","","1018.1999999880791","","2","1","null","null","arrowup","[0.15,0.85,0.325,0.675]","","",""
"sailing-trial","63","572455","0.0-11.0-28.0","","","","false","","","","","","","","","","1671","","564.5","","3","1","arrowright","1","arrowright","[0.15,0.85,0.325,0.675]","","",""
"sailing-trial","64","576355","0.0-11.0-29.0","","","","false","","","","","","","","","","null","","1939.1000000238419","","2","1","null","null","arrowup","[0.15,0.85,0.325,0.675]","","",""
"sailing-trial","65","581848","0.0-11.0-30.0","","","","false","","","","","","","","","","1990.800000011921","","537.1999999880791","","0","0","arrowleft","0","arrowleft","[0.15,0.85,0.325,0.675]","","",""
"sailing-trial","66","584344","0.0-11.0-31.0","","","","false","","","","","","","","","","null","","1042.3999999761581","","2","0","null","null","arrowup","[0.15,0.85,0.325,0.675]","","",""
"sailing-trial","67","588436","0.0-11.0-32.0","","","","false","","","","","","","","","","1028.300000011921","","115.20000004768372","","3","1","arrowright","1","arrowright","[0.15,0.85,0.325,0.675]","","",""
"sailing-trial","68","591153","0.0-11.0-33.0","","","","false","","","","","","","","","","null","","1186.4000000357628","","3","0","null","null","arrowup","[0.15,0.85,0.325,0.675]","","",""
"sailing-trial","69","595129","0.0-11.0-34.0","","","","false","","","","","","","","","","629.9000000357628","","433.10000002384186","","1","1","arrowleft","0","arrowright","[0.675,0.325,0.85,0.15]","","",""
"sailing-trial","70","597691","0.0-11.0-35.0","","","","false","","","","","","","","","","null","","1020.1999999880791","","0","0","null","null","arrowup","[0.675,0.325,0.85,0.15]","","",""
"sailing-trial","71","601869","0.0-11.0-36.0","","","","false","","","","","","","","","","770","","354.80000001192093","","3","0","arrowright","1","arrowright","[0.675,0.325,0.85,0.15]","","",""
"sailing-trial","72","605506","0.0-11.0-37.0","","","","false","","","","","","","","","","null","","1172.5","","0","1","null","null","arrowup","[0.675,0.325,0.85,0.15]","","",""
"sailing-trial","73","609111","0.0-11.0-38.0","","","","false","","","","","","","","","","925.5","","136.89999997615814","","2","0","arrowright","1","arrowleft","[0.675,0.325,0.85,0.15]","","",""
"sailing-trial","74","613405","0.0-11.0-39.0","","","","false","","","","","","","","","","null","","1921.5999999642372","","3","0","null","null","arrowup","[0.675,0.325,0.85,0.15]","","",""
"sailing-trial","75","618552","0.0-11.0-40.0","","","","false","","","","","","","","","","1835.7000000476837","","299","","0","1","arrowleft","0","arrowleft","[0.675,0.325,0.85,0.15]","","",""
"sailing-trial","76","621706","0.0-11.0-41.0","","","","false","","","","","","","","","","null","","1266.0999999642372","","0","1","null","null","arrowup","[0.675,0.325,0.85,0.15]","","",""
"sailing-trial","77","625792","0.0-11.0-42.0","","","","false","","","","","","","","","","791","","387.69999998807907","","3","0","arrowright","1","arrowright","[0.675,0.325,0.85,0.15]","","",""
"sailing-trial","78","628735","0.0-11.0-43.0","","","","false","","","","","","","","","","null","","1181.5999999642372","","1","0","null","null","arrowup","[0.675,0.325,0.85,0.15]","","",""
"sailing-trial","79","633220","0.0-11.0-44.0","","","","false","","","","","","","","","","1225.7999999523163","","252.5","","0","1","arrowleft","0","arrowleft","[0.675,0.325,0.85,0.15]","","",""
"sailing-trial","80","636361","0.0-11.0-45.0","","","","false","","","","","","","","","","null","","1536.800000011921","","1","0","null","null","arrowup","[0.675,0.325,0.85,0.15]","","",""
"sailing-trial","81","640173","0.0-11.0-46.0","","","","false","","","","","","","","","","742.3999999761581","","122.80000001192093","","2","1","arrowright","1","arrowleft","[0.675,0.325,0.85,0.15]","","",""
"sailing-trial","82","642544","0.0-11.0-47.0","","","","false","","","","","","","","","","null","","934.8999999761581","","0","0","null","null","arrowup","[0.675,0.325,0.85,0.15]","","",""
"sailing-trial","83","647598","0.0-11.0-48.0","","","","false","","","","","","","","","","1502.199999988079","","374.10000002384186","","1","1","arrowleft","0","arrowright","[0.675,0.325,0.85,0.15]","","",""
"sailing-trial","84","650522","0.0-11.0-49.0","","","","false","","","","","","","","","","null","","1012.1000000238419","","2","1","null","null","arrowup","[0.675,0.325,0.85,0.15]","","",""
"sailing-trial","85","654490","0.0-11.0-50.0","","","","false","","","","","","","","","","682.1999999880791","","116.09999996423721","","2","1","arrowright","1","arrowleft","[0.15,0.85,0.325,0.675]","","",""
"sailing-trial","86","657789","0.0-11.0-51.0","","","","false","","","","","","","","","","null","","1135","","3","1","null","null","arrowup","[0.15,0.85,0.325,0.675]","","",""
"sailing-trial","87","662208","0.0-11.0-52.0","","","","false","","","","","","","","","","570.0999999642372","","671.6000000238419","","1","1","arrowleft","0","arrowright","[0.15,0.85,0.325,0.675]","","",""
"sailing-trial","88","666340","0.0-11.0-53.0","","","","false","","","","","","","","","","null","","1867.7000000476837","","2","1","null","null","arrowup","[0.15,0.85,0.325,0.675]","","",""
"sailing-trial","89","669724","0.0-11.0-54.0","","","","false","","","","","","","","","","662.8000000119209","","114.19999998807907","","2","0","arrowright","1","arrowleft","[0.15,0.85,0.325,0.675]","","",""
"sailing-trial","90","672286","0.0-11.0-55.0","","","","false","","","","","","","","","","null","","987.1999999880791","","0","0","null","null","arrowup","[0.15,0.85,0.325,0.675]","","",""
"sailing-trial","91","676856","0.0-11.0-56.0","","","","false","","","","","","","","","","1080.6000000238419","","409.2000000476837","","0","1","arrowleft","0","arrowleft","[0.15,0.85,0.325,0.675]","","",""
"sailing-trial","92","680047","0.0-11.0-57.0","","","","false","","","","","","","","","","null","","1082","","3","1","null","null","arrowup","[0.15,0.85,0.325,0.675]","","",""
"sailing-trial","93","684773","0.0-11.0-58.0","","","","false","","","","","","","","","","799.0999999642372","","475.4000000357628","","3","1","arrowright","1","arrowright","[0.15,0.85,0.325,0.675]","","",""
"sailing-trial","94","688470","0.0-11.0-59.0","","","","false","","","","","","","","","","null","","1825.4000000357628","","1","1","null","null","arrowup","[0.15,0.85,0.325,0.675]","","",""
"sailing-trial","95","692376","0.0-11.0-60.0","","","","false","","","","","","","","","","833.7999999523163","","518.5","","0","0","arrowleft","0","arrowleft","[0.15,0.85,0.325,0.675]","","",""
"sailing-trial","96","695707","0.0-11.0-61.0","","","","false","","","","","","","","","","null","","985","","3","1","null","null","arrowup","[0.15,0.85,0.325,0.675]","","",""
"sailing-trial","97","699070","0.0-11.0-62.0","","","","false","","","","","","","","","","709.6000000238419","","464.5999999642372","","2","0","arrowright","1","arrowleft","[0.15,0.85,0.325,0.675]","","",""
"sailing-trial","98","702820","0.0-11.0-63.0","","","","false","","","","","","","","","","null","","1911.1000000238419","","1","1","null","null","arrowup","[0.15,0.85,0.325,0.675]","","",""
"sailing-trial","99","707043","0.0-11.0-64.0","","","","false","","","","","","","","","","797.3000000119209","","161.10000002384186","","1","1","arrowleft","0","arrowright","[0.15,0.85,0.325,0.675]","","",""
"sailing-trial","100","709738","0.0-11.0-65.0","","","","false","","","","","","","","","","null","","963.3000000119209","","3","1","null","null","arrowup","[0.15,0.85,0.325,0.675]","","",""
"sailing-trial","101","713540","0.0-11.0-66.0","","","","false","","","","","","","","","","578.6000000238419","","25.400000035762787","","3","1","arrowright","1","arrowright","[0.325,0.675,0.15,0.85]","","",""
"sailing-trial","102","716640","0.0-11.0-67.0","","","","false","","","","","","","","","","null","","1133.199999988079","","3","1","null","null","arrowup","[0.325,0.675,0.15,0.85]","","",""
"sailing-trial","103","720720","0.0-11.0-68.0","","","","false","","","","","","","","","","670.1999999880791","","401.2000000476837","","3","1","arrowright","1","arrowright","[0.325,0.675,0.15,0.85]","","",""
"sailing-trial","104","723956","0.0-11.0-69.0","","","","false","","","","","","","","","","null","","1103.199999988079","","1","1","null","null","arrowup","[0.325,0.675,0.15,0.85]","","",""
"sailing-trial","105","728797","0.0-11.0-70.0","","","","false","","","","","","","","","","1660","","203.69999998807907","","1","1","arrowleft","0","arrowright","[0.325,0.675,0.15,0.85]","","",""
"sailing-trial","106","731834","0.0-11.0-71.0","","","","false","","","","","","","","","","null","","955.3000000119209","","3","1","null","null","arrowup","[0.325,0.675,0.15,0.85]","","",""
"sailing-trial","107","736359","0.0-11.0-72.0","","","","false","","","","","","","","","","528.3999999761581","","911.1000000238419","","3","1","arrowright","1","arrowright","[0.325,0.675,0.15,0.85]","","",""
"sailing-trial","108","739453","0.0-11.0-73.0","","","","false","","","","","","","","","","null","","977.6000000238419","","2","0","null","null","arrowup","[0.325,0.675,0.15,0.85]","","",""
"sailing-trial","109","743315","0.0-11.0-74.0","","","","false","","","","","","","","","","873.5","","127.80000001192093","","0","0","arrowleft","0","arrowleft","[0.325,0.675,0.15,0.85]","","",""
"sailing-trial","110","746764","0.0-11.0-75.0","","","","false","","","","","","","","","","null","","1566.8999999761581","","0","1","null","null","arrowup","[0.325,0.675,0.15,0.85]","","",""
"sailing-trial","111","750833","0.0-11.0-76.0","","","","false","","","","","","","","","","1227","","296","","1","0","arrowleft","0","arrowright","[0.325,0.675,0.15,0.85]","","",""
"sailing-trial","112","754107","0.0-11.0-77.0","","","","false","","","","","","","","","","null","","1268","","1","1","null","null","arrowup","[0.325,0.675,0.15,0.85]","","",""
"sailing-trial","113","757581","0.0-11.0-78.0","","","","false","","","","","","","","","","580.0999999642372","","359.30000001192093","","2","0","arrowright","1","arrowleft","[0.325,0.675,0.15,0.85]","","",""
"sailing-trial","114","760325","0.0-11.0-79.0","","","","false","","","","","","","","","","null","","871","","3","1","null","null","arrowup","[0.325,0.675,0.15,0.85]","","",""
"sailing-trial","115","764307","0.0-11.0-80.0","","","","false","","","","","","","","","","569.5","","286.19999998807907","","3","1","arrowright","1","arrowright","[0.325,0.675,0.15,0.85]","","",""
"sailing-trial","116","766731","0.0-11.0-81.0","","","","false","","","","","","","","","","null","","926.8999999761581","","1","0","null","null","arrowup","[0.325,0.675,0.15,0.85]","","",""
"sailing-trial","117","771076","0.0-11.0-82.0","","","","false","","","","","","","","","","1278.2000000476837","","214.0999999642372","","0","1","arrowleft","0","arrowleft","[0.325,0.675,0.15,0.85]","","",""
"sailing-trial","118","774527","0.0-11.0-83.0","","","","false","","","","","","","","","","null","","960.6000000238419","","2","1","null","null","arrowup","[0.325,0.675,0.15,0.85]","","",""
"sailing-trial","119","778238","0.0-11.0-84.0","","","","false","","","","","","","","","","551.8999999761581","","394.39999997615814","","2","0","arrowright","1","arrowleft","[0.325,0.675,0.15,0.85]","","",""
"sailing-trial","120","781872","0.0-11.0-85.0","","","","false","","","","","","","","","","null","","1480.1000000238419","","3","1","null","null","arrowup","[0.325,0.675,0.15,0.85]","","",""
"sailing-trial","121","785855","0.0-11.0-86.0","","","","false","","","","","","","","","","796.3000000119209","","129.5","","1","1","arrowleft","0","arrowright","[0.325,0.675,0.15,0.85]","","",""
"sailing-trial","122","789841","0.0-11.0-87.0","","","","false","","","","","","","","","","null","","1481.8999999761581","","1","1","null","null","arrowup","[0.325,0.675,0.15,0.85]","","",""
"sailing-trial","123","794391","0.0-11.0-88.0","","","","false","","","","","","","","","","1203.699999988079","","270.5999999642372","","3","1","arrowright","1","arrowright","[0.15,0.85,0.325,0.675]","","",""
"sailing-trial","124","797550","0.0-11.0-89.0","","","","false","","","","","","","","","","null","","1194.699999988079","","1","1","null","null","arrowup","[0.15,0.85,0.325,0.675]","","",""
"sailing-trial","125","801950","0.0-11.0-90.0","","","","false","","","","","","","","","","1008.6999999880791","","239.4000000357628","","1","1","arrowleft","0","arrowright","[0.15,0.85,0.325,0.675]","","",""
"sailing-trial","126","806022","0.0-11.0-91.0","","","","false","","","","","","","","","","null","","2292.5","","0","0","null","null","arrowup","[0.15,0.85,0.325,0.675]","","",""
"sailing-trial","127","811816","0.0-11.0-92.0","","","","false","","","","","","","","","","1297.9000000357628","","1098.699999988079","","3","1","arrowright","1","arrowright","[0.15,0.85,0.325,0.675]","","",""
"sailing-trial","128","814676","0.0-11.0-93.0","","","","false","","","","","","","","","","null","","1307.7000000476837","","0","0","null","null","arrowup","[0.15,0.85,0.325,0.675]","","",""
"sailing-trial","129","818829","0.0-11.0-94.0","","","","false","","","","","","","","","","970.4000000357628","","154","","1","1","arrowleft","0","arrowright","[0.15,0.85,0.325,0.675]","","",""
"sailing-trial","130","822097","0.0-11.0-95.0","","","","false","","","","","","","","","","null","","1634.300000011921","","2","0","null","null","arrowup","[0.15,0.85,0.325,0.675]","","",""
"sailing-trial","131","826174","0.0-11.0-96.0","","","","false","","","","","","","","","","787.3999999761581","","672.5","","2","0","arrowright","1","arrowleft","[0.15,0.85,0.325,0.675]","","",""
"sailing-trial","132","828796","0.0-11.0-97.0","","","","false","","","","","","","","","","null","","1096.300000011921","","0","0","null","null","arrowup","[0.15,0.85,0.325,0.675]","","",""
"sailing-trial","133","832408","0.0-11.0-98.0","","","","false","","","","","","","","","","433.9000000357628","","264.80000001192093","","3","1","arrowright","1","arrowright","[0.15,0.85,0.325,0.675]","","",""
"sailing-trial","134","835575","0.0-11.0-99.0","","","","false","","","","","","","","","","null","","1132.1000000238419","","3","1","null","null","arrowup","[0.15,0.85,0.325,0.675]","","",""
"sailing-trial","135","838960","0.0-11.0-100.0","","","","false","","","","","","","","","","343.69999998807907","","405.89999997615814","","0","0","arrowleft","0","arrowleft","[0.15,0.85,0.325,0.675]","","",""
"sailing-trial","136","841637","0.0-11.0-101.0","","","","false","","","","","","","","","","null","","986.6999999880791","","1","1","null","null","arrowup","[0.15,0.85,0.325,0.675]","","",""
"sailing-trial","137","845501","0.0-11.0-102.0","","","","false","","","","","","","","","","458","","57.59999996423721","","3","1","arrowright","1","arrowright","[0.15,0.85,0.325,0.675]","","",""
"sailing-trial","138","849719","0.0-11.0-103.0","","","","false","","","","","","","","","","null","","2599.300000011921","","1","1","null","null","arrowup","[0.15,0.85,0.325,0.675]","","",""
"sailing-trial","139","856394","0.0-11.0-104.0","","","","false","","","","","","","","","","2764.5","","286.2000000476837","","3","1","arrowright","1","arrowright","[0.15,0.85,0.325,0.675]","","",""
"sailing-trial","140","859227","0.0-11.0-105.0","","","","false","","","","","","","","","","null","","721.6999999880791","","3","1","null","null","arrowup","[0.15,0.85,0.325,0.675]","","",""
"sailing-trial","141","863233","0.0-11.0-106.0","","","","false","","","","","","","","","","1011.1999999880791","","400.60000002384186","","2","0","arrowright","1","arrowleft","[0.85,0.15,0.675,0.325]","","",""
"sailing-trial","142","865713","0.0-11.0-107.0","","","","false","","","","","","","","","","null","","1015.5","","2","0","null","null","arrowup","[0.85,0.15,0.675,0.325]","","",""
"sailing-trial","143","869227","0.0-11.0-108.0","","","","false","","","","","","","","","","980.5","","124.40000003576279","","3","0","arrowright","1","arrowright","[0.85,0.15,0.675,0.325]","","",""
"sailing-trial","144","872412","0.0-11.0-109.0","","","","false","","","","","","","","","","null","","1075.9000000357628","","0","1","null","null","arrowup","[0.85,0.15,0.675,0.325]","","",""
"sailing-trial","145","876221","0.0-11.0-110.0","","","","false","","","","","","","","","","351.69999998807907","","186.10000002384186","","0","1","arrowleft","0","arrowleft","[0.85,0.15,0.675,0.325]","","",""
"sailing-trial","146","879471","0.0-11.0-111.0","","","","false","","","","","","","","","","null","","1340.5","","0","1","null","null","arrowup","[0.85,0.15,0.675,0.325]","","",""
"sailing-trial","147","883188","0.0-11.0-112.0","","","","false","","","","","","","","","","793.1999999880791","","21.099999964237213","","3","1","arrowright","1","arrowright","[0.85,0.15,0.675,0.325]","","",""
"sailing-trial","148","887187","0.0-11.0-113.0","","","","false","","","","","","","","","","null","","1876.5","","0","1","null","null","arrowup","[0.85,0.15,0.675,0.325]","","",""
"sailing-trial","149","890664","0.0-11.0-114.0","","","","false","","","","","","","","","","843.8999999761581","","3.699999988079071","","1","0","arrowleft","0","arrowright","[0.85,0.15,0.675,0.325]","","",""
"sailing-trial","150","893220","0.0-11.0-115.0","","","","false","","","","","","","","","","null","","1018.1999999880791","","1","0","null","null","arrowup","[0.85,0.15,0.675,0.325]","","",""
"sailing-trial","151","897555","0.0-11.0-116.0","","","","false","","","","","","","","","","891","","428.19999998807907","","2","1","arrowright","1","arrowleft","[0.85,0.15,0.675,0.325]","","",""
"sailing-trial","152","900497","0.0-11.0-117.0","","","","false","","","","","","","","","","null","","826.8999999761581","","3","0","null","null","arrowup","[0.85,0.15,0.675,0.325]","","",""
"sailing-trial","153","904276","0.0-11.0-118.0","","","","false","","","","","","","","","","1138","","77.89999997615814","","2","0","arrowright","1","arrowleft","[0.85,0.15,0.675,0.325]","","",""
"sailing-trial","154","907171","0.0-11.0-119.0","","","","false","","","","","","","","","","null","","1041.300000011921","","0","0","null","null","arrowup","[0.85,0.15,0.675,0.325]","","",""
"sailing-trial","155","910889","0.0-11.0-120.0","","","","false","","","","","","","","","","540.4000000357628","","414.30000001192093","","3","0","arrowright","1","arrowright","[0.85,0.15,0.675,0.325]","","",""
"sailing-trial","156","915419","0.0-11.0-121.0","","","","false","","","","","","","","","","null","","1477.2000000476837","","1","0","null","null","arrowup","[0.85,0.15,0.675,0.325]","","",""
"sailing-trial","157","919957","0.0-11.0-122.0","","","","false","","","","","","","","","","816.6999999880791","","432.9000000357628","","0","1","arrowleft","0","arrowleft","[0.325,0.675,0.15,0.85]","","",""
"sailing-trial","158","923182","0.0-11.0-123.0","","","","false","","","","","","","","","","null","","1332.300000011921","","1","1","null","null","arrowup","[0.325,0.675,0.15,0.85]","","",""
"sailing-trial","159","927560","0.0-11.0-124.0","","","","false","","","","","","","","","","966","","411.4000000357628","","2","1","arrowright","1","arrowleft","[0.325,0.675,0.15,0.85]","","",""
"sailing-trial","160","929868","0.0-11.0-125.0","","","","false","","","","","","","","","","null","","1034.699999988079","","2","0","null","null","arrowup","[0.325,0.675,0.15,0.85]","","",""
"sailing-trial","161","933674","0.0-11.0-126.0","","","","false","","","","","","","","","","506.60000002384186","","350.69999998807907","","1","1","arrowleft","0","arrowright","[0.325,0.675,0.15,0.85]","","",""
"sailing-trial","162","936518","0.0-11.0-127.0","","","","false","","","","","","","","","","null","","972.6000000238419","","2","0","null","null","arrowup","[0.325,0.675,0.15,0.85]","","",""
"sailing-trial","163","941132","0.0-11.0-128.0","","","","false","","","","","","","","","","859.1999999880791","","597.7000000476837","","3","1","arrowright","1","arrowright","[0.325,0.675,0.15,0.85]","","",""
"sailing-trial","164","945516","0.0-11.0-129.0","","","","false","","","","","","","","","","null","","1969.5","","3","1","null","null","arrowup","[0.325,0.675,0.15,0.85]","","",""
"sailing-trial","165","950382","0.0-11.0-130.0","","","","false","","","","","","","","","","1119.199999988079","","600.8999999761581","","1","0","arrowleft","0","arrowright","[0.325,0.675,0.15,0.85]","","",""
"sailing-trial","166","955399","0.0-11.0-131.0","","","","false","","","","","","","","","","null","","3221.100000023842","","2","0","null","null","arrowup","[0.325,0.675,0.15,0.85]","","",""
"sailing-trial","167","959377","0.0-11.0-132.0","","","","false","","","","","","","","","","891","","372.5","","1","1","arrowleft","0","arrowright","[0.325,0.675,0.15,0.85]","","",""
"sailing-trial","168","961359","0.0-11.0-133.0","","","","false","","","","","","","","","","null","","877.3999999761581","","2","0","null","null","arrowup","[0.325,0.675,0.15,0.85]","","",""
"sailing-trial","169","964826","0.0-11.0-134.0","","","","false","","","","","","","","","","441.7000000476837","","122.19999998807907","","3","1","arrowright","1","arrowright","[0.325,0.675,0.15,0.85]","","",""
"sailing-trial","170","966479","0.0-11.0-135.0","","","","false","","","","","","","","","","null","","503.80000001192093","","1","0","null","null","arrowup","[0.325,0.675,0.15,0.85]","","",""
"sailing-trial","171","971043","0.0-11.0-136.0","","","","false","","","","","","","","","","1028.9000000357628","","74.60000002384186","","2","1","arrowright","1","arrowleft","[0.325,0.675,0.15,0.85]","","",""
"sailing-trial","172","973730","0.0-11.0-137.0","","","","false","","","","","","","","","","null","","1154.800000011921","","0","0","null","null","arrowup","[0.325,0.675,0.15,0.85]","","",""
"sailing-trial","173","978067","0.0-11.0-138.0","","","","false","","","","","","","","","","835.5","","362.39999997615814","","0","1","arrowleft","0","arrowleft","[0.325,0.675,0.15,0.85]","","",""
"sailing-trial","174","981674","0.0-11.0-139.0","","","","false","","","","","","","","","","null","","1239.800000011921","","1","1","null","null","arrowup","[0.325,0.675,0.15,0.85]","","",""
"sailing-trial","175","984300","0.0-11.0-140.0","","","","false","","","","","","","","","","30","","44.89999997615814","","1","0","arrowleft","0","arrowright","[0.15,0.85,0.325,0.675]","","",""
"sailing-trial","176","987602","0.0-11.0-141.0","","","","false","","","","","","","","","","null","","1286.8999999761581","","3","1","null","null","arrowup","[0.15,0.85,0.325,0.675]","","",""
"sailing-trial","177","991339","0.0-11.0-142.0","","","","false","","","","","","","","","","810.0999999642372","","39.39999997615814","","3","1","arrowright","1","arrowright","[0.15,0.85,0.325,0.675]","","",""
"sailing-trial","178","995169","0.0-11.0-143.0","","","","false","","","","","","","","","","null","","1390.0999999642372","","0","0","null","null","arrowup","[0.15,0.85,0.325,0.675]","","",""
"sailing-trial","179","1001517","0.0-11.0-144.0","","","","false","","","","","","","","","","1059.7999999523163","","216.5","","1","1","arrowleft","0","arrowright","[0.15,0.85,0.325,0.675]","","",""
"sailing-trial","180","1005084","0.0-11.0-145.0","","","","false","","","","","","","","","","null","","1558","","2","0","null","null","arrowup","[0.15,0.85,0.325,0.675]","","",""
"sailing-trial","181","1009592","0.0-11.0-146.0","","","","false","","","","","","","","","","822.5","","269.60000002384186","","3","1","arrowright","1","arrowright","[0.15,0.85,0.325,0.675]","","",""
"sailing-trial","182","1013659","0.0-11.0-147.0","","","","false","","","","","","","","","","null","","1494.5","","1","1","null","null","arrowup","[0.15,0.85,0.325,0.675]","","",""
"sailing-trial","183","1020918","0.0-11.0-148.0","","","","false","","","","","","","","","","2858.400000035763","","1279.699999988079","","0","0","arrowleft","0","arrowleft","[0.15,0.85,0.325,0.675]","","",""
"sailing-trial","184","1023524","0.0-11.0-149.0","","","","false","","","","","","","","","","null","","1165.1000000238419","","3","0","null","null","arrowup","[0.15,0.85,0.325,0.675]","","",""
"sailing-trial","185","1027561","0.0-11.0-150.0","","","","false","","","","","","","","","","808.7000000476837","","208.4000000357628","","3","1","arrowright","1","arrowright","[0.15,0.85,0.325,0.675]","","",""
"sailing-trial","186","1031570","0.0-11.0-151.0","","","","false","","","","","","","","","","null","","1157","","3","1","null","null","arrowup","[0.15,0.85,0.325,0.675]","","",""
"sailing-trial","187","1036123","0.0-11.0-152.0","","","","false","","","","","","","","","","1602","","32.299999952316284","","1","0","arrowleft","0","arrowright","[0.15,0.85,0.325,0.675]","","",""
"sailing-trial","188","1038487","0.0-11.0-153.0","","","","false","","","","","","","","","","null","","818.1000000238419","","2","0","null","null","arrowup","[0.15,0.85,0.325,0.675]","","",""
"sailing-trial","189","1041851","0.0-11.0-154.0","","","","false","","","","","","","","","","711.3000000119209","","96.69999998807907","","0","0","arrowleft","0","arrowleft","[0.15,0.85,0.325,0.675]","","",""
"sailing-trial","190","1044071","0.0-11.0-155.0","","","","false","","","","","","","","","","null","","884.6999999880791","","2","0","null","null","arrowup","[0.15,0.85,0.325,0.675]","","",""
"sailing-trial","191","1047876","0.0-11.0-156.0","","","","false","","","","","","","","","","414.4000000357628","","277.0999999642372","","3","1","arrowright","1","arrowright","[0.15,0.85,0.325,0.675]","","",""
"sailing-trial","192","1050144","0.0-11.0-157.0","","","","false","","","","","","","","","","null","","365.5","","1","1","null","null","arrowup","[0.15,0.85,0.325,0.675]","","",""
"sailing-trial","193","1053653","0.0-11.0-158.0","","","","false","","","","","","","","","","801","","86","","2","0","arrowright","1","arrowleft","[0.325,0.675,0.15,0.85]","","",""
"sailing-trial","194","1056531","0.0-11.0-159.0","","","","false","","","","","","","","","","null","","956.4000000357628","","3","1","null","null","arrowup","[0.325,0.675,0.15,0.85]","","",""
"sailing-trial","195","1060251","0.0-11.0-160.0","","","","false","","","","","","","","","","626.8000000119209","","336.0999999642372","","0","0","arrowleft","0","arrowleft","[0.325,0.675,0.15,0.85]","","",""
"sailing-trial","196","1062889","0.0-11.0-161.0","","","","false","","","","","","","","","","null","","1161.6000000238419","","2","0","null","null","arrowup","[0.325,0.675,0.15,0.85]","","",""
"sailing-trial","197","1067393","0.0-11.0-162.0","","","","false","","","","","","","","","","777.3999999761581","","19.899999976158142","","3","1","arrowright","1","arrowright","[0.325,0.675,0.15,0.85]","","",""
"sailing-trial","198","1070891","0.0-11.0-163.0","","","","false","","","","","","","","","","null","","1469.800000011921","","0","0","null","null","arrowup","[0.325,0.675,0.15,0.85]","","",""
"sailing-trial","199","1076608","0.0-11.0-164.0","","","","false","","","","","","","","","","1869.6000000238419","","895.6999999880791","","0","1","arrowleft","0","arrowleft","[0.325,0.675,0.15,0.85]","","",""
"sailing-trial","200","1079549","0.0-11.0-165.0","","","","false","","","","","","","","","","null","","1337.300000011921","","2","0","null","null","arrowup","[0.325,0.675,0.15,0.85]","","",""
"sailing-trial","201","1084014","0.0-11.0-166.0","","","","false","","","","","","","","","","684.6000000238419","","69.69999998807907","","3","1","arrowright","1","arrowright","[0.325,0.675,0.15,0.85]","","",""
"sailing-trial","202","1087533","0.0-11.0-167.0","","","","false","","","","","","","","","","null","","1760.8999999761581","","1","1","null","null","arrowup","[0.325,0.675,0.15,0.85]","","",""
"sailing-trial","203","1091996","0.0-11.0-168.0","","","","false","","","","","","","","","","1554.199999988079","","55.30000001192093","","1","1","arrowleft","0","arrowright","[0.325,0.675,0.15,0.85]","","",""
"sailing-trial","204","1094722","0.0-11.0-169.0","","","","false","","","","","","","","","","null","","965.9000000357628","","2","0","null","null","arrowup","[0.325,0.675,0.15,0.85]","","",""
"sailing-trial","205","1098792","0.0-11.0-170.0","","","","false","","","","","","","","","","777.7999999523163","","64.69999998807907","","0","1","arrowleft","0","arrowleft","[0.325,0.675,0.15,0.85]","","",""
"sailing-trial","206","1102480","0.0-11.0-171.0","","","","false","","","","","","","","","","null","","1622","","1","1","null","null","arrowup","[0.325,0.675,0.15,0.85]","","",""
"sailing-trial","207","1105961","0.0-11.0-172.0","","","","false","","","","","","","","","","417.60000002384186","","309.69999998807907","","2","0","arrowright","1","arrowleft","[0.325,0.675,0.15,0.85]","","",""
"sailing-trial","208","1108804","0.0-11.0-173.0","","","","false","","","","","","","","","","null","","1048.3999999761581","","3","1","null","null","arrowup","[0.325,0.675,0.15,0.85]","","",""
"sailing-trial","209","1112598","0.0-11.0-174.0","","","","false","","","","","","","","","","473","","470.2999999523163","","3","1","arrowright","1","arrowright","[0.15,0.85,0.325,0.675]","","",""
"sailing-trial","210","1115228","0.0-11.0-175.0","","","","false","","","","","","","","","","null","","1014.1999999880791","","2","0","null","null","arrowup","[0.15,0.85,0.325,0.675]","","",""
"sailing-trial","211","1119128","0.0-11.0-176.0","","","","false","","","","","","","","","","439.0999999642372","","542","","0","1","arrowleft","0","arrowleft","[0.15,0.85,0.325,0.675]","","",""
"sailing-trial","212","1121769","0.0-11.0-177.0","","","","false","","","","","","","","","","null","","893.1999999880791","","1","0","null","null","arrowup","[0.15,0.85,0.325,0.675]","","",""
"sailing-trial","213","1125861","0.0-11.0-178.0","","","","false","","","","","","","","","","576.8000000119209","","3.5","","2","1","arrowright","1","arrowleft","[0.15,0.85,0.325,0.675]","","",""
"sailing-trial","214","1128420","0.0-11.0-179.0","","","","false","","","","","","","","","","null","","691","","3","0","null","null","arrowup","[0.15,0.85,0.325,0.675]","","",""
"sailing-trial","215","1132281","0.0-11.0-180.0","","","","false","","","","","","","","","","820.5","","6.100000023841858","","1","1","arrowleft","0","arrowright","[0.15,0.85,0.325,0.675]","","",""
"sailing-trial","216","1136838","0.0-11.0-181.0","","","","false","","","","","","","","","","null","","2893.5","","0","0","null","null","arrowup","[0.15,0.85,0.325,0.675]","","",""
"sailing-trial","217","1140446","0.0-11.0-182.0","","","","false","","","","","","","","","","721.5","","246.5","","1","0","arrowleft","0","arrowright","[0.15,0.85,0.325,0.675]","","",""
"sailing-trial","218","1144337","0.0-11.0-183.0","","","","false","","","","","","","","","","null","","1428.7000000476837","","1","1","null","null","arrowup","[0.15,0.85,0.325,0.675]","","",""
"sailing-trial","219","1150356","0.0-11.0-184.0","","","","false","","","","","","","","","","1759.699999988079","","690.1000000238419","","3","1","arrowright","1","arrowright","[0.15,0.85,0.325,0.675]","","",""
"sailing-trial","220","1156189","0.0-11.0-185.0","","","","false","","","","","","","","","","null","","3242.199999988079","","3","1","null","null","arrowup","[0.15,0.85,0.325,0.675]","","",""
"sailing-trial","221","1161190","0.0-11.0-186.0","","","","false","","","","","","","","","","918.1000000238419","","442.69999998807907","","1","1","arrowleft","0","arrowright","[0.15,0.85,0.325,0.675]","","",""
"sailing-trial","222","1165264","0.0-11.0-187.0","","","","false","","","","","","","","","","null","","1798.300000011921","","2","0","null","null","arrowup","[0.15,0.85,0.325,0.675]","","",""
"sailing-trial","223","1169266","0.0-11.0-188.0","","","","false","","","","","","","","","","855.5999999642372","","353.5","","2","0","arrowright","1","arrowleft","[0.15,0.85,0.325,0.675]","","",""
"sailing-trial","224","1172043","0.0-11.0-189.0","","","","false","","","","","","","","","","null","","1072.5999999642372","","2","1","null","null","arrowup","[0.15,0.85,0.325,0.675]","","",""
"sailing-trial","225","1175163","0.0-11.0-190.0","","","","false","","","","","","","","","","282.5999999642372","","259","","3","0","arrowright","1","arrowright","[0.15,0.85,0.325,0.675]","","",""
"sailing-trial","226","1178840","0.0-11.0-191.0","","","","false","","","","","","","","","","null","","1089.5999999642372","","1","1","null","null","arrowup","[0.15,0.85,0.325,0.675]","","",""
"sailing-trial","227","1183942","0.0-11.0-192.0","","","","false","","","","","","","","","","1003.4000000357628","","7.399999976158142","","1","1","arrowleft","0","arrowright","[0.325,0.675,0.15,0.85]","","",""
"sailing-trial","228","1186786","0.0-11.0-193.0","","","","false","","","","","","","","","","null","","1037.5","","2","0","null","null","arrowup","[0.325,0.675,0.15,0.85]","","",""
"sailing-trial","229","1194017","0.0-11.0-194.0","","","","false","","","","","","","","","","1656.199999988079","","2330","","3","1","arrowright","1","arrowright","[0.325,0.675,0.15,0.85]","","",""
"sailing-trial","230","1197806","0.0-11.0-195.0","","","","false","","","","","","","","","","null","","1635.5","","0","0","null","null","arrowup","[0.325,0.675,0.15,0.85]","","",""
"sailing-trial","231","1204434","0.0-11.0-196.0","","","","false","","","","","","","","","","2138.300000011921","","1636","","0","0","arrowleft","0","arrowleft","[0.325,0.675,0.15,0.85]","","",""
"sailing-trial","232","1210407","0.0-11.0-197.0","","","","false","","","","","","","","","","null","","2959.300000011921","","2","0","null","null","arrowup","[0.325,0.675,0.15,0.85]","","",""
"sailing-trial","233","1217509","0.0-11.0-198.0","","","","false","","","","","","","","","","1607.3999999761581","","1652.6000000238419","","2","1","arrowright","1","arrowleft","[0.325,0.675,0.15,0.85]","","",""
"sailing-trial","234","1223311","0.0-11.0-199.0","","","","false","","","","","","","","","","null","","3387.800000011921","","3","1","null","null","arrowup","[0.325,0.675,0.15,0.85]","","",""
"sailing-trial","235","1228759","0.0-11.0-200.0","","","","false","","","","","","","","","","1863.8999999761581","","382.39999997615814","","3","1","arrowright","1","arrowright","[0.325,0.675,0.15,0.85]","","",""
"sailing-trial","236","1231586","0.0-11.0-201.0","","","","false","","","","","","","","","","null","","1035.8999999761581","","1","0","null","null","arrowup","[0.325,0.675,0.15,0.85]","","",""
"sailing-trial","237","1237478","0.0-11.0-202.0","","","","false","","","","","","","","","","1019.0999999642372","","289.30000001192093","","1","1","arrowleft","0","arrowright","[0.325,0.675,0.15,0.85]","","",""
"sailing-trial","238","1242277","0.0-11.0-203.0","","","","false","","","","","","","","","","null","","2322","","3","1","null","null","arrowup","[0.325,0.675,0.15,0.85]","","",""
"sailing-trial","239","1245922","0.0-11.0-204.0","","","","false","","","","","","","","","","568","","303","","0","0","arrowleft","0","arrowleft","[0.325,0.675,0.15,0.85]","","",""
"sailing-trial","240","1248231","0.0-11.0-205.0","","","","false","","","","","","","","","","null","","962.8000000119209","","0","0","null","null","arrowup","[0.325,0.675,0.15,0.85]","","",""
"sailing-trial","241","1252974","0.0-11.0-206.0","","","","false","","","","","","","","","","703.5","","263.10000002384186","","2","0","arrowright","1","arrowleft","[0.325,0.675,0.15,0.85]","","",""
"sailing-trial","242","1256244","0.0-11.0-207.0","","","","false","","","","","","","","","","null","","1212.199999988079","","3","1","null","null","arrowup","[0.325,0.675,0.15,0.85]","","",""
"sailing-trial","243","1260377","0.0-11.0-208.0","","","","false","","","","","","","","","","1114.1000000238419","","74.19999998807907","","1","1","arrowleft","0","arrowright","[0.325,0.675,0.15,0.85]","","",""
"sailing-trial","244","1263027","0.0-11.0-209.0","","","","false","","","","","","","","","","null","","1128.7999999523163","","0","0","null","null","arrowup","[0.325,0.675,0.15,0.85]","","",""
"sailing-trial","245","1267691","0.0-11.0-210.0","","","","false","","","","","","","","","","538.5","","962.9000000357628","","3","1","arrowright","1","arrowright","[0.325,0.675,0.15,0.85]","","",""
"sailing-trial","246","1270587","0.0-11.0-211.0","","","","false","","","","","","","","","","null","","954.8000000119209","","0","1","null","null","arrowup","[0.325,0.675,0.15,0.85]","","",""
"sailing-trial","247","1274021","0.0-11.0-212.0","","","","false","","","","","","","","","","678.4000000357628","","194.80000001192093","","2","0","arrowright","1","arrowleft","[0.15,0.85,0.325,0.675]","","",""
"sailing-trial","248","1277479","0.0-11.0-213.0","","","","false","","","","","","","","","","null","","927.6999999880791","","3","1","null","null","arrowup","[0.15,0.85,0.325,0.675]","","",""
"sailing-trial","249","1280839","0.0-11.0-214.0","","","","false","","","","","","","","","","445.2999999523163","","414.89999997615814","","3","0","arrowright","1","arrowright","[0.15,0.85,0.325,0.675]","","",""
"sailing-trial","250","1283864","0.0-11.0-215.0","","","","false","","","","","","","","","","null","","1195.5","","0","0","null","null","arrowup","[0.15,0.85,0.325,0.675]","","",""
"sailing-trial","251","1290002","0.0-11.0-216.0","","","","false","","","","","","","","","","1302.9000000357628","","1634.3999999761581","","1","1","arrowleft","0","arrowright","[0.15,0.85,0.325,0.675]","","",""
"sailing-trial","252","1295727","0.0-11.0-217.0","","","","false","","","","","","","","","","null","","3063.300000011921","","3","1","null","null","arrowup","[0.15,0.85,0.325,0.675]","","",""
"sailing-trial","253","1301127","0.0-11.0-218.0","","","","false","","","","","","","","","","847.0999999642372","","1071.5999999642372","","3","1","arrowright","1","arrowright","[0.15,0.85,0.325,0.675]","","",""
"sailing-trial","254","1304579","0.0-11.0-219.0","","","","false","","","","","","","","","","null","","865","","2","1","null","null","arrowup","[0.15,0.85,0.325,0.675]","","",""
"sailing-trial","255","1309269","0.0-11.0-220.0","","","","false","","","","","","","","","","588.1999999880791","","578.6000000238419","","2","0","arrowright","1","arrowleft","[0.15,0.85,0.325,0.675]","","",""
"sailing-trial","256","1311805","0.0-11.0-221.0","","","","false","","","","","","","","","","null","","775.3000000119209","","1","1","null","null","arrowup","[0.15,0.85,0.325,0.675]","","",""
"sailing-trial","257","1315560","0.0-11.0-222.0","","","","false","","","","","","","","","","768.6000000238419","","22.80000001192093","","1","0","arrowleft","0","arrowright","[0.15,0.85,0.325,0.675]","","",""
"sailing-trial","258","1319746","0.0-11.0-223.0","","","","false","","","","","","","","","","null","","2923.699999988079","","3","0","null","null","arrowup","[0.15,0.85,0.325,0.675]","","",""
"sailing-trial","259","1323854","0.0-11.0-224.0","","","","false","","","","","","","","","","528.1999999880791","","559","","1","1","arrowleft","0","arrowright","[0.15,0.85,0.325,0.675]","","",""
"sailing-trial","260","1328052","0.0-11.0-225.0","","","","false","","","","","","","","","","null","","2275.800000011921","","2","0","null","null","arrowup","[0.15,0.85,0.325,0.675]","","",""
"sailing-trial","261","1331895","0.0-11.0-226.0","","","","false","","","","","","","","","","803.5","","467.9000000357628","","3","0","arrowright","1","arrowright","[0.15,0.85,0.325,0.675]","","",""
"sailing-trial","262","1334873","0.0-11.0-227.0","","","","false","","","","","","","","","","null","","843","","3","1","null","null","arrowup","[0.15,0.85,0.325,0.675]","","",""
"sailing-trial","263","1338861","0.0-11.0-228.0","","","","false","","","","","","","","","","609.3000000119209","","426.69999998807907","","0","1","arrowleft","0","arrowleft","[0.85,0.15,0.675,0.325]","","",""
"sailing-trial","264","1342694","0.0-11.0-229.0","","","","false","","","","","","","","","","null","","1888.2999999523163","","0","1","null","null","arrowup","[0.85,0.15,0.675,0.325]","","",""
"sailing-trial","265","1346385","0.0-11.0-230.0","","","","false","","","","","","","","","","649.2000000476837","","343.80000001192093","","3","0","arrowright","1","arrowright","[0.85,0.15,0.675,0.325]","","",""
"sailing-trial","266","1350018","0.0-11.0-231.0","","","","false","","","","","","","","","","null","","1245.199999988079","","0","0","null","null","arrowup","[0.85,0.15,0.675,0.325]","","",""
"sailing-trial","267","1355052","0.0-11.0-232.0","","","","false","","","","","","","","","","1056.8999999761581","","1659.1000000238419","","1","0","arrowleft","0","arrowright","[0.85,0.15,0.675,0.325]","","",""
"sailing-trial","268","1357890","0.0-11.0-233.0","","","","false","","","","","","","","","","null","","1067.2999999523163","","2","1","null","null","arrowup","[0.85,0.15,0.675,0.325]","","",""
"sailing-trial","269","1361868","0.0-11.0-234.0","","","","false","","","","","","","","","","558.7000000476837","","210.5","","0","1","arrowleft","0","arrowleft","[0.85,0.15,0.675,0.325]","","",""
"sailing-trial","270","1364216","0.0-11.0-235.0","","","","false","","","","","","","","","","null","","985.6999999880791","","2","0","null","null","arrowup","[0.85,0.15,0.675,0.325]","","",""
"sailing-trial","271","1367731","0.0-11.0-236.0","","","","false","","","","","","","","","","630.3999999761581","","275.10000002384186","","3","0","arrowright","1","arrowright","[0.85,0.15,0.675,0.325]","","",""
"sailing-trial","272","1372063","0.0-11.0-237.0","","","","false","","","","","","","","","","null","","1455.300000011921","","2","1","null","null","arrowup","[0.85,0.15,0.675,0.325]","","",""
"sailing-trial","273","1375711","0.0-11.0-238.0","","","","false","","","","","","","","","","786.1999999880791","","363.5","","1","0","arrowleft","0","arrowright","[0.85,0.15,0.675,0.325]","","",""
"sailing-trial","274","1379934","0.0-11.0-239.0","","","","false","","","","","","","","","","null","","1820.199999988079","","3","1","null","null","arrowup","[0.85,0.15,0.675,0.325]","","",""
"sailing-trial","275","1386066","0.0-11.0-240.0","","","","false","","","","","","","","","","1032.7999999523163","","1086.6000000238419","","1","0","arrowleft","0","arrowright","[0.85,0.15,0.675,0.325]","","",""
"sailing-trial","276","1389856","0.0-11.0-241.0","","","","false","","","","","","","","","","null","","2089.399999976158","","0","0","null","null","arrowup","[0.85,0.15,0.675,0.325]","","",""
"sailing-trial","277","1394313","0.0-11.0-242.0","","","","false","","","","","","","","","","1228.300000011921","","245.29999995231628","","2","1","arrowright","1","arrowleft","[0.85,0.15,0.675,0.325]","","",""
"sailing-trial","278","1398166","0.0-11.0-243.0","","","","false","","","","","","","","","","null","","1529.300000011921","","1","1","null","null","arrowup","[0.85,0.15,0.675,0.325]","","",""
"sailing-trial","279","1402787","0.0-11.0-244.0","","","","false","","","","","","","","","","1069","","419.69999998807907","","0","1","arrowleft","0","arrowleft","[0.85,0.15,0.675,0.325]","","",""
"sailing-trial","280","1405865","0.0-11.0-245.0","","","","false","","","","","","","","","","null","","965.6999999880791","","0","1","null","null","arrowup","[0.85,0.15,0.675,0.325]","","",""
"sailing-trial","281","1411675","0.0-11.0-246.0","","","","false","","","","","","","","","","757.3000000119209","","1117.0999999642372","","3","0","arrowright","1","arrowright","[0.85,0.15,0.675,0.325]","","",""
"sailing-trial","282","1415405","0.0-11.0-247.0","","","","false","","","","","","","","","","null","","1291.6000000238419","","0","1","null","null","arrowup","[0.85,0.15,0.675,0.325]","","",""
"sailing-trial","283","1419805","0.0-11.0-248.0","","","","false","","","","","","","","","","924.8999999761581","","711.5999999642372","","1","0","arrowleft","0","arrowright","[0.675,0.325,0.85,0.15]","","",""
"sailing-trial","284","1424831","0.0-11.0-249.0","","","","false","","","","","","","","","","null","","2823.800000011921","","2","1","null","null","arrowup","[0.675,0.325,0.85,0.15]","","",""
"sailing-trial","285","1428763","0.0-11.0-250.0","","","","false","","","","","","","","","","752.5","","261.4000000357628","","3","1","arrowright","1","arrowright","[0.675,0.325,0.85,0.15]","","",""
"sailing-trial","286","1431899","0.0-11.0-251.0","","","","false","","","","","","","","","","null","","1058.5","","0","1","null","null","arrowup","[0.675,0.325,0.85,0.15]","","",""
"sailing-trial","287","1436896","0.0-11.0-252.0","","","","false","","","","","","","","","","1628","","447.5","","1","0","arrowleft","0","arrowright","[0.675,0.325,0.85,0.15]","","",""
"sailing-trial","288","1439662","0.0-11.0-253.0","","","","false","","","","","","","","","","null","","649.0999999642372","","1","0","null","null","arrowup","[0.675,0.325,0.85,0.15]","","",""
"sailing-trial","289","1446791","0.0-11.0-254.0","","","","false","","","","","","","","","","1573.800000011921","","1521.8999999761581","","3","0","arrowright","1","arrowright","[0.675,0.325,0.85,0.15]","","",""
"sailing-trial","290","1451783","0.0-11.0-255.0","","","","false","","","","","","","","","","null","","2065.900000035763","","2","1","null","null","arrowup","[0.675,0.325,0.85,0.15]","","",""
"sailing-trial","291","1457782","0.0-11.0-256.0","","","","false","","","","","","","","","","1483.300000011921","","466.30000001192093","","1","1","arrowleft","0","arrowright","[0.675,0.325,0.85,0.15]","","",""
"sailing-trial","292","1461870","0.0-11.0-257.0","","","","false","","","","","","","","","","null","","1411.300000011921","","3","0","null","null","arrowup","[0.675,0.325,0.85,0.15]","","",""
"sailing-trial","293","1466516","0.0-11.0-258.0","","","","false","","","","","","","","","","442.80000001192093","","137.80000001192093","","2","0","arrowright","1","arrowleft","[0.675,0.325,0.85,0.15]","","",""
"sailing-trial","294","1471858","0.0-11.0-259.0","","","","false","","","","","","","","","","null","","3664.800000011921","","3","0","null","null","arrowup","[0.675,0.325,0.85,0.15]","","",""
"sailing-trial","295","1478091","0.0-11.0-260.0","","","","false","","","","","","","","","","2689.600000023842","","635.9000000357628","","2","1","arrowright","1","arrowleft","[0.675,0.325,0.85,0.15]","","",""
"sailing-trial","296","1484774","0.0-11.0-261.0","","","","false","","","","","","","","","","null","","4986","","1","0","null","null","arrowup","[0.675,0.325,0.85,0.15]","","",""
"sailing-trial","297","1488262","0.0-11.0-262.0","","","","false","","","","","","","","","","762.5","","221.20000004768372","","0","0","arrowleft","0","arrowleft","[0.675,0.325,0.85,0.15]","","",""
"sailing-trial","298","1490967","0.0-11.0-263.0","","","","false","","","","","","","","","","null","","1539.8999999761581","","3","0","null","null","arrowup","[0.675,0.325,0.85,0.15]","","",""
"sailing-trial","299","1494382","0.0-11.0-264.0","","","","false","","","","","","","","","","582.5","","363.60000002384186","","2","0","arrowright","1","arrowleft","[0.325,0.675,0.15,0.85]","","",""
"sailing-trial","300","1497500","0.0-11.0-265.0","","","","false","","","","","","","","","","null","","966.3000000119209","","2","1","null","null","arrowup","[0.325,0.675,0.15,0.85]","","",""
"sailing-trial","301","1501898","0.0-11.0-266.0","","","","false","","","","","","","","","","904.6000000238419","","625.5","","3","1","arrowright","1","arrowright","[0.325,0.675,0.15,0.85]","","",""
"sailing-trial","302","1505449","0.0-11.0-267.0","","","","false","","","","","","","","","","null","","1301.699999988079","","0","1","null","null","arrowup","[0.325,0.675,0.15,0.85]","","",""
"sailing-trial","303","1509673","0.0-11.0-268.0","","","","false","","","","","","","","","","504.5","","488.10000002384186","","0","1","arrowleft","0","arrowleft","[0.325,0.675,0.15,0.85]","","",""
"sailing-trial","304","1513233","0.0-11.0-269.0","","","","false","","","","","","","","","","null","","1174.199999988079","","1","1","null","null","arrowup","[0.325,0.675,0.15,0.85]","","",""
"sailing-trial","305","1518115","0.0-11.0-270.0","","","","false","","","","","","","","","","1230.300000011921","","161.80000001192093","","3","1","arrowright","1","arrowright","[0.325,0.675,0.15,0.85]","","",""
"sailing-trial","306","1521274","0.0-11.0-271.0","","","","false","","","","","","","","","","null","","648.4000000357628","","2","1","null","null","arrowup","[0.325,0.675,0.15,0.85]","","",""
"sailing-trial","307","1526550","0.0-11.0-272.0","","","","false","","","","","","","","","","433.10000002384186","","611.8999999761581","","0","1","arrowleft","0","arrowleft","[0.325,0.675,0.15,0.85]","","",""
"sailing-trial","308","1529334","0.0-11.0-273.0","","","","false","","","","","","","","","","null","","1333.2999999523163","","0","0","null","null","arrowup","[0.325,0.675,0.15,0.85]","","",""
"sailing-trial","309","1534518","0.0-11.0-274.0","","","","false","","","","","","","","","","1059.0999999642372","","378.0999999642372","","3","1","arrowright","1","arrowright","[0.325,0.675,0.15,0.85]","","",""
"sailing-trial","310","1539269","0.0-11.0-275.0","","","","false","","","","","","","","","","null","","2642.899999976158","","1","1","null","null","arrowup","[0.325,0.675,0.15,0.85]","","",""
"sailing-trial","311","1543252","0.0-11.0-276.0","","","","false","","","","","","","","","","813","","374.69999998807907","","2","0","arrowright","1","arrowleft","[0.325,0.675,0.15,0.85]","","",""
"sailing-trial","312","1547480","0.0-11.0-277.0","","","","false","","","","","","","","","","null","","1185.300000011921","","0","0","null","null","arrowup","[0.325,0.675,0.15,0.85]","","",""
"sailing-trial","313","1552602","0.0-11.0-278.0","","","","false","","","","","","","","","","833.8999999761581","","610.6000000238419","","1","1","arrowleft","0","arrowright","[0.325,0.675,0.15,0.85]","","",""
"sailing-trial","314","1556002","0.0-11.0-279.0","","","","false","","","","","","","","","","null","","1418.1000000238419","","3","1","null","null","arrowup","[0.325,0.675,0.15,0.85]","","",""
"sailing-trial","315","1560412","0.0-11.0-280.0","","","","false","","","","","","","","","","1958.9000000357628","","6.100000023841858","","0","0","arrowleft","0","arrowleft","[0.325,0.675,0.15,0.85]","","",""
"sailing-trial","316","1563760","0.0-11.0-281.0","","","","false","","","","","","","","","","null","","1333.800000011921","","3","1","null","null","arrowup","[0.325,0.675,0.15,0.85]","","",""
"sailing-trial","317","1567241","0.0-11.0-282.0","","","","false","","","","","","","","","","763.7999999523163","","462.19999998807907","","3","0","arrowright","1","arrowright","[0.325,0.675,0.15,0.85]","","",""
"sailing-trial","318","1570221","0.0-11.0-283.0","","","","false","","","","","","","","","","null","","1091","","0","1","null","null","arrowup","[0.325,0.675,0.15,0.85]","","",""
"sailing-trial","319","1573941","0.0-11.0-284.0","","","","false","","","","","","","","","","739.9000000357628","","516","","2","0","arrowright","1","arrowleft","[0.325,0.675,0.15,0.85]","","",""
"sailing-trial","320","1577266","0.0-11.0-285.0","","","","false","","","","","","","","","","null","","1473.4000000357628","","1","1","null","null","arrowup","[0.325,0.675,0.15,0.85]","","",""
"sailing-trial","321","1581654","0.0-11.0-286.0","","","","false","","","","","","","","","","917.3000000119209","","231.0999999642372","","1","1","arrowleft","0","arrowright","[0.15,0.85,0.325,0.675]","","",""
"sailing-trial","322","1585397","0.0-11.0-287.0","","","","false","","","","","","","","","","null","","2070.300000011921","","2","1","null","null","arrowup","[0.15,0.85,0.325,0.675]","","",""
"sailing-trial","323","1592450","0.0-11.0-288.0","","","","false","","","","","","","","","","1050.5999999642372","","2842.099999964237","","1","1","arrowleft","0","arrowright","[0.15,0.85,0.325,0.675]","","",""
"sailing-trial","324","1595510","0.0-11.0-289.0","","","","false","","","","","","","","","","null","","1808.6000000238419","","0","0","null","null","arrowup","[0.15,0.85,0.325,0.675]","","",""
"sailing-trial","325","1599275","0.0-11.0-290.0","","","","false","","","","","","","","","","690.3999999761581","","346.60000002384186","","3","0","arrowright","1","arrowright","[0.15,0.85,0.325,0.675]","","",""
"sailing-trial","326","1601343","0.0-11.0-291.0","","","","false","","","","","","","","","","null","","776.8000000119209","","3","0","null","null","arrowup","[0.15,0.85,0.325,0.675]","","",""
"sailing-trial","327","1605102","0.0-11.0-292.0","","","","false","","","","","","","","","","418.89999997615814","","323.89999997615814","","1","1","arrowleft","0","arrowright","[0.15,0.85,0.325,0.675]","","",""
"sailing-trial","328","1607476","0.0-11.0-293.0","","","","false","","","","","","","","","","null","","1108.5","","2","0","null","null","arrowup","[0.15,0.85,0.325,0.675]","","",""
"sailing-trial","329","1610312","0.0-11.0-294.0","","","","false","","","","","","","","","","272.30000001192093","","62.19999998807907","","0","0","arrowleft","0","arrowleft","[0.15,0.85,0.325,0.675]","","",""
"sailing-trial","330","1613929","0.0-11.0-295.0","","","","false","","","","","","","","","","null","","1284.8999999761581","","1","1","null","null","arrowup","[0.15,0.85,0.325,0.675]","","",""
"sailing-trial","331","1617562","0.0-11.0-296.0","","","","false","","","","","","","","","","405.30000001192093","","271.89999997615814","","3","1","arrowright","1","arrowright","[0.15,0.85,0.325,0.675]","","",""
"sailing-trial","332","1621865","0.0-11.0-297.0","","","","false","","","","","","","","","","null","","1778.5999999642372","","2","1","null","null","arrowup","[0.15,0.85,0.325,0.675]","","",""
"sailing-trial","333","1624681","0.0-11.0-298.0","","","","false","","","","","","","","","","570.3000000119209","","79","","1","0","arrowleft","0","arrowright","[0.15,0.85,0.325,0.675]","","",""
"sailing-trial","334","1628785","0.0-11.0-299.0","","","","false","","","","","","","","","","null","","1968.6000000238419","","1","1","null","null","arrowup","[0.15,0.85,0.325,0.675]","","",""
"sailing-trial","335","1632735","0.0-11.0-300.0","","","","false","","","","","","","","","","1115.199999988079","","428.19999998807907","","2","0","arrowright","1","arrowleft","[0.15,0.85,0.325,0.675]","","",""
"sailing-trial","336","1635556","0.0-11.0-301.0","","","","false","","","","","","","","","","null","","1042.5","","2","1","null","null","arrowup","[0.15,0.85,0.325,0.675]","","",""
"sailing-trial","337","1639444","0.0-11.0-302.0","","","","false","","","","","","","","","","23.30000001192093","","1563.699999988079","","3","0","arrowright","1","arrowright","[0.15,0.85,0.325,0.675]","","",""
"sailing-trial","338","1643118","0.0-11.0-303.0","","","","false","","","","","","","","","","null","","1195.300000011921","","3","1","null","null","arrowup","[0.15,0.85,0.325,0.675]","","",""
"sailing-trial","339","1647885","0.0-11.0-304.0","","","","false","","","","","","","","","","844.3999999761581","","1100.5999999642372","","3","1","arrowright","1","arrowright","[0.325,0.675,0.15,0.85]","","",""
"sailing-trial","340","1650797","0.0-11.0-305.0","","","","false","","","","","","","","","","null","","1031.300000011921","","1","0","null","null","arrowup","[0.325,0.675,0.15,0.85]","","",""
"sailing-trial","341","1654850","0.0-11.0-306.0","","","","false","","","","","","","","","","1008.1999999880791","","285.30000001192093","","0","0","arrowleft","0","arrowleft","[0.325,0.675,0.15,0.85]","","",""
"sailing-trial","342","1657145","0.0-11.0-307.0","","","","false","","","","","","","","","","null","","930","","2","0","null","null","arrowup","[0.325,0.675,0.15,0.85]","","",""
"sailing-trial","343","1660299","0.0-11.0-308.0","","","","false","","","","","","","","","","469.5","","83.10000002384186","","3","1","arrowright","1","arrowright","[0.325,0.675,0.15,0.85]","","",""
"sailing-trial","344","1662877","0.0-11.0-309.0","","","","false","","","","","","","","","","null","","1120.3999999761581","","0","0","null","null","arrowup","[0.325,0.675,0.15,0.85]","","",""
"sailing-trial","345","1667491","0.0-11.0-310.0","","","","false","","","","","","","","","","1527.6000000238419","","19.099999964237213","","1","1","arrowleft","0","arrowright","[0.325,0.675,0.15,0.85]","","",""
"sailing-trial","346","1671299","0.0-11.0-311.0","","","","false","","","","","","","","","","null","","1758.7000000476837","","0","1","null","null","arrowup","[0.325,0.675,0.15,0.85]","","",""
"sailing-trial","347","1674872","0.0-11.0-312.0","","","","false","","","","","","","","","","695.7999999523163","","399.80000001192093","","2","0","arrowright","1","arrowleft","[0.325,0.675,0.15,0.85]","","",""
"sailing-trial","348","1678347","0.0-11.0-313.0","","","","false","","","","","","","","","","null","","1586.300000011921","","0","0","null","null","arrowup","[0.325,0.675,0.15,0.85]","","",""
"sailing-trial","349","1681603","0.0-11.0-314.0","","","","false","","","","","","","","","","439.7000000476837","","165.80000001192093","","3","1","arrowright","1","arrowright","[0.325,0.675,0.15,0.85]","","",""
"sailing-trial","350","1684468","0.0-11.0-315.0","","","","false","","","","","","","","","","null","","1048.0999999642372","","3","1","null","null","arrowup","[0.325,0.675,0.15,0.85]","","",""
"sailing-trial","351","1688965","0.0-11.0-316.0","","","","false","","","","","","","","","","1265.5","","358","","1","1","arrowleft","0","arrowright","[0.325,0.675,0.15,0.85]","","",""
"sailing-trial","352","1691715","0.0-11.0-317.0","","","","false","","","","","","","","","","null","","1289.5999999642372","","2","0","null","null","arrowup","[0.325,0.675,0.15,0.85]","","",""
"sailing-trial","353","1698360","0.0-11.0-318.0","","","","false","","","","","","","","","","2547.800000011921","","974.3000000119209","","0","0","arrowleft","0","arrowleft","[0.325,0.675,0.15,0.85]","","",""
"sailing-trial","354","1701758","0.0-11.0-319.0","","","","false","","","","","","","","","","null","","1800.7999999523163","","0","0","null","null","arrowup","[0.325,0.675,0.15,0.85]","","",""
"sailing-trial","355","1707656","0.0-11.0-320.0","","","","false","","","","","","","","","","472.89999997615814","","1903.699999988079","","2","0","arrowright","1","arrowleft","[0.325,0.675,0.15,0.85]","","",""
"sailing-trial","356","1712586","0.0-11.0-321.0","","","","false","","","","","","","","","","null","","2066.199999988079","","1","1","null","null","arrowup","[0.325,0.675,0.15,0.85]","","",""
"sailing-trial","357","1717949","0.0-11.0-322.0","","","","false","","","","","","","","","","1004.7999999523163","","685.1000000238419","","1","1","arrowleft","0","arrowright","[0.325,0.675,0.15,0.85]","","",""
"sailing-trial","358","1722476","0.0-11.0-323.0","","","","false","","","","","","","","","","null","","2384.900000035763","","0","0","null","null","arrowup","[0.325,0.675,0.15,0.85]","","",""
"sailing-trial","359","1728181","0.0-11.0-324.0","","","","false","","","","","","","","","","1707.5999999642372","","131.69999998807907","","3","0","arrowright","1","arrowright","[0.325,0.675,0.15,0.85]","","",""
"sailing-trial","360","1733133","0.0-11.0-325.0","","","","false","","","","","","","","","","null","","3211.399999976158","","2","0","null","null","arrowup","[0.325,0.675,0.15,0.85]","","",""
"sailing-trial","361","1739850","0.0-11.0-326.0","","","","false","","","","","","","","","","1135.7999999523163","","1855.3999999761581","","2","1","arrowright","1","arrowleft","[0.325,0.675,0.15,0.85]","","",""
"sailing-trial","362","1743300","0.0-11.0-327.0","","","","false","","","","","","","","","","null","","1356.8999999761581","","0","0","null","null","arrowup","[0.325,0.675,0.15,0.85]","","",""
"sailing-trial","363","1748536","0.0-11.0-328.0","","","","false","","","","","","","","","","1124.9000000357628","","1215.7999999523163","","1","1","arrowleft","0","arrowright","[0.15,0.85,0.325,0.675]","","",""
"sailing-trial","364","1755351","0.0-11.0-329.0","","","","false","","","","","","","","","","null","","4779.900000035763","","1","1","null","null","arrowup","[0.15,0.85,0.325,0.675]","","",""
"sailing-trial","365","1760521","0.0-11.0-330.0","","","","false","","","","","","","","","","822.8000000119209","","298.5","","3","0","arrowright","1","arrowright","[0.15,0.85,0.325,0.675]","","",""
"sailing-trial","366","1763499","0.0-11.0-331.0","","","","false","","","","","","","","","","null","","497.30000001192093","","1","1","null","null","arrowup","[0.15,0.85,0.325,0.675]","","",""
"sailing-trial","367","1767480","0.0-11.0-332.0","","","","false","","","","","","","","","","1099.1000000238419","","369.19999998807907","","0","0","arrowleft","0","arrowleft","[0.15,0.85,0.325,0.675]","","",""
"sailing-trial","368","1769466","0.0-11.0-333.0","","","","false","","","","","","","","","","null","","670.0999999642372","","2","0","null","null","arrowup","[0.15,0.85,0.325,0.675]","","",""
"sailing-trial","369","1777336","0.0-11.0-334.0","","","","false","","","","","","","","","","1431.2000000476837","","891.1999999880791","","3","1","arrowright","1","arrowright","[0.15,0.85,0.325,0.675]","","",""
"sailing-trial","370","1780784","0.0-11.0-335.0","","","","false","","","","","","","","","","null","","1471.800000011921","","1","1","null","null","arrowup","[0.15,0.85,0.325,0.675]","","",""
"sailing-trial","371","1787623","0.0-11.0-336.0","","","","false","","","","","","","","","","865","","2427.7000000476837","","3","1","arrowright","1","arrowright","[0.15,0.85,0.325,0.675]","","",""
"sailing-trial","372","1791922","0.0-11.0-337.0","","","","false","","","","","","","","","","null","","1890","","3","1","null","null","arrowup","[0.15,0.85,0.325,0.675]","","",""
"sailing-trial","373","1796284","0.0-11.0-338.0","","","","false","","","","","","","","","","1067","","393.80000001192093","","0","0","arrowleft","0","arrowleft","[0.15,0.85,0.325,0.675]","","",""
"sailing-trial","374","1799685","0.0-11.0-339.0","","","","false","","","","","","","","","","null","","1520.4000000357628","","1","1","null","null","arrowup","[0.15,0.85,0.325,0.675]","","",""
"sailing-trial","375","1804729","0.0-11.0-340.0","","","","false","","","","","","","","","","1379.300000011921","","1250","","0","0","arrowleft","0","arrowleft","[0.15,0.85,0.325,0.675]","","",""
"sailing-trial","376","1806833","0.0-11.0-341.0","","","","false","","","","","","","","","","null","","745.0999999642372","","0","0","null","null","arrowup","[0.15,0.85,0.325,0.675]","","",""
"sailing-trial","377","1811502","0.0-11.0-342.0","","","","false","","","","","","","","","","882.8999999761581","","238.5","","2","1","arrowright","1","arrowleft","[0.15,0.85,0.325,0.675]","","",""
"sailing-trial","378","1815404","0.0-11.0-343.0","","","","false","","","","","","","","","","null","","1407.199999988079","","3","1","null","null","arrowup","[0.15,0.85,0.325,0.675]","","",""
"sailing-trial","379","1820904","0.0-11.0-344.0","","","","false","","","","","","","","","","943.7999999523163","","1226.2000000476837","","3","1","arrowright","1","arrowright","[0.325,0.675,0.15,0.85]","","",""
"sailing-trial","380","1825236","0.0-11.0-345.0","","","","false","","","","","","","","","","null","","1914","","1","1","null","null","arrowup","[0.325,0.675,0.15,0.85]","","",""
"sailing-trial","381","1830058","0.0-11.0-346.0","","","","false","","","","","","","","","","993.6999999880791","","943.5","","1","1","arrowleft","0","arrowright","[0.325,0.675,0.15,0.85]","","",""
"sailing-trial","382","1833938","0.0-11.0-347.0","","","","false","","","","","","","","","","null","","1991.5","","0","1","null","null","arrowup","[0.325,0.675,0.15,0.85]","","",""
"sailing-trial","383","1838019","0.0-11.0-348.0","","","","false","","","","","","","","","","938.2000000476837","","206.4000000357628","","1","1","arrowleft","0","arrowright","[0.325,0.675,0.15,0.85]","","",""
"sailing-trial","384","1841413","0.0-11.0-349.0","","","","false","","","","","","","","","","null","","1969.8999999761581","","2","0","null","null","arrowup","[0.325,0.675,0.15,0.85]","","",""
"sailing-trial","385","1846306","0.0-11.0-350.0","","","","false","","","","","","","","","","1003.9000000357628","","454.60000002384186","","3","1","arrowright","1","arrowright","[0.325,0.675,0.15,0.85]","","",""
"sailing-trial","386","1849739","0.0-11.0-351.0","","","","false","","","","","","","","","","null","","1634.3999999761581","","3","1","null","null","arrowup","[0.325,0.675,0.15,0.85]","","",""
"sailing-trial","387","1853752","0.0-11.0-352.0","","","","false","","","","","","","","","","993.5","","211.0999999642372","","1","1","arrowleft","0","arrowright","[0.325,0.675,0.15,0.85]","","",""
"sailing-trial","388","1856541","0.0-11.0-353.0","","","","false","","","","","","","","","","null","","919.5","","0","1","null","null","arrowup","[0.325,0.675,0.15,0.85]","","",""
"sailing-trial","389","1859940","0.0-11.0-354.0","","","","false","","","","","","","","","","500.69999998807907","","9.699999988079071","","2","0","arrowright","1","arrowleft","[0.325,0.675,0.15,0.85]","","",""
"sailing-trial","390","1862245","0.0-11.0-355.0","","","","false","","","","","","","","","","null","","1236.699999988079","","2","0","null","null","arrowup","[0.325,0.675,0.15,0.85]","","",""
"sailing-trial","391","1866212","0.0-11.0-356.0","","","","false","","","","","","","","","","480.5","","606.5","","3","1","arrowright","1","arrowright","[0.325,0.675,0.15,0.85]","","",""
"sailing-trial","392","1868384","0.0-11.0-357.0","","","","false","","","","","","","","","","null","","748.6999999880791","","3","0","null","null","arrowup","[0.325,0.675,0.15,0.85]","","",""
"sailing-trial","393","1872179","0.0-11.0-358.0","","","","false","","","","","","","","","","608.1999999880791","","16.100000023841858","","0","1","arrowleft","0","arrowleft","[0.325,0.675,0.15,0.85]","","",""
"sailing-trial","394","1874369","0.0-11.0-359.0","","","","false","","","","","","","","","","null","","813.3000000119209","","0","0","null","null","arrowup","[0.325,0.675,0.15,0.85]","","",""
"sailing-trial","395","1881252","0.0-11.0-360.0","","","","false","","","","","","","","","","1108.2000000476837","","3231","","2","0","arrowright","1","arrowleft","[0.325,0.675,0.15,0.85]","","",""
"sailing-trial","396","1884518","0.0-11.0-361.0","","","","false","","","","","","","","","","null","","1362.2999999523163","","0","0","null","null","arrowup","[0.325,0.675,0.15,0.85]","","",""
"sailing-trial","397","1890491","0.0-11.0-362.0","","","","false","","","","","","","","","","1953","","721.8999999761581","","1","1","arrowleft","0","arrowright","[0.325,0.675,0.15,0.85]","","",""
"sailing-trial","398","1892468","0.0-11.0-363.0","","","","false","","","","","","","","","","null","","665.3000000119209","","0","0","null","null","arrowup","[0.325,0.675,0.15,0.85]","","",""
"sailing-trial","399","1897090","0.0-11.0-364.0","","","","false","","","","","","","","","","645.3999999761581","","450.89999997615814","","3","1","arrowright","1","arrowright","[0.15,0.85,0.325,0.675]","","",""
"sailing-trial","400","1902371","0.0-11.0-365.0","","","","false","","","","","","","","","","null","","3580","","1","1","null","null","arrowup","[0.15,0.85,0.325,0.675]","","",""
"sailing-trial","401","1906619","0.0-11.0-366.0","","","","false","","","","","","","","","","744.3999999761581","","330.69999998807907","","1","1","arrowleft","0","arrowright","[0.15,0.85,0.325,0.675]","","",""
"sailing-trial","402","1909240","0.0-11.0-367.0","","","","false","","","","","","","","","","null","","215","","1","0","null","null","arrowup","[0.15,0.85,0.325,0.675]","","",""
"sailing-trial","403","1914395","0.0-11.0-368.0","","","","false","","","","","","","","","","812","","1325.5999999642372","","3","1","arrowright","1","arrowright","[0.15,0.85,0.325,0.675]","","",""
"sailing-trial","404","1917856","0.0-11.0-369.0","","","","false","","","","","","","","","","null","","1245.8999999761581","","3","1","null","null","arrowup","[0.15,0.85,0.325,0.675]","","",""
"sailing-trial","405","1922180","0.0-11.0-370.0","","","","false","","","","","","","","","","353.60000002384186","","814.4000000357628","","1","1","arrowleft","0","arrowright","[0.15,0.85,0.325,0.675]","","",""
"sailing-trial","406","1926336","0.0-11.0-371.0","","","","false","","","","","","","","","","null","","2136.899999976158","","1","1","null","null","arrowup","[0.15,0.85,0.325,0.675]","","",""
"sailing-trial","407","1931307","0.0-11.0-372.0","","","","false","","","","","","","","","","884.1999999880791","","580.5","","3","1","arrowright","1","arrowright","[0.15,0.85,0.325,0.675]","","",""
"sailing-trial","408","1934122","0.0-11.0-373.0","","","","false","","","","","","","","","","null","","927.3000000119209","","3","1","null","null","arrowup","[0.15,0.85,0.325,0.675]","","",""
"sailing-trial","409","1937722","0.0-11.0-374.0","","","","false","","","","","","","","","","652.1999999880791","","70.89999997615814","","1","1","arrowleft","0","arrowright","[0.15,0.85,0.325,0.675]","","",""
"sailing-trial","410","1941844","0.0-11.0-375.0","","","","false","","","","","","","","","","null","","911","","1","1","null","null","arrowup","[0.15,0.85,0.325,0.675]","","",""
"sailing-trial","411","1945335","0.0-11.0-376.0","","","","false","","","","","","","","","","729.8999999761581","","447.10000002384186","","0","0","arrowleft","0","arrowleft","[0.15,0.85,0.325,0.675]","","",""
"sailing-trial","412","1947794","0.0-11.0-377.0","","","","false","","","","","","","","","","null","","854.1000000238419","","1","1","null","null","arrowup","[0.15,0.85,0.325,0.675]","","",""
"sailing-trial","413","1951238","0.0-11.0-378.0","","","","false","","","","","","","","","","595.3000000119209","","13.699999988079071","","1","1","arrowleft","0","arrowright","[0.15,0.85,0.325,0.675]","","",""
"sailing-trial","414","1953575","0.0-11.0-379.0","","","","false","","","","","","","","","","null","","931.0999999642372","","0","0","null","null","arrowup","[0.15,0.85,0.325,0.675]","","",""
"sailing-trial","415","1956921","0.0-11.0-380.0","","","","false","","","","","","","","","","481.30000001192093","","63","","3","1","arrowright","1","arrowright","[0.325,0.675,0.15,0.85]","","",""
"sailing-trial","416","1959210","0.0-11.0-381.0","","","","false","","","","","","","","","","null","","1042.8999999761581","","2","0","null","null","arrowup","[0.325,0.675,0.15,0.85]","","",""
"sailing-trial","417","1965121","0.0-11.0-382.0","","","","false","","","","","","","","","","1765.300000011921","","199.10000002384186","","1","1","arrowleft","0","arrowright","[0.325,0.675,0.15,0.85]","","",""
"sailing-trial","418","1968439","0.0-11.0-383.0","","","","false","","","","","","","","","","null","","1320.5","","3","1","null","null","arrowup","[0.325,0.675,0.15,0.85]","","",""
"sailing-trial","419","1972002","0.0-11.0-384.0","","","","false","","","","","","","","","","532.6000000238419","","407.19999998807907","","0","0","arrowleft","0","arrowleft","[0.325,0.675,0.15,0.85]","","",""
"sailing-trial","420","1974065","0.0-11.0-385.0","","","","false","","","","","","","","","","null","","832.5","","2","0","null","null","arrowup","[0.325,0.675,0.15,0.85]","","",""
"sailing-trial","421","1977871","0.0-11.0-386.0","","","","false","","","","","","","","","","693.5","","320.10000002384186","","3","1","arrowright","1","arrowright","[0.325,0.675,0.15,0.85]","","",""
"sailing-trial","422","1981112","0.0-11.0-387.0","","","","false","","","","","","","","","","null","","1144.699999988079","","3","1","null","null","arrowup","[0.325,0.675,0.15,0.85]","","",""
"sailing-trial","423","1986825","0.0-11.0-388.0","","","","false","","","","","","","","","","1444.5999999642372","","740.2000000476837","","1","1","arrowleft","0","arrowright","[0.325,0.675,0.15,0.85]","","",""
"sailing-trial","424","1990408","0.0-11.0-389.0","","","","false","","","","","","","","","","null","","1895.2000000476837","","0","0","null","null","arrowup","[0.325,0.675,0.15,0.85]","","",""
"sailing-trial","425","1995157","0.0-11.0-390.0","","","","false","","","","","","","","","","766","","521.9000000357628","","3","1","arrowright","1","arrowright","[0.325,0.675,0.15,0.85]","","",""
"sailing-trial","426","1998674","0.0-11.0-391.0","","","","false","","","","","","","","","","null","","1396.800000011921","","1","1","null","null","arrowup","[0.325,0.675,0.15,0.85]","","",""
"sailing-trial","427","2002927","0.0-11.0-392.0","","","","false","","","","","","","","","","986","","234.69999998807907","","3","0","arrowright","1","arrowright","[0.325,0.675,0.15,0.85]","","",""
"sailing-trial","428","2005814","0.0-11.0-393.0","","","","false","","","","","","","","","","null","","1033.2000000476837","","3","1","null","null","arrowup","[0.325,0.675,0.15,0.85]","","",""
"sailing-trial","429","2009781","0.0-11.0-394.0","","","","false","","","","","","","","","","1058.8999999761581","","209.20000004768372","","1","1","arrowleft","0","arrowright","[0.325,0.675,0.15,0.85]","","",""
"sailing-trial","430","2012657","0.0-11.0-395.0","","","","false","","","","","","","","","","null","","1022.6999999880791","","1","1","null","null","arrowup","[0.325,0.675,0.15,0.85]","","",""
"sailing-trial","431","2015983","0.0-11.0-396.0","","","","false","","","","","","","","","","1118.4000000357628","","128.89999997615814","","2","0","arrowright","1","arrowleft","[0.325,0.675,0.15,0.85]","","",""
"sailing-trial","432","2018217","0.0-11.0-397.0","","","","false","","","","","","","","","","null","","913.8000000119209","","2","0","null","null","arrowup","[0.325,0.675,0.15,0.85]","","",""
"sailing-trial","433","2021379","0.0-11.0-398.0","","","","false","","","","","","","","","","384.39999997615814","","457.4000000357628","","1","0","arrowleft","0","arrowright","[0.325,0.675,0.15,0.85]","","",""
"sailing-trial","434","2023736","0.0-11.0-399.0","","","","false","","","","","","","","","","null","","913.9000000357628","","3","0","null","null","arrowup","[0.325,0.675,0.15,0.85]","","",""
"instructions","435","2033419","0.0-12.0","","","","","","","","","","9681.099999964237","","","","","","","","","","","","","","","","[{""page_index"":0,""viewing_time"":9679.599999964237}]"
"survey-debrief","436","2146710","0.0-13.0","","","","","","","","","","113286.19999998808","","","","","","","","","","","","","","{""difficulty"":""4"",""fun"":""4"",""clarity"":""4"",""strategy"":""if there were money at the fog shop i would go there."",""feedback"":""it was fun but got boring after repeating abunch of times""}","",""
