"trial_type","trial_index","time_elapsed","internal_node_id","value","metadata","success","timeout","failed_images","failed_audio","failed_video","browser_interaction","low_quality","rt","stimulus","response","button_pressed","island_rt","island_response","boat_rt","boat_response","boat","reward","island_key","island","boat_key","reward_probabilities","responses","num_errors","view_history"
"pavlovia","0","3","0.0-0.0","","","","","","","","","","","","","","","","","","","","","","","","","",""
"call-function","1","3","0.0-1.0","","{""task_version"":""sailing_part1_v1"",""task_condition"":""good"",""boats"":[""C"",""D"",""A"",""B""],""boats_demo"":[""H"",""E"",""F"",""G""],""islands"":[""B"",""A""],""subject_id"":""13911"",""age"":""15"",""gender"":""Female""}","","","","","","","","","","","","","","","","","","","","","","","",""
"preload","2","1902","0.0-2.0","","","true","false","[]","[]","[]","[{""event"":""fullscreenenter"",""trial"":3,""time"":3539}]","false","","","","","","","","","","","","","","","","",""
"fullscreen","3","4495","0.0-3.0","","","true","","","","","","","","","","","","","","","","","","","","","","",""
"audio-keyboard-response","4","5824","0.0-4.0-0.0","","","","","","","","","","0","audio/beep_loop.wav"," ","","","","","","","","","","","","","",""
"audio-test","5","7507","0.0-4.0-1.0","","","","","","","","","","null","audio/turtle.mp3","","3","","","","","","","","","","","","",""
"audio-test","6","11624","0.0-4.0-2.0","","","","","","","","","","null","audio/shark.mp3","","2","","","","","","","","","","","","",""
"sailing-instructions","7","49888","0.0-5.0-0.0-0.0","","","","","","","","","","","","","","null","null","null","null","null","null","","","","","","",""
"sailing-trial","8","54823","0.0-5.0-0.0-1.0-0.0","","","","false","","","","","","","","","","3787.9999999999927","","null","","null","null","arrowleft","0","null","null","","",""
"sailing-trial","9","57623","0.0-5.0-0.0-1.0-1.0","","","","false","","","","","","","","","","1659.9999999999927","","null","","null","null","arrowright","1","null","null","","",""
"sailing-trial","10","60572","0.0-5.0-0.0-1.0-2.0","","","","false","","","","","","","","","","1817","","null","","null","null","arrowleft","0","null","null","","",""
"sailing-instructions","11","109204","0.0-5.0-0.0-2.0","","","","","","","","","","","","","","null","null","null","null","0","null","","","","","","",""
"sailing-trial","12","115388","0.0-5.0-0.0-3.0-0.0","","","","false","","","","","","","","","","null","","1752","","2","1","null","null","arrowleft","[1,1,1,1]","","",""
"sailing-trial","13","119955","0.0-5.0-0.0-3.0-1.0","","","","false","","","","","","","","","","null","","1277","","3","1","null","null","arrowright","[1,1,1,1]","","",""
"sailing-trial","14","124279","0.0-5.0-0.0-3.0-2.0","","","","false","","","","","","","","","","null","","1499","","2","0","null","null","arrowleft","[0,0,0,0]","","",""
"sailing-instructions","15","131961","0.0-5.0-0.0-4.0","","","","","","","","","","","","","","null","null","null","null","null","null","","","","","","",""
"sailing-comprehension","16","157012","0.0-5.0-0.0-5.0","","","","","","","","","","19647","","","","","","","","","","","","","","[""true"",""true"",""false"",""true""]","0",""
"sailing-instructions","17","237782","0.0-6.0-0.0-0.0","","","","","","","","","","","","","","null","null","null","null","null","null","","","","","","",""
"sailing-comprehension","18","260019","0.0-6.0-0.0-1.0","","","","","","","","","","20023.99999999997","","","","","","","","","","","","","","[""true"",""false"",""true""]","0",""
"sailing-instructions","19","288564","0.0-7.0-0.0-0.0","","","","","","","","","","","","","","null","null","null","null","null","null","","","","","","",""
"sailing-trial","20","297583","0.0-7.0-0.0-1.0-0.0","","","","false","","","","","","","","","","null","","6188","","0","0","null","null","arrowup","[0.2,0.8,0.2,0.8]","","",""
"sailing-trial","21","301590","0.0-7.0-0.0-1.0-1.0","","","","false","","","","","","","","","","null","","1671","","1","1","null","null","arrowup","[0.2,0.8,0.2,0.8]","","",""
"sailing-trial","22","304580","0.0-7.0-0.0-1.0-2.0","","","","false","","","","","","","","","","null","","1578","","2","0","null","null","arrowup","[0.2,0.8,0.2,0.8]","","",""
"sailing-trial","23","307938","0.0-7.0-0.0-1.0-3.0","","","","false","","","","","","","","","","null","","1188","","3","1","null","null","arrowup","[0.2,0.8,0.2,0.8]","","",""
"sailing-comprehension","24","319223","0.0-7.0-0.0-2.0","","","","","","","","","","8861","","","","","","","","","","","","","","[""true""]","1",""
"sailing-instructions","25","334149","0.0-7.0-0.1-0.1","","","","","","","","","","","","","","null","null","null","null","null","null","","","","","","",""
"sailing-trial","26","339377","0.0-7.0-0.1-1.1-0.1","","","","false","","","","","","","","","","null","","4137","","0","0","null","null","arrowup","[0.2,0.8,0.2,0.8]","","",""
"sailing-trial","27","342254","0.0-7.0-0.1-1.1-1.1","","","","false","","","","","","","","","","null","","155","","1","1","null","null","arrowup","[0.2,0.8,0.2,0.8]","","",""
"sailing-trial","28","344034","0.0-7.0-0.1-1.1-2.1","","","","false","","","","","","","","","","null","","376","","2","0","null","null","arrowup","[0.2,0.8,0.2,0.8]","","",""
"sailing-trial","29","346421","0.0-7.0-0.1-1.1-3.1","","","","false","","","","","","","","","","null","","472.0000000000582","","3","1","null","null","arrowup","[0.2,0.8,0.2,0.8]","","",""
"sailing-comprehension","30","353736","0.0-7.0-0.1-2.1","","","","","","","","","","6141","","","","","","","","","","","","","","[""false""]","0",""
"sailing-instructions","31","366092","0.0-8.0-0.0-0.0","","","","","","","","","","","","","","null","null","null","null","null","null","","","","","","",""
"sailing-comprehension","32","370595","0.0-8.0-0.0-1.0","","","","","","","","","","3516","","","","","","","","","","","","","","[""true""]","0",""
"sailing-instructions","33","397338","0.0-9.0-0.0-0.0","","","","","","","","","","","","","","null","null","null","null","null","null","","","","","","",""
"sailing-trial","34","402171","0.0-9.0-0.0-1.0-0.0","","","","false","","","","","","","","","","1409","","284","","0","1","arrowleft","0","arrowleft","[0.2,0.8,0.2,0.8]","","",""
"sailing-trial","35","407638","0.0-9.0-0.0-1.0-1.0","","","","false","","","","","","","","","","1337","","1248","","1","1","arrowleft","0","arrowright","[0.2,0.8,0.2,0.8]","","",""
"sailing-trial","36","410903","0.0-9.0-0.0-1.0-2.0","","","","false","","","","","","","","","","null","","1432","","0","1","null","null","arrowup","[0.2,0.8,0.2,0.8]","","",""
"sailing-trial","37","415788","0.0-9.0-0.0-1.0-3.0","","","","false","","","","","","","","","","1586","","175","","3","1","arrowright","1","arrowright","[0.2,0.8,0.2,0.8]","","",""
"sailing-trial","38","419037","0.0-9.0-0.0-1.0-4.0","","","","false","","","","","","","","","","null","","1583.0000000000582","","3","1","null","null","arrowup","[0.2,0.8,0.2,0.8]","","",""
"sailing-trial","39","423894","0.0-9.0-0.0-1.0-5.0","","","","false","","","","","","","","","","2512","","136","","2","0","arrowright","1","arrowleft","[0.2,0.8,0.2,0.8]","","",""
"sailing-instructions","40","452873","0.0-10.0","","","","","","","","","","","","","","null","null","null","null","null","null","","","","","","",""
"sailing-trial","41","458488","0.0-11.0-0.0","","","","false","","","","","","","","","","1774.9999999999418","","317.9999999999418","","0","1","arrowleft","0","arrowleft","[0.675,0.325,0.85,0.15]","","",""
"sailing-trial","42","461623","0.0-11.0-1.0","","","","false","","","","","","","","","","null","","1115","","0","1","null","null","arrowup","[0.675,0.325,0.85,0.15]","","",""
"sailing-trial","43","466724","0.0-11.0-2.0","","","","false","","","","","","","","","","632","","327.0000000000582","","1","0","arrowleft","0","arrowright","[0.675,0.325,0.85,0.15]","","",""
"sailing-trial","44","469361","0.0-11.0-3.0","","","","false","","","","","","","","","","null","","1303","","1","0","null","null","arrowup","[0.675,0.325,0.85,0.15]","","",""
"sailing-trial","45","472585","0.0-11.0-4.0","","","","false","","","","","","","","","","948.0000000000582","","47","","3","0","arrowright","1","arrowright","[0.675,0.325,0.85,0.15]","","",""
"sailing-trial","46","475296","0.0-11.0-5.0","","","","false","","","","","","","","","","null","","1274","","1","0","null","null","arrowup","[0.675,0.325,0.85,0.15]","","",""
"sailing-trial","47","479868","0.0-11.0-6.0","","","","false","","","","","","","","","","568.9999999999418","","549.9999999999418","","2","1","arrowright","1","arrowleft","[0.675,0.325,0.85,0.15]","","",""
"sailing-trial","48","483551","0.0-11.0-7.0","","","","false","","","","","","","","","","null","","1078","","1","1","null","null","arrowup","[0.675,0.325,0.85,0.15]","","",""
"sailing-trial","49","488811","0.0-11.0-8.0","","","","false","","","","","","","","","","1164","","238","","0","0","arrowleft","0","arrowleft","[0.675,0.325,0.85,0.15]","","",""
"sailing-trial","50","491666","0.0-11.0-9.0","","","","false","","","","","","","","","","null","","1135","","3","1","null","null","arrowup","[0.675,0.325,0.85,0.15]","","",""
"sailing-trial","51","496852","0.0-11.0-10.0","","","","false","","","","","","","","","","926","","109.99999999994179","","1","0","arrowleft","0","arrowright","[0.675,0.325,0.85,0.15]","","",""
"sailing-trial","52","499257","0.0-11.0-11.0","","","","false","","","","","","","","","","null","","1064","","0","0","null","null","arrowup","[0.675,0.325,0.85,0.15]","","",""
"sailing-trial","53","502370","0.0-11.0-12.0","","","","false","","","","","","","","","","604","","174.9999999999418","","3","0","arrowright","1","arrowright","[0.675,0.325,0.85,0.15]","","",""
"sailing-trial","54","504650","0.0-11.0-13.0","","","","false","","","","","","","","","","null","","1032","","0","0","null","null","arrowup","[0.675,0.325,0.85,0.15]","","",""
"sailing-trial","55","509518","0.0-11.0-14.0","","","","false","","","","","","","","","","537","","199","","2","0","arrowright","1","arrowleft","[0.675,0.325,0.85,0.15]","","",""
"sailing-trial","56","512398","0.0-11.0-15.0","","","","false","","","","","","","","","","null","","887","","0","1","null","null","arrowup","[0.675,0.325,0.85,0.15]","","",""
"sailing-trial","57","517684","0.0-11.0-16.0","","","","false","","","","","","","","","","749","","395.9999999999418","","1","0","arrowleft","0","arrowright","[0.85,0.15,0.675,0.325]","","",""
"sailing-trial","58","520232","0.0-11.0-17.0","","","","false","","","","","","","","","","null","","1254.0000000000582","","3","0","null","null","arrowup","[0.85,0.15,0.675,0.325]","","",""
"sailing-trial","59","524610","0.0-11.0-18.0","","","","false","","","","","","","","","","523.0000000000582","","828","","0","0","arrowleft","0","arrowleft","[0.85,0.15,0.675,0.325]","","",""
"sailing-trial","60","527101","0.0-11.0-19.0","","","","false","","","","","","","","","","null","","1100","","1","0","null","null","arrowup","[0.85,0.15,0.675,0.325]","","",""
"sailing-trial","61","531249","0.0-11.0-20.0","","","","false","","","","","","","","","","484","","409","","3","1","arrowright","1","arrowright","[0.85,0.15,0.675,0.325]","","",""
"sailing-trial","62","533999","0.0-11.0-21.0","","","","false","","","","","","","","","","null","","906","","1","1","null","null","arrowup","[0.85,0.15,0.675,0.325]","","",""
"sailing-trial","63","536821","0.0-11.0-22.0","","","","false","","","","","","","","","","588","","42","","3","0","arrowright","1","arrowright","[0.85,0.15,0.675,0.325]","","",""
"sailing-trial","64","540398","0.0-11.0-23.0","","","","false","","","","","","","","","","null","","1198.0000000001164","","2","1","null","null","arrowup","[0.85,0.15,0.675,0.325]","","",""
"sailing-trial","65","543112","0.0-11.0-24.0","","","","false","","","","","","","","","","553","","10","","1","0","arrowleft","0","arrowright","[0.85,0.15,0.675,0.325]","","",""
"sailing-trial","66","546381","0.0-11.0-25.0","","","","false","","","","","","","","","","null","","1442","","1","1","null","null","arrowup","[0.85,0.15,0.675,0.325]","","",""
"sailing-trial","67","551015","0.0-11.0-26.0","","","","false","","","","","","","","","","1231","","416","","0","1","arrowleft","0","arrowleft","[0.85,0.15,0.675,0.325]","","",""
"sailing-trial","68","553274","0.0-11.0-27.0","","","","false","","","","","","","","","","null","","962.9999999998836","","0","0","null","null","arrowup","[0.85,0.15,0.675,0.325]","","",""
"sailing-trial","69","556831","0.0-11.0-28.0","","","","false","","","","","","","","","","747","","74","","0","1","arrowleft","0","arrowleft","[0.85,0.15,0.675,0.325]","","",""
"sailing-trial","70","559766","0.0-11.0-29.0","","","","false","","","","","","","","","","null","","897","","2","1","null","null","arrowup","[0.85,0.15,0.675,0.325]","","",""
"sailing-trial","71","564281","0.0-11.0-30.0","","","","false","","","","","","","","","","1659","","145.99999999988358","","0","1","arrowleft","0","arrowleft","[0.85,0.15,0.675,0.325]","","",""
"sailing-trial","72","566675","0.0-11.0-31.0","","","","false","","","","","","","","","","null","","1092","","1","0","null","null","arrowup","[0.85,0.15,0.675,0.325]","","",""
"sailing-trial","73","571124","0.0-11.0-32.0","","","","false","","","","","","","","","","637","","380","","2","0","arrowright","1","arrowleft","[0.85,0.15,0.675,0.325]","","",""
"sailing-trial","74","573676","0.0-11.0-33.0","","","","false","","","","","","","","","","null","","1038","","1","0","null","null","arrowup","[0.85,0.15,0.675,0.325]","","",""
"sailing-trial","75","577063","0.0-11.0-34.0","","","","false","","","","","","","","","","506","","106","","0","1","arrowleft","0","arrowleft","[0.85,0.15,0.675,0.325]","","",""
"sailing-trial","76","580984","0.0-11.0-35.0","","","","false","","","","","","","","","","null","","875.9999999998836","","2","0","null","null","arrowup","[0.85,0.15,0.675,0.325]","","",""
"sailing-trial","77","584615","0.0-11.0-36.0","","","","false","","","","","","","","","","120","","622","","0","1","arrowleft","0","arrowleft","[0.15,0.85,0.325,0.675]","","",""
"sailing-trial","78","587281","0.0-11.0-37.0","","","","false","","","","","","","","","","null","","943.9999999998836","","1","1","null","null","arrowup","[0.15,0.85,0.325,0.675]","","",""
"sailing-trial","79","593900","0.0-11.0-38.0","","","","false","","","","","","","","","","608","","3434","","0","0","arrowleft","0","arrowleft","[0.15,0.85,0.325,0.675]","","",""
"sailing-trial","80","597900","0.0-11.0-39.0","","","","false","","","","","","","","","","null","","966","","2","0","null","null","arrowup","[0.15,0.85,0.325,0.675]","","",""
"sailing-trial","81","601463","0.0-11.0-40.0","","","","false","","","","","","","","","","548","","121","","1","1","arrowleft","0","arrowright","[0.15,0.85,0.325,0.675]","","",""
"sailing-trial","82","605332","0.0-11.0-41.0","","","","false","","","","","","","","","","null","","846","","0","0","null","null","arrowup","[0.15,0.85,0.325,0.675]","","",""
"sailing-trial","83","609498","0.0-11.0-42.0","","","","false","","","","","","","","","","765","","456","","1","1","arrowleft","0","arrowright","[0.15,0.85,0.325,0.675]","","",""
"sailing-trial","84","612163","0.0-11.0-43.0","","","","false","","","","","","","","","","null","","990","","1","1","null","null","arrowup","[0.15,0.85,0.325,0.675]","","",""
"sailing-trial","85","615336","0.0-11.0-44.0","","","","false","","","","","","","","","","516","","421.9999999998836","","1","0","arrowleft","0","arrowright","[0.15,0.85,0.325,0.675]","","",""
"sailing-trial","86","619316","0.0-11.0-45.0","","","","false","","","","","","","","","","null","","946","","0","0","null","null","arrowup","[0.15,0.85,0.325,0.675]","","",""
"sailing-trial","87","623264","0.0-11.0-46.0","","","","false","","","","","","","","","","1054.0000000001164","","47.000000000116415","","3","1","arrowright","1","arrowright","[0.15,0.85,0.325,0.675]","","",""
"sailing-trial","88","627233","0.0-11.0-47.0","","","","false","","","","","","","","","","null","","928","","0","0","null","null","arrowup","[0.15,0.85,0.325,0.675]","","",""
"sailing-trial","89","631313","0.0-11.0-48.0","","","","false","","","","","","","","","","1213.0000000001164","","93","","3","1","arrowright","1","arrowright","[0.15,0.85,0.325,0.675]","","",""
"sailing-trial","90","634781","0.0-11.0-49.0","","","","false","","","","","","","","","","null","","1209","","3","1","null","null","arrowup","[0.15,0.85,0.325,0.675]","","",""
"sailing-trial","91","640457","0.0-11.0-50.0","","","","false","","","","","","","","","","1720","","1647.0000000001164","","3","0","arrowright","1","arrowright","[0.15,0.85,0.325,0.675]","","",""
"sailing-trial","92","644494","0.0-11.0-51.0","","","","false","","","","","","","","","","null","","1089","","3","0","null","null","arrowup","[0.15,0.85,0.325,0.675]","","",""
"sailing-trial","93","648169","0.0-11.0-52.0","","","","false","","","","","","","","","","837","","388","","2","0","arrowright","1","arrowleft","[0.15,0.85,0.325,0.675]","","",""
"sailing-trial","94","652180","0.0-11.0-53.0","","","","false","","","","","","","","","","null","","979.0000000001164","","0","0","null","null","arrowup","[0.15,0.85,0.325,0.675]","","",""
"sailing-trial","95","655155","0.0-11.0-54.0","","","","false","","","","","","","","","","653","","88","","1","0","arrowleft","0","arrowright","[0.325,0.675,0.15,0.85]","","",""
"sailing-trial","96","658148","0.0-11.0-55.0","","","","false","","","","","","","","","","null","","1058","","3","1","null","null","arrowup","[0.325,0.675,0.15,0.85]","","",""
"sailing-trial","97","661707","0.0-11.0-56.0","","","","false","","","","","","","","","","893","","179","","3","0","arrowright","1","arrowright","[0.325,0.675,0.15,0.85]","","",""
"sailing-trial","98","665699","0.0-11.0-57.0","","","","false","","","","","","","","","","null","","958","","2","0","null","null","arrowup","[0.325,0.675,0.15,0.85]","","",""
"sailing-trial","99","670700","0.0-11.0-58.0","","","","false","","","","","","","","","","620","","236","","2","0","arrowright","1","arrowleft","[0.325,0.675,0.15,0.85]","","",""
"sailing-trial","100","673898","0.0-11.0-59.0","","","","false","","","","","","","","","","null","","1025","","3","1","null","null","arrowup","[0.325,0.675,0.15,0.85]","","",""
"sailing-trial","101","677598","0.0-11.0-60.0","","","","false","","","","","","","","","","553.9999999998836","","106","","3","1","arrowright","1","arrowright","[0.325,0.675,0.15,0.85]","","",""
"sailing-trial","102","680815","0.0-11.0-61.0","","","","false","","","","","","","","","","null","","998","","0","1","null","null","arrowup","[0.325,0.675,0.15,0.85]","","",""
"sailing-trial","103","685130","0.0-11.0-62.0","","","","false","","","","","","","","","","896.9999999998836","","254","","3","1","arrowright","1","arrowright","[0.325,0.675,0.15,0.85]","","",""
"sailing-trial","104","689381","0.0-11.0-63.0","","","","false","","","","","","","","","","null","","1215","","3","0","null","null","arrowup","[0.325,0.675,0.15,0.85]","","",""
"sailing-trial","105","693348","0.0-11.0-64.0","","","","false","","","","","","","","","","964.0000000001164","","43.000000000116415","","0","1","arrowleft","0","arrowleft","[0.325,0.675,0.15,0.85]","","",""
"sailing-trial","106","697180","0.0-11.0-65.0","","","","false","","","","","","","","","","null","","910","","0","1","null","null","arrowup","[0.325,0.675,0.15,0.85]","","",""
"sailing-trial","107","701072","0.0-11.0-66.0","","","","false","","","","","","","","","","565.0000000001164","","90","","0","1","arrowleft","0","arrowleft","[0.325,0.675,0.15,0.85]","","",""
"sailing-trial","108","705297","0.0-11.0-67.0","","","","false","","","","","","","","","","null","","916.9999999998836","","2","1","null","null","arrowup","[0.325,0.675,0.15,0.85]","","",""
"sailing-trial","109","709264","0.0-11.0-68.0","","","","false","","","","","","","","","","522","","462","","1","1","arrowleft","0","arrowright","[0.325,0.675,0.15,0.85]","","",""
"sailing-trial","110","711563","0.0-11.0-69.0","","","","false","","","","","","","","","","null","","524","","2","0","null","null","arrowup","[0.325,0.675,0.15,0.85]","","",""
"sailing-trial","111","715031","0.0-11.0-70.0","","","","false","","","","","","","","","","673","","54","","1","1","arrowleft","0","arrowright","[0.15,0.85,0.325,0.675]","","",""
"sailing-trial","112","718514","0.0-11.0-71.0","","","","false","","","","","","","","","","null","","1367.0000000001164","","1","1","null","null","arrowup","[0.15,0.85,0.325,0.675]","","",""
"sailing-trial","113","723281","0.0-11.0-72.0","","","","false","","","","","","","","","","861.9999999998836","","897","","1","1","arrowleft","0","arrowright","[0.15,0.85,0.325,0.675]","","",""
"sailing-trial","114","726046","0.0-11.0-73.0","","","","false","","","","","","","","","","null","","788","","0","0","null","null","arrowup","[0.15,0.85,0.325,0.675]","","",""
"sailing-trial","115","730031","0.0-11.0-74.0","","","","false","","","","","","","","","","569","","276","","3","1","arrowright","1","arrowright","[0.15,0.85,0.325,0.675]","","",""
"sailing-trial","116","732981","0.0-11.0-75.0","","","","false","","","","","","","","","","null","","972","","1","1","null","null","arrowup","[0.15,0.85,0.325,0.675]","","",""
"sailing-trial","117","738315","0.0-11.0-76.0","","","","false","","","","","","","","","","735.0000000001164","","453","","0","0","arrowleft","0","arrowleft","[0.15,0.85,0.325,0.675]","","",""
"sailing-trial","118","741035","0.0-11.0-77.0","","","","false","","","","","","","","","","null","","812","","2","0","null","null","arrowup","[0.15,0.85,0.325,0.675]","","",""
"sailing-trial","119","744681","0.0-11.0-78.0","","","","false","","","","","","","","","","499.0000000001164","","145.00000000011642","","1","1","arrowleft","0","arrowright","[0.15,0.85,0.325,0.675]","","",""
"sailing-trial","120","747569","0.0-11.0-79.0","","","","false","","","","","","","","","","null","","846","","0","0","null","null","arrowup","[0.15,0.85,0.325,0.675]","","",""
"sailing-trial","121","751113","0.0-11.0-80.0","","","","false","","","","","","","","","","733","","77","","1","1","arrowleft","0","arrowright","[0.15,0.85,0.325,0.675]","","",""
"sailing-trial","122","754431","0.0-11.0-81.0","","","","false","","","","","","","","","","null","","1144","","3","1","null","null","arrowup","[0.15,0.85,0.325,0.675]","","",""
"sailing-trial","123","758097","0.0-11.0-82.0","","","","false","","","","","","","","","","549","","164","","3","1","arrowright","1","arrowright","[0.15,0.85,0.325,0.675]","","",""
"sailing-trial","124","761064","0.0-11.0-83.0","","","","false","","","","","","","","","","null","","1091","","3","1","null","null","arrowup","[0.15,0.85,0.325,0.675]","","",""
"sailing-trial","125","763950","0.0-11.0-84.0","","","","false","","","","","","","","","","561","","144.00000000011642","","3","0","arrowright","1","arrowright","[0.15,0.85,0.325,0.675]","","",""
"sailing-trial","126","767014","0.0-11.0-85.0","","","","false","","","","","","","","","","null","","1009","","3","1","null","null","arrowup","[0.15,0.85,0.325,0.675]","","",""
"sailing-trial","127","770330","0.0-11.0-86.0","","","","false","","","","","","","","","","496.9999999998836","","62","","1","1","arrowleft","0","arrowright","[0.325,0.675,0.15,0.85]","","",""
"sailing-trial","128","772829","0.0-11.0-87.0","","","","false","","","","","","","","","","null","","773","","2","0","null","null","arrowup","[0.325,0.675,0.15,0.85]","","",""
"sailing-trial","129","776614","0.0-11.0-88.0","","","","false","","","","","","","","","","571","","37","","1","1","arrowleft","0","arrowright","[0.325,0.675,0.15,0.85]","","",""
"sailing-trial","130","779144","0.0-11.0-89.0","","","","false","","","","","","","","","","null","","840","","0","0","null","null","arrowup","[0.325,0.675,0.15,0.85]","","",""
"sailing-trial","131","782447","0.0-11.0-90.0","","","","false","","","","","","","","","","529","","120","","1","1","arrowleft","0","arrowright","[0.325,0.675,0.15,0.85]","","",""
"sailing-trial","132","784848","0.0-11.0-91.0","","","","false","","","","","","","","","","null","","718.9999999998836","","0","0","null","null","arrowup","[0.325,0.675,0.15,0.85]","","",""
"sailing-trial","133","787718","0.0-11.0-92.0","","","","false","","","","","","","","","","549","","108.00000000011642","","3","0","arrowright","1","arrowright","[0.325,0.675,0.15,0.85]","","",""
"sailing-trial","134","791616","0.0-11.0-93.0","","","","false","","","","","","","","","","null","","861","","2","0","null","null","arrowup","[0.325,0.675,0.15,0.85]","","",""
"sailing-trial","135","794947","0.0-11.0-94.0","","","","false","","","","","","","","","","540","","144.99999999988358","","1","1","arrowleft","0","arrowright","[0.325,0.675,0.15,0.85]","","",""
"sailing-trial","136","798163","0.0-11.0-95.0","","","","false","","","","","","","","","","null","","1177","","1","1","null","null","arrowup","[0.325,0.675,0.15,0.85]","","",""
"sailing-trial","137","801847","0.0-11.0-96.0","","","","false","","","","","","","","","","683","","207","","1","1","arrowleft","0","arrowright","[0.325,0.675,0.15,0.85]","","",""
"sailing-trial","138","804574","0.0-11.0-97.0","","","","false","","","","","","","","","","null","","844","","2","0","null","null","arrowup","[0.325,0.675,0.15,0.85]","","",""
"sailing-trial","139","807980","0.0-11.0-98.0","","","","false","","","","","","","","","","400","","172","","3","1","arrowright","1","arrowright","[0.325,0.675,0.15,0.85]","","",""
"sailing-trial","140","811147","0.0-11.0-99.0","","","","false","","","","","","","","","","null","","1079","","1","1","null","null","arrowup","[0.325,0.675,0.15,0.85]","","",""
"sailing-trial","141","814072","0.0-11.0-100.0","","","","false","","","","","","","","","","462.0000000001164","","314","","1","0","arrowleft","0","arrowright","[0.325,0.675,0.15,0.85]","","",""
"sailing-trial","142","817196","0.0-11.0-101.0","","","","false","","","","","","","","","","null","","989","","2","1","null","null","arrowup","[0.325,0.675,0.15,0.85]","","",""
"sailing-trial","143","821740","0.0-11.0-102.0","","","","false","","","","","","","","","","382","","455","","2","0","arrowright","1","arrowleft","[0.325,0.675,0.15,0.85]","","",""
"sailing-trial","144","825081","0.0-11.0-103.0","","","","false","","","","","","","","","","null","","1039","","3","1","null","null","arrowup","[0.325,0.675,0.15,0.85]","","",""
"sailing-trial","145","828697","0.0-11.0-104.0","","","","false","","","","","","","","","","453","","3","","3","1","arrowright","1","arrowright","[0.15,0.85,0.325,0.675]","","",""
"sailing-trial","146","830995","0.0-11.0-105.0","","","","false","","","","","","","","","","null","","959.9999999998836","","3","0","null","null","arrowup","[0.15,0.85,0.325,0.675]","","",""
"sailing-trial","147","833590","0.0-11.0-106.0","","","","false","","","","","","","","","","404","","5","","0","0","arrowleft","0","arrowleft","[0.15,0.85,0.325,0.675]","","",""
"sailing-trial","148","835852","0.0-11.0-107.0","","","","false","","","","","","","","","","null","","466","","0","0","null","null","arrowup","[0.15,0.85,0.325,0.675]","","",""
"sailing-trial","149","839547","0.0-11.0-108.0","","","","false","","","","","","","","","","821","","203.00000000011642","","1","1","arrowleft","0","arrowright","[0.15,0.85,0.325,0.675]","","",""
"sailing-trial","150","841864","0.0-11.0-109.0","","","","false","","","","","","","","","","null","","237","","3","1","null","null","arrowup","[0.15,0.85,0.325,0.675]","","",""
"sailing-trial","151","845280","0.0-11.0-110.0","","","","false","","","","","","","","","","644","","9","","1","1","arrowleft","0","arrowright","[0.15,0.85,0.325,0.675]","","",""
"sailing-trial","152","848023","0.0-11.0-111.0","","","","false","","","","","","","","","","null","","848","","2","0","null","null","arrowup","[0.15,0.85,0.325,0.675]","","",""
"sailing-trial","153","851846","0.0-11.0-112.0","","","","false","","","","","","","","","","554.9999999998836","","346","","1","1","arrowleft","0","arrowright","[0.15,0.85,0.325,0.675]","","",""
"sailing-trial","154","854561","0.0-11.0-113.0","","","","false","","","","","","","","","","null","","1135","","1","0","null","null","arrowup","[0.15,0.85,0.325,0.675]","","",""
"sailing-trial","155","857898","0.0-11.0-114.0","","","","false","","","","","","","","","","521","","77","","2","1","arrowright","1","arrowleft","[0.15,0.85,0.325,0.675]","","",""
"sailing-trial","156","860730","0.0-11.0-115.0","","","","false","","","","","","","","","","null","","934","","3","1","null","null","arrowup","[0.15,0.85,0.325,0.675]","","",""
"sailing-trial","157","863960","0.0-11.0-116.0","","","","false","","","","","","","","","","776","","205","","3","0","arrowright","1","arrowright","[0.15,0.85,0.325,0.675]","","",""
"sailing-trial","158","866598","0.0-11.0-117.0","","","","false","","","","","","","","","","null","","872.9999999998836","","2","0","null","null","arrowup","[0.15,0.85,0.325,0.675]","","",""
"sailing-trial","159","869657","0.0-11.0-118.0","","","","false","","","","","","","","","","467","","101","","0","0","arrowleft","0","arrowleft","[0.15,0.85,0.325,0.675]","","",""
"sailing-trial","160","872247","0.0-11.0-119.0","","","","false","","","","","","","","","","null","","640","","3","1","null","null","arrowup","[0.15,0.85,0.325,0.675]","","",""
"sailing-trial","161","875419","0.0-11.0-120.0","","","","false","","","","","","","","","","827","","136.99999999988358","","3","0","arrowright","1","arrowright","[0.15,0.85,0.325,0.675]","","",""
"sailing-trial","162","878266","0.0-11.0-121.0","","","","false","","","","","","","","","","null","","1446","","3","0","null","null","arrowup","[0.15,0.85,0.325,0.675]","","",""
"sailing-trial","163","882097","0.0-11.0-122.0","","","","false","","","","","","","","","","598","","129","","1","1","arrowleft","0","arrowright","[0.15,0.85,0.325,0.675]","","",""
"sailing-trial","164","884606","0.0-11.0-123.0","","","","false","","","","","","","","","","null","","863.0000000001164","","0","0","null","null","arrowup","[0.15,0.85,0.325,0.675]","","",""
"sailing-trial","165","889456","0.0-11.0-124.0","","","","false","","","","","","","","","","1053","","183","","0","0","arrowleft","0","arrowleft","[0.675,0.325,0.85,0.15]","","",""
"sailing-trial","166","892675","0.0-11.0-125.0","","","","false","","","","","","","","","","null","","1275","","2","1","null","null","arrowup","[0.675,0.325,0.85,0.15]","","",""
"sailing-trial","167","895832","0.0-11.0-126.0","","","","false","","","","","","","","","","592","","141","","1","0","arrowleft","0","arrowright","[0.675,0.325,0.85,0.15]","","",""
"sailing-trial","168","898489","0.0-11.0-127.0","","","","false","","","","","","","","","","null","","1321","","1","0","null","null","arrowup","[0.675,0.325,0.85,0.15]","","",""
"sailing-trial","169","901578","0.0-11.0-128.0","","","","false","","","","","","","","","","731","","110","","2","0","arrowright","1","arrowleft","[0.675,0.325,0.85,0.15]","","",""
"sailing-trial","170","903481","0.0-11.0-129.0","","","","false","","","","","","","","","","null","","530","","1","0","null","null","arrowup","[0.675,0.325,0.85,0.15]","","",""
"sailing-trial","171","906481","0.0-11.0-130.0","","","","false","","","","","","","","","","531","","7","","3","0","arrowright","1","arrowright","[0.675,0.325,0.85,0.15]","","",""
"sailing-trial","172","908833","0.0-11.0-131.0","","","","false","","","","","","","","","","null","","1123","","1","0","null","null","arrowup","[0.675,0.325,0.85,0.15]","","",""
"sailing-trial","173","913232","0.0-11.0-132.0","","","","false","","","","","","","","","","1732.0000000001164","","406","","3","0","arrowright","1","arrowright","[0.675,0.325,0.85,0.15]","","",""
"sailing-trial","174","915010","0.0-11.0-133.0","","","","false","","","","","","","","","","null","","441","","3","0","null","null","arrowup","[0.675,0.325,0.85,0.15]","","",""
"sailing-trial","175","920347","0.0-11.0-134.0","","","","false","","","","","","","","","","462","","2026","","0","1","arrowleft","0","arrowleft","[0.675,0.325,0.85,0.15]","","",""
"sailing-trial","176","922846","0.0-11.0-135.0","","","","false","","","","","","","","","","null","","863.0000000001164","","0","1","null","null","arrowup","[0.675,0.325,0.85,0.15]","","",""
"sailing-trial","177","927547","0.0-11.0-136.0","","","","false","","","","","","","","","","969","","678","","0","1","arrowleft","0","arrowleft","[0.675,0.325,0.85,0.15]","","",""
"sailing-trial","178","930747","0.0-11.0-137.0","","","","false","","","","","","","","","","null","","913","","2","1","null","null","arrowup","[0.675,0.325,0.85,0.15]","","",""
"sailing-trial","179","934230","0.0-11.0-138.0","","","","false","","","","","","","","","","514","","44","","0","1","arrowleft","0","arrowleft","[0.675,0.325,0.85,0.15]","","",""
"sailing-trial","180","937139","0.0-11.0-139.0","","","","false","","","","","","","","","","null","","973","","2","1","null","null","arrowup","[0.675,0.325,0.85,0.15]","","",""
"sailing-trial","181","942009","0.0-11.0-140.0","","","","false","","","","","","","","","","727","","914","","0","1","arrowleft","0","arrowleft","[0.85,0.15,0.675,0.325]","","",""
"sailing-trial","182","945058","0.0-11.0-141.0","","","","false","","","","","","","","","","null","","1016","","3","0","null","null","arrowup","[0.85,0.15,0.675,0.325]","","",""
"sailing-trial","183","948796","0.0-11.0-142.0","","","","false","","","","","","","","","","538","","116","","0","1","arrowleft","0","arrowleft","[0.85,0.15,0.675,0.325]","","",""
"sailing-trial","184","951068","0.0-11.0-143.0","","","","false","","","","","","","","","","null","","886.0000000001164","","3","0","null","null","arrowup","[0.85,0.15,0.675,0.325]","","",""
"sailing-trial","185","955347","0.0-11.0-144.0","","","","false","","","","","","","","","","535","","857.9999999998836","","0","1","arrowleft","0","arrowleft","[0.85,0.15,0.675,0.325]","","",""
"sailing-trial","186","957291","0.0-11.0-145.0","","","","false","","","","","","","","","","null","","647","","1","0","null","null","arrowup","[0.85,0.15,0.675,0.325]","","",""
"sailing-trial","187","961129","0.0-11.0-146.0","","","","false","","","","","","","","","","882.9999999998836","","200","","0","1","arrowleft","0","arrowleft","[0.85,0.15,0.675,0.325]","","",""
"sailing-trial","188","964364","0.0-11.0-147.0","","","","false","","","","","","","","","","null","","909.0000000001164","","3","1","null","null","arrowup","[0.85,0.15,0.675,0.325]","","",""
"sailing-trial","189","968164","0.0-11.0-148.0","","","","false","","","","","","","","","","538.9999999998836","","58.999999999883585","","0","1","arrowleft","0","arrowleft","[0.85,0.15,0.675,0.325]","","",""
"sailing-trial","190","971513","0.0-11.0-149.0","","","","false","","","","","","","","","","null","","1132.9999999998836","","0","1","null","null","arrowup","[0.85,0.15,0.675,0.325]","","",""
"sailing-trial","191","976723","0.0-11.0-150.0","","","","false","","","","","","","","","","2445.9999999998836","","302","","0","0","arrowleft","0","arrowleft","[0.85,0.15,0.675,0.325]","","",""
"sailing-trial","192","980682","0.0-11.0-151.0","","","","false","","","","","","","","","","null","","915","","3","0","null","null","arrowup","[0.85,0.15,0.675,0.325]","","",""
"sailing-trial","193","983775","0.0-11.0-152.0","","","","false","","","","","","","","","","615.0000000001164","","182.00000000011642","","1","0","arrowleft","0","arrowright","[0.85,0.15,0.675,0.325]","","",""
"sailing-trial","194","987432","0.0-11.0-153.0","","","","false","","","","","","","","","","null","","615","","2","0","null","null","arrowup","[0.85,0.15,0.675,0.325]","","",""
"sailing-trial","195","991229","0.0-11.0-154.0","","","","false","","","","","","","","","","282.9999999998836","","306","","0","1","arrowleft","0","arrowleft","[0.85,0.15,0.675,0.325]","","",""
"sailing-trial","196","996174","0.0-11.0-155.0","","","","false","","","","","","","","","","null","","1906","","3","0","null","null","arrowup","[0.85,0.15,0.675,0.325]","","",""
"sailing-trial","197","1001397","0.0-11.0-156.0","","","","false","","","","","","","","","","1625","","480","","0","1","arrowleft","0","arrowleft","[0.85,0.15,0.675,0.325]","","",""
"sailing-trial","198","1004360","0.0-11.0-157.0","","","","false","","","","","","","","","","null","","1044","","0","0","null","null","arrowup","[0.85,0.15,0.675,0.325]","","",""
"sailing-trial","199","1009380","0.0-11.0-158.0","","","","false","","","","","","","","","","1340","","769","","0","1","arrowleft","0","arrowleft","[0.85,0.15,0.675,0.325]","","",""
"sailing-trial","200","1011969","0.0-11.0-159.0","","","","false","","","","","","","","","","null","","891","","3","0","null","null","arrowup","[0.85,0.15,0.675,0.325]","","",""
"sailing-trial","201","1016479","0.0-11.0-160.0","","","","false","","","","","","","","","","1276","","181","","2","1","arrowright","1","arrowleft","[0.85,0.15,0.675,0.325]","","",""
"sailing-trial","202","1019064","0.0-11.0-161.0","","","","false","","","","","","","","","","null","","653.0000000001164","","0","1","null","null","arrowup","[0.85,0.15,0.675,0.325]","","",""
"sailing-trial","203","1023491","0.0-11.0-162.0","","","","false","","","","","","","","","","1577","","477.9999999998836","","2","0","arrowright","1","arrowleft","[0.325,0.675,0.15,0.85]","","",""
"sailing-trial","204","1026263","0.0-11.0-163.0","","","","false","","","","","","","","","","null","","942","","3","1","null","null","arrowup","[0.325,0.675,0.15,0.85]","","",""
"sailing-trial","205","1030224","0.0-11.0-164.0","","","","false","","","","","","","","","","996","","618","","0","0","arrowleft","0","arrowleft","[0.325,0.675,0.15,0.85]","","",""
"sailing-trial","206","1032605","0.0-11.0-165.0","","","","false","","","","","","","","","","null","","897.0000000001164","","3","0","null","null","arrowup","[0.325,0.675,0.15,0.85]","","",""
"sailing-trial","207","1035839","0.0-11.0-166.0","","","","false","","","","","","","","","","702","","5.000000000116415","","1","0","arrowleft","0","arrowright","[0.325,0.675,0.15,0.85]","","",""
"sailing-trial","208","1037912","0.0-11.0-167.0","","","","false","","","","","","","","","","null","","603","","2","0","null","null","arrowup","[0.325,0.675,0.15,0.85]","","",""
"sailing-trial","209","1041234","0.0-11.0-168.0","","","","false","","","","","","","","","","885.9999999998836","","249.00000000011642","","3","0","arrowright","1","arrowright","[0.325,0.675,0.15,0.85]","","",""
"sailing-trial","210","1043802","0.0-11.0-169.0","","","","false","","","","","","","","","","null","","1448","","1","0","null","null","arrowup","[0.325,0.675,0.15,0.85]","","",""
"sailing-trial","211","1047780","0.0-11.0-170.0","","","","false","","","","","","","","","","972.0000000002328","","173","","0","1","arrowleft","0","arrowleft","[0.325,0.675,0.15,0.85]","","",""
"sailing-trial","212","1051648","0.0-11.0-171.0","","","","false","","","","","","","","","","null","","839","","2","0","null","null","arrowup","[0.325,0.675,0.15,0.85]","","",""
"sailing-trial","213","1054983","0.0-11.0-172.0","","","","false","","","","","","","","","","527","","354","","0","0","arrowleft","0","arrowleft","[0.325,0.675,0.15,0.85]","","",""
"sailing-trial","214","1058910","0.0-11.0-173.0","","","","false","","","","","","","","","","null","","1726","","1","0","null","null","arrowup","[0.325,0.675,0.15,0.85]","","",""
"sailing-trial","215","1062904","0.0-11.0-174.0","","","","false","","","","","","","","","","1181","","325","","2","0","arrowright","1","arrowleft","[0.325,0.675,0.15,0.85]","","",""
"sailing-trial","216","1064928","0.0-11.0-175.0","","","","false","","","","","","","","","","null","","862.0000000002328","","0","0","null","null","arrowup","[0.325,0.675,0.15,0.85]","","",""
"sailing-trial","217","1068084","0.0-11.0-176.0","","","","false","","","","","","","","","","574","","396","","1","0","arrowleft","0","arrowright","[0.325,0.675,0.15,0.85]","","",""
"sailing-trial","218","1070614","0.0-11.0-177.0","","","","false","","","","","","","","","","null","","952","","3","0","null","null","arrowup","[0.325,0.675,0.15,0.85]","","",""
"sailing-trial","219","1077546","0.0-11.0-178.0","","","","false","","","","","","","","","","955","","3116","","3","1","arrowright","1","arrowright","[0.325,0.675,0.15,0.85]","","",""
"sailing-trial","220","1080561","0.0-11.0-179.0","","","","false","","","","","","","","","","null","","1303","","2","0","null","null","arrowup","[0.325,0.675,0.15,0.85]","","",""
"sailing-trial","221","1084735","0.0-11.0-180.0","","","","false","","","","","","","","","","1008","","712","","3","0","arrowright","1","arrowright","[0.325,0.675,0.15,0.85]","","",""
"sailing-trial","222","1088649","0.0-11.0-181.0","","","","false","","","","","","","","","","null","","878","","2","0","null","null","arrowup","[0.325,0.675,0.15,0.85]","","",""
"sailing-trial","223","1093099","0.0-11.0-182.0","","","","false","","","","","","","","","","1123","","158","","0","0","arrowleft","0","arrowleft","[0.15,0.85,0.325,0.675]","","",""
"sailing-trial","224","1095755","0.0-11.0-183.0","","","","false","","","","","","","","","","null","","1479","","3","0","null","null","arrowup","[0.15,0.85,0.325,0.675]","","",""
"sailing-trial","225","1106043","0.0-11.0-184.0","","","","false","","","","","","","","","","6644","","6","","0","0","arrowleft","0","arrowleft","[0.15,0.85,0.325,0.675]","","",""
"sailing-trial","226","1111278","0.0-11.0-185.0","","","","false","","","","","","","","","","null","","3806","","3","0","null","null","arrowup","[0.15,0.85,0.325,0.675]","","",""
"sailing-trial","227","1115154","0.0-11.0-186.0","","","","false","","","","","","","","","","565.0000000002328","","354","","0","0","arrowleft","0","arrowleft","[0.15,0.85,0.325,0.675]","","",""
"sailing-trial","228","1119112","0.0-11.0-187.0","","","","false","","","","","","","","","","null","","1469","","1","1","null","null","arrowup","[0.15,0.85,0.325,0.675]","","",""
"sailing-trial","229","1122510","0.0-11.0-188.0","","","","false","","","","","","","","","","525","","306","","0","0","arrowleft","0","arrowleft","[0.15,0.85,0.325,0.675]","","",""
"sailing-trial","230","1125779","0.0-11.0-189.0","","","","false","","","","","","","","","","null","","1187","","1","1","null","null","arrowup","[0.15,0.85,0.325,0.675]","","",""
"sailing-trial","231","1132832","0.0-11.0-190.0","","","","false","","","","","","","","","","3244","","1285","","0","0","arrowleft","0","arrowleft","[0.15,0.85,0.325,0.675]","","",""
"sailing-trial","232","1136446","0.0-11.0-191.0","","","","false","","","","","","","","","","null","","1343","","3","1","null","null","arrowup","[0.15,0.85,0.325,0.675]","","",""
"sailing-trial","233","1139133","0.0-11.0-192.0","","","","false","","","","","","","","","","355","","136.00000000023283","","3","0","arrowright","1","arrowright","[0.15,0.85,0.325,0.675]","","",""
"sailing-trial","234","1141879","0.0-11.0-193.0","","","","false","","","","","","","","","","null","","1092","","3","1","null","null","arrowup","[0.15,0.85,0.325,0.675]","","",""
"sailing-trial","235","1145186","0.0-11.0-194.0","","","","false","","","","","","","","","","260","","715","","2","0","arrowright","1","arrowleft","[0.15,0.85,0.325,0.675]","","",""
"sailing-trial","236","1148196","0.0-11.0-195.0","","","","false","","","","","","","","","","null","","657","","1","1","null","null","arrowup","[0.15,0.85,0.325,0.675]","","",""
"sailing-trial","237","1150994","0.0-11.0-196.0","","","","false","","","","","","","","","","526","","110","","0","0","arrowleft","0","arrowleft","[0.15,0.85,0.325,0.675]","","",""
"sailing-trial","238","1155079","0.0-11.0-197.0","","","","false","","","","","","","","","","null","","1950","","3","1","null","null","arrowup","[0.15,0.85,0.325,0.675]","","",""
"sailing-trial","239","1158479","0.0-11.0-198.0","","","","false","","","","","","","","","","420","","53","","1","1","arrowleft","0","arrowright","[0.325,0.675,0.15,0.85]","","",""
"sailing-trial","240","1160616","0.0-11.0-199.0","","","","false","","","","","","","","","","null","","920","","0","0","null","null","arrowup","[0.325,0.675,0.15,0.85]","","",""
"sailing-trial","241","1163760","0.0-11.0-200.0","","","","false","","","","","","","","","","813","","29","","1","0","arrowleft","0","arrowright","[0.325,0.675,0.15,0.85]","","",""
"sailing-trial","242","1167698","0.0-11.0-201.0","","","","false","","","","","","","","","","null","","911","","2","0","null","null","arrowup","[0.325,0.675,0.15,0.85]","","",""
"sailing-trial","243","1171596","0.0-11.0-202.0","","","","false","","","","","","","","","","701","","244","","0","0","arrowleft","0","arrowleft","[0.325,0.675,0.15,0.85]","","",""
"sailing-trial","244","1174096","0.0-11.0-203.0","","","","false","","","","","","","","","","null","","580","","1","1","null","null","arrowup","[0.325,0.675,0.15,0.85]","","",""
"sailing-trial","245","1179480","0.0-11.0-204.0","","","","false","","","","","","","","","","1169.0000000002328","","82","","3","0","arrowright","1","arrowright","[0.325,0.675,0.15,0.85]","","",""
"sailing-trial","246","1182276","0.0-11.0-205.0","","","","false","","","","","","","","","","null","","839","","2","0","null","null","arrowup","[0.325,0.675,0.15,0.85]","","",""
"sailing-trial","247","1185456","0.0-11.0-206.0","","","","false","","","","","","","","","","621","","32","","2","0","arrowright","1","arrowleft","[0.325,0.675,0.15,0.85]","","",""
"sailing-trial","248","1189285","0.0-11.0-207.0","","","","false","","","","","","","","","","null","","2489","","0","0","null","null","arrowup","[0.325,0.675,0.15,0.85]","","",""
"sailing-trial","249","1193229","0.0-11.0-208.0","","","","false","","","","","","","","","","753","","422","","3","1","arrowright","1","arrowright","[0.325,0.675,0.15,0.85]","","",""
"sailing-trial","250","1194998","0.0-11.0-209.0","","","","false","","","","","","","","","","null","","592","","1","0","null","null","arrowup","[0.325,0.675,0.15,0.85]","","",""
"sailing-trial","251","1198612","0.0-11.0-210.0","","","","false","","","","","","","","","","530","","331","","3","1","arrowright","1","arrowright","[0.325,0.675,0.15,0.85]","","",""
"sailing-trial","252","1201362","0.0-11.0-211.0","","","","false","","","","","","","","","","null","","932.0000000002328","","1","1","null","null","arrowup","[0.325,0.675,0.15,0.85]","","",""
"sailing-trial","253","1204092","0.0-11.0-212.0","","","","false","","","","","","","","","","122","","171","","3","0","arrowright","1","arrowright","[0.325,0.675,0.15,0.85]","","",""
"sailing-trial","254","1206671","0.0-11.0-213.0","","","","false","","","","","","","","","","null","","925.9999999997672","","2","0","null","null","arrowup","[0.325,0.675,0.15,0.85]","","",""
"sailing-trial","255","1210044","0.0-11.0-214.0","","","","false","","","","","","","","","","583","","27","","2","1","arrowright","1","arrowleft","[0.675,0.325,0.85,0.15]","","",""
"sailing-trial","256","1212763","0.0-11.0-215.0","","","","false","","","","","","","","","","null","","979","","3","1","null","null","arrowup","[0.675,0.325,0.85,0.15]","","",""
"sailing-trial","257","1216919","0.0-11.0-216.0","","","","false","","","","","","","","","","1261.0000000002328","","484","","0","0","arrowleft","0","arrowleft","[0.675,0.325,0.85,0.15]","","",""
"sailing-trial","258","1219055","0.0-11.0-217.0","","","","false","","","","","","","","","","null","","995","","3","0","null","null","arrowup","[0.675,0.325,0.85,0.15]","","",""
"sailing-trial","259","1222895","0.0-11.0-218.0","","","","false","","","","","","","","","","527.0000000002328","","247.00000000023283","","3","1","arrowright","1","arrowright","[0.675,0.325,0.85,0.15]","","",""
"sailing-trial","260","1225445","0.0-11.0-219.0","","","","false","","","","","","","","","","null","","800","","2","1","null","null","arrowup","[0.675,0.325,0.85,0.15]","","",""
"sailing-trial","261","1228340","0.0-11.0-220.0","","","","false","","","","","","","","","","538","","104","","3","0","arrowright","1","arrowright","[0.675,0.325,0.85,0.15]","","",""
"sailing-trial","262","1230073","0.0-11.0-221.0","","","","false","","","","","","","","","","null","","590","","1","0","null","null","arrowup","[0.675,0.325,0.85,0.15]","","",""
"sailing-trial","263","1234613","0.0-11.0-222.0","","","","false","","","","","","","","","","1223","","461","","1","1","arrowleft","0","arrowright","[0.675,0.325,0.85,0.15]","","",""
"sailing-trial","264","1237212","0.0-11.0-223.0","","","","false","","","","","","","","","","null","","323","","0","1","null","null","arrowup","[0.675,0.325,0.85,0.15]","","",""
"sailing-trial","265","1240294","0.0-11.0-224.0","","","","false","","","","","","","","","","668","","156","","1","0","arrowleft","0","arrowright","[0.675,0.325,0.85,0.15]","","",""
"sailing-trial","266","1247096","0.0-11.0-225.0","","","","false","","","","","","","","","","null","","5093.999999999767","","2","0","null","null","arrowup","[0.675,0.325,0.85,0.15]","","",""
"sailing-trial","267","1251794","0.0-11.0-226.0","","","","false","","","","","","","","","","584","","1361","","1","0","arrowleft","0","arrowright","[0.675,0.325,0.85,0.15]","","",""
"sailing-trial","268","1255862","0.0-11.0-227.0","","","","false","","","","","","","","","","null","","2106","","1","1","null","null","arrowup","[0.675,0.325,0.85,0.15]","","",""
"sailing-trial","269","1258806","0.0-11.0-228.0","","","","false","","","","","","","","","","493","","136","","3","0","arrowright","1","arrowright","[0.675,0.325,0.85,0.15]","","",""
"sailing-trial","270","1262662","0.0-11.0-229.0","","","","false","","","","","","","","","","null","","1085","","2","1","null","null","arrowup","[0.675,0.325,0.85,0.15]","","",""
"sailing-trial","271","1265895","0.0-11.0-230.0","","","","false","","","","","","","","","","121","","248.99999999976717","","0","1","arrowleft","0","arrowleft","[0.675,0.325,0.85,0.15]","","",""
"sailing-trial","272","1268759","0.0-11.0-231.0","","","","false","","","","","","","","","","null","","915","","1","0","null","null","arrowup","[0.675,0.325,0.85,0.15]","","",""
"sailing-trial","273","1271667","0.0-11.0-232.0","","","","false","","","","","","","","","","519","","157.99999999976717","","1","0","arrowleft","0","arrowright","[0.85,0.15,0.675,0.325]","","",""
"sailing-trial","274","1273879","0.0-11.0-233.0","","","","false","","","","","","","","","","null","","527","","3","1","null","null","arrowup","[0.85,0.15,0.675,0.325]","","",""
"sailing-trial","275","1279228","0.0-11.0-234.0","","","","false","","","","","","","","","","844.9999999997672","","1778","","2","1","arrowright","1","arrowleft","[0.85,0.15,0.675,0.325]","","",""
"sailing-trial","276","1281426","0.0-11.0-235.0","","","","false","","","","","","","","","","null","","1044","","2","0","null","null","arrowup","[0.85,0.15,0.675,0.325]","","",""
"sailing-trial","277","1284597","0.0-11.0-236.0","","","","false","","","","","","","","","","525","","198","","3","0","arrowright","1","arrowright","[0.85,0.15,0.675,0.325]","","",""
"sailing-trial","278","1287262","0.0-11.0-237.0","","","","false","","","","","","","","","","null","","804","","0","1","null","null","arrowup","[0.85,0.15,0.675,0.325]","","",""
"sailing-trial","279","1290845","0.0-11.0-238.0","","","","false","","","","","","","","","","269","","232","","0","1","arrowleft","0","arrowleft","[0.85,0.15,0.675,0.325]","","",""
"sailing-trial","280","1294312","0.0-11.0-239.0","","","","false","","","","","","","","","","null","","1714","","2","1","null","null","arrowup","[0.85,0.15,0.675,0.325]","","",""
"sailing-trial","281","1298445","0.0-11.0-240.0","","","","false","","","","","","","","","","1025","","302","","2","1","arrowright","1","arrowleft","[0.85,0.15,0.675,0.325]","","",""
"sailing-trial","282","1301145","0.0-11.0-241.0","","","","false","","","","","","","","","","null","","961","","2","1","null","null","arrowup","[0.85,0.15,0.675,0.325]","","",""
"sailing-trial","283","1303802","0.0-11.0-242.0","","","","false","","","","","","","","","","341.00000000023283","","73","","3","0","arrowright","1","arrowright","[0.85,0.15,0.675,0.325]","","",""
"sailing-trial","284","1306138","0.0-11.0-243.0","","","","false","","","","","","","","","","null","","1131","","3","0","null","null","arrowup","[0.85,0.15,0.675,0.325]","","",""
"sailing-trial","285","1311826","0.0-11.0-244.0","","","","false","","","","","","","","","","717","","1863","","0","1","arrowleft","0","arrowleft","[0.85,0.15,0.675,0.325]","","",""
"sailing-trial","286","1314595","0.0-11.0-245.0","","","","false","","","","","","","","","","null","","1002","","0","1","null","null","arrowup","[0.85,0.15,0.675,0.325]","","",""
"sailing-trial","287","1318595","0.0-11.0-246.0","","","","false","","","","","","","","","","633","","596","","0","1","arrowleft","0","arrowleft","[0.85,0.15,0.675,0.325]","","",""
"sailing-trial","288","1320587","0.0-11.0-247.0","","","","false","","","","","","","","","","null","","767","","1","0","null","null","arrowup","[0.85,0.15,0.675,0.325]","","",""
"sailing-trial","289","1324063","0.0-11.0-248.0","","","","false","","","","","","","","","","415","","205","","0","1","arrowleft","0","arrowleft","[0.85,0.15,0.675,0.325]","","",""
"sailing-trial","290","1326645","0.0-11.0-249.0","","","","false","","","","","","","","","","null","","932","","0","1","null","null","arrowup","[0.85,0.15,0.675,0.325]","","",""
"sailing-trial","291","1330028","0.0-11.0-250.0","","","","false","","","","","","","","","","380.00000000023283","","176.99999999976717","","0","1","arrowleft","0","arrowleft","[0.675,0.325,0.85,0.15]","","",""
"sailing-trial","292","1332208","0.0-11.0-251.0","","","","false","","","","","","","","","","null","","975","","1","0","null","null","arrowup","[0.675,0.325,0.85,0.15]","","",""
"sailing-trial","293","1336362","0.0-11.0-252.0","","","","false","","","","","","","","","","456","","502.00000000023283","","0","1","arrowleft","0","arrowleft","[0.675,0.325,0.85,0.15]","","",""
"sailing-trial","294","1338928","0.0-11.0-253.0","","","","false","","","","","","","","","","null","","864.0000000002328","","0","1","null","null","arrowup","[0.675,0.325,0.85,0.15]","","",""
"sailing-trial","295","1342329","0.0-11.0-254.0","","","","false","","","","","","","","","","339","","89","","0","1","arrowleft","0","arrowleft","[0.675,0.325,0.85,0.15]","","",""
"sailing-trial","296","1344661","0.0-11.0-255.0","","","","false","","","","","","","","","","null","","1018","","1","0","null","null","arrowup","[0.675,0.325,0.85,0.15]","","",""
"sailing-trial","297","1347703","0.0-11.0-256.0","","","","false","","","","","","","","","","520","","133","","0","0","arrowleft","0","arrowleft","[0.675,0.325,0.85,0.15]","","",""
"sailing-trial","298","1350222","0.0-11.0-257.0","","","","false","","","","","","","","","","null","","892","","3","0","null","null","arrowup","[0.675,0.325,0.85,0.15]","","",""
"sailing-trial","299","1353995","0.0-11.0-258.0","","","","false","","","","","","","","","","1254","","9","","3","0","arrowright","1","arrowright","[0.675,0.325,0.85,0.15]","","",""
"sailing-trial","300","1357311","0.0-11.0-259.0","","","","false","","","","","","","","","","null","","1366.9999999997672","","3","1","null","null","arrowup","[0.675,0.325,0.85,0.15]","","",""
"sailing-trial","301","1360545","0.0-11.0-260.0","","","","false","","","","","","","","","","163","","119","","3","1","arrowright","1","arrowright","[0.675,0.325,0.85,0.15]","","",""
"sailing-trial","302","1364227","0.0-11.0-261.0","","","","false","","","","","","","","","","null","","1800","","2","1","null","null","arrowup","[0.675,0.325,0.85,0.15]","","",""
"sailing-trial","303","1368591","0.0-11.0-262.0","","","","false","","","","","","","","","","819","","1345","","3","0","arrowright","1","arrowright","[0.675,0.325,0.85,0.15]","","",""
"sailing-trial","304","1371844","0.0-11.0-263.0","","","","false","","","","","","","","","","null","","924.0000000002328","","2","1","null","null","arrowup","[0.675,0.325,0.85,0.15]","","",""
"sailing-trial","305","1375043","0.0-11.0-264.0","","","","false","","","","","","","","","","252","","152.99999999976717","","0","1","arrowleft","0","arrowleft","[0.675,0.325,0.85,0.15]","","",""
"sailing-trial","306","1377632","0.0-11.0-265.0","","","","false","","","","","","","","","","null","","734.9999999997672","","2","0","null","null","arrowup","[0.675,0.325,0.85,0.15]","","",""
"sailing-trial","307","1381145","0.0-11.0-266.0","","","","false","","","","","","","","","","455","","274","","0","1","arrowleft","0","arrowleft","[0.675,0.325,0.85,0.15]","","",""
"sailing-trial","308","1384311","0.0-11.0-267.0","","","","false","","","","","","","","","","null","","878","","1","1","null","null","arrowup","[0.675,0.325,0.85,0.15]","","",""
"sailing-trial","309","1387085","0.0-11.0-268.0","","","","false","","","","","","","","","","336","","149","","0","0","arrowleft","0","arrowleft","[0.675,0.325,0.85,0.15]","","",""
"sailing-trial","310","1389761","0.0-11.0-269.0","","","","false","","","","","","","","","","null","","908","","2","1","null","null","arrowup","[0.675,0.325,0.85,0.15]","","",""
"sailing-trial","311","1392476","0.0-11.0-270.0","","","","false","","","","","","","","","","416","","97","","1","0","arrowleft","0","arrowright","[0.85,0.15,0.675,0.325]","","",""
"sailing-trial","312","1394895","0.0-11.0-271.0","","","","false","","","","","","","","","","null","","761.9999999997672","","0","1","null","null","arrowup","[0.85,0.15,0.675,0.325]","","",""
"sailing-trial","313","1397861","0.0-11.0-272.0","","","","false","","","","","","","","","","363","","232","","0","0","arrowleft","0","arrowleft","[0.85,0.15,0.675,0.325]","","",""
"sailing-trial","314","1400793","0.0-11.0-273.0","","","","false","","","","","","","","","","null","","1267","","2","1","null","null","arrowup","[0.85,0.15,0.675,0.325]","","",""
"sailing-trial","315","1404279","0.0-11.0-274.0","","","","false","","","","","","","","","","422","","292.99999999976717","","0","1","arrowleft","0","arrowleft","[0.85,0.15,0.675,0.325]","","",""
"sailing-trial","316","1407578","0.0-11.0-275.0","","","","false","","","","","","","","","","null","","1542.0000000002328","","2","1","null","null","arrowup","[0.85,0.15,0.675,0.325]","","",""
"sailing-trial","317","1411111","0.0-11.0-276.0","","","","false","","","","","","","","","","395","","90","","0","1","arrowleft","0","arrowleft","[0.85,0.15,0.675,0.325]","","",""
"sailing-trial","318","1412955","0.0-11.0-277.0","","","","false","","","","","","","","","","null","","708","","3","0","null","null","arrowup","[0.85,0.15,0.675,0.325]","","",""
"sailing-trial","319","1416561","0.0-11.0-278.0","","","","false","","","","","","","","","","478","","272","","0","1","arrowleft","0","arrowleft","[0.85,0.15,0.675,0.325]","","",""
"sailing-trial","320","1418617","0.0-11.0-279.0","","","","false","","","","","","","","","","null","","893.0000000002328","","1","0","null","null","arrowup","[0.85,0.15,0.675,0.325]","","",""
"sailing-trial","321","1422644","0.0-11.0-280.0","","","","false","","","","","","","","","","801.0000000002328","","345","","0","1","arrowleft","0","arrowleft","[0.85,0.15,0.675,0.325]","","",""
"sailing-trial","322","1424535","0.0-11.0-281.0","","","","false","","","","","","","","","","null","","801","","0","0","null","null","arrowup","[0.85,0.15,0.675,0.325]","","",""
"sailing-trial","323","1427545","0.0-11.0-282.0","","","","false","","","","","","","","","","102","","113","","0","1","arrowleft","0","arrowleft","[0.85,0.15,0.675,0.325]","","",""
"sailing-trial","324","1430178","0.0-11.0-283.0","","","","false","","","","","","","","","","null","","884.0000000002328","","1","1","null","null","arrowup","[0.85,0.15,0.675,0.325]","","",""
"sailing-trial","325","1434328","0.0-11.0-284.0","","","","false","","","","","","","","","","826","","574","","0","1","arrowleft","0","arrowleft","[0.85,0.15,0.675,0.325]","","",""
"sailing-trial","326","1437095","0.0-11.0-285.0","","","","false","","","","","","","","","","null","","988","","2","1","null","null","arrowup","[0.85,0.15,0.675,0.325]","","",""
"sailing-trial","327","1441061","0.0-11.0-286.0","","","","false","","","","","","","","","","511","","483","","0","1","arrowleft","0","arrowleft","[0.675,0.325,0.85,0.15]","","",""
"sailing-trial","328","1443658","0.0-11.0-287.0","","","","false","","","","","","","","","","null","","1438","","1","0","null","null","arrowup","[0.675,0.325,0.85,0.15]","","",""
"sailing-trial","329","1447328","0.0-11.0-288.0","","","","false","","","","","","","","","","602.9999999997672","","242","","0","1","arrowleft","0","arrowleft","[0.675,0.325,0.85,0.15]","","",""
"sailing-trial","330","1449271","0.0-11.0-289.0","","","","false","","","","","","","","","","null","","764.0000000002328","","1","0","null","null","arrowup","[0.675,0.325,0.85,0.15]","","",""
"sailing-trial","331","1454294","0.0-11.0-290.0","","","","false","","","","","","","","","","1539","","727","","0","1","arrowleft","0","arrowleft","[0.675,0.325,0.85,0.15]","","",""
"sailing-trial","332","1457044","0.0-11.0-291.0","","","","false","","","","","","","","","","null","","882.9999999997672","","2","1","null","null","arrowup","[0.675,0.325,0.85,0.15]","","",""
"sailing-trial","333","1460645","0.0-11.0-292.0","","","","false","","","","","","","","","","742","","41","","0","1","arrowleft","0","arrowleft","[0.675,0.325,0.85,0.15]","","",""
"sailing-trial","334","1463260","0.0-11.0-293.0","","","","false","","","","","","","","","","null","","927","","0","1","null","null","arrowup","[0.675,0.325,0.85,0.15]","","",""
"sailing-trial","335","1466920","0.0-11.0-294.0","","","","false","","","","","","","","","","547","","371.00000000023283","","0","0","arrowleft","0","arrowleft","[0.675,0.325,0.85,0.15]","","",""
"sailing-trial","336","1469833","0.0-11.0-295.0","","","","false","","","","","","","","","","null","","1340","","0","0","null","null","arrowup","[0.675,0.325,0.85,0.15]","","",""
"sailing-trial","337","1472951","0.0-11.0-296.0","","","","false","","","","","","","","","","646","","118.00000000023283","","0","0","arrowleft","0","arrowleft","[0.675,0.325,0.85,0.15]","","",""
"sailing-trial","338","1475075","0.0-11.0-297.0","","","","false","","","","","","","","","","null","","1035","","1","0","null","null","arrowup","[0.675,0.325,0.85,0.15]","","",""
"sailing-trial","339","1478367","0.0-11.0-298.0","","","","false","","","","","","","","","","578","","392","","0","0","arrowleft","0","arrowleft","[0.675,0.325,0.85,0.15]","","",""
"sailing-trial","340","1480894","0.0-11.0-299.0","","","","false","","","","","","","","","","null","","930","","3","1","null","null","arrowup","[0.675,0.325,0.85,0.15]","","",""
"sailing-trial","341","1483535","0.0-11.0-300.0","","","","false","","","","","","","","","","246.00000000023283","","216","","1","0","arrowleft","0","arrowright","[0.675,0.325,0.85,0.15]","","",""
"sailing-trial","342","1485427","0.0-11.0-301.0","","","","false","","","","","","","","","","null","","737","","0","0","null","null","arrowup","[0.675,0.325,0.85,0.15]","","",""
"sailing-trial","343","1489311","0.0-11.0-302.0","","","","false","","","","","","","","","","511","","575.0000000002328","","0","1","arrowleft","0","arrowleft","[0.85,0.15,0.675,0.325]","","",""
"sailing-trial","344","1491603","0.0-11.0-303.0","","","","false","","","","","","","","","","null","","835","","2","0","null","null","arrowup","[0.85,0.15,0.675,0.325]","","",""
"sailing-trial","345","1494513","0.0-11.0-304.0","","","","false","","","","","","","","","","442","","259","","0","0","arrowleft","0","arrowleft","[0.85,0.15,0.675,0.325]","","",""
"sailing-trial","346","1497694","0.0-11.0-305.0","","","","false","","","","","","","","","","null","","1327","","0","1","null","null","arrowup","[0.85,0.15,0.675,0.325]","","",""
"sailing-trial","347","1500948","0.0-11.0-306.0","","","","false","","","","","","","","","","932","","124","","1","0","arrowleft","0","arrowright","[0.85,0.15,0.675,0.325]","","",""
"sailing-trial","348","1504394","0.0-11.0-307.0","","","","false","","","","","","","","","","null","","862","","2","1","null","null","arrowup","[0.85,0.15,0.675,0.325]","","",""
"sailing-trial","349","1508744","0.0-11.0-308.0","","","","false","","","","","","","","","","742","","460.00000000023283","","3","1","arrowright","1","arrowright","[0.85,0.15,0.675,0.325]","","",""
"sailing-trial","350","1511882","0.0-11.0-309.0","","","","false","","","","","","","","","","null","","719","","0","0","null","null","arrowup","[0.85,0.15,0.675,0.325]","","",""
"sailing-trial","351","1516661","0.0-11.0-310.0","","","","false","","","","","","","","","","650","","525.9999999997672","","3","1","arrowright","1","arrowright","[0.85,0.15,0.675,0.325]","","",""
"sailing-trial","352","1520257","0.0-11.0-311.0","","","","false","","","","","","","","","","null","","1924","","3","0","null","null","arrowup","[0.85,0.15,0.675,0.325]","","",""
"sailing-trial","353","1523692","0.0-11.0-312.0","","","","false","","","","","","","","","","902","","55","","3","0","arrowright","1","arrowright","[0.85,0.15,0.675,0.325]","","",""
"sailing-trial","354","1526539","0.0-11.0-313.0","","","","false","","","","","","","","","","null","","1569","","0","0","null","null","arrowup","[0.85,0.15,0.675,0.325]","","",""
"sailing-trial","355","1530344","0.0-11.0-314.0","","","","false","","","","","","","","","","744.0000000002328","","282","","0","1","arrowleft","0","arrowleft","[0.85,0.15,0.675,0.325]","","",""
"sailing-trial","356","1532442","0.0-11.0-315.0","","","","false","","","","","","","","","","null","","963","","1","0","null","null","arrowup","[0.85,0.15,0.675,0.325]","","",""
"sailing-trial","357","1535469","0.0-11.0-316.0","","","","false","","","","","","","","","","520","","261","","0","0","arrowleft","0","arrowleft","[0.85,0.15,0.675,0.325]","","",""
"sailing-trial","358","1537994","0.0-11.0-317.0","","","","false","","","","","","","","","","null","","759","","0","1","null","null","arrowup","[0.85,0.15,0.675,0.325]","","",""
"sailing-trial","359","1542509","0.0-11.0-318.0","","","","false","","","","","","","","","","673","","343","","1","1","arrowleft","0","arrowright","[0.15,0.85,0.325,0.675]","","",""
"sailing-trial","360","1548380","0.0-11.0-319.0","","","","false","","","","","","","","","","null","","4348","","0","0","null","null","arrowup","[0.15,0.85,0.325,0.675]","","",""
"sailing-trial","361","1553230","0.0-11.0-320.0","","","","false","","","","","","","","","","2040.9999999997672","","127","","0","0","arrowleft","0","arrowleft","[0.15,0.85,0.325,0.675]","","",""
"sailing-trial","362","1556128","0.0-11.0-321.0","","","","false","","","","","","","","","","null","","1035.0000000002328","","1","1","null","null","arrowup","[0.15,0.85,0.325,0.675]","","",""
"sailing-trial","363","1559263","0.0-11.0-322.0","","","","false","","","","","","","","","","654","","12.00000000023283","","0","0","arrowleft","0","arrowleft","[0.15,0.85,0.325,0.675]","","",""
"sailing-trial","364","1561491","0.0-11.0-323.0","","","","false","","","","","","","","","","null","","909","","0","0","null","null","arrowup","[0.15,0.85,0.325,0.675]","","",""
"sailing-trial","365","1565110","0.0-11.0-324.0","","","","false","","","","","","","","","","530","","146","","3","1","arrowright","1","arrowright","[0.15,0.85,0.325,0.675]","","",""
"sailing-trial","366","1567961","0.0-11.0-325.0","","","","false","","","","","","","","","","null","","945.9999999997672","","1","1","null","null","arrowup","[0.15,0.85,0.325,0.675]","","",""
"sailing-trial","367","1571993","0.0-11.0-326.0","","","","false","","","","","","","","","","1155","","72","","3","1","arrowright","1","arrowright","[0.15,0.85,0.325,0.675]","","",""
"sailing-trial","368","1574325","0.0-11.0-327.0","","","","false","","","","","","","","","","null","","1147","","2","0","null","null","arrowup","[0.15,0.85,0.325,0.675]","","",""
"sailing-trial","369","1577456","0.0-11.0-328.0","","","","false","","","","","","","","","","800","","24","","0","0","arrowleft","0","arrowleft","[0.15,0.85,0.325,0.675]","","",""
"sailing-trial","370","1581044","0.0-11.0-329.0","","","","false","","","","","","","","","","null","","1741.9999999997672","","3","1","null","null","arrowup","[0.15,0.85,0.325,0.675]","","",""
"sailing-trial","371","1584294","0.0-11.0-330.0","","","","false","","","","","","","","","","439.99999999976717","","6","","2","1","arrowright","1","arrowleft","[0.15,0.85,0.325,0.675]","","",""
"sailing-trial","372","1586892","0.0-11.0-331.0","","","","false","","","","","","","","","","null","","963.9999999997672","","3","1","null","null","arrowup","[0.15,0.85,0.325,0.675]","","",""
"sailing-trial","373","1590244","0.0-11.0-332.0","","","","false","","","","","","","","","","407","","99","","2","1","arrowright","1","arrowleft","[0.15,0.85,0.325,0.675]","","",""
"sailing-trial","374","1594195","0.0-11.0-333.0","","","","false","","","","","","","","","","null","","921","","2","0","null","null","arrowup","[0.15,0.85,0.325,0.675]","","",""
"sailing-trial","375","1597283","0.0-11.0-334.0","","","","false","","","","","","","","","","720","","142","","0","0","arrowleft","0","arrowleft","[0.15,0.85,0.325,0.675]","","",""
"sailing-trial","376","1599877","0.0-11.0-335.0","","","","false","","","","","","","","","","null","","734.9999999997672","","1","1","null","null","arrowup","[0.15,0.85,0.325,0.675]","","",""
"sailing-trial","377","1603794","0.0-11.0-336.0","","","","false","","","","","","","","","","418","","689","","1","1","arrowleft","0","arrowright","[0.675,0.325,0.85,0.15]","","",""
"sailing-trial","378","1606592","0.0-11.0-337.0","","","","false","","","","","","","","","","null","","697","","2","0","null","null","arrowup","[0.675,0.325,0.85,0.15]","","",""
"sailing-trial","379","1609620","0.0-11.0-338.0","","","","false","","","","","","","","","","463","","165","","3","0","arrowright","1","arrowright","[0.675,0.325,0.85,0.15]","","",""
"sailing-trial","380","1611973","0.0-11.0-339.0","","","","false","","","","","","","","","","null","","875.9999999997672","","0","0","null","null","arrowup","[0.675,0.325,0.85,0.15]","","",""
"sailing-trial","381","1616110","0.0-11.0-340.0","","","","false","","","","","","","","","","514","","215","","0","1","arrowleft","0","arrowleft","[0.675,0.325,0.85,0.15]","","",""
"sailing-trial","382","1619144","0.0-11.0-341.0","","","","false","","","","","","","","","","null","","984","","2","1","null","null","arrowup","[0.675,0.325,0.85,0.15]","","",""
"sailing-trial","383","1621932","0.0-11.0-342.0","","","","false","","","","","","","","","","455","","55","","0","0","arrowleft","0","arrowleft","[0.675,0.325,0.85,0.15]","","",""
"sailing-trial","384","1624977","0.0-11.0-343.0","","","","false","","","","","","","","","","null","","1281","","3","1","null","null","arrowup","[0.675,0.325,0.85,0.15]","","",""
"sailing-trial","385","1629559","0.0-11.0-344.0","","","","false","","","","","","","","","","1084","","1200","","3","0","arrowright","1","arrowright","[0.675,0.325,0.85,0.15]","","",""
"sailing-trial","386","1631844","0.0-11.0-345.0","","","","false","","","","","","","","","","null","","624","","0","1","null","null","arrowup","[0.675,0.325,0.85,0.15]","","",""
"sailing-trial","387","1634994","0.0-11.0-346.0","","","","false","","","","","","","","","","186","","623","","0","0","arrowleft","0","arrowleft","[0.675,0.325,0.85,0.15]","","",""
"sailing-trial","388","1639393","0.0-11.0-347.0","","","","false","","","","","","","","","","null","","3099","","3","0","null","null","arrowup","[0.675,0.325,0.85,0.15]","","",""
"sailing-trial","389","1643211","0.0-11.0-348.0","","","","false","","","","","","","","","","678","","264","","0","1","arrowleft","0","arrowleft","[0.675,0.325,0.85,0.15]","","",""
"sailing-trial","390","1645427","0.0-11.0-349.0","","","","false","","","","","","","","","","null","","322.00000000023283","","0","1","null","null","arrowup","[0.675,0.325,0.85,0.15]","","",""
"sailing-trial","391","1648593","0.0-11.0-350.0","","","","false","","","","","","","","","","257.99999999976717","","155","","0","1","arrowleft","0","arrowleft","[0.675,0.325,0.85,0.15]","","",""
"sailing-trial","392","1650727","0.0-11.0-351.0","","","","false","","","","","","","","","","null","","502","","1","1","null","null","arrowup","[0.675,0.325,0.85,0.15]","","",""
"sailing-trial","393","1654127","0.0-11.0-352.0","","","","false","","","","","","","","","","321.99999999976717","","52.00000000023283","","0","1","arrowleft","0","arrowleft","[0.675,0.325,0.85,0.15]","","",""
"sailing-trial","394","1656544","0.0-11.0-353.0","","","","false","","","","","","","","","","null","","677","","2","1","null","null","arrowup","[0.675,0.325,0.85,0.15]","","",""
"sailing-trial","395","1659627","0.0-11.0-354.0","","","","false","","","","","","","","","","199.99999999976717","","176","","0","1","arrowleft","0","arrowleft","[0.675,0.325,0.85,0.15]","","",""
"sailing-trial","396","1661809","0.0-11.0-355.0","","","","false","","","","","","","","","","null","","817","","3","0","null","null","arrowup","[0.675,0.325,0.85,0.15]","","",""
"sailing-trial","397","1666193","0.0-11.0-356.0","","","","false","","","","","","","","","","535","","1135","","0","1","arrowleft","0","arrowleft","[0.675,0.325,0.85,0.15]","","",""
"sailing-trial","398","1668664","0.0-11.0-357.0","","","","false","","","","","","","","","","null","","1164","","0","0","null","null","arrowup","[0.675,0.325,0.85,0.15]","","",""
"sailing-trial","399","1672594","0.0-11.0-358.0","","","","false","","","","","","","","","","474.00000000023283","","584.9999999997672","","0","1","arrowleft","0","arrowleft","[0.85,0.15,0.675,0.325]","","",""
"sailing-trial","400","1675014","0.0-11.0-359.0","","","","false","","","","","","","","","","null","","890","","1","0","null","null","arrowup","[0.85,0.15,0.675,0.325]","","",""
"sailing-trial","401","1678654","0.0-11.0-360.0","","","","false","","","","","","","","","","1001","","419.99999999976717","","0","0","arrowleft","0","arrowleft","[0.85,0.15,0.675,0.325]","","",""
"sailing-trial","402","1680167","0.0-11.0-361.0","","","","false","","","","","","","","","","null","","360","","1","0","null","null","arrowup","[0.85,0.15,0.675,0.325]","","",""
"sailing-trial","403","1684176","0.0-11.0-362.0","","","","false","","","","","","","","","","830.9999999997672","","315","","0","1","arrowleft","0","arrowleft","[0.85,0.15,0.675,0.325]","","",""
"sailing-trial","404","1686847","0.0-11.0-363.0","","","","false","","","","","","","","","","null","","1003","","1","0","null","null","arrowup","[0.85,0.15,0.675,0.325]","","",""
"sailing-trial","405","1690977","0.0-11.0-364.0","","","","false","","","","","","","","","","667.0000000002328","","677","","0","1","arrowleft","0","arrowleft","[0.85,0.15,0.675,0.325]","","",""
"sailing-trial","406","1693326","0.0-11.0-365.0","","","","false","","","","","","","","","","null","","635","","3","1","null","null","arrowup","[0.85,0.15,0.675,0.325]","","",""
"sailing-trial","407","1697061","0.0-11.0-366.0","","","","false","","","","","","","","","","718","","242","","0","1","arrowleft","0","arrowleft","[0.85,0.15,0.675,0.325]","","",""
"sailing-trial","408","1699527","0.0-11.0-367.0","","","","false","","","","","","","","","","null","","768","","2","1","null","null","arrowup","[0.85,0.15,0.675,0.325]","","",""
"sailing-trial","409","1703360","0.0-11.0-368.0","","","","false","","","","","","","","","","500","","266","","0","1","arrowleft","0","arrowleft","[0.85,0.15,0.675,0.325]","","",""
"sailing-trial","410","1705381","0.0-11.0-369.0","","","","false","","","","","","","","","","null","","905.0000000002328","","3","0","null","null","arrowup","[0.85,0.15,0.675,0.325]","","",""
"sailing-trial","411","1709177","0.0-11.0-370.0","","","","false","","","","","","","","","","888","","106.99999999976717","","0","1","arrowleft","0","arrowleft","[0.85,0.15,0.675,0.325]","","",""
"sailing-trial","412","1711626","0.0-11.0-371.0","","","","false","","","","","","","","","","null","","904","","0","1","null","null","arrowup","[0.85,0.15,0.675,0.325]","","",""
"sailing-trial","413","1715860","0.0-11.0-372.0","","","","false","","","","","","","","","","1030","","213.00000000023283","","0","1","arrowleft","0","arrowleft","[0.85,0.15,0.675,0.325]","","",""
"sailing-trial","414","1717595","0.0-11.0-373.0","","","","false","","","","","","","","","","null","","552.9999999997672","","1","0","null","null","arrowup","[0.85,0.15,0.675,0.325]","","",""
"sailing-trial","415","1721742","0.0-11.0-374.0","","","","false","","","","","","","","","","659.0000000002328","","545","","0","1","arrowleft","0","arrowleft","[0.85,0.15,0.675,0.325]","","",""
"sailing-trial","416","1724959","0.0-11.0-375.0","","","","false","","","","","","","","","","null","","1610","","0","1","null","null","arrowup","[0.85,0.15,0.675,0.325]","","",""
"sailing-trial","417","1728247","0.0-11.0-376.0","","","","false","","","","","","","","","","694","","294.99999999976717","","0","0","arrowleft","0","arrowleft","[0.675,0.325,0.85,0.15]","","",""
"sailing-trial","418","1730515","0.0-11.0-377.0","","","","false","","","","","","","","","","null","","668","","0","0","null","null","arrowup","[0.675,0.325,0.85,0.15]","","",""
"sailing-trial","419","1733544","0.0-11.0-378.0","","","","false","","","","","","","","","","274","","452","","0","0","arrowleft","0","arrowleft","[0.675,0.325,0.85,0.15]","","",""
"sailing-trial","420","1735993","0.0-11.0-379.0","","","","false","","","","","","","","","","null","","317","","0","1","null","null","arrowup","[0.675,0.325,0.85,0.15]","","",""
"sailing-trial","421","1739427","0.0-11.0-380.0","","","","false","","","","","","","","","","446.99999999976717","","183.99999999976717","","0","1","arrowleft","0","arrowleft","[0.675,0.325,0.85,0.15]","","",""
"sailing-trial","422","1741792","0.0-11.0-381.0","","","","false","","","","","","","","","","null","","571","","3","1","null","null","arrowup","[0.675,0.325,0.85,0.15]","","",""
"sailing-trial","423","1746143","0.0-11.0-382.0","","","","false","","","","","","","","","","764","","859","","0","1","arrowleft","0","arrowleft","[0.675,0.325,0.85,0.15]","","",""
"sailing-trial","424","1749006","0.0-11.0-383.0","","","","false","","","","","","","","","","null","","749","","1","0","null","null","arrowup","[0.675,0.325,0.85,0.15]","","",""
"sailing-trial","425","1752372","0.0-11.0-384.0","","","","false","","","","","","","","","","1000","","125","","0","0","arrowleft","0","arrowleft","[0.675,0.325,0.85,0.15]","","",""
"sailing-trial","426","1755276","0.0-11.0-385.0","","","","false","","","","","","","","","","null","","1163","","3","1","null","null","arrowup","[0.675,0.325,0.85,0.15]","","",""
"sailing-trial","427","1759760","0.0-11.0-386.0","","","","false","","","","","","","","","","1189","","203.99999999976717","","0","1","arrowleft","0","arrowleft","[0.675,0.325,0.85,0.15]","","",""
"sailing-trial","428","1762054","0.0-11.0-387.0","","","","false","","","","","","","","","","null","","633","","0","0","null","null","arrowup","[0.675,0.325,0.85,0.15]","","",""
"sailing-trial","429","1766043","0.0-11.0-388.0","","","","false","","","","","","","","","","1005","","191","","0","1","arrowleft","0","arrowleft","[0.675,0.325,0.85,0.15]","","",""
"sailing-trial","430","1768531","0.0-11.0-389.0","","","","false","","","","","","","","","","null","","1232.0000000002328","","3","0","null","null","arrowup","[0.675,0.325,0.85,0.15]","","",""
"sailing-trial","431","1772193","0.0-11.0-390.0","","","","false","","","","","","","","","","668","","293","","0","1","arrowleft","0","arrowleft","[0.675,0.325,0.85,0.15]","","",""
"sailing-trial","432","1775175","0.0-11.0-391.0","","","","false","","","","","","","","","","null","","1257","","2","1","null","null","arrowup","[0.675,0.325,0.85,0.15]","","",""
"sailing-trial","433","1778459","0.0-11.0-392.0","","","","false","","","","","","","","","","108","","443.00000000023283","","2","1","arrowright","1","arrowleft","[0.675,0.325,0.85,0.15]","","",""
"sailing-trial","434","1781560","0.0-11.0-393.0","","","","false","","","","","","","","","","null","","989","","1","0","null","null","arrowup","[0.675,0.325,0.85,0.15]","","",""
"sailing-trial","435","1785259","0.0-11.0-394.0","","","","false","","","","","","","","","","640","","185","","0","1","arrowleft","0","arrowleft","[0.675,0.325,0.85,0.15]","","",""
"sailing-trial","436","1789210","0.0-11.0-395.0","","","","false","","","","","","","","","","null","","1791","","2","1","null","null","arrowup","[0.675,0.325,0.85,0.15]","","",""
"sailing-trial","437","1793175","0.0-11.0-396.0","","","","false","","","","","","","","","","1113","","8.00000000023283","","3","0","arrowright","1","arrowright","[0.675,0.325,0.85,0.15]","","",""
"sailing-trial","438","1795307","0.0-11.0-397.0","","","","false","","","","","","","","","","null","","895","","2","0","null","null","arrowup","[0.675,0.325,0.85,0.15]","","",""
"sailing-trial","439","1798270","0.0-11.0-398.0","","","","false","","","","","","","","","","389.00000000023283","","178","","0","0","arrowleft","0","arrowleft","[0.675,0.325,0.85,0.15]","","",""
"sailing-trial","440","1800374","0.0-11.0-399.0","","","","false","","","","","","","","","","null","","1015","","0","0","null","null","arrowup","[0.675,0.325,0.85,0.15]","","",""
"instructions","441","1805976","0.0-12.0","","","","","","","","","","5600","","","","","","","","","","","","","","","","[{""page_index"":0,""viewing_time"":5600}]"
"survey-debrief","442","1870741","0.0-13.0","","","","","","","","","","64761.99999999977","","","","","","","","","","","","","","{""difficulty"":""5"",""fun"":""4"",""clarity"":""5"",""strategy"":""remembering the colors "",""feedback"":""more involvement would be better because it gets a little boring when it gets easy""}","",""
