"trial_type","trial_index","time_elapsed","internal_node_id","value","metadata","browser_interaction","low_quality","success","timeout","failed_images","failed_audio","failed_video","rt","stimulus","response","button_pressed","island_rt","island_response","boat_rt","boat_response","boat","reward","island_key","island","boat_key","reward_probabilities","responses","num_errors","view_history"
"pavlovia","0","2","0.0-0.0","","","","","","","","","","","","","","","","","","","","","","","","","",""
"call-function","1","3","0.0-1.0","","{""task_version"":""sailing_part1_v1"",""task_condition"":""good"",""boats"":[""B"",""D"",""C"",""A""],""boats_demo"":[""H"",""F"",""E"",""G""],""islands"":[""B"",""A""],""subject_id"":""13806"",""age"":""9"",""gender"":""Male""}","[{""event"":""blur"",""trial"":2,""time"":307},{""event"":""focus"",""trial"":2,""time"":1001}]","false","","","","","","","","","","","","","","","","","","","","","",""
"preload","2","1004","0.0-2.0","","","[{""event"":""blur"",""trial"":2,""time"":307},{""event"":""focus"",""trial"":2,""time"":1001},{""event"":""fullscreenenter"",""trial"":3,""time"":2859}]","false","true","false","[]","[]","[]","","","","","","","","","","","","","","","","",""
"fullscreen","3","3863","0.0-3.0","","","","","true","","","","","","","","","","","","","","","","","","","","",""
"audio-keyboard-response","4","6008","0.0-4.0-0.0","","","","","","","","","","2138.6666666666665","audio/beep_loop.wav"," ","","","","","","","","","","","","","",""
"audio-test","5","18538","0.0-4.0-1.0","","","","","","","","","","null","audio/turtle.mp3","","3","","","","","","","","","","","","",""
"audio-test","6","21077","0.0-4.0-2.0","","","","","","","","","","null","audio/shark.mp3","","2","","","","","","","","","","","","",""
"sailing-instructions","7","51975","0.0-5.0-0.0-0.0","","","","","","","","","","","","","","null","null","null","null","null","null","","","","","","",""
"sailing-trial","8","69134","0.0-5.0-0.0-1.0-0.0","","","","","","false","","","","","","","","16015.90000000596","","null","","null","null","arrowleft","0","null","null","","",""
"sailing-trial","9","72015","0.0-5.0-0.0-1.0-1.0","","","","","","false","","","","","","","","1760.5","","null","","null","null","arrowright","1","null","null","","",""
"sailing-trial","10","74546","0.0-5.0-0.0-1.0-2.0","","","","","","false","","","","","","","","1399.5","","null","","null","null","arrowleft","0","null","null","","",""
"sailing-instructions","11","121955","0.0-5.0-0.0-2.0","","","","","","","","","","","","","","null","null","null","null","0","null","","","","","","",""
"sailing-trial","12","128729","0.0-5.0-0.0-3.0-0.0","","","","","","false","","","","","","","","null","","2357.8999999910593","","2","1","null","null","arrowleft","[1,1,1,1]","","",""
"sailing-trial","13","132045","0.0-5.0-0.0-3.0-1.0","","","","","","false","","","","","","","","null","","1061.0999999940395","","3","1","null","null","arrowright","[1,1,1,1]","","",""
"sailing-trial","14","137206","0.0-5.0-0.0-3.0-2.0","","","","","","false","","","","","","","","null","","1604","","3","0","null","null","arrowright","[0,0,0,0]","","",""
"sailing-instructions","15","145231","0.0-5.0-0.0-4.0","","","","","","","","","","","","","","null","null","null","null","null","null","","","","","","",""
"sailing-comprehension","16","177047","0.0-5.0-0.0-5.0","","","","","","","","","","17075.70000000298","","","","","","","","","","","","","","[""true"",""true"",""true"",""true""]","1",""
"sailing-instructions","17","206112","0.0-5.0-0.1-0.1","","","","","","","","","","","","","","null","null","null","null","null","null","","","","","","",""
"sailing-trial","18","208212","0.0-5.0-0.1-1.1-0.1","","","","","","false","","","","","","","","969.2000000029802","","null","","null","null","arrowleft","0","null","null","","",""
"sailing-trial","19","210026","0.0-5.0-0.1-1.1-1.1","","","","","","false","","","","","","","","688","","null","","null","null","arrowright","1","null","null","","",""
"sailing-trial","20","212493","0.0-5.0-0.1-1.1-2.1","","","","","","false","","","","","","","","1332.1000000089407","","null","","null","null","arrowleft","0","null","null","","",""
"sailing-instructions","21","256780","0.0-5.0-0.1-2.1","","","","","","","","","","","","","","null","null","null","null","0","null","","","","","","",""
"sailing-trial","22","261029","0.0-5.0-0.1-3.1-0.1","","","","","","false","","","","","","","","null","","1798.8999999910593","","2","1","null","null","arrowleft","[1,1,1,1]","","",""
"sailing-trial","23","264559","0.0-5.0-0.1-3.1-1.1","","","","","","false","","","","","","","","null","","643.5999999940395","","3","1","null","null","arrowright","[1,1,1,1]","","",""
"sailing-trial","24","268789","0.0-5.0-0.1-3.1-2.1","","","","","","false","","","","","","","","null","","1642.0999999940395","","2","0","null","null","arrowleft","[0,0,0,0]","","",""
"sailing-instructions","25","276981","0.0-5.0-0.1-4.1","","","","","","","","","","","","","","null","null","null","null","null","null","","","","","","",""
"sailing-comprehension","26","293912","0.0-5.0-0.1-5.1","","","","","","","","","","14186","","","","","","","","","","","","","","[""true"",""true"",""false"",""true""]","0",""
"sailing-instructions","27","364494","0.0-6.0-0.0-0.0","","","","","","","","","","","","","","null","null","null","null","null","null","","","","","","",""
"sailing-comprehension","28","384941","0.0-6.0-0.0-1.0","","","","","","","","","","18503.29999999702","","","","","","","","","","","","","","[""true"",""false"",""true""]","0",""
"sailing-instructions","29","404144","0.0-7.0-0.0-0.0","","","","","","","","","","","","","","null","null","null","null","null","null","","","","","","",""
"sailing-trial","30","411318","0.0-7.0-0.0-1.0-0.0","","","","","","false","","","","","","","","null","","4139.5999999940395","","0","0","null","null","arrowup","[0.2,0.8,0.2,0.8]","","",""
"sailing-trial","31","415698","0.0-7.0-0.0-1.0-1.0","","","","","","false","","","","","","","","null","","1843.1000000089407","","1","1","null","null","arrowup","[0.2,0.8,0.2,0.8]","","",""
"sailing-trial","32","419296","0.0-7.0-0.0-1.0-2.0","","","","","","false","","","","","","","","null","","1412.9000000059605","","2","0","null","null","arrowup","[0.2,0.8,0.2,0.8]","","",""
"sailing-trial","33","422511","0.0-7.0-0.0-1.0-3.0","","","","","","false","","","","","","","","null","","1066.3999999910593","","3","1","null","null","arrowup","[0.2,0.8,0.2,0.8]","","",""
"sailing-comprehension","34","434604","0.0-7.0-0.0-2.0","","","","","","","","","","8138.5","","","","","","","","","","","","","","[""true""]","1",""
"sailing-instructions","35","450465","0.0-7.0-0.1-0.1","","","","","","","","","","","","","","null","null","null","null","null","null","","","","","","",""
"sailing-trial","36","454090","0.0-7.0-0.1-1.1-0.1","","","","","","false","","","","","","","","null","","1501.5","","0","0","null","null","arrowup","[0.2,0.8,0.2,0.8]","","",""
"sailing-trial","37","457270","0.0-7.0-0.1-1.1-1.1","","","","","","false","","","","","","","","null","","1282.0999999940395","","1","0","null","null","arrowup","[0.2,0.8,0.2,0.8]","","",""
"sailing-trial","38","460153","0.0-7.0-0.1-1.1-2.1","","","","","","false","","","","","","","","null","","1080","","2","1","null","null","arrowup","[0.2,0.8,0.2,0.8]","","",""
"sailing-trial","39","461852","0.0-7.0-0.1-1.1-3.1","","","","","","false","","","","","","","","null","","649.7000000029802","","3","0","null","null","arrowup","[0.2,0.8,0.2,0.8]","","",""
"sailing-comprehension","40","470162","0.0-7.0-0.1-2.1","","","","","","","","","","6915.79999999702","","","","","","","","","","","","","","[""false""]","0",""
"sailing-instructions","41","480425","0.0-8.0-0.0-0.0","","","","","","","","","","","","","","null","null","null","null","null","null","","","","","","",""
"sailing-comprehension","42","487383","0.0-8.0-0.0-1.0","","","","","","","","","","5881.20000000298","","","","","","","","","","","","","","[""true""]","0",""
"sailing-instructions","43","545304","0.0-9.0-0.0-0.0","","","","","","","","","","","","","","null","null","null","null","null","null","","","","","","",""
"sailing-trial","44","553627","0.0-9.0-0.0-1.0-0.0","","","","","","false","","","","","","","","2304.0999999940395","","2739.7000000029802","","3","1","arrowright","1","arrowright","[0.2,0.8,0.2,0.8]","","",""
"sailing-trial","45","559973","0.0-9.0-0.0-1.0-1.0","","","","","","false","","","","","","","","2485.2999999970198","","858.3999999910593","","3","1","arrowright","1","arrowright","[0.2,0.8,0.2,0.8]","","",""
"sailing-trial","46","565236","0.0-9.0-0.0-1.0-2.0","","","","","","false","","","","","","","","null","","3198.7000000029802","","0","0","null","null","arrowup","[0.2,0.8,0.2,0.8]","","",""
"sailing-trial","47","570384","0.0-9.0-0.0-1.0-3.0","","","","","","false","","","","","","","","1477.7000000029802","","755.7000000029802","","3","1","arrowright","1","arrowright","[0.2,0.8,0.2,0.8]","","",""
"sailing-trial","48","574465","0.0-9.0-0.0-1.0-4.0","","","","","","false","","","","","","","","null","","2169.9000000059605","","3","1","null","null","arrowup","[0.2,0.8,0.2,0.8]","","",""
"sailing-trial","49","579164","0.0-9.0-0.0-1.0-5.0","","","","","","false","","","","","","","","1412","","368.70000000298023","","3","1","arrowright","1","arrowright","[0.2,0.8,0.2,0.8]","","",""
"sailing-instructions","50","612711","0.0-10.0","","","","","","","","","","","","","","null","null","null","null","null","null","","","","","","",""
"sailing-trial","51","619685","0.0-11.0-0.0","","","","","","false","","","","","","","","2961.1000000089407","","922.1000000089407","","2","1","arrowright","1","arrowleft","[0.85,0.15,0.675,0.325]","","",""
"sailing-trial","52","623483","0.0-11.0-1.0","","","","","","false","","","","","","","","null","","1852.0999999940395","","2","1","null","null","arrowup","[0.85,0.15,0.675,0.325]","","",""
"sailing-trial","53","629031","0.0-11.0-2.0","","","","","","false","","","","","","","","1267.9000000059605","","1027.1000000089407","","2","1","arrowright","1","arrowleft","[0.85,0.15,0.675,0.325]","","",""
"sailing-trial","54","633410","0.0-11.0-3.0","","","","","","false","","","","","","","","null","","2172.7999999970198","","0","1","null","null","arrowup","[0.85,0.15,0.675,0.325]","","",""
"sailing-trial","55","639106","0.0-11.0-4.0","","","","","","false","","","","","","","","1095.2000000029802","","816.6999999880791","","2","0","arrowright","1","arrowleft","[0.85,0.15,0.675,0.325]","","",""
"sailing-trial","56","643211","0.0-11.0-5.0","","","","","","false","","","","","","","","null","","1872","","3","0","null","null","arrowup","[0.85,0.15,0.675,0.325]","","",""
"sailing-trial","57","650055","0.0-11.0-6.0","","","","","","false","","","","","","","","1007.7999999970198","","1789.7999999970198","","1","0","arrowleft","0","arrowright","[0.85,0.15,0.675,0.325]","","",""
"sailing-trial","58","654733","0.0-11.0-7.0","","","","","","false","","","","","","","","null","","1666.300000011921","","2","0","null","null","arrowup","[0.85,0.15,0.675,0.325]","","",""
"sailing-trial","59","659463","0.0-11.0-8.0","","","","","","false","","","","","","","","1018.3999999910593","","563","","0","1","arrowleft","0","arrowleft","[0.85,0.15,0.675,0.325]","","",""
"sailing-trial","60","663210","0.0-11.0-9.0","","","","","","false","","","","","","","","null","","1962.1000000089407","","0","1","null","null","arrowup","[0.85,0.15,0.675,0.325]","","",""
"sailing-trial","61","667973","0.0-11.0-10.0","","","","","","false","","","","","","","","805.7000000029802","","732.7999999970198","","0","1","arrowleft","0","arrowleft","[0.85,0.15,0.675,0.325]","","",""
"sailing-trial","62","674156","0.0-11.0-11.0","","","","","","false","","","","","","","","null","","3172.0999999940395","","0","0","null","null","arrowup","[0.85,0.15,0.675,0.325]","","",""
"sailing-trial","63","680685","0.0-11.0-12.0","","","","","","false","","","","","","","","1008.5","","1494.4000000059605","","3","0","arrowright","1","arrowright","[0.85,0.15,0.675,0.325]","","",""
"sailing-trial","64","684145","0.0-11.0-13.0","","","","","","false","","","","","","","","null","","1399","","3","1","null","null","arrowup","[0.85,0.15,0.675,0.325]","","",""
"sailing-trial","65","688560","0.0-11.0-14.0","","","","","","false","","","","","","","","965.5","","312.40000000596046","","3","1","arrowright","1","arrowright","[0.85,0.15,0.675,0.325]","","",""
"sailing-trial","66","693010","0.0-11.0-15.0","","","","","","false","","","","","","","","null","","1429.699999988079","","3","0","null","null","arrowup","[0.85,0.15,0.675,0.325]","","",""
"sailing-trial","67","700722","0.0-11.0-16.0","","","","","","false","","","","","","","","1781.5999999940395","","1878.6000000089407","","1","0","arrowleft","0","arrowright","[0.85,0.15,0.675,0.325]","","",""
"sailing-trial","68","703784","0.0-11.0-17.0","","","","","","false","","","","","","","","null","","1255.300000011921","","3","1","null","null","arrowup","[0.85,0.15,0.675,0.325]","","",""
"sailing-trial","69","709412","0.0-11.0-18.0","","","","","","false","","","","","","","","1946.0999999940395","","552.8999999910593","","0","1","arrowleft","0","arrowleft","[0.85,0.15,0.675,0.325]","","",""
"sailing-trial","70","713745","0.0-11.0-19.0","","","","","","false","","","","","","","","null","","1313.2000000029802","","1","0","null","null","arrowup","[0.85,0.15,0.675,0.325]","","",""
"sailing-trial","71","718210","0.0-11.0-20.0","","","","","","false","","","","","","","","1114.7000000029802","","365.70000000298023","","0","1","arrowleft","0","arrowleft","[0.85,0.15,0.675,0.325]","","",""
"sailing-trial","72","722773","0.0-11.0-21.0","","","","","","false","","","","","","","","null","","1954","","1","0","null","null","arrowup","[0.85,0.15,0.675,0.325]","","",""
"sailing-trial","73","727653","0.0-11.0-22.0","","","","","","false","","","","","","","","1424.2000000029802","","600.8999999910593","","0","1","arrowleft","0","arrowleft","[0.675,0.325,0.85,0.15]","","",""
"sailing-trial","74","730550","0.0-11.0-23.0","","","","","","false","","","","","","","","null","","1289.5","","1","0","null","null","arrowup","[0.675,0.325,0.85,0.15]","","",""
"sailing-trial","75","736299","0.0-11.0-24.0","","","","","","false","","","","","","","","879.5","","838.1000000089407","","0","0","arrowleft","0","arrowleft","[0.675,0.325,0.85,0.15]","","",""
"sailing-trial","76","739912","0.0-11.0-25.0","","","","","","false","","","","","","","","null","","1577.7000000029802","","2","1","null","null","arrowup","[0.675,0.325,0.85,0.15]","","",""
"sailing-trial","77","745007","0.0-11.0-26.0","","","","","","false","","","","","","","","962.2000000029802","","962.4000000059605","","2","1","arrowright","1","arrowleft","[0.675,0.325,0.85,0.15]","","",""
"sailing-trial","78","750225","0.0-11.0-27.0","","","","","","false","","","","","","","","null","","2216","","3","0","null","null","arrowup","[0.675,0.325,0.85,0.15]","","",""
"sailing-trial","79","754884","0.0-11.0-28.0","","","","","","false","","","","","","","","1048.0999999940395","","661.4000000059605","","2","1","arrowright","1","arrowleft","[0.675,0.325,0.85,0.15]","","",""
"sailing-trial","80","758565","0.0-11.0-29.0","","","","","","false","","","","","","","","null","","1814.7999999970198","","0","1","null","null","arrowup","[0.675,0.325,0.85,0.15]","","",""
"sailing-trial","81","764279","0.0-11.0-30.0","","","","","","false","","","","","","","","1735.6000000089407","","975.9000000059605","","2","1","arrowright","1","arrowleft","[0.675,0.325,0.85,0.15]","","",""
"sailing-trial","82","768011","0.0-11.0-31.0","","","","","","false","","","","","","","","null","","1688","","2","1","null","null","arrowup","[0.675,0.325,0.85,0.15]","","",""
"sailing-trial","83","773459","0.0-11.0-32.0","","","","","","false","","","","","","","","1012.7000000029802","","386.80000001192093","","3","0","arrowright","1","arrowright","[0.675,0.325,0.85,0.15]","","",""
"sailing-trial","84","776737","0.0-11.0-33.0","","","","","","false","","","","","","","","null","","1470.0999999940395","","2","1","null","null","arrowup","[0.675,0.325,0.85,0.15]","","",""
"sailing-trial","85","782209","0.0-11.0-34.0","","","","","","false","","","","","","","","1317.7999999970198","","657.3999999910593","","2","0","arrowright","1","arrowleft","[0.675,0.325,0.85,0.15]","","",""
"sailing-trial","86","784921","0.0-11.0-35.0","","","","","","false","","","","","","","","null","","1364.2000000029802","","1","0","null","null","arrowup","[0.675,0.325,0.85,0.15]","","",""
"sailing-trial","87","788996","0.0-11.0-36.0","","","","","","false","","","","","","","","550.9000000059605","","444","","0","1","arrowleft","0","arrowleft","[0.675,0.325,0.85,0.15]","","",""
"sailing-trial","88","793862","0.0-11.0-37.0","","","","","","false","","","","","","","","null","","1857.1000000089407","","3","0","null","null","arrowup","[0.675,0.325,0.85,0.15]","","",""
"sailing-trial","89","798208","0.0-11.0-38.0","","","","","","false","","","","","","","","650.4000000059605","","655.3999999910593","","0","1","arrowleft","0","arrowleft","[0.675,0.325,0.85,0.15]","","",""
"sailing-trial","90","801838","0.0-11.0-39.0","","","","","","false","","","","","","","","null","","1409.2999999970198","","2","1","null","null","arrowup","[0.675,0.325,0.85,0.15]","","",""
"sailing-trial","91","806036","0.0-11.0-40.0","","","","","","false","","","","","","","","829.7999999970198","","502.70000000298023","","0","1","arrowleft","0","arrowleft","[0.85,0.15,0.675,0.325]","","",""
"sailing-trial","92","810601","0.0-11.0-41.0","","","","","","false","","","","","","","","null","","1887.7000000029802","","3","0","null","null","arrowup","[0.85,0.15,0.675,0.325]","","",""
"sailing-trial","93","817178","0.0-11.0-42.0","","","","","","false","","","","","","","","966.4000000059605","","2340.7999999970198","","0","1","arrowleft","0","arrowleft","[0.85,0.15,0.675,0.325]","","",""
"sailing-trial","94","819817","0.0-11.0-43.0","","","","","","false","","","","","","","","null","","1052.0999999940395","","3","0","null","null","arrowup","[0.85,0.15,0.675,0.325]","","",""
"sailing-trial","95","824175","0.0-11.0-44.0","","","","","","false","","","","","","","","926","","361.79999999701977","","0","1","arrowleft","0","arrowleft","[0.85,0.15,0.675,0.325]","","",""
"sailing-trial","96","827722","0.0-11.0-45.0","","","","","","false","","","","","","","","null","","1696","","0","1","null","null","arrowup","[0.85,0.15,0.675,0.325]","","",""
"sailing-trial","97","832902","0.0-11.0-46.0","","","","","","false","","","","","","","","1047.7000000029802","","1086.4000000059605","","0","1","arrowleft","0","arrowleft","[0.85,0.15,0.675,0.325]","","",""
"sailing-trial","98","836016","0.0-11.0-47.0","","","","","","false","","","","","","","","null","","1263.9000000059605","","0","1","null","null","arrowup","[0.85,0.15,0.675,0.325]","","",""
"sailing-trial","99","841231","0.0-11.0-48.0","","","","","","false","","","","","","","","581.2000000029802","","484.59999999403954","","0","1","arrowleft","0","arrowleft","[0.85,0.15,0.675,0.325]","","",""
"sailing-trial","100","844729","0.0-11.0-49.0","","","","","","false","","","","","","","","null","","1014.1000000089407","","2","1","null","null","arrowup","[0.85,0.15,0.675,0.325]","","",""
"sailing-trial","101","849092","0.0-11.0-50.0","","","","","","false","","","","","","","","1427.9000000059605","","77.69999998807907","","2","1","arrowright","1","arrowleft","[0.85,0.15,0.675,0.325]","","",""
"sailing-trial","102","852222","0.0-11.0-51.0","","","","","","false","","","","","","","","null","","1128.5","","2","1","null","null","arrowup","[0.85,0.15,0.675,0.325]","","",""
"sailing-trial","103","857590","0.0-11.0-52.0","","","","","","false","","","","","","","","1117.0999999940395","","257.79999999701977","","2","0","arrowright","1","arrowleft","[0.85,0.15,0.675,0.325]","","",""
"sailing-trial","104","862319","0.0-11.0-53.0","","","","","","false","","","","","","","","null","","1708.7999999970198","","2","0","null","null","arrowup","[0.85,0.15,0.675,0.325]","","",""
"sailing-trial","105","867417","0.0-11.0-54.0","","","","","","false","","","","","","","","1052.8999999910593","","2.5","","3","0","arrowright","1","arrowright","[0.85,0.15,0.675,0.325]","","",""
"sailing-trial","106","871731","0.0-11.0-55.0","","","","","","false","","","","","","","","null","","1275","","3","0","null","null","arrowup","[0.85,0.15,0.675,0.325]","","",""
"sailing-trial","107","877976","0.0-11.0-56.0","","","","","","false","","","","","","","","1051.4000000059605","","1148.2000000029802","","1","0","arrowleft","0","arrowright","[0.85,0.15,0.675,0.325]","","",""
"sailing-trial","108","882326","0.0-11.0-57.0","","","","","","false","","","","","","","","null","","1340.4000000059605","","3","0","null","null","arrowup","[0.85,0.15,0.675,0.325]","","",""
"sailing-trial","109","887051","0.0-11.0-58.0","","","","","","false","","","","","","","","876.2999999970198","","882.2999999970198","","2","1","arrowright","1","arrowleft","[0.675,0.325,0.85,0.15]","","",""
"sailing-trial","110","890283","0.0-11.0-59.0","","","","","","false","","","","","","","","null","","1430.2999999970198","","0","1","null","null","arrowup","[0.675,0.325,0.85,0.15]","","",""
"sailing-trial","111","896361","0.0-11.0-60.0","","","","","","false","","","","","","","","1052.3999999910593","","1966.3999999910593","","2","1","arrowright","1","arrowleft","[0.675,0.325,0.85,0.15]","","",""
"sailing-trial","112","899393","0.0-11.0-61.0","","","","","","false","","","","","","","","null","","1117.3999999910593","","1","1","null","null","arrowup","[0.675,0.325,0.85,0.15]","","",""
"sailing-trial","113","903742","0.0-11.0-62.0","","","","","","false","","","","","","","","1019.6000000089407","","396.20000000298023","","2","1","arrowright","1","arrowleft","[0.675,0.325,0.85,0.15]","","",""
"sailing-trial","114","907825","0.0-11.0-63.0","","","","","","false","","","","","","","","null","","1086.4000000059605","","1","0","null","null","arrowup","[0.675,0.325,0.85,0.15]","","",""
"sailing-trial","115","911703","0.0-11.0-64.0","","","","","","false","","","","","","","","734.8999999910593","","343.6000000089407","","2","1","arrowright","1","arrowleft","[0.675,0.325,0.85,0.15]","","",""
"sailing-trial","116","914600","0.0-11.0-65.0","","","","","","false","","","","","","","","null","","953.9000000059605","","0","1","null","null","arrowup","[0.675,0.325,0.85,0.15]","","",""
"sailing-trial","117","919130","0.0-11.0-66.0","","","","","","false","","","","","","","","837","","459.09999999403954","","2","1","arrowright","1","arrowleft","[0.675,0.325,0.85,0.15]","","",""
"sailing-trial","118","924470","0.0-11.0-67.0","","","","","","false","","","","","","","","null","","4012.7000000029802","","3","0","null","null","arrowup","[0.675,0.325,0.85,0.15]","","",""
"sailing-trial","119","929124","0.0-11.0-68.0","","","","","","false","","","","","","","","1586.5","","57.5","","2","1","arrowright","1","arrowleft","[0.675,0.325,0.85,0.15]","","",""
"sailing-trial","120","931841","0.0-11.0-69.0","","","","","","false","","","","","","","","null","","931.4000000059605","","0","1","null","null","arrowup","[0.675,0.325,0.85,0.15]","","",""
"sailing-trial","121","935570","0.0-11.0-70.0","","","","","","false","","","","","","","","641.5999999940395","","194","","2","1","arrowright","1","arrowleft","[0.675,0.325,0.85,0.15]","","",""
"sailing-trial","122","938303","0.0-11.0-71.0","","","","","","false","","","","","","","","null","","830.9000000059605","","2","1","null","null","arrowup","[0.675,0.325,0.85,0.15]","","",""
"sailing-trial","123","942933","0.0-11.0-72.0","","","","","","false","","","","","","","","569.4000000059605","","1168.0999999940395","","2","1","arrowright","1","arrowleft","[0.675,0.325,0.85,0.15]","","",""
"sailing-trial","124","945801","0.0-11.0-73.0","","","","","","false","","","","","","","","null","","875.5999999940395","","0","0","null","null","arrowup","[0.675,0.325,0.85,0.15]","","",""
"sailing-trial","125","949478","0.0-11.0-74.0","","","","","","false","","","","","","","","849.7000000029802","","244.40000000596046","","2","1","arrowright","1","arrowleft","[0.675,0.325,0.85,0.15]","","",""
"sailing-trial","126","952340","0.0-11.0-75.0","","","","","","false","","","","","","","","null","","1549.2000000029802","","1","0","null","null","arrowup","[0.675,0.325,0.85,0.15]","","",""
"sailing-trial","127","957490","0.0-11.0-76.0","","","","","","false","","","","","","","","1040.1000000089407","","999.7999999970198","","2","1","arrowright","1","arrowleft","[0.675,0.325,0.85,0.15]","","",""
"sailing-trial","128","960921","0.0-11.0-77.0","","","","","","false","","","","","","","","null","","1190.5999999940395","","2","1","null","null","arrowup","[0.675,0.325,0.85,0.15]","","",""
"sailing-trial","129","966237","0.0-11.0-78.0","","","","","","false","","","","","","","","883.9000000059605","","390.1000000089407","","2","0","arrowright","1","arrowleft","[0.325,0.675,0.15,0.85]","","",""
"sailing-trial","130","969634","0.0-11.0-79.0","","","","","","false","","","","","","","","null","","1265.4000000059605","","1","1","null","null","arrowup","[0.325,0.675,0.15,0.85]","","",""
"sailing-trial","131","974961","0.0-11.0-80.0","","","","","","false","","","","","","","","585.0999999940395","","1830.300000011921","","1","1","arrowleft","0","arrowright","[0.325,0.675,0.15,0.85]","","",""
"sailing-trial","132","978176","0.0-11.0-81.0","","","","","","false","","","","","","","","null","","1320.3999999910593","","1","1","null","null","arrowup","[0.325,0.675,0.15,0.85]","","",""
"sailing-trial","133","982840","0.0-11.0-82.0","","","","","","false","","","","","","","","1254.5","","188.1000000089407","","1","1","arrowleft","0","arrowright","[0.325,0.675,0.15,0.85]","","",""
"sailing-trial","134","986122","0.0-11.0-83.0","","","","","","false","","","","","","","","null","","1017.4000000059605","","1","1","null","null","arrowup","[0.325,0.675,0.15,0.85]","","",""
"sailing-trial","135","991886","0.0-11.0-84.0","","","","","","false","","","","","","","","1011.2000000029802","","1732.7999999970198","","1","1","arrowleft","0","arrowright","[0.325,0.675,0.15,0.85]","","",""
"sailing-trial","136","994615","0.0-11.0-85.0","","","","","","false","","","","","","","","null","","1341.7999999970198","","0","0","null","null","arrowup","[0.325,0.675,0.15,0.85]","","",""
"sailing-trial","137","999647","0.0-11.0-86.0","","","","","","false","","","","","","","","1141.3999999910593","","831","","1","1","arrowleft","0","arrowright","[0.325,0.675,0.15,0.85]","","",""
"sailing-trial","138","1002733","0.0-11.0-87.0","","","","","","false","","","","","","","","null","","1172","","2","0","null","null","arrowup","[0.325,0.675,0.15,0.85]","","",""
"sailing-trial","139","1008506","0.0-11.0-88.0","","","","","","false","","","","","","","","2866.5","","30.5","","1","1","arrowleft","0","arrowright","[0.325,0.675,0.15,0.85]","","",""
"sailing-trial","140","1012891","0.0-11.0-89.0","","","","","","false","","","","","","","","null","","1366.7000000029802","","2","0","null","null","arrowup","[0.325,0.675,0.15,0.85]","","",""
"sailing-trial","141","1018917","0.0-11.0-90.0","","","","","","false","","","","","","","","1131.699999988079","","2032.7999999970198","","1","1","arrowleft","0","arrowright","[0.325,0.675,0.15,0.85]","","",""
"sailing-trial","142","1022050","0.0-11.0-91.0","","","","","","false","","","","","","","","null","","1709.3999999910593","","0","0","null","null","arrowup","[0.325,0.675,0.15,0.85]","","",""
"sailing-trial","143","1027100","0.0-11.0-92.0","","","","","","false","","","","","","","","762.5","","271.80000001192093","","2","0","arrowright","1","arrowleft","[0.325,0.675,0.15,0.85]","","",""
"sailing-trial","144","1031330","0.0-11.0-93.0","","","","","","false","","","","","","","","null","","1213.2999999970198","","2","0","null","null","arrowup","[0.325,0.675,0.15,0.85]","","",""
"sailing-trial","145","1039138","0.0-11.0-94.0","","","","","","false","","","","","","","","3132.8999999910593","","1801.7000000029802","","2","1","arrowright","1","arrowleft","[0.15,0.85,0.325,0.675]","","",""
"sailing-trial","146","1042143","0.0-11.0-95.0","","","","","","false","","","","","","","","null","","1371.5999999940395","","3","0","null","null","arrowup","[0.15,0.85,0.325,0.675]","","",""
"sailing-trial","147","1046733","0.0-11.0-96.0","","","","","","false","","","","","","","","1460.5999999940395","","414.09999999403954","","2","0","arrowright","1","arrowleft","[0.15,0.85,0.325,0.675]","","",""
"sailing-trial","148","1050952","0.0-11.0-97.0","","","","","","false","","","","","","","","null","","1206.3999999910593","","3","0","null","null","arrowup","[0.15,0.85,0.325,0.675]","","",""
"sailing-trial","149","1057580","0.0-11.0-98.0","","","","","","false","","","","","","","","611","","1969.3999999910593","","0","0","arrowleft","0","arrowleft","[0.15,0.85,0.325,0.675]","","",""
"sailing-trial","150","1061745","0.0-11.0-99.0","","","","","","false","","","","","","","","null","","1143.2999999970198","","3","0","null","null","arrowup","[0.15,0.85,0.325,0.675]","","",""
"sailing-trial","151","1067120","0.0-11.0-100.0","","","","","","false","","","","","","","","790.2999999970198","","1718.6000000089407","","2","1","arrowright","1","arrowleft","[0.15,0.85,0.325,0.675]","","",""
"sailing-trial","152","1069885","0.0-11.0-101.0","","","","","","false","","","","","","","","null","","911.4000000059605","","3","1","null","null","arrowup","[0.15,0.85,0.325,0.675]","","",""
"sailing-trial","153","1075567","0.0-11.0-102.0","","","","","","false","","","","","","","","902.2999999970198","","754.2999999970198","","2","0","arrowright","1","arrowleft","[0.15,0.85,0.325,0.675]","","",""
"sailing-trial","154","1079582","0.0-11.0-103.0","","","","","","false","","","","","","","","null","","994.7999999970198","","0","0","null","null","arrowup","[0.15,0.85,0.325,0.675]","","",""
"sailing-trial","155","1083596","0.0-11.0-104.0","","","","","","false","","","","","","","","1045.4000000059605","","19.799999997019768","","3","1","arrowright","1","arrowright","[0.15,0.85,0.325,0.675]","","",""
"sailing-trial","156","1086625","0.0-11.0-105.0","","","","","","false","","","","","","","","null","","1226.2999999970198","","3","1","null","null","arrowup","[0.15,0.85,0.325,0.675]","","",""
"sailing-trial","157","1089943","0.0-11.0-106.0","","","","","","false","","","","","","","","837.6999999880791","","205.30000001192093","","3","0","arrowright","1","arrowright","[0.15,0.85,0.325,0.675]","","",""
"sailing-trial","158","1092971","0.0-11.0-107.0","","","","","","false","","","","","","","","null","","1153.699999988079","","3","1","null","null","arrowup","[0.15,0.85,0.325,0.675]","","",""
"sailing-trial","159","1099200","0.0-11.0-108.0","","","","","","false","","","","","","","","1117","","1198.9000000059605","","0","0","arrowleft","0","arrowleft","[0.15,0.85,0.325,0.675]","","",""
"sailing-trial","160","1102107","0.0-11.0-109.0","","","","","","false","","","","","","","","null","","1032.2000000029802","","0","0","null","null","arrowup","[0.15,0.85,0.325,0.675]","","",""
"sailing-trial","161","1108794","0.0-11.0-110.0","","","","","","false","","","","","","","","3176.4000000059605","","619.6999999880791","","1","1","arrowleft","0","arrowright","[0.15,0.85,0.325,0.675]","","",""
"sailing-trial","162","1111661","0.0-11.0-111.0","","","","","","false","","","","","","","","null","","1087.1000000089407","","3","1","null","null","arrowup","[0.15,0.85,0.325,0.675]","","",""
"sailing-trial","163","1116306","0.0-11.0-112.0","","","","","","false","","","","","","","","1120.1000000089407","","646.4000000059605","","1","1","arrowleft","0","arrowright","[0.15,0.85,0.325,0.675]","","",""
"sailing-trial","164","1119438","0.0-11.0-113.0","","","","","","false","","","","","","","","null","","1296.7999999970198","","0","1","null","null","arrowup","[0.15,0.85,0.325,0.675]","","",""
"sailing-trial","165","1124353","0.0-11.0-114.0","","","","","","false","","","","","","","","635.3000000119209","","1435.0999999940395","","2","1","arrowright","1","arrowleft","[0.15,0.85,0.325,0.675]","","",""
"sailing-trial","166","1127182","0.0-11.0-115.0","","","","","","false","","","","","","","","null","","1036.2000000029802","","2","1","null","null","arrowup","[0.15,0.85,0.325,0.675]","","",""
"sailing-trial","167","1133033","0.0-11.0-116.0","","","","","","false","","","","","","","","1627.7000000029802","","131.79999999701977","","2","0","arrowright","1","arrowleft","[0.15,0.85,0.325,0.675]","","",""
"sailing-trial","168","1135413","0.0-11.0-117.0","","","","","","false","","","","","","","","null","","1074.7999999970198","","0","0","null","null","arrowup","[0.15,0.85,0.325,0.675]","","",""
"sailing-trial","169","1139510","0.0-11.0-118.0","","","","","","false","","","","","","","","767.0999999940395","","657.5","","3","1","arrowright","1","arrowright","[0.325,0.675,0.15,0.85]","","",""
"sailing-trial","170","1142932","0.0-11.0-119.0","","","","","","false","","","","","","","","null","","867","","1","0","null","null","arrowup","[0.325,0.675,0.15,0.85]","","",""
"sailing-trial","171","1146571","0.0-11.0-120.0","","","","","","false","","","","","","","","574.2999999970198","","106.5","","0","0","arrowleft","0","arrowleft","[0.325,0.675,0.15,0.85]","","",""
"sailing-trial","172","1149654","0.0-11.0-121.0","","","","","","false","","","","","","","","null","","1334.5","","1","1","null","null","arrowup","[0.325,0.675,0.15,0.85]","","",""
"sailing-trial","173","1154233","0.0-11.0-122.0","","","","","","false","","","","","","","","995.7999999970198","","639.4000000059605","","1","1","arrowleft","0","arrowright","[0.325,0.675,0.15,0.85]","","",""
"sailing-trial","174","1157667","0.0-11.0-123.0","","","","","","false","","","","","","","","null","","1246.5","","0","0","null","null","arrowup","[0.325,0.675,0.15,0.85]","","",""
"sailing-trial","175","1163143","0.0-11.0-124.0","","","","","","false","","","","","","","","1969.800000011921","","694","","1","1","arrowleft","0","arrowright","[0.325,0.675,0.15,0.85]","","",""
"sailing-trial","176","1166177","0.0-11.0-125.0","","","","","","false","","","","","","","","null","","1129.5","","1","1","null","null","arrowup","[0.325,0.675,0.15,0.85]","","",""
"sailing-trial","177","1171155","0.0-11.0-126.0","","","","","","false","","","","","","","","1271.0999999940395","","776.2000000029802","","0","1","arrowleft","0","arrowleft","[0.325,0.675,0.15,0.85]","","",""
"sailing-trial","178","1176069","0.0-11.0-127.0","","","","","","false","","","","","","","","null","","3023.4000000059605","","1","1","null","null","arrowup","[0.325,0.675,0.15,0.85]","","",""
"sailing-trial","179","1180346","0.0-11.0-128.0","","","","","","false","","","","","","","","1137.7999999970198","","14.400000005960464","","1","0","arrowleft","0","arrowright","[0.325,0.675,0.15,0.85]","","",""
"sailing-trial","180","1182867","0.0-11.0-129.0","","","","","","false","","","","","","","","null","","1160.2000000029802","","0","0","null","null","arrowup","[0.325,0.675,0.15,0.85]","","",""
"sailing-trial","181","1187926","0.0-11.0-130.0","","","","","","false","","","","","","","","516.8000000119209","","1642.699999988079","","2","0","arrowright","1","arrowleft","[0.325,0.675,0.15,0.85]","","",""
"sailing-trial","182","1191010","0.0-11.0-131.0","","","","","","false","","","","","","","","null","","1307.3999999910593","","3","1","null","null","arrowup","[0.325,0.675,0.15,0.85]","","",""
"sailing-trial","183","1195691","0.0-11.0-132.0","","","","","","false","","","","","","","","850.4000000059605","","889.9000000059605","","3","1","arrowright","1","arrowright","[0.325,0.675,0.15,0.85]","","",""
"sailing-trial","184","1198157","0.0-11.0-133.0","","","","","","false","","","","","","","","null","","1109.3999999910593","","1","0","null","null","arrowup","[0.325,0.675,0.15,0.85]","","",""
"sailing-trial","185","1202385","0.0-11.0-134.0","","","","","","false","","","","","","","","729.2000000029802","","632.1999999880791","","3","1","arrowright","1","arrowright","[0.325,0.675,0.15,0.85]","","",""
"sailing-trial","186","1204924","0.0-11.0-135.0","","","","","","false","","","","","","","","null","","1185.8999999910593","","2","0","null","null","arrowup","[0.325,0.675,0.15,0.85]","","",""
"sailing-trial","187","1209433","0.0-11.0-136.0","","","","","","false","","","","","","","","674.6000000089407","","720.6000000089407","","3","1","arrowright","1","arrowright","[0.15,0.85,0.325,0.675]","","",""
"sailing-trial","188","1215770","0.0-11.0-137.0","","","","","","false","","","","","","","","null","","3315.0999999940395","","1","0","null","null","arrowup","[0.15,0.85,0.325,0.675]","","",""
"sailing-trial","189","1218777","0.0-11.0-138.0","","","","","","false","","","","","","","","902.2999999970198","","13.100000008940697","","3","0","arrowright","1","arrowright","[0.15,0.85,0.325,0.675]","","",""
"sailing-trial","190","1221723","0.0-11.0-139.0","","","","","","false","","","","","","","","null","","1579.5999999940395","","0","0","null","null","arrowup","[0.15,0.85,0.325,0.675]","","",""
"sailing-trial","191","1225206","0.0-11.0-140.0","","","","","","false","","","","","","","","613.6999999880791","","1.2999999970197678","","0","1","arrowleft","0","arrowleft","[0.15,0.85,0.325,0.675]","","",""
"sailing-trial","192","1228552","0.0-11.0-141.0","","","","","","false","","","","","","","","null","","1111.5","","1","1","null","null","arrowup","[0.15,0.85,0.325,0.675]","","",""
"sailing-trial","193","1234636","0.0-11.0-142.0","","","","","","false","","","","","","","","707.5","","1346.2000000029802","","0","0","arrowleft","0","arrowleft","[0.15,0.85,0.325,0.675]","","",""
"sailing-trial","194","1238983","0.0-11.0-143.0","","","","","","false","","","","","","","","null","","1352.2000000029802","","3","0","null","null","arrowup","[0.15,0.85,0.325,0.675]","","",""
"sailing-trial","195","1242645","0.0-11.0-144.0","","","","","","false","","","","","","","","679.6999999880791","","135.8999999910593","","1","1","arrowleft","0","arrowright","[0.15,0.85,0.325,0.675]","","",""
"sailing-trial","196","1245168","0.0-11.0-145.0","","","","","","false","","","","","","","","null","","1218.2999999970198","","2","0","null","null","arrowup","[0.15,0.85,0.325,0.675]","","",""
"sailing-trial","197","1250122","0.0-11.0-146.0","","","","","","false","","","","","","","","1076.2999999970198","","1016.1000000089407","","1","1","arrowleft","0","arrowright","[0.15,0.85,0.325,0.675]","","",""
"sailing-trial","198","1252381","0.0-11.0-147.0","","","","","","false","","","","","","","","null","","944.5","","0","0","null","null","arrowup","[0.15,0.85,0.325,0.675]","","",""
"sailing-trial","199","1257369","0.0-11.0-148.0","","","","","","false","","","","","","","","917.2000000029802","","1211.7999999970198","","1","1","arrowleft","0","arrowright","[0.15,0.85,0.325,0.675]","","",""
"sailing-trial","200","1261205","0.0-11.0-149.0","","","","","","false","","","","","","","","null","","960.2999999970198","","0","0","null","null","arrowup","[0.15,0.85,0.325,0.675]","","",""
"sailing-trial","201","1265592","0.0-11.0-150.0","","","","","","false","","","","","","","","724.2000000029802","","754","","2","0","arrowright","1","arrowleft","[0.15,0.85,0.325,0.675]","","",""
"sailing-trial","202","1268311","0.0-11.0-151.0","","","","","","false","","","","","","","","null","","874.5999999940395","","1","1","null","null","arrowup","[0.15,0.85,0.325,0.675]","","",""
"sailing-trial","203","1273439","0.0-11.0-152.0","","","","","","false","","","","","","","","706.7000000029802","","471.6000000089407","","3","0","arrowright","1","arrowright","[0.325,0.675,0.15,0.85]","","",""
"sailing-trial","204","1276567","0.0-11.0-153.0","","","","","","false","","","","","","","","null","","1185.0999999940395","","0","0","null","null","arrowup","[0.325,0.675,0.15,0.85]","","",""
"sailing-trial","205","1280921","0.0-11.0-154.0","","","","","","false","","","","","","","","607.6000000089407","","883.7999999970198","","0","1","arrowleft","0","arrowleft","[0.325,0.675,0.15,0.85]","","",""
"sailing-trial","206","1284001","0.0-11.0-155.0","","","","","","false","","","","","","","","null","","1284.3999999910593","","3","1","null","null","arrowup","[0.325,0.675,0.15,0.85]","","",""
"sailing-trial","207","1288091","0.0-11.0-156.0","","","","","","false","","","","","","","","725.7000000029802","","602.9000000059605","","0","0","arrowleft","0","arrowleft","[0.325,0.675,0.15,0.85]","","",""
"sailing-trial","208","1290467","0.0-11.0-157.0","","","","","","false","","","","","","","","null","","1043","","2","0","null","null","arrowup","[0.325,0.675,0.15,0.85]","","",""
"sailing-trial","209","1295345","0.0-11.0-158.0","","","","","","false","","","","","","","","1870.2999999970198","","111.79999999701977","","3","1","arrowright","1","arrowright","[0.325,0.675,0.15,0.85]","","",""
"sailing-trial","210","1298293","0.0-11.0-159.0","","","","","","false","","","","","","","","null","","1327.6000000089407","","2","0","null","null","arrowup","[0.325,0.675,0.15,0.85]","","",""
"sailing-trial","211","1302173","0.0-11.0-160.0","","","","","","false","","","","","","","","635.8000000119209","","405.19999998807907","","3","1","arrowright","1","arrowright","[0.325,0.675,0.15,0.85]","","",""
"sailing-trial","212","1305538","0.0-11.0-161.0","","","","","","false","","","","","","","","null","","1456.5999999940395","","3","1","null","null","arrowup","[0.325,0.675,0.15,0.85]","","",""
"sailing-trial","213","1309753","0.0-11.0-162.0","","","","","","false","","","","","","","","736","","643.2999999970198","","3","1","arrowright","1","arrowright","[0.325,0.675,0.15,0.85]","","",""
"sailing-trial","214","1313967","0.0-11.0-163.0","","","","","","false","","","","","","","","null","","2524","","2","0","null","null","arrowup","[0.325,0.675,0.15,0.85]","","",""
"sailing-trial","215","1317714","0.0-11.0-164.0","","","","","","false","","","","","","","","550.5","","384.79999999701977","","3","1","arrowright","1","arrowright","[0.325,0.675,0.15,0.85]","","",""
"sailing-trial","216","1321211","0.0-11.0-165.0","","","","","","false","","","","","","","","null","","1684.8999999910593","","1","1","null","null","arrowup","[0.325,0.675,0.15,0.85]","","",""
"sailing-trial","217","1326642","0.0-11.0-166.0","","","","","","false","","","","","","","","2081.5","","300.19999998807907","","3","1","arrowright","1","arrowright","[0.325,0.675,0.15,0.85]","","",""
"sailing-trial","218","1329007","0.0-11.0-167.0","","","","","","false","","","","","","","","null","","1096.4000000059605","","2","0","null","null","arrowup","[0.325,0.675,0.15,0.85]","","",""
"sailing-trial","219","1333038","0.0-11.0-168.0","","","","","","false","","","","","","","","692.8999999910593","","444.69999998807907","","3","1","arrowright","1","arrowright","[0.15,0.85,0.325,0.675]","","",""
"sailing-trial","220","1335661","0.0-11.0-169.0","","","","","","false","","","","","","","","null","","1098.2000000029802","","0","0","null","null","arrowup","[0.15,0.85,0.325,0.675]","","",""
"sailing-trial","221","1340431","0.0-11.0-170.0","","","","","","false","","","","","","","","664.7999999970198","","770.8999999910593","","3","1","arrowright","1","arrowright","[0.15,0.85,0.325,0.675]","","",""
"sailing-trial","222","1343747","0.0-11.0-171.0","","","","","","false","","","","","","","","null","","1034.4000000059605","","3","1","null","null","arrowup","[0.15,0.85,0.325,0.675]","","",""
"sailing-trial","223","1347894","0.0-11.0-172.0","","","","","","false","","","","","","","","697","","157.90000000596046","","3","1","arrowright","1","arrowright","[0.15,0.85,0.325,0.675]","","",""
"sailing-trial","224","1350436","0.0-11.0-173.0","","","","","","false","","","","","","","","null","","1178.5999999940395","","2","0","null","null","arrowup","[0.15,0.85,0.325,0.675]","","",""
"sailing-trial","225","1354524","0.0-11.0-174.0","","","","","","false","","","","","","","","653.9000000059605","","484","","3","1","arrowright","1","arrowright","[0.15,0.85,0.325,0.675]","","",""
"sailing-trial","226","1357553","0.0-11.0-175.0","","","","","","false","","","","","","","","null","","1218.5","","1","1","null","null","arrowup","[0.15,0.85,0.325,0.675]","","",""
"sailing-trial","227","1361352","0.0-11.0-176.0","","","","","","false","","","","","","","","556.7000000029802","","366.90000000596046","","3","1","arrowright","1","arrowright","[0.15,0.85,0.325,0.675]","","",""
"sailing-trial","228","1363790","0.0-11.0-177.0","","","","","","false","","","","","","","","null","","1096.9000000059605","","0","0","null","null","arrowup","[0.15,0.85,0.325,0.675]","","",""
"sailing-trial","229","1367897","0.0-11.0-178.0","","","","","","false","","","","","","","","721.5999999940395","","437.19999998807907","","3","1","arrowright","1","arrowright","[0.15,0.85,0.325,0.675]","","",""
"sailing-trial","230","1372229","0.0-11.0-179.0","","","","","","false","","","","","","","","null","","2491","","2","1","null","null","arrowup","[0.15,0.85,0.325,0.675]","","",""
"sailing-trial","231","1376387","0.0-11.0-180.0","","","","","","false","","","","","","","","658.3999999910593","","653.5","","2","0","arrowright","1","arrowleft","[0.15,0.85,0.325,0.675]","","",""
"sailing-trial","232","1379308","0.0-11.0-181.0","","","","","","false","","","","","","","","null","","1148.2000000029802","","3","1","null","null","arrowup","[0.15,0.85,0.325,0.675]","","",""
"sailing-trial","233","1383223","0.0-11.0-182.0","","","","","","false","","","","","","","","730.4000000059605","","336","","3","1","arrowright","1","arrowright","[0.15,0.85,0.325,0.675]","","",""
"sailing-trial","234","1386612","0.0-11.0-183.0","","","","","","false","","","","","","","","null","","2107.4000000059605","","0","0","null","null","arrowup","[0.15,0.85,0.325,0.675]","","",""
"sailing-trial","235","1390052","0.0-11.0-184.0","","","","","","false","","","","","","","","683.7000000029802","","272.70000000298023","","3","0","arrowright","1","arrowright","[0.15,0.85,0.325,0.675]","","",""
"sailing-trial","236","1393224","0.0-11.0-185.0","","","","","","false","","","","","","","","null","","1209.7999999970198","","2","0","null","null","arrowup","[0.15,0.85,0.325,0.675]","","",""
"sailing-trial","237","1397250","0.0-11.0-186.0","","","","","","false","","","","","","","","474.29999999701977","","740.2999999970198","","0","0","arrowleft","0","arrowleft","[0.15,0.85,0.325,0.675]","","",""
"sailing-trial","238","1400226","0.0-11.0-187.0","","","","","","false","","","","","","","","null","","1112.800000011921","","0","0","null","null","arrowup","[0.15,0.85,0.325,0.675]","","",""
"sailing-trial","239","1404157","0.0-11.0-188.0","","","","","","false","","","","","","","","504.8999999910593","","350.59999999403954","","3","1","arrowright","1","arrowright","[0.325,0.675,0.15,0.85]","","",""
"sailing-trial","240","1407955","0.0-11.0-189.0","","","","","","false","","","","","","","","null","","1772.4000000059605","","3","1","null","null","arrowup","[0.325,0.675,0.15,0.85]","","",""
"sailing-trial","241","1411937","0.0-11.0-190.0","","","","","","false","","","","","","","","858","","286.90000000596046","","3","1","arrowright","1","arrowright","[0.325,0.675,0.15,0.85]","","",""
"sailing-trial","242","1416750","0.0-11.0-191.0","","","","","","false","","","","","","","","null","","2981.5999999940395","","3","1","null","null","arrowup","[0.325,0.675,0.15,0.85]","","",""
"sailing-trial","243","1420764","0.0-11.0-192.0","","","","","","false","","","","","","","","741.7999999970198","","329.79999999701977","","3","1","arrowright","1","arrowright","[0.325,0.675,0.15,0.85]","","",""
"sailing-trial","244","1424544","0.0-11.0-193.0","","","","","","false","","","","","","","","null","","1866.5999999940395","","1","1","null","null","arrowup","[0.325,0.675,0.15,0.85]","","",""
"sailing-trial","245","1429025","0.0-11.0-194.0","","","","","","false","","","","","","","","954.2000000029802","","703","","1","1","arrowleft","0","arrowright","[0.325,0.675,0.15,0.85]","","",""
"sailing-trial","246","1432390","0.0-11.0-195.0","","","","","","false","","","","","","","","null","","1174.5","","2","1","null","null","arrowup","[0.325,0.675,0.15,0.85]","","",""
"sailing-trial","247","1436546","0.0-11.0-196.0","","","","","","false","","","","","","","","1175.5","","22.099999994039536","","1","0","arrowleft","0","arrowright","[0.325,0.675,0.15,0.85]","","",""
"sailing-trial","248","1439133","0.0-11.0-197.0","","","","","","false","","","","","","","","null","","1286.8999999910593","","0","0","null","null","arrowup","[0.325,0.675,0.15,0.85]","","",""
"sailing-trial","249","1442932","0.0-11.0-198.0","","","","","","false","","","","","","","","524.1000000089407","","363.20000000298023","","0","0","arrowleft","0","arrowleft","[0.325,0.675,0.15,0.85]","","",""
"sailing-trial","250","1446616","0.0-11.0-199.0","","","","","","false","","","","","","","","null","","1788.7000000029802","","3","1","null","null","arrowup","[0.325,0.675,0.15,0.85]","","",""
"sailing-trial","251","1451147","0.0-11.0-200.0","","","","","","false","","","","","","","","868.2999999970198","","854.7000000029802","","1","1","arrowleft","0","arrowright","[0.325,0.675,0.15,0.85]","","",""
"sailing-trial","252","1454109","0.0-11.0-201.0","","","","","","false","","","","","","","","null","","1165.699999988079","","3","1","null","null","arrowup","[0.325,0.675,0.15,0.85]","","",""
"sailing-trial","253","1458508","0.0-11.0-202.0","","","","","","false","","","","","","","","912.2000000029802","","584.6000000089407","","1","1","arrowleft","0","arrowright","[0.325,0.675,0.15,0.85]","","",""
"sailing-trial","254","1463206","0.0-11.0-203.0","","","","","","false","","","","","","","","null","","2024.4000000059605","","2","0","null","null","arrowup","[0.325,0.675,0.15,0.85]","","",""
"sailing-trial","255","1468051","0.0-11.0-204.0","","","","","","false","","","","","","","","1484.8999999910593","","530.5","","0","0","arrowleft","0","arrowleft","[0.15,0.85,0.325,0.675]","","",""
"sailing-trial","256","1471599","0.0-11.0-205.0","","","","","","false","","","","","","","","null","","1285.5999999940395","","2","1","null","null","arrowup","[0.15,0.85,0.325,0.675]","","",""
"sailing-trial","257","1476375","0.0-11.0-206.0","","","","","","false","","","","","","","","1997.4000000059605","","245.40000000596046","","1","0","arrowleft","0","arrowright","[0.15,0.85,0.325,0.675]","","",""
"sailing-trial","258","1478967","0.0-11.0-207.0","","","","","","false","","","","","","","","null","","1342.699999988079","","3","0","null","null","arrowup","[0.15,0.85,0.325,0.675]","","",""
"sailing-trial","259","1482438","0.0-11.0-208.0","","","","","","false","","","","","","","","605.1000000089407","","428.30000001192093","","2","0","arrowright","1","arrowleft","[0.15,0.85,0.325,0.675]","","",""
"sailing-trial","260","1485556","0.0-11.0-209.0","","","","","","false","","","","","","","","null","","1211.3999999910593","","2","1","null","null","arrowup","[0.15,0.85,0.325,0.675]","","",""
"sailing-trial","261","1490553","0.0-11.0-210.0","","","","","","false","","","","","","","","745.2000000029802","","1425.2000000029802","","2","1","arrowright","1","arrowleft","[0.15,0.85,0.325,0.675]","","",""
"sailing-trial","262","1493986","0.0-11.0-211.0","","","","","","false","","","","","","","","null","","1357.9000000059605","","1","1","null","null","arrowup","[0.15,0.85,0.325,0.675]","","",""
"sailing-trial","263","1498067","0.0-11.0-212.0","","","","","","false","","","","","","","","1132.2000000029802","","412.3999999910593","","2","0","arrowright","1","arrowleft","[0.15,0.85,0.325,0.675]","","",""
"sailing-trial","264","1501314","0.0-11.0-213.0","","","","","","false","","","","","","","","null","","1486.6000000089407","","0","1","null","null","arrowup","[0.15,0.85,0.325,0.675]","","",""
"sailing-trial","265","1505845","0.0-11.0-214.0","","","","","","false","","","","","","","","1277.2999999970198","","390.1000000089407","","3","1","arrowright","1","arrowright","[0.15,0.85,0.325,0.675]","","",""
"sailing-trial","266","1508610","0.0-11.0-215.0","","","","","","false","","","","","","","","null","","1252.3999999910593","","3","0","null","null","arrowup","[0.15,0.85,0.325,0.675]","","",""
"sailing-trial","267","1512423","0.0-11.0-216.0","","","","","","false","","","","","","","","602.2999999970198","","275.09999999403954","","3","1","arrowright","1","arrowright","[0.15,0.85,0.325,0.675]","","",""
"sailing-trial","268","1514763","0.0-11.0-217.0","","","","","","false","","","","","","","","null","","1068","","2","0","null","null","arrowup","[0.15,0.85,0.325,0.675]","","",""
"sailing-trial","269","1518019","0.0-11.0-218.0","","","","","","false","","","","","","","","634.5","","73.90000000596046","","3","1","arrowright","1","arrowright","[0.15,0.85,0.325,0.675]","","",""
"sailing-trial","270","1521168","0.0-11.0-219.0","","","","","","false","","","","","","","","null","","1169.0999999940395","","1","1","null","null","arrowup","[0.15,0.85,0.325,0.675]","","",""
"sailing-trial","271","1524503","0.0-11.0-220.0","","","","","","false","","","","","","","","662.5","","132.20000000298023","","3","0","arrowright","1","arrowright","[0.325,0.675,0.15,0.85]","","",""
"sailing-trial","272","1527202","0.0-11.0-221.0","","","","","","false","","","","","","","","null","","1424.2999999970198","","1","0","null","null","arrowup","[0.325,0.675,0.15,0.85]","","",""
"sailing-trial","273","1530655","0.0-11.0-222.0","","","","","","false","","","","","","","","746.2000000029802","","177.09999999403954","","0","0","arrowleft","0","arrowleft","[0.325,0.675,0.15,0.85]","","",""
"sailing-trial","274","1533401","0.0-11.0-223.0","","","","","","false","","","","","","","","null","","1239.699999988079","","1","0","null","null","arrowup","[0.325,0.675,0.15,0.85]","","",""
"sailing-trial","275","1538220","0.0-11.0-224.0","","","","","","false","","","","","","","","2136.2000000029802","","124.3999999910593","","0","0","arrowleft","0","arrowleft","[0.325,0.675,0.15,0.85]","","",""
"sailing-trial","276","1541223","0.0-11.0-225.0","","","","","","false","","","","","","","","null","","1230.2000000029802","","1","1","null","null","arrowup","[0.325,0.675,0.15,0.85]","","",""
"sailing-trial","277","1545839","0.0-11.0-226.0","","","","","","false","","","","","","","","1311.5999999940395","","20.200000002980232","","1","0","arrowleft","0","arrowright","[0.325,0.675,0.15,0.85]","","",""
"sailing-trial","278","1549399","0.0-11.0-227.0","","","","","","false","","","","","","","","null","","1759.3999999910593","","1","1","null","null","arrowup","[0.325,0.675,0.15,0.85]","","",""
"sailing-trial","279","1553946","0.0-11.0-228.0","","","","","","false","","","","","","","","970","","310.59999999403954","","1","1","arrowleft","0","arrowright","[0.325,0.675,0.15,0.85]","","",""
"sailing-trial","280","1557394","0.0-11.0-229.0","","","","","","false","","","","","","","","null","","1428.4000000059605","","3","1","null","null","arrowup","[0.325,0.675,0.15,0.85]","","",""
"sailing-trial","281","1561624","0.0-11.0-230.0","","","","","","false","","","","","","","","900.4000000059605","","156","","1","1","arrowleft","0","arrowright","[0.325,0.675,0.15,0.85]","","",""
"sailing-trial","282","1567805","0.0-11.0-231.0","","","","","","false","","","","","","","","null","","4272","","1","1","null","null","arrowup","[0.325,0.675,0.15,0.85]","","",""
"sailing-trial","283","1572834","0.0-11.0-232.0","","","","","","false","","","","","","","","1747.2000000029802","","112.5","","1","1","arrowleft","0","arrowright","[0.325,0.675,0.15,0.85]","","",""
"sailing-trial","284","1576751","0.0-11.0-233.0","","","","","","false","","","","","","","","null","","2156.7999999970198","","2","0","null","null","arrowup","[0.325,0.675,0.15,0.85]","","",""
"sailing-trial","285","1582265","0.0-11.0-234.0","","","","","","false","","","","","","","","2261","","102.09999999403954","","1","1","arrowleft","0","arrowright","[0.325,0.675,0.15,0.85]","","",""
"sailing-trial","286","1584927","0.0-11.0-235.0","","","","","","false","","","","","","","","null","","1000.5999999940395","","0","0","null","null","arrowup","[0.325,0.675,0.15,0.85]","","",""
"sailing-trial","287","1589507","0.0-11.0-236.0","","","","","","false","","","","","","","","1547.5","","69.40000000596046","","1","1","arrowleft","0","arrowright","[0.325,0.675,0.15,0.85]","","",""
"sailing-trial","288","1592722","0.0-11.0-237.0","","","","","","false","","","","","","","","null","","1332.7000000029802","","3","1","null","null","arrowup","[0.325,0.675,0.15,0.85]","","",""
"sailing-trial","289","1596806","0.0-11.0-238.0","","","","","","false","","","","","","","","779.7999999970198","","781.2000000029802","","1","0","arrowleft","0","arrowright","[0.325,0.675,0.15,0.85]","","",""
"sailing-trial","290","1599551","0.0-11.0-239.0","","","","","","false","","","","","","","","null","","1446.7999999970198","","2","0","null","null","arrowup","[0.325,0.675,0.15,0.85]","","",""
"sailing-trial","291","1603182","0.0-11.0-240.0","","","","","","false","","","","","","","","664.6000000089407","","157.1000000089407","","3","1","arrowright","1","arrowright","[0.15,0.85,0.325,0.675]","","",""
"sailing-trial","292","1605951","0.0-11.0-241.0","","","","","","false","","","","","","","","null","","1118.5999999940395","","2","0","null","null","arrowup","[0.15,0.85,0.325,0.675]","","",""
"sailing-trial","293","1609596","0.0-11.0-242.0","","","","","","false","","","","","","","","619.0999999940395","","170.29999999701977","","3","1","arrowright","1","arrowright","[0.15,0.85,0.325,0.675]","","",""
"sailing-trial","294","1612968","0.0-11.0-243.0","","","","","","false","","","","","","","","null","","1277.5","","1","0","null","null","arrowup","[0.15,0.85,0.325,0.675]","","",""
"sailing-trial","295","1617240","0.0-11.0-244.0","","","","","","false","","","","","","","","984.7999999970198","","292.5","","3","1","arrowright","1","arrowright","[0.15,0.85,0.325,0.675]","","",""
"sailing-trial","296","1621063","0.0-11.0-245.0","","","","","","false","","","","","","","","null","","2031.800000011921","","2","0","null","null","arrowup","[0.15,0.85,0.325,0.675]","","",""
"sailing-trial","297","1625119","0.0-11.0-246.0","","","","","","false","","","","","","","","746.7999999970198","","465.79999999701977","","3","1","arrowright","1","arrowright","[0.15,0.85,0.325,0.675]","","",""
"sailing-trial","298","1629682","0.0-11.0-247.0","","","","","","false","","","","","","","","null","","2472.4000000059605","","0","1","null","null","arrowup","[0.15,0.85,0.325,0.675]","","",""
"sailing-trial","299","1633330","0.0-11.0-248.0","","","","","","false","","","","","","","","702.5","","82.70000000298023","","3","1","arrowright","1","arrowright","[0.15,0.85,0.325,0.675]","","",""
"sailing-trial","300","1636411","0.0-11.0-249.0","","","","","","false","","","","","","","","null","","1136.5","","2","1","null","null","arrowup","[0.15,0.85,0.325,0.675]","","",""
"sailing-trial","301","1640177","0.0-11.0-250.0","","","","","","false","","","","","","","","794","","66.40000000596046","","3","1","arrowright","1","arrowright","[0.15,0.85,0.325,0.675]","","",""
"sailing-trial","302","1644090","0.0-11.0-251.0","","","","","","false","","","","","","","","null","","2119.0999999940395","","0","1","null","null","arrowup","[0.15,0.85,0.325,0.675]","","",""
"sailing-trial","303","1647842","0.0-11.0-252.0","","","","","","false","","","","","","","","1030.5999999940395","","178.29999999701977","","3","0","arrowright","1","arrowright","[0.15,0.85,0.325,0.675]","","",""
"sailing-trial","304","1650730","0.0-11.0-253.0","","","","","","false","","","","","","","","null","","1252.2000000029802","","0","0","null","null","arrowup","[0.15,0.85,0.325,0.675]","","",""
"sailing-trial","305","1654151","0.0-11.0-254.0","","","","","","false","","","","","","","","628.1000000089407","","129","","0","0","arrowleft","0","arrowleft","[0.15,0.85,0.325,0.675]","","",""
"sailing-trial","306","1657125","0.0-11.0-255.0","","","","","","false","","","","","","","","null","","1269.300000011921","","0","0","null","null","arrowup","[0.15,0.85,0.325,0.675]","","",""
"sailing-trial","307","1660892","0.0-11.0-256.0","","","","","","false","","","","","","","","601.3999999910593","","456","","0","0","arrowleft","0","arrowleft","[0.15,0.85,0.325,0.675]","","",""
"sailing-trial","308","1664279","0.0-11.0-257.0","","","","","","false","","","","","","","","null","","1582.2999999970198","","1","1","null","null","arrowup","[0.15,0.85,0.325,0.675]","","",""
"sailing-trial","309","1669640","0.0-11.0-258.0","","","","","","false","","","","","","","","1811.5999999940395","","469.80000001192093","","1","1","arrowleft","0","arrowright","[0.15,0.85,0.325,0.675]","","",""
"sailing-trial","310","1672972","0.0-11.0-259.0","","","","","","false","","","","","","","","null","","1410.1000000089407","","1","1","null","null","arrowup","[0.15,0.85,0.325,0.675]","","",""
"sailing-trial","311","1678218","0.0-11.0-260.0","","","","","","false","","","","","","","","1162","","371.30000001192093","","1","1","arrowleft","0","arrowright","[0.325,0.675,0.15,0.85]","","",""
"sailing-trial","312","1681899","0.0-11.0-261.0","","","","","","false","","","","","","","","null","","1524.6000000089407","","1","1","null","null","arrowup","[0.325,0.675,0.15,0.85]","","",""
"sailing-trial","313","1685992","0.0-11.0-262.0","","","","","","false","","","","","","","","1139.7000000029802","","446.09999999403954","","1","0","arrowleft","0","arrowright","[0.325,0.675,0.15,0.85]","","",""
"sailing-trial","314","1688747","0.0-11.0-263.0","","","","","","false","","","","","","","","null","","1090.2000000029802","","0","0","null","null","arrowup","[0.325,0.675,0.15,0.85]","","",""
"sailing-trial","315","1692633","0.0-11.0-264.0","","","","","","false","","","","","","","","769.7000000029802","","283.70000000298023","","2","0","arrowright","1","arrowleft","[0.325,0.675,0.15,0.85]","","",""
"sailing-trial","316","1695244","0.0-11.0-265.0","","","","","","false","","","","","","","","null","","1031.2000000029802","","0","0","null","null","arrowup","[0.325,0.675,0.15,0.85]","","",""
"sailing-trial","317","1699290","0.0-11.0-266.0","","","","","","false","","","","","","","","550.7999999970198","","839.8999999910593","","3","1","arrowright","1","arrowright","[0.325,0.675,0.15,0.85]","","",""
"sailing-trial","318","1702588","0.0-11.0-267.0","","","","","","false","","","","","","","","null","","1516","","1","1","null","null","arrowup","[0.325,0.675,0.15,0.85]","","",""
"sailing-trial","319","1706701","0.0-11.0-268.0","","","","","","false","","","","","","","","610.7999999970198","","581.2000000029802","","3","1","arrowright","1","arrowright","[0.325,0.675,0.15,0.85]","","",""
"sailing-trial","320","1709184","0.0-11.0-269.0","","","","","","false","","","","","","","","null","","1000.2999999970198","","2","0","null","null","arrowup","[0.325,0.675,0.15,0.85]","","",""
"sailing-trial","321","1712530","0.0-11.0-270.0","","","","","","false","","","","","","","","508","","0.5","","3","1","arrowright","1","arrowright","[0.325,0.675,0.15,0.85]","","",""
"sailing-trial","322","1715944","0.0-11.0-271.0","","","","","","false","","","","","","","","null","","1636.2000000029802","","3","1","null","null","arrowup","[0.325,0.675,0.15,0.85]","","",""
"sailing-trial","323","1719376","0.0-11.0-272.0","","","","","","false","","","","","","","","644.1000000089407","","213.5","","3","1","arrowright","1","arrowright","[0.325,0.675,0.15,0.85]","","",""
"sailing-trial","324","1723935","0.0-11.0-273.0","","","","","","false","","","","","","","","null","","2905.9000000059605","","0","0","null","null","arrowup","[0.325,0.675,0.15,0.85]","","",""
"sailing-trial","325","1728038","0.0-11.0-274.0","","","","","","false","","","","","","","","893.1000000089407","","202.20000000298023","","3","1","arrowright","1","arrowright","[0.325,0.675,0.15,0.85]","","",""
"sailing-trial","326","1732417","0.0-11.0-275.0","","","","","","false","","","","","","","","null","","2925","","0","0","null","null","arrowup","[0.325,0.675,0.15,0.85]","","",""
"sailing-trial","327","1736183","0.0-11.0-276.0","","","","","","false","","","","","","","","827","","144.1000000089407","","3","1","arrowright","1","arrowright","[0.325,0.675,0.15,0.85]","","",""
"sailing-trial","328","1739497","0.0-11.0-277.0","","","","","","false","","","","","","","","null","","1132.4000000059605","","3","1","null","null","arrowup","[0.325,0.675,0.15,0.85]","","",""
"sailing-trial","329","1743372","0.0-11.0-278.0","","","","","","false","","","","","","","","725.7000000029802","","316.09999999403954","","3","0","arrowright","1","arrowright","[0.15,0.85,0.325,0.675]","","",""
"sailing-trial","330","1746359","0.0-11.0-279.0","","","","","","false","","","","","","","","null","","1163.5999999940395","","1","1","null","null","arrowup","[0.15,0.85,0.325,0.675]","","",""
"sailing-trial","331","1751442","0.0-11.0-280.0","","","","","","false","","","","","","","","997.7000000029802","","1152.9000000059605","","1","1","arrowleft","0","arrowright","[0.15,0.85,0.325,0.675]","","",""
"sailing-trial","332","1754338","0.0-11.0-281.0","","","","","","false","","","","","","","","null","","1121.5999999940395","","3","1","null","null","arrowup","[0.15,0.85,0.325,0.675]","","",""
"sailing-trial","333","1758334","0.0-11.0-282.0","","","","","","false","","","","","","","","866","","26.30000001192093","","1","1","arrowleft","0","arrowright","[0.15,0.85,0.325,0.675]","","",""
"sailing-trial","334","1761417","0.0-11.0-283.0","","","","","","false","","","","","","","","null","","1160.8999999910593","","3","1","null","null","arrowup","[0.15,0.85,0.325,0.675]","","",""
"sailing-trial","335","1765108","0.0-11.0-284.0","","","","","","false","","","","","","","","991","","195.29999999701977","","1","0","arrowleft","0","arrowright","[0.15,0.85,0.325,0.675]","","",""
"sailing-trial","336","1768144","0.0-11.0-285.0","","","","","","false","","","","","","","","null","","1281","","3","1","null","null","arrowup","[0.15,0.85,0.325,0.675]","","",""
"sailing-trial","337","1772243","0.0-11.0-286.0","","","","","","false","","","","","","","","671.7000000029802","","464","","3","1","arrowright","1","arrowright","[0.15,0.85,0.325,0.675]","","",""
"sailing-trial","338","1775072","0.0-11.0-287.0","","","","","","false","","","","","","","","null","","1493.7000000029802","","0","0","null","null","arrowup","[0.15,0.85,0.325,0.675]","","",""
"sailing-trial","339","1778970","0.0-11.0-288.0","","","","","","false","","","","","","","","851.1000000089407","","93.70000000298023","","3","1","arrowright","1","arrowright","[0.15,0.85,0.325,0.675]","","",""
"sailing-trial","340","1782136","0.0-11.0-289.0","","","","","","false","","","","","","","","null","","1261.4000000059605","","3","1","null","null","arrowup","[0.15,0.85,0.325,0.675]","","",""
"sailing-trial","341","1786351","0.0-11.0-290.0","","","","","","false","","","","","","","","920.2999999970198","","233.70000000298023","","3","1","arrowright","1","arrowright","[0.15,0.85,0.325,0.675]","","",""
"sailing-trial","342","1789681","0.0-11.0-291.0","","","","","","false","","","","","","","","null","","1558.199999988079","","1","1","null","null","arrowup","[0.15,0.85,0.325,0.675]","","",""
"sailing-trial","343","1794345","0.0-11.0-292.0","","","","","","false","","","","","","","","1528.2999999970198","","361.09999999403954","","3","1","arrowright","1","arrowright","[0.15,0.85,0.325,0.675]","","",""
"sailing-trial","344","1797392","0.0-11.0-293.0","","","","","","false","","","","","","","","null","","1256","","3","1","null","null","arrowup","[0.15,0.85,0.325,0.675]","","",""
"sailing-trial","345","1801415","0.0-11.0-294.0","","","","","","false","","","","","","","","764.6000000089407","","422.59999999403954","","3","0","arrowright","1","arrowright","[0.675,0.325,0.85,0.15]","","",""
"sailing-trial","346","1803929","0.0-11.0-295.0","","","","","","false","","","","","","","","null","","1212.0999999940395","","1","0","null","null","arrowup","[0.675,0.325,0.85,0.15]","","",""
"sailing-trial","347","1808454","0.0-11.0-296.0","","","","","","false","","","","","","","","904.2999999970198","","522.7000000029802","","0","1","arrowleft","0","arrowleft","[0.675,0.325,0.85,0.15]","","",""
"sailing-trial","348","1811301","0.0-11.0-297.0","","","","","","false","","","","","","","","null","","1135.6000000089407","","0","0","null","null","arrowup","[0.675,0.325,0.85,0.15]","","",""
"sailing-trial","349","1816608","0.0-11.0-298.0","","","","","","false","","","","","","","","1056.6000000089407","","1753.3999999910593","","0","0","arrowleft","0","arrowleft","[0.675,0.325,0.85,0.15]","","",""
"sailing-trial","350","1819645","0.0-11.0-299.0","","","","","","false","","","","","","","","null","","1222.7999999970198","","2","1","null","null","arrowup","[0.675,0.325,0.85,0.15]","","",""
"sailing-trial","351","1823797","0.0-11.0-300.0","","","","","","false","","","","","","","","527.6999999880791","","344.29999999701977","","2","0","arrowright","1","arrowleft","[0.675,0.325,0.85,0.15]","","",""
"sailing-trial","352","1826347","0.0-11.0-301.0","","","","","","false","","","","","","","","null","","1107.7000000029802","","1","0","null","null","arrowup","[0.675,0.325,0.85,0.15]","","",""
"sailing-trial","353","1829663","0.0-11.0-302.0","","","","","","false","","","","","","","","740.7999999970198","","115.09999999403954","","3","0","arrowright","1","arrowright","[0.675,0.325,0.85,0.15]","","",""
"sailing-trial","354","1832214","0.0-11.0-303.0","","","","","","false","","","","","","","","null","","1264.1000000089407","","1","0","null","null","arrowup","[0.675,0.325,0.85,0.15]","","",""
"sailing-trial","355","1837168","0.0-11.0-304.0","","","","","","false","","","","","","","","866.7999999970198","","1217.9000000059605","","2","1","arrowright","1","arrowleft","[0.675,0.325,0.85,0.15]","","",""
"sailing-trial","356","1840047","0.0-11.0-305.0","","","","","","false","","","","","","","","null","","1417.5","","3","0","null","null","arrowup","[0.675,0.325,0.85,0.15]","","",""
"sailing-trial","357","1844114","0.0-11.0-306.0","","","","","","false","","","","","","","","500.5","","582.1999999880791","","2","1","arrowright","1","arrowleft","[0.675,0.325,0.85,0.15]","","",""
"sailing-trial","358","1847045","0.0-11.0-307.0","","","","","","false","","","","","","","","null","","1114.0999999940395","","0","1","null","null","arrowup","[0.675,0.325,0.85,0.15]","","",""
"sailing-trial","359","1850744","0.0-11.0-308.0","","","","","","false","","","","","","","","628.5","","55.20000000298023","","2","1","arrowright","1","arrowleft","[0.675,0.325,0.85,0.15]","","",""
"sailing-trial","360","1853833","0.0-11.0-309.0","","","","","","false","","","","","","","","null","","1318.3999999910593","","3","0","null","null","arrowup","[0.675,0.325,0.85,0.15]","","",""
"sailing-trial","361","1858137","0.0-11.0-310.0","","","","","","false","","","","","","","","957.8999999910593","","282.40000000596046","","2","1","arrowright","1","arrowleft","[0.15,0.85,0.325,0.675]","","",""
"sailing-trial","362","1862668","0.0-11.0-311.0","","","","","","false","","","","","","","","null","","2651.4000000059605","","1","1","null","null","arrowup","[0.15,0.85,0.325,0.675]","","",""
"sailing-trial","363","1866349","0.0-11.0-312.0","","","","","","false","","","","","","","","713.7999999970198","","142.80000001192093","","2","1","arrowright","1","arrowleft","[0.15,0.85,0.325,0.675]","","",""
"sailing-trial","364","1869165","0.0-11.0-313.0","","","","","","false","","","","","","","","null","","1055.6000000089407","","3","1","null","null","arrowup","[0.15,0.85,0.325,0.675]","","",""
"sailing-trial","365","1872862","0.0-11.0-314.0","","","","","","false","","","","","","","","537","","464.59999999403954","","2","1","arrowright","1","arrowleft","[0.15,0.85,0.325,0.675]","","",""
"sailing-trial","366","1875149","0.0-11.0-315.0","","","","","","false","","","","","","","","null","","929.2999999970198","","0","0","null","null","arrowup","[0.15,0.85,0.325,0.675]","","",""
"sailing-trial","367","1879473","0.0-11.0-316.0","","","","","","false","","","","","","","","946.5999999940395","","304.8999999910593","","2","0","arrowright","1","arrowleft","[0.15,0.85,0.325,0.675]","","",""
"sailing-trial","368","1882857","0.0-11.0-317.0","","","","","","false","","","","","","","","null","","1545.7999999970198","","0","1","null","null","arrowup","[0.15,0.85,0.325,0.675]","","",""
"sailing-trial","369","1887080","0.0-11.0-318.0","","","","","","false","","","","","","","","680","","681.6000000089407","","0","0","arrowleft","0","arrowleft","[0.15,0.85,0.325,0.675]","","",""
"sailing-trial","370","1889410","0.0-11.0-319.0","","","","","","false","","","","","","","","null","","998.9000000059605","","0","0","null","null","arrowup","[0.15,0.85,0.325,0.675]","","",""
"sailing-trial","371","1893715","0.0-11.0-320.0","","","","","","false","","","","","","","","723.9000000059605","","739.5","","1","1","arrowleft","0","arrowright","[0.15,0.85,0.325,0.675]","","",""
"sailing-trial","372","1896362","0.0-11.0-321.0","","","","","","false","","","","","","","","null","","1094.3999999910593","","2","0","null","null","arrowup","[0.15,0.85,0.325,0.675]","","",""
"sailing-trial","373","1900337","0.0-11.0-322.0","","","","","","false","","","","","","","","675.9000000059605","","458.8999999910593","","1","0","arrowleft","0","arrowright","[0.15,0.85,0.325,0.675]","","",""
"sailing-trial","374","1903426","0.0-11.0-323.0","","","","","","false","","","","","","","","null","","1272.3999999910593","","1","1","null","null","arrowup","[0.15,0.85,0.325,0.675]","","",""
"sailing-trial","375","1906599","0.0-11.0-324.0","","","","","","false","","","","","","","","645.2000000029802","","39.099999994039536","","1","0","arrowleft","0","arrowright","[0.15,0.85,0.325,0.675]","","",""
"sailing-trial","376","1909938","0.0-11.0-325.0","","","","","","false","","","","","","","","null","","1524.7999999970198","","1","1","null","null","arrowup","[0.15,0.85,0.325,0.675]","","",""
"sailing-trial","377","1914407","0.0-11.0-326.0","","","","","","false","","","","","","","","764.9000000059605","","1058.800000011921","","0","0","arrowleft","0","arrowleft","[0.15,0.85,0.325,0.675]","","",""
"sailing-trial","378","1917170","0.0-11.0-327.0","","","","","","false","","","","","","","","null","","1016.6999999880791","","0","0","null","null","arrowup","[0.15,0.85,0.325,0.675]","","",""
"sailing-trial","379","1920975","0.0-11.0-328.0","","","","","","false","","","","","","","","637.3999999910593","","310.70000000298023","","3","0","arrowright","1","arrowright","[0.15,0.85,0.325,0.675]","","",""
"sailing-trial","380","1923766","0.0-11.0-329.0","","","","","","false","","","","","","","","null","","1024.5","","2","0","null","null","arrowup","[0.15,0.85,0.325,0.675]","","",""
"sailing-trial","381","1927216","0.0-11.0-330.0","","","","","","false","","","","","","","","741.5999999940395","","194.29999999701977","","2","0","arrowright","1","arrowleft","[0.15,0.85,0.325,0.675]","","",""
"sailing-trial","382","1929709","0.0-11.0-331.0","","","","","","false","","","","","","","","null","","987.5","","2","0","null","null","arrowup","[0.15,0.85,0.325,0.675]","","",""
"sailing-trial","383","1933973","0.0-11.0-332.0","","","","","","false","","","","","","","","782.0999999940395","","396.5","","3","1","arrowright","1","arrowright","[0.85,0.15,0.675,0.325]","","",""
"sailing-trial","384","1936302","0.0-11.0-333.0","","","","","","false","","","","","","","","null","","1004","","1","0","null","null","arrowup","[0.85,0.15,0.675,0.325]","","",""
"sailing-trial","385","1940285","0.0-11.0-334.0","","","","","","false","","","","","","","","542.9000000059605","","598.4000000059605","","3","1","arrowright","1","arrowright","[0.85,0.15,0.675,0.325]","","",""
"sailing-trial","386","1943219","0.0-11.0-335.0","","","","","","false","","","","","","","","null","","1069.2999999970198","","2","1","null","null","arrowup","[0.85,0.15,0.675,0.325]","","",""
"sailing-trial","387","1947014","0.0-11.0-336.0","","","","","","false","","","","","","","","651.8999999910593","","124.70000000298023","","3","1","arrowright","1","arrowright","[0.85,0.15,0.675,0.325]","","",""
"sailing-trial","388","1949384","0.0-11.0-337.0","","","","","","false","","","","","","","","null","","1080.7999999970198","","2","0","null","null","arrowup","[0.85,0.15,0.675,0.325]","","",""
"sailing-trial","389","1953061","0.0-11.0-338.0","","","","","","false","","","","","","","","771.1999999880791","","273.79999999701977","","3","0","arrowright","1","arrowright","[0.85,0.15,0.675,0.325]","","",""
"sailing-trial","390","1956010","0.0-11.0-339.0","","","","","","false","","","","","","","","null","","851.2999999970198","","0","1","null","null","arrowup","[0.85,0.15,0.675,0.325]","","",""
"sailing-trial","391","1959851","0.0-11.0-340.0","","","","","","false","","","","","","","","763.1999999880791","","614","","3","0","arrowright","1","arrowright","[0.85,0.15,0.675,0.325]","","",""
"sailing-trial","392","1962755","0.0-11.0-341.0","","","","","","false","","","","","","","","null","","1090.4000000059605","","2","1","null","null","arrowup","[0.85,0.15,0.675,0.325]","","",""
"sailing-trial","393","1966653","0.0-11.0-342.0","","","","","","false","","","","","","","","822.4000000059605","","303.20000000298023","","2","1","arrowright","1","arrowleft","[0.85,0.15,0.675,0.325]","","",""
"sailing-trial","394","1969833","0.0-11.0-343.0","","","","","","false","","","","","","","","null","","1166.2000000029802","","2","1","null","null","arrowup","[0.85,0.15,0.675,0.325]","","",""
"sailing-trial","395","1974213","0.0-11.0-344.0","","","","","","false","","","","","","","","1110.2000000029802","","356.19999998807907","","2","1","arrowright","1","arrowleft","[0.85,0.15,0.675,0.325]","","",""
"sailing-trial","396","1976545","0.0-11.0-345.0","","","","","","false","","","","","","","","null","","1071.2999999970198","","2","0","null","null","arrowup","[0.85,0.15,0.675,0.325]","","",""
"sailing-trial","397","1982394","0.0-11.0-346.0","","","","","","false","","","","","","","","1820.5","","1160.9000000059605","","0","1","arrowleft","0","arrowleft","[0.85,0.15,0.675,0.325]","","",""
"sailing-trial","398","1985248","0.0-11.0-347.0","","","","","","false","","","","","","","","null","","1131.3999999910593","","2","0","null","null","arrowup","[0.85,0.15,0.675,0.325]","","",""
"sailing-trial","399","1989389","0.0-11.0-348.0","","","","","","false","","","","","","","","633","","390.29999999701977","","0","1","arrowleft","0","arrowleft","[0.85,0.15,0.675,0.325]","","",""
"sailing-trial","400","1992073","0.0-11.0-349.0","","","","","","false","","","","","","","","null","","892","","2","0","null","null","arrowup","[0.85,0.15,0.675,0.325]","","",""
"sailing-trial","401","1996950","0.0-11.0-350.0","","","","","","false","","","","","","","","675.3999999910593","","1358.7999999970198","","0","1","arrowleft","0","arrowleft","[0.675,0.325,0.85,0.15]","","",""
"sailing-trial","402","1999664","0.0-11.0-351.0","","","","","","false","","","","","","","","null","","909.7000000029802","","2","1","null","null","arrowup","[0.675,0.325,0.85,0.15]","","",""
"sailing-trial","403","2003578","0.0-11.0-352.0","","","","","","false","","","","","","","","898.4000000059605","","391.29999999701977","","0","0","arrowleft","0","arrowleft","[0.675,0.325,0.85,0.15]","","",""
"sailing-trial","404","2006136","0.0-11.0-353.0","","","","","","false","","","","","","","","null","","1285","","1","0","null","null","arrowup","[0.675,0.325,0.85,0.15]","","",""
"sailing-trial","405","2009615","0.0-11.0-354.0","","","","","","false","","","","","","","","564.8999999910593","","299.20000000298023","","2","0","arrowright","1","arrowleft","[0.675,0.325,0.85,0.15]","","",""
"sailing-trial","406","2012235","0.0-11.0-355.0","","","","","","false","","","","","","","","null","","1293.2000000029802","","1","0","null","null","arrowup","[0.675,0.325,0.85,0.15]","","",""
"sailing-trial","407","2015774","0.0-11.0-356.0","","","","","","false","","","","","","","","651.7999999970198","","331.8999999910593","","3","0","arrowright","1","arrowright","[0.675,0.325,0.85,0.15]","","",""
"sailing-trial","408","2018771","0.0-11.0-357.0","","","","","","false","","","","","","","","null","","1166.2999999970198","","0","1","null","null","arrowup","[0.675,0.325,0.85,0.15]","","",""
"sailing-trial","409","2024666","0.0-11.0-358.0","","","","","","false","","","","","","","","1679.2000000029802","","1370","","2","1","arrowright","1","arrowleft","[0.675,0.325,0.85,0.15]","","",""
"sailing-trial","410","2027614","0.0-11.0-359.0","","","","","","false","","","","","","","","null","","1173.2000000029802","","0","1","null","null","arrowup","[0.675,0.325,0.85,0.15]","","",""
"sailing-trial","411","2032694","0.0-11.0-360.0","","","","","","false","","","","","","","","1425.5","","841.8999999910593","","2","1","arrowright","1","arrowleft","[0.675,0.325,0.85,0.15]","","",""
"sailing-trial","412","2039256","0.0-11.0-361.0","","","","","","false","","","","","","","","null","","4666.29999999702","","3","1","null","null","arrowup","[0.675,0.325,0.85,0.15]","","",""
"sailing-trial","413","2043171","0.0-11.0-362.0","","","","","","false","","","","","","","","757.4000000059605","","278.5","","2","1","arrowright","1","arrowleft","[0.675,0.325,0.85,0.15]","","",""
"sailing-trial","414","2045445","0.0-11.0-363.0","","","","","","false","","","","","","","","null","","1006.3000000119209","","0","0","null","null","arrowup","[0.675,0.325,0.85,0.15]","","",""
"sailing-trial","415","2049950","0.0-11.0-364.0","","","","","","false","","","","","","","","888.1000000089407","","680.2999999970198","","2","1","arrowright","1","arrowleft","[0.675,0.325,0.85,0.15]","","",""
"sailing-trial","416","2052532","0.0-11.0-365.0","","","","","","false","","","","","","","","null","","817.5","","0","1","null","null","arrowup","[0.675,0.325,0.85,0.15]","","",""
"sailing-trial","417","2056215","0.0-11.0-366.0","","","","","","false","","","","","","","","689.8999999910593","","315.40000000596046","","2","0","arrowright","1","arrowleft","[0.325,0.675,0.15,0.85]","","",""
"sailing-trial","418","2058899","0.0-11.0-367.0","","","","","","false","","","","","","","","null","","1212.2999999970198","","3","0","null","null","arrowup","[0.325,0.675,0.15,0.85]","","",""
"sailing-trial","419","2063342","0.0-11.0-368.0","","","","","","false","","","","","","","","514.5999999940395","","1083.2000000029802","","1","1","arrowleft","0","arrowright","[0.325,0.675,0.15,0.85]","","",""
"sailing-trial","420","2065790","0.0-11.0-369.0","","","","","","false","","","","","","","","null","","1143.5","","2","0","null","null","arrowup","[0.325,0.675,0.15,0.85]","","",""
"sailing-trial","421","2070872","0.0-11.0-370.0","","","","","","false","","","","","","","","923.7000000029802","","526","","1","1","arrowleft","0","arrowright","[0.325,0.675,0.15,0.85]","","",""
"sailing-trial","422","2073556","0.0-11.0-371.0","","","","","","false","","","","","","","","null","","1231.7999999970198","","0","0","null","null","arrowup","[0.325,0.675,0.15,0.85]","","",""
"sailing-trial","423","2077549","0.0-11.0-372.0","","","","","","false","","","","","","","","772.8999999910593","","343.20000000298023","","1","1","arrowleft","0","arrowright","[0.325,0.675,0.15,0.85]","","",""
"sailing-trial","424","2080015","0.0-11.0-373.0","","","","","","false","","","","","","","","null","","1105.1000000089407","","3","0","null","null","arrowup","[0.325,0.675,0.15,0.85]","","",""
"sailing-trial","425","2084881","0.0-11.0-374.0","","","","","","false","","","","","","","","1494.2999999970198","","526","","1","0","arrowleft","0","arrowright","[0.325,0.675,0.15,0.85]","","",""
"sailing-trial","426","2087877","0.0-11.0-375.0","","","","","","false","","","","","","","","null","","1026.300000011921","","1","1","null","null","arrowup","[0.325,0.675,0.15,0.85]","","",""
"sailing-trial","427","2092856","0.0-11.0-376.0","","","","","","false","","","","","","","","1947.199999988079","","99.90000000596046","","1","1","arrowleft","0","arrowright","[0.325,0.675,0.15,0.85]","","",""
"sailing-trial","428","2096089","0.0-11.0-377.0","","","","","","false","","","","","","","","null","","1342","","1","1","null","null","arrowup","[0.325,0.675,0.15,0.85]","","",""
"sailing-trial","429","2101751","0.0-11.0-378.0","","","","","","false","","","","","","","","836.7999999970198","","1621.7999999970198","","1","1","arrowleft","0","arrowright","[0.325,0.675,0.15,0.85]","","",""
"sailing-trial","430","2103914","0.0-11.0-379.0","","","","","","false","","","","","","","","null","","895.5","","2","0","null","null","arrowup","[0.325,0.675,0.15,0.85]","","",""
"sailing-trial","431","2107648","0.0-11.0-380.0","","","","","","false","","","","","","","","1137","","33","","1","1","arrowleft","0","arrowright","[0.325,0.675,0.15,0.85]","","",""
"sailing-trial","432","2110413","0.0-11.0-381.0","","","","","","false","","","","","","","","null","","1290.7999999970198","","2","0","null","null","arrowup","[0.325,0.675,0.15,0.85]","","",""
"sailing-trial","433","2114859","0.0-11.0-382.0","","","","","","false","","","","","","","","1412.2000000029802","","194.40000000596046","","1","1","arrowleft","0","arrowright","[0.325,0.675,0.15,0.85]","","",""
"sailing-trial","434","2117416","0.0-11.0-383.0","","","","","","false","","","","","","","","null","","1159","","1","0","null","null","arrowup","[0.325,0.675,0.15,0.85]","","",""
"sailing-trial","435","2121391","0.0-11.0-384.0","","","","","","false","","","","","","","","1484.2999999970198","","32.900000005960464","","1","0","arrowleft","0","arrowright","[0.85,0.15,0.675,0.325]","","",""
"sailing-trial","436","2125254","0.0-11.0-385.0","","","","","","false","","","","","","","","null","","2437.7999999970198","","1","0","null","null","arrowup","[0.85,0.15,0.675,0.325]","","",""
"sailing-trial","437","2128685","0.0-11.0-386.0","","","","","","false","","","","","","","","565.7999999970198","","21.700000002980232","","3","1","arrowright","1","arrowright","[0.85,0.15,0.675,0.325]","","",""
"sailing-trial","438","2131515","0.0-11.0-387.0","","","","","","false","","","","","","","","null","","969.7999999970198","","3","1","null","null","arrowup","[0.85,0.15,0.675,0.325]","","",""
"sailing-trial","439","2135690","0.0-11.0-388.0","","","","","","false","","","","","","","","1032.9000000059605","","325.29999999701977","","3","0","arrowright","1","arrowright","[0.85,0.15,0.675,0.325]","","",""
"sailing-trial","440","2138543","0.0-11.0-389.0","","","","","","false","","","","","","","","null","","1249","","3","0","null","null","arrowup","[0.85,0.15,0.675,0.325]","","",""
"sailing-trial","441","2143043","0.0-11.0-390.0","","","","","","false","","","","","","","","1442.4000000059605","","80.29999999701977","","2","1","arrowright","1","arrowleft","[0.85,0.15,0.675,0.325]","","",""
"sailing-trial","442","2145851","0.0-11.0-391.0","","","","","","false","","","","","","","","null","","874","","1","0","null","null","arrowup","[0.85,0.15,0.675,0.325]","","",""
"sailing-trial","443","2149206","0.0-11.0-392.0","","","","","","false","","","","","","","","669.7000000029802","","184.29999999701977","","0","0","arrowleft","0","arrowleft","[0.85,0.15,0.675,0.325]","","",""
"sailing-trial","444","2152155","0.0-11.0-393.0","","","","","","false","","","","","","","","null","","1060.6000000089407","","3","0","null","null","arrowup","[0.85,0.15,0.675,0.325]","","",""
"sailing-trial","445","2156083","0.0-11.0-394.0","","","","","","false","","","","","","","","695","","318.30000001192093","","2","1","arrowright","1","arrowleft","[0.85,0.15,0.675,0.325]","","",""
"sailing-trial","446","2158769","0.0-11.0-395.0","","","","","","false","","","","","","","","null","","1216.5","","1","0","null","null","arrowup","[0.85,0.15,0.675,0.325]","","",""
"sailing-trial","447","2162481","0.0-11.0-396.0","","","","","","false","","","","","","","","812.3999999910593","","76.80000001192093","","2","1","arrowright","1","arrowleft","[0.85,0.15,0.675,0.325]","","",""
"sailing-trial","448","2165778","0.0-11.0-397.0","","","","","","false","","","","","","","","null","","1061.5","","3","1","null","null","arrowup","[0.85,0.15,0.675,0.325]","","",""
"sailing-trial","449","2169506","0.0-11.0-398.0","","","","","","false","","","","","","","","729","","505.8999999910593","","0","0","arrowleft","0","arrowleft","[0.85,0.15,0.675,0.325]","","",""
"sailing-trial","450","2172160","0.0-11.0-399.0","","","","","","false","","","","","","","","null","","1093.7999999970198","","3","0","null","null","arrowup","[0.85,0.15,0.675,0.325]","","",""
"instructions","451","2178023","0.0-12.0","","","","","","","","","","5863.20000000298","","","","","","","","","","","","","","","","[{""page_index"":0,""viewing_time"":5862.300000011921}]"
"survey-debrief","452","2207954","0.0-13.0","","","","","","","","","","29926.29999999702","","","","","","","","","","","","","","{""difficulty"":""4"",""fun"":""5"",""clarity"":""5"",""strategy"":""no"",""feedback"":""""}","",""
