"trial_type","trial_index","time_elapsed","internal_node_id","value","metadata","success","timeout","failed_images","failed_audio","failed_video","browser_interaction","low_quality","rt","stimulus","response","button_pressed","island_rt","island_response","boat_rt","boat_response","boat","reward","island_key","island","boat_key","reward_probabilities","responses","num_errors","view_history"
"pavlovia","0","4","0.0-0.0","","","","","","","","","","","","","","","","","","","","","","","","","",""
"call-function","1","6","0.0-1.0","","{""task_version"":""sailing_part1_v1"",""task_condition"":""good"",""boats"":[""A"",""C"",""B"",""D""],""boats_demo"":[""G"",""H"",""E"",""F""],""islands"":[""B"",""A""],""subject_id"":""13799"",""age"":""8"",""gender"":""Female""}","","","","","","","","","","","","","","","","","","","","","","","",""
"preload","2","27190","0.0-2.0","","","true","false","[]","[]","[]","[{""event"":""fullscreenenter"",""trial"":3,""time"":28786}]","false","","","","","","","","","","","","","","","","",""
"fullscreen","3","29761","0.0-3.0","","","true","","","","","","","","","","","","","","","","","","","","","","",""
"audio-keyboard-response","4","31841","0.0-4.0-0.0","","","","","","","","","","1758.9115646258504","audio/beep_loop.wav"," ","","","","","","","","","","","","","",""
"audio-test","5","34415","0.0-4.0-1.0","","","","","","","","","","null","audio/turtle.mp3","","3","","","","","","","","","","","","",""
"audio-test","6","36586","0.0-4.0-2.0","","","","","","","","","","null","audio/shark.mp3","","2","","","","","","","","","","","","",""
"sailing-instructions","7","76616","0.0-5.0-0.0-0.0","","","","","","","","","","","","","","null","null","null","null","null","null","","","","","","",""
"sailing-trial","8","86157","0.0-5.0-0.0-1.0-0.0","","","","false","","","","","","","","","","8284.5","","null","","null","null","arrowleft","0","null","null","","",""
"sailing-trial","9","88933","0.0-5.0-0.0-1.0-1.0","","","","false","","","","","","","","","","1600.3999999761581","","null","","null","null","arrowright","1","null","null","","",""
"sailing-trial","10","91350","0.0-5.0-0.0-1.0-2.0","","","","false","","","","","","","","","","1240.1000000238419","","null","","null","null","arrowright","1","null","null","","",""
"sailing-instructions","11","195912","0.0-5.0-0.0-2.0","","","","","","","","","","","","","","null","null","null","null","0","null","","","","","","",""
"sailing-trial","12","202940","0.0-5.0-0.0-3.0-0.0","","","","false","","","","","","","","","","null","","2369.8000000715256","","2","1","null","null","arrowleft","[1,1,1,1]","","",""
"sailing-trial","13","207035","0.0-5.0-0.0-3.0-1.0","","","","false","","","","","","","","","","null","","1366.1000000238419","","3","1","null","null","arrowright","[1,1,1,1]","","",""
"sailing-trial","14","212421","0.0-5.0-0.0-3.0-2.0","","","","false","","","","","","","","","","null","","1830.7000000476837","","3","0","null","null","arrowright","[0,0,0,0]","","",""
"sailing-instructions","15","219791","0.0-5.0-0.0-4.0","","","","","","","","","","","","","","null","null","null","null","null","null","","","","","","",""
"sailing-comprehension","16","274102","0.0-5.0-0.0-5.0","","","","","","","","","","37497.5","","","","","","","","","","","","","","[""true"",""false"",""true"",""true""]","2",""
"sailing-instructions","17","304717","0.0-5.0-0.1-0.1","","","","","","","","","","","","","","null","null","null","null","null","null","","","","","","",""
"sailing-trial","18","307978","0.0-5.0-0.1-1.1-0.1","","","","false","","","","","","","","","","2021.6000000238419","","null","","null","null","arrowleft","0","null","null","","",""
"sailing-trial","19","310285","0.0-5.0-0.1-1.1-1.1","","","","false","","","","","","","","","","1136.6000000238419","","null","","null","null","arrowright","1","null","null","","",""
"sailing-trial","20","311983","0.0-5.0-0.1-1.1-2.1","","","","false","","","","","","","","","","549.5999999046326","","null","","null","null","arrowright","1","null","null","","",""
"sailing-instructions","21","354331","0.0-5.0-0.1-2.1","","","","","","","","","","","","","","null","null","null","null","0","null","","","","","","",""
"sailing-trial","22","359522","0.0-5.0-0.1-3.1-0.1","","","","false","","","","","","","","","","null","","1572.6000000238419","","2","1","null","null","arrowleft","[1,1,1,1]","","",""
"sailing-trial","23","362770","0.0-5.0-0.1-3.1-1.1","","","","false","","","","","","","","","","null","","719.6000000238419","","3","1","null","null","arrowright","[1,1,1,1]","","",""
"sailing-trial","24","365695","0.0-5.0-0.1-3.1-2.1","","","","false","","","","","","","","","","null","","323.60000002384186","","2","0","null","null","arrowleft","[0,0,0,0]","","",""
"sailing-instructions","25","373155","0.0-5.0-0.1-4.1","","","","","","","","","","","","","","null","null","null","null","null","null","","","","","","",""
"sailing-comprehension","26","407218","0.0-5.0-0.1-5.1","","","","","","","","","","27943.300000071526","","","","","","","","","","","","","","[""true"",""true"",""false"",""true""]","0",""
"sailing-instructions","27","470600","0.0-6.0-0.0-0.0","","","","","","","","","","","","","","null","null","null","null","null","null","","","","","","",""
"sailing-comprehension","28","514727","0.0-6.0-0.0-1.0","","","","","","","","","","40952.200000047684","","","","","","","","","","","","","","[""true"",""false"",""true""]","0",""
"sailing-instructions","29","528726","0.0-7.0-0.0-0.0","","","","","","","","","","","","","","null","null","null","null","null","null","","","","","","",""
"sailing-trial","30","534741","0.0-7.0-0.0-1.0-0.0","","","","false","","","","","","","","","","null","","3197.5","","0","0","null","null","arrowup","[0.2,0.8,0.2,0.8]","","",""
"sailing-trial","31","537659","0.0-7.0-0.0-1.0-1.0","","","","false","","","","","","","","","","null","","1799.1000000238419","","1","0","null","null","arrowup","[0.2,0.8,0.2,0.8]","","",""
"sailing-trial","32","539827","0.0-7.0-0.0-1.0-2.0","","","","false","","","","","","","","","","null","","824.5","","2","0","null","null","arrowup","[0.2,0.8,0.2,0.8]","","",""
"sailing-trial","33","543188","0.0-7.0-0.0-1.0-3.0","","","","false","","","","","","","","","","null","","1520.8000000715256","","3","1","null","null","arrowup","[0.2,0.8,0.2,0.8]","","",""
"sailing-comprehension","34","551478","0.0-7.0-0.0-2.0","","","","","","","","","","6938.100000023842","","","","","","","","","","","","","","[""true""]","1",""
"sailing-instructions","35","565069","0.0-7.0-0.1-0.1","","","","","","","","","","","","","","null","null","null","null","null","null","","","","","","",""
"sailing-trial","36","566867","0.0-7.0-0.1-1.1-0.1","","","","false","","","","","","","","","","null","","621.8999999761581","","0","0","null","null","arrowup","[0.2,0.8,0.2,0.8]","","",""
"sailing-trial","37","568841","0.0-7.0-0.1-1.1-1.1","","","","false","","","","","","","","","","null","","415.40000009536743","","1","1","null","null","arrowup","[0.2,0.8,0.2,0.8]","","",""
"sailing-trial","38","570145","0.0-7.0-0.1-1.1-2.1","","","","false","","","","","","","","","","null","","153.40000009536743","","2","0","null","null","arrowup","[0.2,0.8,0.2,0.8]","","",""
"sailing-trial","39","572534","0.0-7.0-0.1-1.1-3.1","","","","false","","","","","","","","","","null","","785.2000000476837","","3","1","null","null","arrowup","[0.2,0.8,0.2,0.8]","","",""
"sailing-comprehension","40","580645","0.0-7.0-0.1-2.1","","","","","","","","","","6504.399999976158","","","","","","","","","","","","","","[""false""]","0",""
"sailing-instructions","41","591108","0.0-8.0-0.0-0.0","","","","","","","","","","","","","","null","null","null","null","null","null","","","","","","",""
"sailing-comprehension","42","596916","0.0-8.0-0.0-1.0","","","","","","","","","","3927.9000000953674","","","","","","","","","","","","","","[""true""]","0",""
"sailing-instructions","43","631184","0.0-9.0-0.0-0.0","","","","","","","","","","","","","","null","null","null","null","null","null","","","","","","",""
"sailing-trial","44","636296","0.0-9.0-0.0-1.0-0.0","","","","false","","","","","","","","","","1056.6000000238419","","1198.7999999523163","","2","0","arrowright","1","arrowleft","[0.2,0.8,0.2,0.8]","","",""
"sailing-trial","45","640865","0.0-9.0-0.0-1.0-1.0","","","","false","","","","","","","","","","1480.6999999284744","","540.0999999046326","","0","0","arrowleft","0","arrowleft","[0.2,0.8,0.2,0.8]","","",""
"sailing-trial","46","643791","0.0-9.0-0.0-1.0-2.0","","","","false","","","","","","","","","","null","","1519.2000000476837","","0","0","null","null","arrowup","[0.2,0.8,0.2,0.8]","","",""
"sailing-trial","47","649741","0.0-9.0-0.0-1.0-3.0","","","","false","","","","","","","","","","1177.2000000476837","","1728.6999999284744","","3","1","arrowright","1","arrowright","[0.2,0.8,0.2,0.8]","","",""
"sailing-trial","48","652776","0.0-9.0-0.0-1.0-4.0","","","","false","","","","","","","","","","null","","1675","","3","0","null","null","arrowup","[0.2,0.8,0.2,0.8]","","",""
"sailing-trial","49","656785","0.0-9.0-0.0-1.0-5.0","","","","false","","","","","","","","","","1040.1000000238419","","226.20000004768372","","1","0","arrowleft","0","arrowright","[0.2,0.8,0.2,0.8]","","",""
"sailing-instructions","50","683001","0.0-10.0","","","","","","","","","","","","","","null","null","null","null","null","null","","","","","","",""
"sailing-trial","51","687994","0.0-11.0-0.0","","","","false","","","","","","","","","","1445.7999999523163","","453.09999990463257","","2","1","arrowright","1","arrowleft","[0.675,0.325,0.85,0.15]","","",""
"sailing-trial","52","690975","0.0-11.0-1.0","","","","false","","","","","","","","","","null","","1469","","2","0","null","null","arrowup","[0.675,0.325,0.85,0.15]","","",""
"sailing-trial","53","696184","0.0-11.0-2.0","","","","false","","","","","","","","","","1120.2000000476837","","1031.2999999523163","","0","1","arrowleft","0","arrowleft","[0.675,0.325,0.85,0.15]","","",""
"sailing-trial","54","699374","0.0-11.0-3.0","","","","false","","","","","","","","","","null","","1302.6000000238419","","2","1","null","null","arrowup","[0.675,0.325,0.85,0.15]","","",""
"sailing-trial","55","703646","0.0-11.0-4.0","","","","false","","","","","","","","","","704.6000000238419","","391.5","","2","1","arrowright","1","arrowleft","[0.675,0.325,0.85,0.15]","","",""
"sailing-trial","56","706844","0.0-11.0-5.0","","","","false","","","","","","","","","","null","","1152.5999999046326","","2","1","null","null","arrowup","[0.675,0.325,0.85,0.15]","","",""
"sailing-trial","57","711173","0.0-11.0-6.0","","","","false","","","","","","","","","","1002.1999999284744","","150.60000002384186","","1","1","arrowleft","0","arrowright","[0.675,0.325,0.85,0.15]","","",""
"sailing-trial","58","713760","0.0-11.0-7.0","","","","false","","","","","","","","","","null","","1177.9000000953674","","1","0","null","null","arrowup","[0.675,0.325,0.85,0.15]","","",""
"sailing-trial","59","718581","0.0-11.0-8.0","","","","false","","","","","","","","","","1590.9000000953674","","709","","3","0","arrowright","1","arrowright","[0.675,0.325,0.85,0.15]","","",""
"sailing-trial","60","721232","0.0-11.0-9.0","","","","false","","","","","","","","","","null","","1097.1000000238419","","3","0","null","null","arrowup","[0.675,0.325,0.85,0.15]","","",""
"sailing-trial","61","726223","0.0-11.0-10.0","","","","false","","","","","","","","","","725.8999999761581","","1201.7999999523163","","0","1","arrowleft","0","arrowleft","[0.675,0.325,0.85,0.15]","","",""
"sailing-trial","62","729154","0.0-11.0-11.0","","","","false","","","","","","","","","","null","","1071","","0","1","null","null","arrowup","[0.675,0.325,0.85,0.15]","","",""
"sailing-trial","63","733790","0.0-11.0-12.0","","","","false","","","","","","","","","","843.5","","1133.1000000238419","","3","0","arrowright","1","arrowright","[0.675,0.325,0.85,0.15]","","",""
"sailing-trial","64","737030","0.0-11.0-13.0","","","","false","","","","","","","","","","null","","1335.6000000238419","","3","1","null","null","arrowup","[0.675,0.325,0.85,0.15]","","",""
"sailing-trial","65","741118","0.0-11.0-14.0","","","","false","","","","","","","","","","944.5","","559.1999999284744","","1","0","arrowleft","0","arrowright","[0.675,0.325,0.85,0.15]","","",""
"sailing-trial","66","743709","0.0-11.0-15.0","","","","false","","","","","","","","","","null","","1143.8999999761581","","3","0","null","null","arrowup","[0.675,0.325,0.85,0.15]","","",""
"sailing-trial","67","747518","0.0-11.0-16.0","","","","false","","","","","","","","","","752.1000000238419","","402.5","","1","0","arrowleft","0","arrowright","[0.85,0.15,0.675,0.325]","","",""
"sailing-trial","68","750095","0.0-11.0-17.0","","","","false","","","","","","","","","","null","","1047.1000000238419","","1","0","null","null","arrowup","[0.85,0.15,0.675,0.325]","","",""
"sailing-trial","69","754907","0.0-11.0-18.0","","","","false","","","","","","","","","","686.7999999523163","","1158.2000000476837","","0","1","arrowleft","0","arrowleft","[0.85,0.15,0.675,0.325]","","",""
"sailing-trial","70","757665","0.0-11.0-19.0","","","","false","","","","","","","","","","null","","1025.8999999761581","","0","1","null","null","arrowup","[0.85,0.15,0.675,0.325]","","",""
"sailing-trial","71","761509","0.0-11.0-20.0","","","","false","","","","","","","","","","500.2000000476837","","290.1999999284744","","2","1","arrowright","1","arrowleft","[0.85,0.15,0.675,0.325]","","",""
"sailing-trial","72","763526","0.0-11.0-21.0","","","","false","","","","","","","","","","null","","616.5999999046326","","1","0","null","null","arrowup","[0.85,0.15,0.675,0.325]","","",""
"sailing-trial","73","767102","0.0-11.0-22.0","","","","false","","","","","","","","","","983","","117.70000004768372","","1","0","arrowleft","0","arrowright","[0.85,0.15,0.675,0.325]","","",""
"sailing-trial","74","769726","0.0-11.0-23.0","","","","false","","","","","","","","","","null","","1070.7999999523163","","2","0","null","null","arrowup","[0.85,0.15,0.675,0.325]","","",""
"sailing-trial","75","774592","0.0-11.0-24.0","","","","false","","","","","","","","","","727.1000000238419","","1160","","0","1","arrowleft","0","arrowleft","[0.85,0.15,0.675,0.325]","","",""
"sailing-trial","76","777483","0.0-11.0-25.0","","","","false","","","","","","","","","","null","","1012","","3","1","null","null","arrowup","[0.85,0.15,0.675,0.325]","","",""
"sailing-trial","77","781661","0.0-11.0-26.0","","","","false","","","","","","","","","","768.8000000715256","","931.2999999523163","","3","0","arrowright","1","arrowright","[0.85,0.15,0.675,0.325]","","",""
"sailing-trial","78","784520","0.0-11.0-27.0","","","","false","","","","","","","","","","null","","967.1999999284744","","2","1","null","null","arrowup","[0.85,0.15,0.675,0.325]","","",""
"sailing-trial","79","788781","0.0-11.0-28.0","","","","false","","","","","","","","","","756.3000000715256","","678.8000000715256","","2","1","arrowright","1","arrowleft","[0.85,0.15,0.675,0.325]","","",""
"sailing-trial","80","791156","0.0-11.0-29.0","","","","false","","","","","","","","","","null","","982.5","","2","0","null","null","arrowup","[0.85,0.15,0.675,0.325]","","",""
"sailing-trial","81","795048","0.0-11.0-30.0","","","","false","","","","","","","","","","816.2999999523163","","99.09999990463257","","2","1","arrowright","1","arrowleft","[0.85,0.15,0.675,0.325]","","",""
"sailing-trial","82","797539","0.0-11.0-31.0","","","","false","","","","","","","","","","null","","1043.7000000476837","","1","0","null","null","arrowup","[0.85,0.15,0.675,0.325]","","",""
"sailing-trial","83","802852","0.0-11.0-32.0","","","","false","","","","","","","","","","1504.3999999761581","","837.2999999523163","","0","1","arrowleft","0","arrowleft","[0.85,0.15,0.675,0.325]","","",""
"sailing-trial","84","805653","0.0-11.0-33.0","","","","false","","","","","","","","","","null","","935","","0","1","null","null","arrowup","[0.85,0.15,0.675,0.325]","","",""
"sailing-trial","85","809472","0.0-11.0-34.0","","","","false","","","","","","","","","","791.3000000715256","","35.60000002384186","","2","1","arrowright","1","arrowleft","[0.85,0.15,0.675,0.325]","","",""
"sailing-trial","86","811850","0.0-11.0-35.0","","","","false","","","","","","","","","","null","","971.6999999284744","","3","0","null","null","arrowup","[0.85,0.15,0.675,0.325]","","",""
"sailing-trial","87","816131","0.0-11.0-36.0","","","","false","","","","","","","","","","601.5","","649.5","","0","1","arrowleft","0","arrowleft","[0.675,0.325,0.85,0.15]","","",""
"sailing-trial","88","818928","0.0-11.0-37.0","","","","false","","","","","","","","","","null","","920.7000000476837","","2","1","null","null","arrowup","[0.675,0.325,0.85,0.15]","","",""
"sailing-trial","89","822806","0.0-11.0-38.0","","","","false","","","","","","","","","","818.9000000953674","","74.19999992847443","","3","1","arrowright","1","arrowright","[0.675,0.325,0.85,0.15]","","",""
"sailing-trial","90","825497","0.0-11.0-39.0","","","","false","","","","","","","","","","null","","805.3999999761581","","2","1","null","null","arrowup","[0.675,0.325,0.85,0.15]","","",""
"sailing-trial","91","829284","0.0-11.0-40.0","","","","false","","","","","","","","","","673.9000000953674","","706.5999999046326","","1","0","arrowleft","0","arrowright","[0.675,0.325,0.85,0.15]","","",""
"sailing-trial","92","832059","0.0-11.0-41.0","","","","false","","","","","","","","","","null","","863.5999999046326","","2","1","null","null","arrowup","[0.675,0.325,0.85,0.15]","","",""
"sailing-trial","93","835850","0.0-11.0-42.0","","","","false","","","","","","","","","","543.6999999284744","","192.10000002384186","","0","0","arrowleft","0","arrowleft","[0.675,0.325,0.85,0.15]","","",""
"sailing-trial","94","838321","0.0-11.0-43.0","","","","false","","","","","","","","","","null","","872.3999999761581","","3","0","null","null","arrowup","[0.675,0.325,0.85,0.15]","","",""
"sailing-trial","95","842098","0.0-11.0-44.0","","","","false","","","","","","","","","","889.6000000238419","","325.2999999523163","","3","0","arrowright","1","arrowright","[0.675,0.325,0.85,0.15]","","",""
"sailing-trial","96","844996","0.0-11.0-45.0","","","","false","","","","","","","","","","null","","952.1000000238419","","2","1","null","null","arrowup","[0.675,0.325,0.85,0.15]","","",""
"sailing-trial","97","849144","0.0-11.0-46.0","","","","false","","","","","","","","","","918.5","","279.7999999523163","","0","1","arrowleft","0","arrowleft","[0.675,0.325,0.85,0.15]","","",""
"sailing-trial","98","851918","0.0-11.0-47.0","","","","false","","","","","","","","","","null","","866.6999999284744","","0","1","null","null","arrowup","[0.675,0.325,0.85,0.15]","","",""
"sailing-trial","99","855178","0.0-11.0-48.0","","","","false","","","","","","","","","","756.1999999284744","","33.200000047683716","","3","0","arrowright","1","arrowright","[0.675,0.325,0.85,0.15]","","",""
"sailing-trial","100","858091","0.0-11.0-49.0","","","","false","","","","","","","","","","null","","1064.3999999761581","","3","1","null","null","arrowup","[0.675,0.325,0.85,0.15]","","",""
"sailing-trial","101","862122","0.0-11.0-50.0","","","","false","","","","","","","","","","688.7999999523163","","820.5999999046326","","1","0","arrowleft","0","arrowright","[0.675,0.325,0.85,0.15]","","",""
"sailing-trial","102","864737","0.0-11.0-51.0","","","","false","","","","","","","","","","null","","783.8000000715256","","2","1","null","null","arrowup","[0.675,0.325,0.85,0.15]","","",""
"sailing-trial","103","868393","0.0-11.0-52.0","","","","false","","","","","","","","","","665.3999999761581","","560.1000000238419","","0","0","arrowleft","0","arrowleft","[0.675,0.325,0.85,0.15]","","",""
"sailing-trial","104","870921","0.0-11.0-53.0","","","","false","","","","","","","","","","null","","1200.6000000238419","","3","0","null","null","arrowup","[0.675,0.325,0.85,0.15]","","",""
"sailing-trial","105","875345","0.0-11.0-54.0","","","","false","","","","","","","","","","680.7000000476837","","1218.5","","3","0","arrowright","1","arrowright","[0.675,0.325,0.85,0.15]","","",""
"sailing-trial","106","877504","0.0-11.0-55.0","","","","false","","","","","","","","","","null","","824.3999999761581","","1","0","null","null","arrowup","[0.675,0.325,0.85,0.15]","","",""
"sailing-trial","107","881601","0.0-11.0-56.0","","","","false","","","","","","","","","","849.3999999761581","","273","","0","1","arrowleft","0","arrowleft","[0.85,0.15,0.675,0.325]","","",""
"sailing-trial","108","884338","0.0-11.0-57.0","","","","false","","","","","","","","","","null","","856.8999999761581","","2","1","null","null","arrowup","[0.85,0.15,0.675,0.325]","","",""
"sailing-trial","109","887930","0.0-11.0-58.0","","","","false","","","","","","","","","","599","","32.60000002384186","","2","1","arrowright","1","arrowleft","[0.85,0.15,0.675,0.325]","","",""
"sailing-trial","110","890209","0.0-11.0-59.0","","","","false","","","","","","","","","","null","","879.2999999523163","","1","0","null","null","arrowup","[0.85,0.15,0.675,0.325]","","",""
"sailing-trial","111","895017","0.0-11.0-60.0","","","","false","","","","","","","","","","784.3999999761581","","1105","","0","1","arrowleft","0","arrowleft","[0.85,0.15,0.675,0.325]","","",""
"sailing-trial","112","898059","0.0-11.0-61.0","","","","false","","","","","","","","","","null","","1175.2999999523163","","0","1","null","null","arrowup","[0.85,0.15,0.675,0.325]","","",""
"sailing-trial","113","902136","0.0-11.0-62.0","","","","false","","","","","","","","","","749.9000000953674","","395.89999997615814","","3","1","arrowright","1","arrowright","[0.85,0.15,0.675,0.325]","","",""
"sailing-trial","114","904909","0.0-11.0-63.0","","","","false","","","","","","","","","","null","","880.6000000238419","","0","1","null","null","arrowup","[0.85,0.15,0.675,0.325]","","",""
"sailing-trial","115","908776","0.0-11.0-64.0","","","","false","","","","","","","","","","779.5999999046326","","586.6999999284744","","0","0","arrowleft","0","arrowleft","[0.85,0.15,0.675,0.325]","","",""
"sailing-trial","116","911633","0.0-11.0-65.0","","","","false","","","","","","","","","","null","","992.7000000476837","","2","1","null","null","arrowup","[0.85,0.15,0.675,0.325]","","",""
"sailing-trial","117","915422","0.0-11.0-66.0","","","","false","","","","","","","","","","487.5","","380","","2","1","arrowright","1","arrowleft","[0.85,0.15,0.675,0.325]","","",""
"sailing-trial","118","918095","0.0-11.0-67.0","","","","false","","","","","","","","","","null","","906.6999999284744","","2","1","null","null","arrowup","[0.85,0.15,0.675,0.325]","","",""
"sailing-trial","119","921905","0.0-11.0-68.0","","","","false","","","","","","","","","","768.5","","603.3000000715256","","2","0","arrowright","1","arrowleft","[0.85,0.15,0.675,0.325]","","",""
"sailing-trial","120","924729","0.0-11.0-69.0","","","","false","","","","","","","","","","null","","902.3999999761581","","3","1","null","null","arrowup","[0.85,0.15,0.675,0.325]","","",""
"sailing-trial","121","928480","0.0-11.0-70.0","","","","false","","","","","","","","","","662.5","","661.7000000476837","","3","0","arrowright","1","arrowright","[0.85,0.15,0.675,0.325]","","",""
"sailing-trial","122","930745","0.0-11.0-71.0","","","","false","","","","","","","","","","null","","896","","1","0","null","null","arrowup","[0.85,0.15,0.675,0.325]","","",""
"sailing-trial","123","934984","0.0-11.0-72.0","","","","false","","","","","","","","","","943","","913.5","","2","0","arrowright","1","arrowleft","[0.325,0.675,0.15,0.85]","","",""
"sailing-trial","124","937932","0.0-11.0-73.0","","","","false","","","","","","","","","","null","","999.7000000476837","","3","1","null","null","arrowup","[0.325,0.675,0.15,0.85]","","",""
"sailing-trial","125","942040","0.0-11.0-74.0","","","","false","","","","","","","","","","1571.3000000715256","","108.79999995231628","","2","0","arrowright","1","arrowleft","[0.325,0.675,0.15,0.85]","","",""
"sailing-trial","126","945023","0.0-11.0-75.0","","","","false","","","","","","","","","","null","","1143.5","","0","1","null","null","arrowup","[0.325,0.675,0.15,0.85]","","",""
"sailing-trial","127","948562","0.0-11.0-76.0","","","","false","","","","","","","","","","528.5","","98.80000007152557","","3","1","arrowright","1","arrowright","[0.325,0.675,0.15,0.85]","","",""
"sailing-trial","128","951071","0.0-11.0-77.0","","","","false","","","","","","","","","","null","","1109.7999999523163","","0","0","null","null","arrowup","[0.325,0.675,0.15,0.85]","","",""
"sailing-trial","129","955103","0.0-11.0-78.0","","","","false","","","","","","","","","","688.6000000238419","","298.89999997615814","","0","1","arrowleft","0","arrowleft","[0.325,0.675,0.15,0.85]","","",""
"sailing-trial","130","957144","0.0-11.0-79.0","","","","false","","","","","","","","","","null","","672.5","","2","0","null","null","arrowup","[0.325,0.675,0.15,0.85]","","",""
"sailing-trial","131","960688","0.0-11.0-80.0","","","","false","","","","","","","","","","671.3999999761581","","423","","2","0","arrowright","1","arrowleft","[0.325,0.675,0.15,0.85]","","",""
"sailing-trial","132","962918","0.0-11.0-81.0","","","","false","","","","","","","","","","null","","911.1000000238419","","2","0","null","null","arrowup","[0.325,0.675,0.15,0.85]","","",""
"sailing-trial","133","967105","0.0-11.0-82.0","","","","false","","","","","","","","","","592.4000000953674","","670.1000000238419","","3","1","arrowright","1","arrowright","[0.325,0.675,0.15,0.85]","","",""
"sailing-trial","134","969839","0.0-11.0-83.0","","","","false","","","","","","","","","","null","","878.5999999046326","","3","1","null","null","arrowup","[0.325,0.675,0.15,0.85]","","",""
"sailing-trial","135","974006","0.0-11.0-84.0","","","","false","","","","","","","","","","784.3999999761581","","926.6000000238419","","0","0","arrowleft","0","arrowleft","[0.325,0.675,0.15,0.85]","","",""
"sailing-trial","136","976620","0.0-11.0-85.0","","","","false","","","","","","","","","","null","","888.5999999046326","","0","1","null","null","arrowup","[0.325,0.675,0.15,0.85]","","",""
"sailing-trial","137","981223","0.0-11.0-86.0","","","","false","","","","","","","","","","1458.8000000715256","","168.59999990463257","","1","1","arrowleft","0","arrowright","[0.325,0.675,0.15,0.85]","","",""
"sailing-trial","138","984006","0.0-11.0-87.0","","","","false","","","","","","","","","","null","","935.6000000238419","","1","1","null","null","arrowup","[0.325,0.675,0.15,0.85]","","",""
"sailing-trial","139","987565","0.0-11.0-88.0","","","","false","","","","","","","","","","888.2000000476837","","165.30000007152557","","3","0","arrowright","1","arrowright","[0.15,0.85,0.325,0.675]","","",""
"sailing-trial","140","991092","0.0-11.0-89.0","","","","false","","","","","","","","","","null","","888.9000000953674","","3","1","null","null","arrowup","[0.15,0.85,0.325,0.675]","","",""
"sailing-trial","141","995141","0.0-11.0-90.0","","","","false","","","","","","","","","","658.1999999284744","","451.09999990463257","","0","1","arrowleft","0","arrowleft","[0.15,0.85,0.325,0.675]","","",""
"sailing-trial","142","998344","0.0-11.0-91.0","","","","false","","","","","","","","","","null","","872.6999999284744","","3","1","null","null","arrowup","[0.15,0.85,0.325,0.675]","","",""
"sailing-trial","143","1002439","0.0-11.0-92.0","","","","false","","","","","","","","","","486.2000000476837","","644.1000000238419","","3","1","arrowright","1","arrowright","[0.15,0.85,0.325,0.675]","","",""
"sailing-trial","144","1004565","0.0-11.0-93.0","","","","false","","","","","","","","","","null","","926.8999999761581","","0","0","null","null","arrowup","[0.15,0.85,0.325,0.675]","","",""
"sailing-trial","145","1007894","0.0-11.0-94.0","","","","false","","","","","","","","","","680.6000000238419","","148.20000004768372","","2","0","arrowright","1","arrowleft","[0.15,0.85,0.325,0.675]","","",""
"sailing-trial","146","1010582","0.0-11.0-95.0","","","","false","","","","","","","","","","null","","1111.3999999761581","","0","0","null","null","arrowup","[0.15,0.85,0.325,0.675]","","",""
"sailing-trial","147","1013795","0.0-11.0-96.0","","","","false","","","","","","","","","","543.3999999761581","","73.60000002384186","","1","0","arrowleft","0","arrowright","[0.15,0.85,0.325,0.675]","","",""
"sailing-trial","148","1016443","0.0-11.0-97.0","","","","false","","","","","","","","","","null","","1058.4000000953674","","1","1","null","null","arrowup","[0.15,0.85,0.325,0.675]","","",""
"sailing-trial","149","1020381","0.0-11.0-98.0","","","","false","","","","","","","","","","858.5999999046326","","618.2000000476837","","0","0","arrowleft","0","arrowleft","[0.15,0.85,0.325,0.675]","","",""
"sailing-trial","150","1023446","0.0-11.0-99.0","","","","false","","","","","","","","","","null","","1024.7999999523163","","0","0","null","null","arrowup","[0.15,0.85,0.325,0.675]","","",""
"sailing-trial","151","1028476","0.0-11.0-100.0","","","","false","","","","","","","","","","1175.1999999284744","","873.3999999761581","","0","1","arrowleft","0","arrowleft","[0.15,0.85,0.325,0.675]","","",""
"sailing-trial","152","1031100","0.0-11.0-101.0","","","","false","","","","","","","","","","null","","768.7999999523163","","3","1","null","null","arrowup","[0.15,0.85,0.325,0.675]","","",""
"sailing-trial","153","1035125","0.0-11.0-102.0","","","","false","","","","","","","","","","1041.5","","576.0999999046326","","2","0","arrowright","1","arrowleft","[0.15,0.85,0.325,0.675]","","",""
"sailing-trial","154","1037784","0.0-11.0-103.0","","","","false","","","","","","","","","","null","","856","","3","1","null","null","arrowup","[0.15,0.85,0.325,0.675]","","",""
"sailing-trial","155","1041654","0.0-11.0-104.0","","","","false","","","","","","","","","","612.8999999761581","","367.2000000476837","","3","1","arrowright","1","arrowright","[0.325,0.675,0.15,0.85]","","",""
"sailing-trial","156","1045203","0.0-11.0-105.0","","","","false","","","","","","","","","","null","","910.6999999284744","","1","0","null","null","arrowup","[0.325,0.675,0.15,0.85]","","",""
"sailing-trial","157","1048868","0.0-11.0-106.0","","","","false","","","","","","","","","","649","","78.69999992847443","","1","1","arrowleft","0","arrowright","[0.325,0.675,0.15,0.85]","","",""
"sailing-trial","158","1051502","0.0-11.0-107.0","","","","false","","","","","","","","","","null","","1321","","0","0","null","null","arrowup","[0.325,0.675,0.15,0.85]","","",""
"sailing-trial","159","1055499","0.0-11.0-108.0","","","","false","","","","","","","","","","638.2000000476837","","413.10000002384186","","1","1","arrowleft","0","arrowright","[0.325,0.675,0.15,0.85]","","",""
"sailing-trial","160","1057838","0.0-11.0-109.0","","","","false","","","","","","","","","","null","","466","","1","1","null","null","arrowup","[0.325,0.675,0.15,0.85]","","",""
"sailing-trial","161","1062892","0.0-11.0-110.0","","","","false","","","","","","","","","","502.39999997615814","","1549","","3","1","arrowright","1","arrowright","[0.325,0.675,0.15,0.85]","","",""
"sailing-trial","162","1065038","0.0-11.0-111.0","","","","false","","","","","","","","","","null","","944","","0","0","null","null","arrowup","[0.325,0.675,0.15,0.85]","","",""
"sailing-trial","163","1068667","0.0-11.0-112.0","","","","false","","","","","","","","","","710.5","","257.5","","2","0","arrowright","1","arrowleft","[0.325,0.675,0.15,0.85]","","",""
"sailing-trial","164","1071437","0.0-11.0-113.0","","","","false","","","","","","","","","","null","","1369.5","","1","0","null","null","arrowup","[0.325,0.675,0.15,0.85]","","",""
"sailing-trial","165","1074413","0.0-11.0-114.0","","","","false","","","","","","","","","","662.7999999523163","","1.0999999046325684","","0","0","arrowleft","0","arrowleft","[0.325,0.675,0.15,0.85]","","",""
"sailing-trial","166","1077175","0.0-11.0-115.0","","","","false","","","","","","","","","","null","","894.8999999761581","","3","1","null","null","arrowup","[0.325,0.675,0.15,0.85]","","",""
"sailing-trial","167","1081250","0.0-11.0-116.0","","","","false","","","","","","","","","","505.8000000715256","","637.7000000476837","","3","1","arrowright","1","arrowright","[0.325,0.675,0.15,0.85]","","",""
"sailing-trial","168","1084451","0.0-11.0-117.0","","","","false","","","","","","","","","","null","","1177.5","","2","0","null","null","arrowup","[0.325,0.675,0.15,0.85]","","",""
"sailing-trial","169","1088899","0.0-11.0-118.0","","","","false","","","","","","","","","","776.7999999523163","","1236.3000000715256","","1","0","arrowleft","0","arrowright","[0.325,0.675,0.15,0.85]","","",""
"sailing-trial","170","1090971","0.0-11.0-119.0","","","","false","","","","","","","","","","null","","840.6000000238419","","1","0","null","null","arrowup","[0.325,0.675,0.15,0.85]","","",""
"sailing-trial","171","1095205","0.0-11.0-120.0","","","","false","","","","","","","","","","688.5999999046326","","561.0999999046326","","0","1","arrowleft","0","arrowleft","[0.325,0.675,0.15,0.85]","","",""
"sailing-trial","172","1097955","0.0-11.0-121.0","","","","false","","","","","","","","","","null","","910.6000000238419","","3","1","null","null","arrowup","[0.325,0.675,0.15,0.85]","","",""
"sailing-trial","173","1101406","0.0-11.0-122.0","","","","false","","","","","","","","","","344.5","","117.69999992847443","","3","1","arrowright","1","arrowright","[0.325,0.675,0.15,0.85]","","",""
"sailing-trial","174","1104514","0.0-11.0-123.0","","","","false","","","","","","","","","","null","","1133.3999999761581","","1","1","null","null","arrowup","[0.325,0.675,0.15,0.85]","","",""
"sailing-trial","175","1108284","0.0-11.0-124.0","","","","false","","","","","","","","","","553.1000000238419","","109.60000002384186","","1","1","arrowleft","0","arrowright","[0.15,0.85,0.325,0.675]","","",""
"sailing-trial","176","1110883","0.0-11.0-125.0","","","","false","","","","","","","","","","null","","1272.1000000238419","","2","0","null","null","arrowup","[0.15,0.85,0.325,0.675]","","",""
"sailing-trial","177","1115252","0.0-11.0-126.0","","","","false","","","","","","","","","","600.2000000476837","","667.8000000715256","","2","1","arrowright","1","arrowleft","[0.15,0.85,0.325,0.675]","","",""
"sailing-trial","178","1117901","0.0-11.0-127.0","","","","false","","","","","","","","","","null","","862.7000000476837","","3","1","null","null","arrowup","[0.15,0.85,0.325,0.675]","","",""
"sailing-trial","179","1122402","0.0-11.0-128.0","","","","false","","","","","","","","","","925.9000000953674","","595.7999999523163","","3","1","arrowright","1","arrowright","[0.15,0.85,0.325,0.675]","","",""
"sailing-trial","180","1124355","0.0-11.0-129.0","","","","false","","","","","","","","","","null","","633","","0","0","null","null","arrowup","[0.15,0.85,0.325,0.675]","","",""
"sailing-trial","181","1128172","0.0-11.0-130.0","","","","false","","","","","","","","","","640","","252.5","","1","1","arrowleft","0","arrowright","[0.15,0.85,0.325,0.675]","","",""
"sailing-trial","182","1130802","0.0-11.0-131.0","","","","false","","","","","","","","","","null","","798.5","","3","1","null","null","arrowup","[0.15,0.85,0.325,0.675]","","",""
"sailing-trial","183","1134340","0.0-11.0-132.0","","","","false","","","","","","","","","","624.7999999523163","","642.2000000476837","","1","0","arrowleft","0","arrowright","[0.15,0.85,0.325,0.675]","","",""
"sailing-trial","184","1136499","0.0-11.0-133.0","","","","false","","","","","","","","","","null","","1031.0999999046326","","3","0","null","null","arrowup","[0.15,0.85,0.325,0.675]","","",""
"sailing-trial","185","1139993","0.0-11.0-134.0","","","","false","","","","","","","","","","583.3999999761581","","458.2000000476837","","0","0","arrowleft","0","arrowleft","[0.15,0.85,0.325,0.675]","","",""
"sailing-trial","186","1142734","0.0-11.0-135.0","","","","false","","","","","","","","","","null","","857.8999999761581","","3","1","null","null","arrowup","[0.15,0.85,0.325,0.675]","","",""
"sailing-trial","187","1146526","0.0-11.0-136.0","","","","false","","","","","","","","","","652.5","","189","","3","1","arrowright","1","arrowright","[0.15,0.85,0.325,0.675]","","",""
"sailing-trial","188","1148900","0.0-11.0-137.0","","","","false","","","","","","","","","","null","","516","","3","1","null","null","arrowup","[0.15,0.85,0.325,0.675]","","",""
"sailing-trial","189","1152090","0.0-11.0-138.0","","","","false","","","","","","","","","","462.5","","368.7999999523163","","3","0","arrowright","1","arrowright","[0.15,0.85,0.325,0.675]","","",""
"sailing-trial","190","1155090","0.0-11.0-139.0","","","","false","","","","","","","","","","null","","840.1999999284744","","2","0","null","null","arrowup","[0.15,0.85,0.325,0.675]","","",""
"sailing-trial","191","1158761","0.0-11.0-140.0","","","","false","","","","","","","","","","551.8999999761581","","635.2999999523163","","1","0","arrowleft","0","arrowright","[0.325,0.675,0.15,0.85]","","",""
"sailing-trial","192","1161065","0.0-11.0-141.0","","","","false","","","","","","","","","","null","","928.7000000476837","","0","0","null","null","arrowup","[0.325,0.675,0.15,0.85]","","",""
"sailing-trial","193","1165060","0.0-11.0-142.0","","","","false","","","","","","","","","","808.1999999284744","","385.3000000715256","","1","1","arrowleft","0","arrowright","[0.325,0.675,0.15,0.85]","","",""
"sailing-trial","194","1167500","0.0-11.0-143.0","","","","false","","","","","","","","","","null","","509.60000002384186","","1","1","null","null","arrowup","[0.325,0.675,0.15,0.85]","","",""
"sailing-trial","195","1171369","0.0-11.0-144.0","","","","false","","","","","","","","","","462.5","","413.90000009536743","","1","1","arrowleft","0","arrowright","[0.325,0.675,0.15,0.85]","","",""
"sailing-trial","196","1173834","0.0-11.0-145.0","","","","false","","","","","","","","","","null","","584.5","","3","1","null","null","arrowup","[0.325,0.675,0.15,0.85]","","",""
"sailing-trial","197","1177041","0.0-11.0-146.0","","","","false","","","","","","","","","","175.5","","412.39999997615814","","3","0","arrowright","1","arrowright","[0.325,0.675,0.15,0.85]","","",""
"sailing-trial","198","1179902","0.0-11.0-147.0","","","","false","","","","","","","","","","null","","1072.0999999046326","","1","1","null","null","arrowup","[0.325,0.675,0.15,0.85]","","",""
"sailing-trial","199","1183434","0.0-11.0-148.0","","","","false","","","","","","","","","","475.40000009536743","","94.5","","1","1","arrowleft","0","arrowright","[0.325,0.675,0.15,0.85]","","",""
"sailing-trial","200","1186183","0.0-11.0-149.0","","","","false","","","","","","","","","","null","","967.5999999046326","","1","1","null","null","arrowup","[0.325,0.675,0.15,0.85]","","",""
"sailing-trial","201","1190018","0.0-11.0-150.0","","","","false","","","","","","","","","","418.10000002384186","","475.60000002384186","","1","1","arrowleft","0","arrowright","[0.325,0.675,0.15,0.85]","","",""
"sailing-trial","202","1191976","0.0-11.0-151.0","","","","false","","","","","","","","","","null","","607.6999999284744","","0","0","null","null","arrowup","[0.325,0.675,0.15,0.85]","","",""
"sailing-trial","203","1197281","0.0-11.0-152.0","","","","false","","","","","","","","","","1312.8000000715256","","1093.6999999284744","","1","1","arrowleft","0","arrowright","[0.325,0.675,0.15,0.85]","","",""
"sailing-trial","204","1199737","0.0-11.0-153.0","","","","false","","","","","","","","","","null","","592.0999999046326","","1","1","null","null","arrowup","[0.325,0.675,0.15,0.85]","","",""
"sailing-trial","205","1202872","0.0-11.0-154.0","","","","false","","","","","","","","","","455.2000000476837","","433.6999999284744","","1","0","arrowleft","0","arrowright","[0.325,0.675,0.15,0.85]","","",""
"sailing-trial","206","1205687","0.0-11.0-155.0","","","","false","","","","","","","","","","null","","1072.6000000238419","","3","1","null","null","arrowup","[0.325,0.675,0.15,0.85]","","",""
"sailing-trial","207","1209478","0.0-11.0-156.0","","","","false","","","","","","","","","","361.2999999523163","","520.5999999046326","","3","1","arrowright","1","arrowright","[0.325,0.675,0.15,0.85]","","",""
"sailing-trial","208","1211687","0.0-11.0-157.0","","","","false","","","","","","","","","","null","","833.2999999523163","","2","0","null","null","arrowup","[0.325,0.675,0.15,0.85]","","",""
"sailing-trial","209","1215513","0.0-11.0-158.0","","","","false","","","","","","","","","","992.8000000715256","","396.1999999284744","","3","0","arrowright","1","arrowright","[0.85,0.15,0.675,0.325]","","",""
"sailing-trial","210","1218286","0.0-11.0-159.0","","","","false","","","","","","","","","","null","","902.8999999761581","","0","1","null","null","arrowup","[0.85,0.15,0.675,0.325]","","",""
"sailing-trial","211","1222536","0.0-11.0-160.0","","","","false","","","","","","","","","","449.6999999284744","","898.8000000715256","","0","1","arrowleft","0","arrowleft","[0.85,0.15,0.675,0.325]","","",""
"sailing-trial","212","1224776","0.0-11.0-161.0","","","","false","","","","","","","","","","null","","672.5","","1","0","null","null","arrowup","[0.85,0.15,0.675,0.325]","","",""
"sailing-trial","213","1228480","0.0-11.0-162.0","","","","false","","","","","","","","","","1119.7999999523163","","81.29999995231628","","0","0","arrowleft","0","arrowleft","[0.85,0.15,0.675,0.325]","","",""
"sailing-trial","214","1231360","0.0-11.0-163.0","","","","false","","","","","","","","","","null","","1487.6999999284744","","3","0","null","null","arrowup","[0.85,0.15,0.675,0.325]","","",""
"sailing-trial","215","1235281","0.0-11.0-164.0","","","","false","","","","","","","","","","799.7999999523163","","573.7000000476837","","3","0","arrowright","1","arrowright","[0.85,0.15,0.675,0.325]","","",""
"sailing-trial","216","1237254","0.0-11.0-165.0","","","","false","","","","","","","","","","null","","742.8999999761581","","1","0","null","null","arrowup","[0.85,0.15,0.675,0.325]","","",""
"sailing-trial","217","1241214","0.0-11.0-166.0","","","","false","","","","","","","","","","568.6000000238419","","438.10000002384186","","0","1","arrowleft","0","arrowleft","[0.85,0.15,0.675,0.325]","","",""
"sailing-trial","218","1244440","0.0-11.0-167.0","","","","false","","","","","","","","","","null","","745","","3","1","null","null","arrowup","[0.85,0.15,0.675,0.325]","","",""
"sailing-trial","219","1247881","0.0-11.0-168.0","","","","false","","","","","","","","","","471.6999999284744","","436.3000000715256","","3","0","arrowright","1","arrowright","[0.85,0.15,0.675,0.325]","","",""
"sailing-trial","220","1250615","0.0-11.0-169.0","","","","false","","","","","","","","","","null","","798.5999999046326","","2","1","null","null","arrowup","[0.85,0.15,0.675,0.325]","","",""
"sailing-trial","221","1253777","0.0-11.0-170.0","","","","false","","","","","","","","","","472.60000002384186","","249.70000004768372","","1","0","arrowleft","0","arrowright","[0.85,0.15,0.675,0.325]","","",""
"sailing-trial","222","1256723","0.0-11.0-171.0","","","","false","","","","","","","","","","null","","998.1000000238419","","3","1","null","null","arrowup","[0.85,0.15,0.675,0.325]","","",""
"sailing-trial","223","1260034","0.0-11.0-172.0","","","","false","","","","","","","","","","292.60000002384186","","18.799999952316284","","2","1","arrowright","1","arrowleft","[0.85,0.15,0.675,0.325]","","",""
"sailing-trial","224","1262159","0.0-11.0-173.0","","","","false","","","","","","","","","","null","","725.6000000238419","","1","0","null","null","arrowup","[0.85,0.15,0.675,0.325]","","",""
"sailing-trial","225","1265839","0.0-11.0-174.0","","","","false","","","","","","","","","","520","","938.2000000476837","","1","0","arrowleft","0","arrowright","[0.85,0.15,0.675,0.325]","","",""
"sailing-trial","226","1267920","0.0-11.0-175.0","","","","false","","","","","","","","","","null","","743.4000000953674","","1","0","null","null","arrowup","[0.85,0.15,0.675,0.325]","","",""
"sailing-trial","227","1271639","0.0-11.0-176.0","","","","false","","","","","","","","","","534.5","","676.6999999284744","","0","0","arrowleft","0","arrowleft","[0.15,0.85,0.325,0.675]","","",""
"sailing-trial","228","1274203","0.0-11.0-177.0","","","","false","","","","","","","","","","null","","712","","3","1","null","null","arrowup","[0.15,0.85,0.325,0.675]","","",""
"sailing-trial","229","1277574","0.0-11.0-178.0","","","","false","","","","","","","","","","435.2000000476837","","701.0999999046326","","3","0","arrowright","1","arrowright","[0.15,0.85,0.325,0.675]","","",""
"sailing-trial","230","1280202","0.0-11.0-179.0","","","","false","","","","","","","","","","null","","696.3999999761581","","3","1","null","null","arrowup","[0.15,0.85,0.325,0.675]","","",""
"sailing-trial","231","1284102","0.0-11.0-180.0","","","","false","","","","","","","","","","522.8000000715256","","375","","2","1","arrowright","1","arrowleft","[0.15,0.85,0.325,0.675]","","",""
"sailing-trial","232","1286302","0.0-11.0-181.0","","","","false","","","","","","","","","","null","","808.5","","0","0","null","null","arrowup","[0.15,0.85,0.325,0.675]","","",""
"sailing-trial","233","1290733","0.0-11.0-182.0","","","","false","","","","","","","","","","687.9000000953674","","782.2999999523163","","1","1","arrowleft","0","arrowright","[0.15,0.85,0.325,0.675]","","",""
"sailing-trial","234","1293138","0.0-11.0-183.0","","","","false","","","","","","","","","","null","","265","","2","1","null","null","arrowup","[0.15,0.85,0.325,0.675]","","",""
"sailing-trial","235","1297927","0.0-11.0-184.0","","","","false","","","","","","","","","","899.6000000238419","","1520.3000000715256","","2","0","arrowright","1","arrowleft","[0.15,0.85,0.325,0.675]","","",""
"sailing-trial","236","1300567","0.0-11.0-185.0","","","","false","","","","","","","","","","null","","751.3000000715256","","1","1","null","null","arrowup","[0.15,0.85,0.325,0.675]","","",""
"sailing-trial","237","1304149","0.0-11.0-186.0","","","","false","","","","","","","","","","263.3000000715256","","816.3999999761581","","0","0","arrowleft","0","arrowleft","[0.15,0.85,0.325,0.675]","","",""
"sailing-trial","238","1306677","0.0-11.0-187.0","","","","false","","","","","","","","","","null","","632","","1","1","null","null","arrowup","[0.15,0.85,0.325,0.675]","","",""
"sailing-trial","239","1310668","0.0-11.0-188.0","","","","false","","","","","","","","","","656.6999999284744","","322","","3","1","arrowright","1","arrowright","[0.15,0.85,0.325,0.675]","","",""
"sailing-trial","240","1313309","0.0-11.0-189.0","","","","false","","","","","","","","","","null","","785.7000000476837","","1","1","null","null","arrowup","[0.15,0.85,0.325,0.675]","","",""
"sailing-trial","241","1316785","0.0-11.0-190.0","","","","false","","","","","","","","","","424.1999999284744","","259.3000000715256","","1","1","arrowleft","0","arrowright","[0.15,0.85,0.325,0.675]","","",""
"sailing-trial","242","1319326","0.0-11.0-191.0","","","","false","","","","","","","","","","null","","700.5999999046326","","1","1","null","null","arrowup","[0.15,0.85,0.325,0.675]","","",""
"sailing-trial","243","1323989","0.0-11.0-192.0","","","","false","","","","","","","","","","807.7999999523163","","933.5","","3","1","arrowright","1","arrowright","[0.325,0.675,0.15,0.85]","","",""
"sailing-trial","244","1326222","0.0-11.0-193.0","","","","false","","","","","","","","","","null","","920.0999999046326","","0","0","null","null","arrowup","[0.325,0.675,0.15,0.85]","","",""
"sailing-trial","245","1330398","0.0-11.0-194.0","","","","false","","","","","","","","","","535.3000000715256","","1071.6000000238419","","1","0","arrowleft","0","arrowright","[0.325,0.675,0.15,0.85]","","",""
"sailing-trial","246","1332254","0.0-11.0-195.0","","","","false","","","","","","","","","","null","","607.6000000238419","","2","0","null","null","arrowup","[0.325,0.675,0.15,0.85]","","",""
"sailing-trial","247","1335876","0.0-11.0-196.0","","","","false","","","","","","","","","","678.6000000238419","","543.6000000238419","","0","0","arrowleft","0","arrowleft","[0.325,0.675,0.15,0.85]","","",""
"sailing-trial","248","1337990","0.0-11.0-197.0","","","","false","","","","","","","","","","null","","800.1999999284744","","0","0","null","null","arrowup","[0.325,0.675,0.15,0.85]","","",""
"sailing-trial","249","1343025","0.0-11.0-198.0","","","","false","","","","","","","","","","1438.2000000476837","","628.2999999523163","","1","1","arrowleft","0","arrowright","[0.325,0.675,0.15,0.85]","","",""
"sailing-trial","250","1345011","0.0-11.0-199.0","","","","false","","","","","","","","","","null","","659.9000000953674","","2","0","null","null","arrowup","[0.325,0.675,0.15,0.85]","","",""
"sailing-trial","251","1348460","0.0-11.0-200.0","","","","false","","","","","","","","","","521.2000000476837","","6.599999904632568","","3","1","arrowright","1","arrowright","[0.325,0.675,0.15,0.85]","","",""
"sailing-trial","252","1350332","0.0-11.0-201.0","","","","false","","","","","","","","","","null","","544.2999999523163","","0","0","null","null","arrowup","[0.325,0.675,0.15,0.85]","","",""
"sailing-trial","253","1353692","0.0-11.0-202.0","","","","false","","","","","","","","","","632.5","","353.3000000715256","","1","0","arrowleft","0","arrowright","[0.325,0.675,0.15,0.85]","","",""
"sailing-trial","254","1356291","0.0-11.0-203.0","","","","false","","","","","","","","","","null","","671.8999999761581","","0","1","null","null","arrowup","[0.325,0.675,0.15,0.85]","","",""
"sailing-trial","255","1359652","0.0-11.0-204.0","","","","false","","","","","","","","","","336.40000009536743","","22.5","","0","1","arrowleft","0","arrowleft","[0.325,0.675,0.15,0.85]","","",""
"sailing-trial","256","1362091","0.0-11.0-205.0","","","","false","","","","","","","","","","null","","528.3999999761581","","3","1","null","null","arrowup","[0.325,0.675,0.15,0.85]","","",""
"sailing-trial","257","1366125","0.0-11.0-206.0","","","","false","","","","","","","","","","201.39999997615814","","893.2999999523163","","3","1","arrowright","1","arrowright","[0.325,0.675,0.15,0.85]","","",""
"sailing-trial","258","1368541","0.0-11.0-207.0","","","","false","","","","","","","","","","null","","486.60000002384186","","2","1","null","null","arrowup","[0.325,0.675,0.15,0.85]","","",""
"sailing-trial","259","1372444","0.0-11.0-208.0","","","","false","","","","","","","","","","502.7999999523163","","461.7999999523163","","1","1","arrowleft","0","arrowright","[0.325,0.675,0.15,0.85]","","",""
"sailing-trial","260","1374251","0.0-11.0-209.0","","","","false","","","","","","","","","","null","","503.89999997615814","","0","0","null","null","arrowup","[0.325,0.675,0.15,0.85]","","",""
"sailing-trial","261","1378907","0.0-11.0-210.0","","","","false","","","","","","","","","","480.7000000476837","","1748.0999999046326","","0","0","arrowleft","0","arrowleft","[0.325,0.675,0.15,0.85]","","",""
"sailing-trial","262","1381259","0.0-11.0-211.0","","","","false","","","","","","","","","","null","","552.2000000476837","","1","1","null","null","arrowup","[0.325,0.675,0.15,0.85]","","",""
"sailing-trial","263","1384229","0.0-11.0-212.0","","","","false","","","","","","","","","","424.7999999523163","","58.300000071525574","","2","0","arrowright","1","arrowleft","[0.325,0.675,0.15,0.85]","","",""
"sailing-trial","264","1386873","0.0-11.0-213.0","","","","false","","","","","","","","","","null","","663.0999999046326","","2","1","null","null","arrowup","[0.325,0.675,0.15,0.85]","","",""
"sailing-trial","265","1390350","0.0-11.0-214.0","","","","false","","","","","","","","","","369.7000000476837","","335.89999997615814","","2","1","arrowright","1","arrowleft","[0.675,0.325,0.85,0.15]","","",""
"sailing-trial","266","1392639","0.0-11.0-215.0","","","","false","","","","","","","","","","null","","461.2000000476837","","0","1","null","null","arrowup","[0.675,0.325,0.85,0.15]","","",""
"sailing-trial","267","1396366","0.0-11.0-216.0","","","","false","","","","","","","","","","149.5","","674.3999999761581","","0","1","arrowleft","0","arrowleft","[0.675,0.325,0.85,0.15]","","",""
"sailing-trial","268","1398869","0.0-11.0-217.0","","","","false","","","","","","","","","","null","","1268.7999999523163","","0","0","null","null","arrowup","[0.675,0.325,0.85,0.15]","","",""
"sailing-trial","269","1401962","0.0-11.0-218.0","","","","false","","","","","","","","","","558.6999999284744","","119.79999995231628","","3","0","arrowright","1","arrowright","[0.675,0.325,0.85,0.15]","","",""
"sailing-trial","270","1404521","0.0-11.0-219.0","","","","false","","","","","","","","","","null","","856.7999999523163","","0","1","null","null","arrowup","[0.675,0.325,0.85,0.15]","","",""
"sailing-trial","271","1408347","0.0-11.0-220.0","","","","false","","","","","","","","","","1033.2999999523163","","42.40000009536743","","0","1","arrowleft","0","arrowleft","[0.675,0.325,0.85,0.15]","","",""
"sailing-trial","272","1410320","0.0-11.0-221.0","","","","false","","","","","","","","","","null","","391","","0","1","null","null","arrowup","[0.675,0.325,0.85,0.15]","","",""
"sailing-trial","273","1413677","0.0-11.0-222.0","","","","false","","","","","","","","","","442.7999999523163","","509.5","","0","0","arrowleft","0","arrowleft","[0.675,0.325,0.85,0.15]","","",""
"sailing-trial","274","1416154","0.0-11.0-223.0","","","","false","","","","","","","","","","null","","637.5","","2","1","null","null","arrowup","[0.675,0.325,0.85,0.15]","","",""
"sailing-trial","275","1418875","0.0-11.0-224.0","","","","false","","","","","","","","","","216.69999992847443","","356.7000000476837","","3","0","arrowright","1","arrowright","[0.675,0.325,0.85,0.15]","","",""
"sailing-trial","276","1421335","0.0-11.0-225.0","","","","false","","","","","","","","","","null","","591.8000000715256","","0","1","null","null","arrowup","[0.675,0.325,0.85,0.15]","","",""
"sailing-trial","277","1424709","0.0-11.0-226.0","","","","false","","","","","","","","","","451.39999997615814","","55","","0","1","arrowleft","0","arrowleft","[0.675,0.325,0.85,0.15]","","",""
"sailing-trial","278","1427018","0.0-11.0-227.0","","","","false","","","","","","","","","","null","","205.10000002384186","","2","1","null","null","arrowup","[0.675,0.325,0.85,0.15]","","",""
"sailing-trial","279","1430841","0.0-11.0-228.0","","","","false","","","","","","","","","","432.59999990463257","","476.7000000476837","","2","1","arrowright","1","arrowleft","[0.675,0.325,0.85,0.15]","","",""
"sailing-trial","280","1432626","0.0-11.0-229.0","","","","false","","","","","","","","","","null","","448.6999999284744","","2","0","null","null","arrowup","[0.675,0.325,0.85,0.15]","","",""
"sailing-trial","281","1436202","0.0-11.0-230.0","","","","false","","","","","","","","","","759.6999999284744","","464.10000002384186","","3","0","arrowright","1","arrowright","[0.85,0.15,0.675,0.325]","","",""
"sailing-trial","282","1438281","0.0-11.0-231.0","","","","false","","","","","","","","","","null","","759.8000000715256","","3","0","null","null","arrowup","[0.85,0.15,0.675,0.325]","","",""
"sailing-trial","283","1442882","0.0-11.0-232.0","","","","false","","","","","","","","","","873.1999999284744","","819.4000000953674","","2","1","arrowright","1","arrowleft","[0.85,0.15,0.675,0.325]","","",""
"sailing-trial","284","1445230","0.0-11.0-233.0","","","","false","","","","","","","","","","null","","383.8000000715256","","0","1","null","null","arrowup","[0.85,0.15,0.675,0.325]","","",""
"sailing-trial","285","1448689","0.0-11.0-234.0","","","","false","","","","","","","","","","435","","13.100000023841858","","2","1","arrowright","1","arrowleft","[0.85,0.15,0.675,0.325]","","",""
"sailing-trial","286","1451047","0.0-11.0-235.0","","","","false","","","","","","","","","","null","","576.5999999046326","","2","1","null","null","arrowup","[0.85,0.15,0.675,0.325]","","",""
"sailing-trial","287","1455241","0.0-11.0-236.0","","","","false","","","","","","","","","","402.5","","574.9000000953674","","1","0","arrowleft","0","arrowright","[0.85,0.15,0.675,0.325]","","",""
"sailing-trial","288","1457825","0.0-11.0-237.0","","","","false","","","","","","","","","","null","","1456.2000000476837","","1","0","null","null","arrowup","[0.85,0.15,0.675,0.325]","","",""
"sailing-trial","289","1462845","0.0-11.0-238.0","","","","false","","","","","","","","","","1480.4000000953674","","576","","2","1","arrowright","1","arrowleft","[0.85,0.15,0.675,0.325]","","",""
"sailing-trial","290","1465268","0.0-11.0-239.0","","","","false","","","","","","","","","","null","","523.8999999761581","","0","1","null","null","arrowup","[0.85,0.15,0.675,0.325]","","",""
"sailing-trial","291","1469265","0.0-11.0-240.0","","","","false","","","","","","","","","","837.1000000238419","","69","","0","1","arrowleft","0","arrowleft","[0.85,0.15,0.675,0.325]","","",""
"sailing-trial","292","1471698","0.0-11.0-241.0","","","","false","","","","","","","","","","null","","1072.3999999761581","","1","0","null","null","arrowup","[0.85,0.15,0.675,0.325]","","",""
"sailing-trial","293","1475478","0.0-11.0-242.0","","","","false","","","","","","","","","","615","","212","","2","1","arrowright","1","arrowleft","[0.85,0.15,0.675,0.325]","","",""
"sailing-trial","294","1477392","0.0-11.0-243.0","","","","false","","","","","","","","","","null","","538.2000000476837","","3","0","null","null","arrowup","[0.85,0.15,0.675,0.325]","","",""
"sailing-trial","295","1481233","0.0-11.0-244.0","","","","false","","","","","","","","","","616.4000000953674","","498.8000000715256","","3","0","arrowright","1","arrowright","[0.85,0.15,0.675,0.325]","","",""
"sailing-trial","296","1483584","0.0-11.0-245.0","","","","false","","","","","","","","","","null","","903.8000000715256","","3","0","null","null","arrowup","[0.85,0.15,0.675,0.325]","","",""
"sailing-trial","297","1487537","0.0-11.0-246.0","","","","false","","","","","","","","","","504.5","","1117.8000000715256","","1","0","arrowleft","0","arrowright","[0.85,0.15,0.675,0.325]","","",""
"sailing-trial","298","1490136","0.0-11.0-247.0","","","","false","","","","","","","","","","null","","735.3000000715256","","3","1","null","null","arrowup","[0.85,0.15,0.675,0.325]","","",""
"sailing-trial","299","1494631","0.0-11.0-248.0","","","","false","","","","","","","","","","416.1999999284744","","1187.9000000953674","","3","1","arrowright","1","arrowright","[0.85,0.15,0.675,0.325]","","",""
"sailing-trial","300","1497112","0.0-11.0-249.0","","","","false","","","","","","","","","","null","","665.5","","2","1","null","null","arrowup","[0.85,0.15,0.675,0.325]","","",""
"sailing-trial","301","1500800","0.0-11.0-250.0","","","","false","","","","","","","","","","504.2000000476837","","143.69999992847443","","2","1","arrowright","1","arrowleft","[0.675,0.325,0.85,0.15]","","",""
"sailing-trial","302","1503454","0.0-11.0-251.0","","","","false","","","","","","","","","","null","","352.10000002384186","","1","1","null","null","arrowup","[0.675,0.325,0.85,0.15]","","",""
"sailing-trial","303","1506704","0.0-11.0-252.0","","","","false","","","","","","","","","","449.59999990463257","","338.3000000715256","","1","0","arrowleft","0","arrowright","[0.675,0.325,0.85,0.15]","","",""
"sailing-trial","304","1509186","0.0-11.0-253.0","","","","false","","","","","","","","","","null","","775.3000000715256","","1","1","null","null","arrowup","[0.675,0.325,0.85,0.15]","","",""
"sailing-trial","305","1512815","0.0-11.0-254.0","","","","false","","","","","","","","","","485.40000009536743","","21","","0","1","arrowleft","0","arrowleft","[0.675,0.325,0.85,0.15]","","",""
"sailing-trial","306","1514759","0.0-11.0-255.0","","","","false","","","","","","","","","","null","","632.3999999761581","","3","0","null","null","arrowup","[0.675,0.325,0.85,0.15]","","",""
"sailing-trial","307","1517926","0.0-11.0-256.0","","","","false","","","","","","","","","","496.7000000476837","","223.59999990463257","","2","0","arrowright","1","arrowleft","[0.675,0.325,0.85,0.15]","","",""
"sailing-trial","308","1520072","0.0-11.0-257.0","","","","false","","","","","","","","","","null","","841","","1","0","null","null","arrowup","[0.675,0.325,0.85,0.15]","","",""
"sailing-trial","309","1523993","0.0-11.0-258.0","","","","false","","","","","","","","","","638.7999999523163","","392.2000000476837","","1","1","arrowleft","0","arrowright","[0.675,0.325,0.85,0.15]","","",""
"sailing-trial","310","1525960","0.0-11.0-259.0","","","","false","","","","","","","","","","null","","686.5","","0","0","null","null","arrowup","[0.675,0.325,0.85,0.15]","","",""
"sailing-trial","311","1530142","0.0-11.0-260.0","","","","false","","","","","","","","","","935.1999999284744","","550.9000000953674","","2","1","arrowright","1","arrowleft","[0.675,0.325,0.85,0.15]","","",""
"sailing-trial","312","1532071","0.0-11.0-261.0","","","","false","","","","","","","","","","null","","577.5","","3","0","null","null","arrowup","[0.675,0.325,0.85,0.15]","","",""
"sailing-trial","313","1535262","0.0-11.0-262.0","","","","false","","","","","","","","","","583.6999999284744","","122.30000007152557","","3","0","arrowright","1","arrowright","[0.675,0.325,0.85,0.15]","","",""
"sailing-trial","314","1537888","0.0-11.0-263.0","","","","false","","","","","","","","","","null","","760.3999999761581","","0","1","null","null","arrowup","[0.675,0.325,0.85,0.15]","","",""
"sailing-trial","315","1541623","0.0-11.0-264.0","","","","false","","","","","","","","","","431.60000002384186","","376.6999999284744","","0","1","arrowleft","0","arrowleft","[0.675,0.325,0.85,0.15]","","",""
"sailing-trial","316","1543870","0.0-11.0-265.0","","","","false","","","","","","","","","","null","","407.3000000715256","","0","1","null","null","arrowup","[0.675,0.325,0.85,0.15]","","",""
"sailing-trial","317","1547657","0.0-11.0-266.0","","","","false","","","","","","","","","","272.6999999284744","","592.2000000476837","","0","1","arrowleft","0","arrowleft","[0.675,0.325,0.85,0.15]","","",""
"sailing-trial","318","1550150","0.0-11.0-267.0","","","","false","","","","","","","","","","null","","605.7000000476837","","2","1","null","null","arrowup","[0.675,0.325,0.85,0.15]","","",""
"sailing-trial","319","1553679","0.0-11.0-268.0","","","","false","","","","","","","","","","352.10000002384186","","321.2000000476837","","2","1","arrowright","1","arrowleft","[0.15,0.85,0.325,0.675]","","",""
"sailing-trial","320","1555544","0.0-11.0-269.0","","","","false","","","","","","","","","","null","","528.6999999284744","","0","0","null","null","arrowup","[0.15,0.85,0.325,0.675]","","",""
"sailing-trial","321","1559506","0.0-11.0-270.0","","","","false","","","","","","","","","","462.7999999523163","","559.3000000715256","","1","1","arrowleft","0","arrowright","[0.15,0.85,0.325,0.675]","","",""
"sailing-trial","322","1561303","0.0-11.0-271.0","","","","false","","","","","","","","","","null","","517.6000000238419","","2","0","null","null","arrowup","[0.15,0.85,0.325,0.675]","","",""
"sailing-trial","323","1565319","0.0-11.0-272.0","","","","false","","","","","","","","","","855.6999999284744","","328.39999997615814","","3","1","arrowright","1","arrowright","[0.15,0.85,0.325,0.675]","","",""
"sailing-trial","324","1567308","0.0-11.0-273.0","","","","false","","","","","","","","","","null","","622.8999999761581","","2","0","null","null","arrowup","[0.15,0.85,0.325,0.675]","","",""
"sailing-trial","325","1570567","0.0-11.0-274.0","","","","false","","","","","","","","","","649.9000000953674","","186.29999995231628","","2","0","arrowright","1","arrowleft","[0.15,0.85,0.325,0.675]","","",""
"sailing-trial","326","1572430","0.0-11.0-275.0","","","","false","","","","","","","","","","null","","519.5","","2","0","null","null","arrowup","[0.15,0.85,0.325,0.675]","","",""
"sailing-trial","327","1576317","0.0-11.0-276.0","","","","false","","","","","","","","","","759.8000000715256","","170.60000002384186","","3","1","arrowright","1","arrowright","[0.15,0.85,0.325,0.675]","","",""
"sailing-trial","328","1579091","0.0-11.0-277.0","","","","false","","","","","","","","","","null","","880.5","","2","1","null","null","arrowup","[0.15,0.85,0.325,0.675]","","",""
"sailing-trial","329","1582149","0.0-11.0-278.0","","","","false","","","","","","","","","","483","","74.69999992847443","","2","0","arrowright","1","arrowleft","[0.15,0.85,0.325,0.675]","","",""
"sailing-trial","330","1584789","0.0-11.0-279.0","","","","false","","","","","","","","","","null","","768.6000000238419","","3","1","null","null","arrowup","[0.15,0.85,0.325,0.675]","","",""
"sailing-trial","331","1587764","0.0-11.0-280.0","","","","false","","","","","","","","","","385","","156.80000007152557","","2","0","arrowright","1","arrowleft","[0.15,0.85,0.325,0.675]","","",""
"sailing-trial","332","1590320","0.0-11.0-281.0","","","","false","","","","","","","","","","null","","896.9000000953674","","1","1","null","null","arrowup","[0.15,0.85,0.325,0.675]","","",""
"sailing-trial","333","1593495","0.0-11.0-282.0","","","","false","","","","","","","","","","501.6999999284744","","29.100000023841858","","2","0","arrowright","1","arrowleft","[0.15,0.85,0.325,0.675]","","",""
"sailing-trial","334","1595568","0.0-11.0-283.0","","","","false","","","","","","","","","","null","","750.1999999284744","","0","0","null","null","arrowup","[0.15,0.85,0.325,0.675]","","",""
"sailing-trial","335","1599010","0.0-11.0-284.0","","","","false","","","","","","","","","","429.5","","95.30000007152557","","1","1","arrowleft","0","arrowright","[0.15,0.85,0.325,0.675]","","",""
"sailing-trial","336","1601383","0.0-11.0-285.0","","","","false","","","","","","","","","","null","","586.2000000476837","","1","1","null","null","arrowup","[0.15,0.85,0.325,0.675]","","",""
"sailing-trial","337","1604239","0.0-11.0-286.0","","","","false","","","","","","","","","","382.1999999284744","","81.60000002384186","","1","0","arrowleft","0","arrowright","[0.325,0.675,0.15,0.85]","","",""
"sailing-trial","338","1606133","0.0-11.0-287.0","","","","false","","","","","","","","","","null","","566.1000000238419","","2","0","null","null","arrowup","[0.325,0.675,0.15,0.85]","","",""
"sailing-trial","339","1609605","0.0-11.0-288.0","","","","false","","","","","","","","","","592.1000000238419","","367.10000002384186","","2","0","arrowright","1","arrowleft","[0.325,0.675,0.15,0.85]","","",""
"sailing-trial","340","1611914","0.0-11.0-289.0","","","","false","","","","","","","","","","null","","567.6999999284744","","0","1","null","null","arrowup","[0.325,0.675,0.15,0.85]","","",""
"sailing-trial","341","1615340","0.0-11.0-290.0","","","","false","","","","","","","","","","363.3000000715256","","610.3999999761581","","2","0","arrowright","1","arrowleft","[0.325,0.675,0.15,0.85]","","",""
"sailing-trial","342","1617948","0.0-11.0-291.0","","","","false","","","","","","","","","","null","","768.3999999761581","","1","1","null","null","arrowup","[0.325,0.675,0.15,0.85]","","",""
"sailing-trial","343","1621471","0.0-11.0-292.0","","","","false","","","","","","","","","","481","","210.40000009536743","","1","1","arrowleft","0","arrowright","[0.325,0.675,0.15,0.85]","","",""
"sailing-trial","344","1624078","0.0-11.0-293.0","","","","false","","","","","","","","","","null","","797.7000000476837","","3","1","null","null","arrowup","[0.325,0.675,0.15,0.85]","","",""
"sailing-trial","345","1627524","0.0-11.0-294.0","","","","false","","","","","","","","","","373.8000000715256","","205","","3","1","arrowright","1","arrowright","[0.325,0.675,0.15,0.85]","","",""
"sailing-trial","346","1629915","0.0-11.0-295.0","","","","false","","","","","","","","","","null","","504.60000002384186","","0","1","null","null","arrowup","[0.325,0.675,0.15,0.85]","","",""
"sailing-trial","347","1633708","0.0-11.0-296.0","","","","false","","","","","","","","","","753.7999999523163","","297.60000002384186","","0","1","arrowleft","0","arrowleft","[0.325,0.675,0.15,0.85]","","",""
"sailing-trial","348","1636144","0.0-11.0-297.0","","","","false","","","","","","","","","","null","","464.10000002384186","","3","1","null","null","arrowup","[0.325,0.675,0.15,0.85]","","",""
"sailing-trial","349","1639075","0.0-11.0-298.0","","","","false","","","","","","","","","","435.59999990463257","","45.699999928474426","","2","0","arrowright","1","arrowleft","[0.325,0.675,0.15,0.85]","","",""
"sailing-trial","350","1641140","0.0-11.0-299.0","","","","false","","","","","","","","","","null","","601.3999999761581","","0","0","null","null","arrowup","[0.325,0.675,0.15,0.85]","","",""
"sailing-trial","351","1644508","0.0-11.0-300.0","","","","false","","","","","","","","","","735.5999999046326","","235.20000004768372","","3","0","arrowright","1","arrowright","[0.325,0.675,0.15,0.85]","","",""
"sailing-trial","352","1646701","0.0-11.0-301.0","","","","false","","","","","","","","","","null","","864.0999999046326","","2","0","null","null","arrowup","[0.325,0.675,0.15,0.85]","","",""
"sailing-trial","353","1650739","0.0-11.0-302.0","","","","false","","","","","","","","","","671.5","","489.3000000715256","","3","1","arrowright","1","arrowright","[0.15,0.85,0.325,0.675]","","",""
"sailing-trial","354","1653642","0.0-11.0-303.0","","","","false","","","","","","","","","","null","","776.2999999523163","","1","1","null","null","arrowup","[0.15,0.85,0.325,0.675]","","",""
"sailing-trial","355","1657167","0.0-11.0-304.0","","","","false","","","","","","","","","","561.3000000715256","","270.2999999523163","","1","1","arrowleft","0","arrowright","[0.15,0.85,0.325,0.675]","","",""
"sailing-trial","356","1659171","0.0-11.0-305.0","","","","false","","","","","","","","","","null","","731.8000000715256","","2","0","null","null","arrowup","[0.15,0.85,0.325,0.675]","","",""
"sailing-trial","357","1662899","0.0-11.0-306.0","","","","false","","","","","","","","","","768.4000000953674","","35.800000071525574","","3","1","arrowright","1","arrowright","[0.15,0.85,0.325,0.675]","","",""
"sailing-trial","358","1665239","0.0-11.0-307.0","","","","false","","","","","","","","","","null","","543.8000000715256","","1","1","null","null","arrowup","[0.15,0.85,0.325,0.675]","","",""
"sailing-trial","359","1668682","0.0-11.0-308.0","","","","false","","","","","","","","","","334.10000002384186","","330","","1","1","arrowleft","0","arrowright","[0.15,0.85,0.325,0.675]","","",""
"sailing-trial","360","1671196","0.0-11.0-309.0","","","","false","","","","","","","","","","null","","553","","2","1","null","null","arrowup","[0.15,0.85,0.325,0.675]","","",""
"sailing-trial","361","1674580","0.0-11.0-310.0","","","","false","","","","","","","","","","599.4000000953674","","119.10000002384186","","3","0","arrowright","1","arrowright","[0.15,0.85,0.325,0.675]","","",""
"sailing-trial","362","1676962","0.0-11.0-311.0","","","","false","","","","","","","","","","null","","542.8000000715256","","0","1","null","null","arrowup","[0.15,0.85,0.325,0.675]","","",""
"sailing-trial","363","1680043","0.0-11.0-312.0","","","","false","","","","","","","","","","424.59999990463257","","243.60000002384186","","0","0","arrowleft","0","arrowleft","[0.15,0.85,0.325,0.675]","","",""
"sailing-trial","364","1682435","0.0-11.0-313.0","","","","false","","","","","","","","","","null","","503.2999999523163","","1","1","null","null","arrowup","[0.15,0.85,0.325,0.675]","","",""
"sailing-trial","365","1685676","0.0-11.0-314.0","","","","false","","","","","","","","","","335.10000002384186","","237.89999997615814","","0","0","arrowleft","0","arrowleft","[0.15,0.85,0.325,0.675]","","",""
"sailing-trial","366","1688291","0.0-11.0-315.0","","","","false","","","","","","","","","","null","","686.5","","1","1","null","null","arrowup","[0.15,0.85,0.325,0.675]","","",""
"sailing-trial","367","1691410","0.0-11.0-316.0","","","","false","","","","","","","","","","215.90000009536743","","104.29999995231628","","1","1","arrowleft","0","arrowright","[0.15,0.85,0.325,0.675]","","",""
"sailing-trial","368","1693866","0.0-11.0-317.0","","","","false","","","","","","","","","","null","","600.5","","1","1","null","null","arrowup","[0.15,0.85,0.325,0.675]","","",""
"sailing-trial","369","1698121","0.0-11.0-318.0","","","","false","","","","","","","","","","1168.2999999523163","","442.1999999284744","","0","0","arrowleft","0","arrowleft","[0.15,0.85,0.325,0.675]","","",""
"sailing-trial","370","1701253","0.0-11.0-319.0","","","","false","","","","","","","","","","null","","1144.7999999523163","","3","1","null","null","arrowup","[0.15,0.85,0.325,0.675]","","",""
"sailing-trial","371","1704945","0.0-11.0-320.0","","","","false","","","","","","","","","","709.1000000238419","","227.19999992847443","","3","1","arrowright","1","arrowright","[0.15,0.85,0.325,0.675]","","",""
"sailing-trial","372","1707688","0.0-11.0-321.0","","","","false","","","","","","","","","","null","","657.1000000238419","","0","1","null","null","arrowup","[0.15,0.85,0.325,0.675]","","",""
"sailing-trial","373","1711265","0.0-11.0-322.0","","","","false","","","","","","","","","","690.2000000476837","","330.2000000476837","","2","0","arrowright","1","arrowleft","[0.15,0.85,0.325,0.675]","","",""
"sailing-trial","374","1713602","0.0-11.0-323.0","","","","false","","","","","","","","","","null","","808.3000000715256","","3","1","null","null","arrowup","[0.15,0.85,0.325,0.675]","","",""
"sailing-trial","375","1717379","0.0-11.0-324.0","","","","false","","","","","","","","","","375.5","","283.90000009536743","","3","1","arrowright","1","arrowright","[0.15,0.85,0.325,0.675]","","",""
"sailing-trial","376","1719474","0.0-11.0-325.0","","","","false","","","","","","","","","","null","","462.1999999284744","","1","0","null","null","arrowup","[0.15,0.85,0.325,0.675]","","",""
"sailing-trial","377","1722960","0.0-11.0-326.0","","","","false","","","","","","","","","","447.60000002384186","","30.799999952316284","","0","1","arrowleft","0","arrowleft","[0.325,0.675,0.15,0.85]","","",""
"sailing-trial","378","1728510","0.0-11.0-327.0","","","","false","","","","","","","","","","null","","3625.9000000953674","","1","1","null","null","arrowup","[0.325,0.675,0.15,0.85]","","",""
"sailing-trial","379","1733498","0.0-11.0-328.0","","","","false","","","","","","","","","","699.6000000238419","","969.1999999284744","","3","1","arrowright","1","arrowright","[0.325,0.675,0.15,0.85]","","",""
"sailing-trial","380","1736782","0.0-11.0-329.0","","","","false","","","","","","","","","","null","","1423","","3","1","null","null","arrowup","[0.325,0.675,0.15,0.85]","","",""
"sailing-trial","381","1740306","0.0-11.0-330.0","","","","false","","","","","","","","","","323.60000002384186","","281","","3","1","arrowright","1","arrowright","[0.325,0.675,0.15,0.85]","","",""
"sailing-trial","382","1743104","0.0-11.0-331.0","","","","false","","","","","","","","","","null","","983","","0","1","null","null","arrowup","[0.325,0.675,0.15,0.85]","","",""
"sailing-trial","383","1746508","0.0-11.0-332.0","","","","false","","","","","","","","","","328.7999999523163","","25.5","","0","1","arrowleft","0","arrowleft","[0.325,0.675,0.15,0.85]","","",""
"sailing-trial","384","1749000","0.0-11.0-333.0","","","","false","","","","","","","","","","null","","1140.3999999761581","","1","0","null","null","arrowup","[0.325,0.675,0.15,0.85]","","",""
"sailing-trial","385","1752850","0.0-11.0-334.0","","","","false","","","","","","","","","","664.8000000715256","","218.10000002384186","","0","1","arrowleft","0","arrowleft","[0.325,0.675,0.15,0.85]","","",""
"sailing-trial","386","1755382","0.0-11.0-335.0","","","","false","","","","","","","","","","null","","967.2000000476837","","1","1","null","null","arrowup","[0.325,0.675,0.15,0.85]","","",""
"sailing-trial","387","1760353","0.0-11.0-336.0","","","","false","","","","","","","","","","1330.3000000715256","","605.3999999761581","","2","1","arrowright","1","arrowleft","[0.325,0.675,0.15,0.85]","","",""
"sailing-trial","388","1763203","0.0-11.0-337.0","","","","false","","","","","","","","","","null","","1039.1000000238419","","0","1","null","null","arrowup","[0.325,0.675,0.15,0.85]","","",""
"sailing-trial","389","1766680","0.0-11.0-338.0","","","","false","","","","","","","","","","189.59999990463257","","530.0999999046326","","1","1","arrowleft","0","arrowright","[0.325,0.675,0.15,0.85]","","",""
"sailing-trial","390","1768760","0.0-11.0-339.0","","","","false","","","","","","","","","","null","","855.8000000715256","","2","0","null","null","arrowup","[0.325,0.675,0.15,0.85]","","",""
"sailing-trial","391","1771921","0.0-11.0-340.0","","","","false","","","","","","","","","","544.6000000238419","","277.8000000715256","","2","0","arrowright","1","arrowleft","[0.325,0.675,0.15,0.85]","","",""
"sailing-trial","392","1774088","0.0-11.0-341.0","","","","false","","","","","","","","","","null","","559.3000000715256","","2","1","null","null","arrowup","[0.325,0.675,0.15,0.85]","","",""
"sailing-trial","393","1778863","0.0-11.0-342.0","","","","false","","","","","","","","","","607.9000000953674","","1320.6999999284744","","2","0","arrowright","1","arrowleft","[0.325,0.675,0.15,0.85]","","",""
"sailing-trial","394","1780744","0.0-11.0-343.0","","","","false","","","","","","","","","","null","","704.8000000715256","","3","0","null","null","arrowup","[0.325,0.675,0.15,0.85]","","",""
"sailing-trial","395","1784424","0.0-11.0-344.0","","","","false","","","","","","","","","","688","","704","","2","0","arrowright","1","arrowleft","[0.325,0.675,0.15,0.85]","","",""
"sailing-trial","396","1786781","0.0-11.0-345.0","","","","false","","","","","","","","","","null","","639.8999999761581","","1","1","null","null","arrowup","[0.325,0.675,0.15,0.85]","","",""
"sailing-trial","397","1790342","0.0-11.0-346.0","","","","false","","","","","","","","","","546","","6.599999904632568","","3","1","arrowright","1","arrowright","[0.325,0.675,0.15,0.85]","","",""
"sailing-trial","398","1792792","0.0-11.0-347.0","","","","false","","","","","","","","","","null","","713.3999999761581","","3","1","null","null","arrowup","[0.325,0.675,0.15,0.85]","","",""
"sailing-trial","399","1796542","0.0-11.0-348.0","","","","false","","","","","","","","","","447.39999997615814","","410.7000000476837","","3","1","arrowright","1","arrowright","[0.15,0.85,0.325,0.675]","","",""
"sailing-trial","400","1799016","0.0-11.0-349.0","","","","false","","","","","","","","","","null","","609","","2","1","null","null","arrowup","[0.15,0.85,0.325,0.675]","","",""
"sailing-trial","401","1803310","0.0-11.0-350.0","","","","false","","","","","","","","","","1199.7000000476837","","777","","0","0","arrowleft","0","arrowleft","[0.15,0.85,0.325,0.675]","","",""
"sailing-trial","402","1806439","0.0-11.0-351.0","","","","false","","","","","","","","","","null","","1193.3999999761581","","3","1","null","null","arrowup","[0.15,0.85,0.325,0.675]","","",""
"sailing-trial","403","1810062","0.0-11.0-352.0","","","","false","","","","","","","","","","640.2999999523163","","299.6999999284744","","3","0","arrowright","1","arrowright","[0.15,0.85,0.325,0.675]","","",""
"sailing-trial","404","1813069","0.0-11.0-353.0","","","","false","","","","","","","","","","null","","928.7999999523163","","3","1","null","null","arrowup","[0.15,0.85,0.325,0.675]","","",""
"sailing-trial","405","1817348","0.0-11.0-354.0","","","","false","","","","","","","","","","1065.3000000715256","","254.90000009536743","","1","1","arrowleft","0","arrowright","[0.15,0.85,0.325,0.675]","","",""
"sailing-trial","406","1820824","0.0-11.0-355.0","","","","false","","","","","","","","","","null","","1515.2999999523163","","2","1","null","null","arrowup","[0.15,0.85,0.325,0.675]","","",""
"sailing-trial","407","1824667","0.0-11.0-356.0","","","","false","","","","","","","","","","719.2999999523163","","36.40000009536743","","3","1","arrowright","1","arrowright","[0.15,0.85,0.325,0.675]","","",""
"sailing-trial","408","1827476","0.0-11.0-357.0","","","","false","","","","","","","","","","null","","1083.1999999284744","","0","0","null","null","arrowup","[0.15,0.85,0.325,0.675]","","",""
"sailing-trial","409","1832879","0.0-11.0-358.0","","","","false","","","","","","","","","","1194.5999999046326","","1269","","1","1","arrowleft","0","arrowright","[0.15,0.85,0.325,0.675]","","",""
"sailing-trial","410","1835669","0.0-11.0-359.0","","","","false","","","","","","","","","","null","","1271.7000000476837","","3","0","null","null","arrowup","[0.15,0.85,0.325,0.675]","","",""
"sailing-trial","411","1839725","0.0-11.0-360.0","","","","false","","","","","","","","","","751.8999999761581","","329.5","","3","1","arrowright","1","arrowright","[0.15,0.85,0.325,0.675]","","",""
"sailing-trial","412","1841997","0.0-11.0-361.0","","","","false","","","","","","","","","","null","","937.5","","1","0","null","null","arrowup","[0.15,0.85,0.325,0.675]","","",""
"sailing-trial","413","1845845","0.0-11.0-362.0","","","","false","","","","","","","","","","729.3999999761581","","375.7999999523163","","1","1","arrowleft","0","arrowright","[0.15,0.85,0.325,0.675]","","",""
"sailing-trial","414","1847897","0.0-11.0-363.0","","","","false","","","","","","","","","","null","","576.8999999761581","","2","0","null","null","arrowup","[0.15,0.85,0.325,0.675]","","",""
"sailing-trial","415","1852229","0.0-11.0-364.0","","","","false","","","","","","","","","","1405.1999999284744","","67.89999997615814","","2","1","arrowright","1","arrowleft","[0.15,0.85,0.325,0.675]","","",""
"sailing-trial","416","1854079","0.0-11.0-365.0","","","","false","","","","","","","","","","null","","520.5","","2","0","null","null","arrowup","[0.15,0.85,0.325,0.675]","","",""
"sailing-trial","417","1857431","0.0-11.0-366.0","","","","false","","","","","","","","","","718.4000000953674","","210","","3","0","arrowright","1","arrowright","[0.85,0.15,0.675,0.325]","","",""
"sailing-trial","418","1859896","0.0-11.0-367.0","","","","false","","","","","","","","","","null","","734.8000000715256","","0","1","null","null","arrowup","[0.85,0.15,0.675,0.325]","","",""
"sailing-trial","419","1862904","0.0-11.0-368.0","","","","false","","","","","","","","","","277.7000000476837","","94.5","","0","1","arrowleft","0","arrowleft","[0.85,0.15,0.675,0.325]","","",""
"sailing-trial","420","1865393","0.0-11.0-369.0","","","","false","","","","","","","","","","null","","565.1999999284744","","2","1","null","null","arrowup","[0.85,0.15,0.675,0.325]","","",""
"sailing-trial","421","1868703","0.0-11.0-370.0","","","","false","","","","","","","","","","412.2999999523163","","22.40000009536743","","2","1","arrowright","1","arrowleft","[0.85,0.15,0.675,0.325]","","",""
"sailing-trial","422","1871343","0.0-11.0-371.0","","","","false","","","","","","","","","","null","","822.3999999761581","","2","1","null","null","arrowup","[0.85,0.15,0.675,0.325]","","",""
"sailing-trial","423","1874710","0.0-11.0-372.0","","","","false","","","","","","","","","","278","","55.800000071525574","","2","1","arrowright","1","arrowleft","[0.85,0.15,0.675,0.325]","","",""
"sailing-trial","424","1877728","0.0-11.0-373.0","","","","false","","","","","","","","","","null","","551.1000000238419","","2","1","null","null","arrowup","[0.85,0.15,0.675,0.325]","","",""
"sailing-trial","425","1880852","0.0-11.0-374.0","","","","false","","","","","","","","","","661.5","","29.899999976158142","","2","0","arrowright","1","arrowleft","[0.85,0.15,0.675,0.325]","","",""
"sailing-trial","426","1883349","0.0-11.0-375.0","","","","false","","","","","","","","","","null","","616.2999999523163","","0","0","null","null","arrowup","[0.85,0.15,0.675,0.325]","","",""
"sailing-trial","427","1886836","0.0-11.0-376.0","","","","false","","","","","","","","","","784.2999999523163","","273.5","","1","0","arrowleft","0","arrowright","[0.85,0.15,0.675,0.325]","","",""
"sailing-trial","428","1889227","0.0-11.0-377.0","","","","false","","","","","","","","","","null","","688.1999999284744","","0","1","null","null","arrowup","[0.85,0.15,0.675,0.325]","","",""
"sailing-trial","429","1892132","0.0-11.0-378.0","","","","false","","","","","","","","","","457.5","","173.10000002384186","","1","0","arrowleft","0","arrowright","[0.85,0.15,0.675,0.325]","","",""
"sailing-trial","430","1894150","0.0-11.0-379.0","","","","false","","","","","","","","","","null","","713","","0","0","null","null","arrowup","[0.85,0.15,0.675,0.325]","","",""
"sailing-trial","431","1897597","0.0-11.0-380.0","","","","false","","","","","","","","","","462.90000009536743","","266","","0","1","arrowleft","0","arrowleft","[0.85,0.15,0.675,0.325]","","",""
"sailing-trial","432","1899444","0.0-11.0-381.0","","","","false","","","","","","","","","","null","","575.2999999523163","","1","0","null","null","arrowup","[0.85,0.15,0.675,0.325]","","",""
"sailing-trial","433","1903330","0.0-11.0-382.0","","","","false","","","","","","","","","","872.8999999761581","","167.80000007152557","","0","1","arrowleft","0","arrowleft","[0.85,0.15,0.675,0.325]","","",""
"sailing-trial","434","1905702","0.0-11.0-383.0","","","","false","","","","","","","","","","null","","666.4000000953674","","1","1","null","null","arrowup","[0.85,0.15,0.675,0.325]","","",""
"sailing-trial","435","1909619","0.0-11.0-384.0","","","","false","","","","","","","","","","862.0999999046326","","139.69999992847443","","1","1","arrowleft","0","arrowright","[0.675,0.325,0.85,0.15]","","",""
"sailing-trial","436","1911459","0.0-11.0-385.0","","","","false","","","","","","","","","","null","","464.89999997615814","","3","0","null","null","arrowup","[0.675,0.325,0.85,0.15]","","",""
"sailing-trial","437","1914944","0.0-11.0-386.0","","","","false","","","","","","","","","","513.3000000715256","","327.2000000476837","","2","1","arrowright","1","arrowleft","[0.675,0.325,0.85,0.15]","","",""
"sailing-trial","438","1917451","0.0-11.0-387.0","","","","false","","","","","","","","","","null","","748","","2","1","null","null","arrowup","[0.675,0.325,0.85,0.15]","","",""
"sailing-trial","439","1920643","0.0-11.0-388.0","","","","false","","","","","","","","","","409.2999999523163","","85.30000007152557","","2","1","arrowright","1","arrowleft","[0.675,0.325,0.85,0.15]","","",""
"sailing-trial","440","1922939","0.0-11.0-389.0","","","","false","","","","","","","","","","null","","520.3999999761581","","3","0","null","null","arrowup","[0.675,0.325,0.85,0.15]","","",""
"sailing-trial","441","1926357","0.0-11.0-390.0","","","","false","","","","","","","","","","432.3000000715256","","217.60000002384186","","2","1","arrowright","1","arrowleft","[0.675,0.325,0.85,0.15]","","",""
"sailing-trial","442","1928798","0.0-11.0-391.0","","","","false","","","","","","","","","","null","","638.7999999523163","","1","1","null","null","arrowup","[0.675,0.325,0.85,0.15]","","",""
"sailing-trial","443","1931354","0.0-11.0-392.0","","","","false","","","","","","","","","","205.30000007152557","","35.5","","1","0","arrowleft","0","arrowright","[0.675,0.325,0.85,0.15]","","",""
"sailing-trial","444","1933021","0.0-11.0-393.0","","","","false","","","","","","","","","","null","","617","","3","0","null","null","arrowup","[0.675,0.325,0.85,0.15]","","",""
"sailing-trial","445","1935829","0.0-11.0-394.0","","","","false","","","","","","","","","","486.8000000715256","","56.699999928474426","","0","0","arrowleft","0","arrowleft","[0.675,0.325,0.85,0.15]","","",""
"sailing-trial","446","1938243","0.0-11.0-395.0","","","","false","","","","","","","","","","null","","1319","","0","0","null","null","arrowup","[0.675,0.325,0.85,0.15]","","",""
"sailing-trial","447","1941436","0.0-11.0-396.0","","","","false","","","","","","","","","","832.7999999523163","","77.69999992847443","","1","0","arrowleft","0","arrowright","[0.675,0.325,0.85,0.15]","","",""
"sailing-trial","448","1943627","0.0-11.0-397.0","","","","false","","","","","","","","","","null","","943.5","","1","0","null","null","arrowup","[0.675,0.325,0.85,0.15]","","",""
"sailing-trial","449","1946826","0.0-11.0-398.0","","","","false","","","","","","","","","","512.3000000715256","","227.80000007152557","","1","0","arrowleft","0","arrowright","[0.675,0.325,0.85,0.15]","","",""
"sailing-trial","450","1948699","0.0-11.0-399.0","","","","false","","","","","","","","","","null","","577.5999999046326","","0","0","null","null","arrowup","[0.675,0.325,0.85,0.15]","","",""
"instructions","451","1954132","0.0-12.0","","","","","","","","","","5432.699999928474","","","","","","","","","","","","","","","","[{""page_index"":0,""viewing_time"":5432.099999904633}]"
"survey-debrief","452","1990640","0.0-13.0","","","","","","","","","","36505.800000071526","","","","","","","","","","","","","","{""difficulty"":""5"",""fun"":""1"",""clarity"":""4"",""strategy"":""no"",""feedback"":""no""}","",""
