"trial_type","trial_index","time_elapsed","internal_node_id","value","metadata","success","timeout","failed_images","failed_audio","failed_video","browser_interaction","low_quality","rt","stimulus","response","button_pressed","island_rt","island_response","boat_rt","boat_response","boat","reward","island_key","island","boat_key","reward_probabilities","responses","num_errors","view_history"
"pavlovia","0","3","0.0-0.0","","","","","","","","","","","","","","","","","","","","","","","","","",""
"call-function","1","4","0.0-1.0","","{""task_version"":""sailing_part1_v1"",""task_condition"":""good"",""boats"":[""C"",""A"",""B"",""D""],""boats_demo"":[""E"",""G"",""F"",""H""],""islands"":[""A"",""B""],""subject_id"":""15116"",""age"":""16"",""gender"":""Male""}","","","","","","","","","","","","","","","","","","","","","","","",""
"preload","2","12769","0.0-2.0","","","true","false","[]","[]","[]","[{""event"":""fullscreenenter"",""trial"":3,""time"":25009}]","false","","","","","","","","","","","","","","","","",""
"fullscreen","3","25970","0.0-3.0","","","true","","","","","","","","","","","","","","","","","","","","","","",""
"audio-keyboard-response","4","32423","0.0-4.0-0.0","","","","","","","","","","5490.666666666667","audio/beep_loop.wav"," ","","","","","","","","","","","","","",""
"audio-test","5","33811","0.0-4.0-1.0","","","","","","","","","","null","audio/turtle.mp3","","3","","","","","","","","","","","","",""
"audio-test","6","36000","0.0-4.0-2.0","","","","","","","","","","null","audio/shark.mp3","","2","","","","","","","","","","","","",""
"sailing-instructions","7","70634","0.0-5.0-0.0-0.0","","","","","","","","","","","","","","null","null","null","null","null","null","","","","","","",""
"sailing-trial","8","73336","0.0-5.0-0.0-1.0-0.0","","","","false","","","","","","","","","","1570.3000000715256","","null","","null","null","arrowleft","0","null","null","","",""
"sailing-trial","9","75784","0.0-5.0-0.0-1.0-1.0","","","","false","","","","","","","","","","1214.3000000715256","","null","","null","null","arrowright","1","null","null","","",""
"sailing-trial","10","78367","0.0-5.0-0.0-1.0-2.0","","","","false","","","","","","","","","","1443","","null","","null","null","arrowleft","0","null","null","","",""
"sailing-instructions","11","119759","0.0-5.0-0.0-2.0","","","","","","","","","","","","","","null","null","null","null","0","null","","","","","","",""
"sailing-trial","12","124724","0.0-5.0-0.0-3.0-0.0","","","","false","","","","","","","","","","null","","1786.7999999523163","","2","1","null","null","arrowleft","[1,1,1,1]","","",""
"sailing-trial","13","128234","0.0-5.0-0.0-3.0-1.0","","","","false","","","","","","","","","","null","","738.8999999761581","","3","1","null","null","arrowright","[1,1,1,1]","","",""
"sailing-trial","14","131798","0.0-5.0-0.0-3.0-2.0","","","","false","","","","","","","","","","null","","1110.6999999284744","","2","0","null","null","arrowleft","[0,0,0,0]","","",""
"sailing-instructions","15","139120","0.0-5.0-0.0-4.0","","","","","","","","","","","","","","null","null","null","null","null","null","","","","","","",""
"sailing-comprehension","16","153000","0.0-5.0-0.0-5.0","","","","","","","","","","11588.299999952316","","","","","","","","","","","","","","[""true"",""true"",""false"",""true""]","0",""
"sailing-instructions","17","218466","0.0-6.0-0.0-0.0","","","","","","","","","","","","","","null","null","null","null","null","null","","","","","","",""
"sailing-comprehension","18","230249","0.0-6.0-0.0-1.0","","","","","","","","","","9943.5","","","","","","","","","","","","","","[""true"",""false"",""true""]","0",""
"sailing-instructions","19","245231","0.0-7.0-0.0-0.0","","","","","","","","","","","","","","null","null","null","null","null","null","","","","","","",""
"sailing-trial","20","251051","0.0-7.0-0.0-1.0-0.0","","","","false","","","","","","","","","","null","","3240.6999999284744","","0","1","null","null","arrowup","[0.2,0.8,0.2,0.8]","","",""
"sailing-trial","21","254946","0.0-7.0-0.0-1.0-1.0","","","","false","","","","","","","","","","null","","1185.1999999284744","","1","1","null","null","arrowup","[0.2,0.8,0.2,0.8]","","",""
"sailing-trial","22","257142","0.0-7.0-0.0-1.0-2.0","","","","false","","","","","","","","","","null","","751.2000000476837","","2","0","null","null","arrowup","[0.2,0.8,0.2,0.8]","","",""
"sailing-trial","23","259476","0.0-7.0-0.0-1.0-3.0","","","","false","","","","","","","","","","null","","667.1000000238419","","3","1","null","null","arrowup","[0.2,0.8,0.2,0.8]","","",""
"sailing-comprehension","24","265696","0.0-7.0-0.0-2.0","","","","","","","","","","4737.900000095367","","","","","","","","","","","","","","[""false""]","0",""
"sailing-instructions","25","282104","0.0-8.0-0.0-0.0","","","","","","","","","","","","","","null","null","null","null","null","null","","","","","","",""
"sailing-comprehension","26","285818","0.0-8.0-0.0-1.0","","","","","","","","","","2661.7000000476837","","","","","","","","","","","","","","[""true""]","0",""
"sailing-instructions","27","321900","0.0-9.0-0.0-0.0","","","","","","","","","","","","","","null","null","null","null","null","null","","","","","","",""
"sailing-trial","28","327306","0.0-9.0-0.0-1.0-0.0","","","","false","","","","","","","","","","1599.7000000476837","","155.89999997615814","","3","0","arrowright","1","arrowright","[0.2,0.8,0.2,0.8]","","",""
"sailing-trial","29","331705","0.0-9.0-0.0-1.0-1.0","","","","false","","","","","","","","","","549","","363.2999999523163","","1","1","arrowleft","0","arrowright","[0.2,0.8,0.2,0.8]","","",""
"sailing-trial","30","334233","0.0-9.0-0.0-1.0-2.0","","","","false","","","","","","","","","","null","","1246.8999999761581","","0","0","null","null","arrowup","[0.2,0.8,0.2,0.8]","","",""
"sailing-trial","31","339278","0.0-9.0-0.0-1.0-3.0","","","","false","","","","","","","","","","495.8000000715256","","2153.600000023842","","3","0","arrowright","1","arrowright","[0.2,0.8,0.2,0.8]","","",""
"sailing-trial","32","342131","0.0-9.0-0.0-1.0-4.0","","","","false","","","","","","","","","","null","","1030.6000000238419","","3","1","null","null","arrowup","[0.2,0.8,0.2,0.8]","","",""
"sailing-trial","33","346602","0.0-9.0-0.0-1.0-5.0","","","","false","","","","","","","","","","607.5","","1047.2000000476837","","2","0","arrowright","1","arrowleft","[0.2,0.8,0.2,0.8]","","",""
"sailing-instructions","34","380635","0.0-10.0","","","","","","","","","","","","","","null","null","null","null","null","null","","","","","","",""
"sailing-trial","35","385350","0.0-11.0-0.0","","","","false","","","","","","","","","","1424.2999999523163","","245.69999992847443","","3","0","arrowright","1","arrowright","[0.325,0.675,0.15,0.85]","","",""
"sailing-trial","36","387747","0.0-11.0-1.0","","","","false","","","","","","","","","","null","","1077.1999999284744","","2","0","null","null","arrowup","[0.325,0.675,0.15,0.85]","","",""
"sailing-trial","37","391380","0.0-11.0-2.0","","","","false","","","","","","","","","","680.0999999046326","","263.5","","3","1","arrowright","1","arrowright","[0.325,0.675,0.15,0.85]","","",""
"sailing-trial","38","394174","0.0-11.0-3.0","","","","false","","","","","","","","","","null","","1084.6000000238419","","3","1","null","null","arrowup","[0.325,0.675,0.15,0.85]","","",""
"sailing-trial","39","398153","0.0-11.0-4.0","","","","false","","","","","","","","","","495.1999999284744","","321.90000009536743","","3","1","arrowright","1","arrowright","[0.325,0.675,0.15,0.85]","","",""
"sailing-trial","40","400068","0.0-11.0-5.0","","","","false","","","","","","","","","","null","","825.8999999761581","","2","0","null","null","arrowup","[0.325,0.675,0.15,0.85]","","",""
"sailing-trial","41","404129","0.0-11.0-6.0","","","","false","","","","","","","","","","641.6000000238419","","512.1000000238419","","3","1","arrowright","1","arrowright","[0.325,0.675,0.15,0.85]","","",""
"sailing-trial","42","407247","0.0-11.0-7.0","","","","false","","","","","","","","","","null","","1058.0999999046326","","1","1","null","null","arrowup","[0.325,0.675,0.15,0.85]","","",""
"sailing-trial","43","410844","0.0-11.0-8.0","","","","false","","","","","","","","","","481.5","","277.89999997615814","","3","1","arrowright","1","arrowright","[0.325,0.675,0.15,0.85]","","",""
"sailing-trial","44","414043","0.0-11.0-9.0","","","","false","","","","","","","","","","null","","893.1000000238419","","2","0","null","null","arrowup","[0.325,0.675,0.15,0.85]","","",""
"sailing-trial","45","417924","0.0-11.0-10.0","","","","false","","","","","","","","","","463.7999999523163","","189.5","","3","0","arrowright","1","arrowright","[0.325,0.675,0.15,0.85]","","",""
"sailing-trial","46","421324","0.0-11.0-11.0","","","","false","","","","","","","","","","null","","980.5","","0","0","null","null","arrowup","[0.325,0.675,0.15,0.85]","","",""
"sailing-trial","47","424564","0.0-11.0-12.0","","","","false","","","","","","","","","","311.89999997615814","","246","","3","1","arrowright","1","arrowright","[0.325,0.675,0.15,0.85]","","",""
"sailing-trial","48","426502","0.0-11.0-13.0","","","","false","","","","","","","","","","null","","828.3999999761581","","0","0","null","null","arrowup","[0.325,0.675,0.15,0.85]","","",""
"sailing-trial","49","430526","0.0-11.0-14.0","","","","false","","","","","","","","","","485","","316.2999999523163","","3","1","arrowright","1","arrowright","[0.325,0.675,0.15,0.85]","","",""
"sailing-trial","50","432927","0.0-11.0-15.0","","","","false","","","","","","","","","","null","","811.1000000238419","","0","0","null","null","arrowup","[0.325,0.675,0.15,0.85]","","",""
"sailing-trial","51","436668","0.0-11.0-16.0","","","","false","","","","","","","","","","546.1999999284744","","457.10000002384186","","3","1","arrowright","1","arrowright","[0.325,0.675,0.15,0.85]","","",""
"sailing-trial","52","438517","0.0-11.0-17.0","","","","false","","","","","","","","","","null","","789.5","","2","0","null","null","arrowup","[0.325,0.675,0.15,0.85]","","",""
"sailing-trial","53","441588","0.0-11.0-18.0","","","","false","","","","","","","","","","500.39999997615814","","487.2999999523163","","3","0","arrowright","1","arrowright","[0.15,0.85,0.325,0.675]","","",""
"sailing-trial","54","444377","0.0-11.0-19.0","","","","false","","","","","","","","","","null","","1222.7999999523163","","3","1","null","null","arrowup","[0.15,0.85,0.325,0.675]","","",""
"sailing-trial","55","447908","0.0-11.0-20.0","","","","false","","","","","","","","","","520.3000000715256","","257.5","","3","1","arrowright","1","arrowright","[0.15,0.85,0.325,0.675]","","",""
"sailing-trial","56","449756","0.0-11.0-21.0","","","","false","","","","","","","","","","null","","791.8999999761581","","2","0","null","null","arrowup","[0.15,0.85,0.325,0.675]","","",""
"sailing-trial","57","452780","0.0-11.0-22.0","","","","false","","","","","","","","","","541.7999999523163","","358.39999997615814","","3","0","arrowright","1","arrowright","[0.15,0.85,0.325,0.675]","","",""
"sailing-trial","58","455827","0.0-11.0-23.0","","","","false","","","","","","","","","","null","","900.6000000238419","","2","0","null","null","arrowup","[0.15,0.85,0.325,0.675]","","",""
"sailing-trial","59","458725","0.0-11.0-24.0","","","","false","","","","","","","","","","388.60000002384186","","213.79999995231628","","3","0","arrowright","1","arrowright","[0.15,0.85,0.325,0.675]","","",""
"sailing-trial","60","462492","0.0-11.0-25.0","","","","false","","","","","","","","","","null","","1054.7000000476837","","0","0","null","null","arrowup","[0.15,0.85,0.325,0.675]","","",""
"sailing-trial","61","465874","0.0-11.0-26.0","","","","false","","","","","","","","","","501.59999990463257","","157.89999997615814","","3","1","arrowright","1","arrowright","[0.15,0.85,0.325,0.675]","","",""
"sailing-trial","62","467900","0.0-11.0-27.0","","","","false","","","","","","","","","","null","","926.7000000476837","","0","0","null","null","arrowup","[0.15,0.85,0.325,0.675]","","",""
"sailing-trial","63","471267","0.0-11.0-28.0","","","","false","","","","","","","","","","541.3000000715256","","162.39999997615814","","3","0","arrowright","1","arrowright","[0.15,0.85,0.325,0.675]","","",""
"sailing-trial","64","474098","0.0-11.0-29.0","","","","false","","","","","","","","","","null","","1556.6000000238419","","0","0","null","null","arrowup","[0.15,0.85,0.325,0.675]","","",""
"sailing-trial","65","477996","0.0-11.0-30.0","","","","false","","","","","","","","","","641.5","","353.5","","1","1","arrowleft","0","arrowright","[0.15,0.85,0.325,0.675]","","",""
"sailing-trial","66","480525","0.0-11.0-31.0","","","","false","","","","","","","","","","null","","893.3999999761581","","1","1","null","null","arrowup","[0.15,0.85,0.325,0.675]","","",""
"sailing-trial","67","484724","0.0-11.0-32.0","","","","false","","","","","","","","","","677.3999999761581","","672.1000000238419","","1","1","arrowleft","0","arrowright","[0.15,0.85,0.325,0.675]","","",""
"sailing-trial","68","486867","0.0-11.0-33.0","","","","false","","","","","","","","","","null","","988.8000000715256","","0","0","null","null","arrowup","[0.15,0.85,0.325,0.675]","","",""
"sailing-trial","69","490548","0.0-11.0-34.0","","","","false","","","","","","","","","","480","","652","","1","0","arrowleft","0","arrowright","[0.675,0.325,0.85,0.15]","","",""
"sailing-trial","70","492915","0.0-11.0-35.0","","","","false","","","","","","","","","","null","","934.8000000715256","","3","0","null","null","arrowup","[0.675,0.325,0.85,0.15]","","",""
"sailing-trial","71","496394","0.0-11.0-36.0","","","","false","","","","","","","","","","479.8000000715256","","141.10000002384186","","1","1","arrowleft","0","arrowright","[0.675,0.325,0.85,0.15]","","",""
"sailing-trial","72","499022","0.0-11.0-37.0","","","","false","","","","","","","","","","null","","791","","1","0","null","null","arrowup","[0.675,0.325,0.85,0.15]","","",""
"sailing-trial","73","502803","0.0-11.0-38.0","","","","false","","","","","","","","","","515.3000000715256","","843.0999999046326","","1","0","arrowleft","0","arrowright","[0.675,0.325,0.85,0.15]","","",""
"sailing-trial","74","505534","0.0-11.0-39.0","","","","false","","","","","","","","","","null","","997.6999999284744","","1","1","null","null","arrowup","[0.675,0.325,0.85,0.15]","","",""
"sailing-trial","75","508948","0.0-11.0-40.0","","","","false","","","","","","","","","","620.6999999284744","","148.10000002384186","","2","1","arrowright","1","arrowleft","[0.675,0.325,0.85,0.15]","","",""
"sailing-trial","76","511101","0.0-11.0-41.0","","","","false","","","","","","","","","","null","","895","","0","0","null","null","arrowup","[0.675,0.325,0.85,0.15]","","",""
"sailing-trial","77","515145","0.0-11.0-42.0","","","","false","","","","","","","","","","866.2999999523163","","164.5","","2","1","arrowright","1","arrowleft","[0.675,0.325,0.85,0.15]","","",""
"sailing-trial","78","518006","0.0-11.0-43.0","","","","false","","","","","","","","","","null","","1047.7999999523163","","1","1","null","null","arrowup","[0.675,0.325,0.85,0.15]","","",""
"sailing-trial","79","522386","0.0-11.0-44.0","","","","false","","","","","","","","","","1414.6000000238419","","154.79999995231628","","0","1","arrowleft","0","arrowleft","[0.675,0.325,0.85,0.15]","","",""
"sailing-trial","80","525398","0.0-11.0-45.0","","","","false","","","","","","","","","","null","","959.8000000715256","","2","1","null","null","arrowup","[0.675,0.325,0.85,0.15]","","",""
"sailing-trial","81","529594","0.0-11.0-46.0","","","","false","","","","","","","","","","809.8999999761581","","528.6000000238419","","0","1","arrowleft","0","arrowleft","[0.675,0.325,0.85,0.15]","","",""
"sailing-trial","82","532187","0.0-11.0-47.0","","","","false","","","","","","","","","","null","","856.1000000238419","","0","0","null","null","arrowup","[0.675,0.325,0.85,0.15]","","",""
"sailing-trial","83","535605","0.0-11.0-48.0","","","","false","","","","","","","","","","373.7000000476837","","84.30000007152557","","0","1","arrowleft","0","arrowleft","[0.675,0.325,0.85,0.15]","","",""
"sailing-trial","84","539567","0.0-11.0-49.0","","","","false","","","","","","","","","","null","","939.8999999761581","","1","0","null","null","arrowup","[0.675,0.325,0.85,0.15]","","",""
"sailing-trial","85","543249","0.0-11.0-50.0","","","","false","","","","","","","","","","397.10000002384186","","472.5","","0","1","arrowleft","0","arrowleft","[0.85,0.15,0.675,0.325]","","",""
"sailing-trial","86","546361","0.0-11.0-51.0","","","","false","","","","","","","","","","null","","1313.3999999761581","","2","1","null","null","arrowup","[0.85,0.15,0.675,0.325]","","",""
"sailing-trial","87","550307","0.0-11.0-52.0","","","","false","","","","","","","","","","480","","661.7000000476837","","0","1","arrowleft","0","arrowleft","[0.85,0.15,0.675,0.325]","","",""
"sailing-trial","88","553236","0.0-11.0-53.0","","","","false","","","","","","","","","","null","","919.6999999284744","","2","0","null","null","arrowup","[0.85,0.15,0.675,0.325]","","",""
"sailing-trial","89","557002","0.0-11.0-54.0","","","","false","","","","","","","","","","505.7999999523163","","254.79999995231628","","0","1","arrowleft","0","arrowleft","[0.85,0.15,0.675,0.325]","","",""
"sailing-trial","90","560035","0.0-11.0-55.0","","","","false","","","","","","","","","","null","","878.8000000715256","","1","0","null","null","arrowup","[0.85,0.15,0.675,0.325]","","",""
"sailing-trial","91","564345","0.0-11.0-56.0","","","","false","","","","","","","","","","573.1999999284744","","207.59999990463257","","0","1","arrowleft","0","arrowleft","[0.85,0.15,0.675,0.325]","","",""
"sailing-trial","92","567340","0.0-11.0-57.0","","","","false","","","","","","","","","","null","","1056","","0","1","null","null","arrowup","[0.85,0.15,0.675,0.325]","","",""
"sailing-trial","93","571920","0.0-11.0-58.0","","","","false","","","","","","","","","","1061.8999999761581","","528.2999999523163","","0","1","arrowleft","0","arrowleft","[0.85,0.15,0.675,0.325]","","",""
"sailing-trial","94","576986","0.0-11.0-59.0","","","","false","","","","","","","","","","null","","2043.7999999523163","","3","0","null","null","arrowup","[0.85,0.15,0.675,0.325]","","",""
"sailing-trial","95","580994","0.0-11.0-60.0","","","","false","","","","","","","","","","693.3999999761581","","367.1999999284744","","0","1","arrowleft","0","arrowleft","[0.85,0.15,0.675,0.325]","","",""
"sailing-trial","96","584057","0.0-11.0-61.0","","","","false","","","","","","","","","","null","","1325.8999999761581","","0","1","null","null","arrowup","[0.85,0.15,0.675,0.325]","","",""
"sailing-trial","97","589932","0.0-11.0-62.0","","","","false","","","","","","","","","","3012.0999999046326","","641.6000000238419","","0","0","arrowleft","0","arrowleft","[0.85,0.15,0.675,0.325]","","",""
"sailing-trial","98","593005","0.0-11.0-63.0","","","","false","","","","","","","","","","null","","861.5","","1","0","null","null","arrowup","[0.85,0.15,0.675,0.325]","","",""
"sailing-trial","99","595915","0.0-11.0-64.0","","","","false","","","","","","","","","","779.7000000476837","","49.89999997615814","","0","0","arrowleft","0","arrowleft","[0.85,0.15,0.675,0.325]","","",""
"sailing-trial","100","598626","0.0-11.0-65.0","","","","false","","","","","","","","","","null","","1077.7999999523163","","0","1","null","null","arrowup","[0.85,0.15,0.675,0.325]","","",""
"sailing-trial","101","603505","0.0-11.0-66.0","","","","false","","","","","","","","","","1615.6000000238419","","645.5","","1","1","arrowleft","0","arrowright","[0.85,0.15,0.675,0.325]","","",""
"sailing-trial","102","606718","0.0-11.0-67.0","","","","false","","","","","","","","","","null","","926.8999999761581","","2","1","null","null","arrowup","[0.85,0.15,0.675,0.325]","","",""
"sailing-trial","103","611044","0.0-11.0-68.0","","","","false","","","","","","","","","","1410.6000000238419","","195.60000002384186","","1","0","arrowleft","0","arrowright","[0.85,0.15,0.675,0.325]","","",""
"sailing-trial","104","617259","0.0-11.0-69.0","","","","false","","","","","","","","","","null","","3268.399999976158","","0","1","null","null","arrowup","[0.85,0.15,0.675,0.325]","","",""
"sailing-trial","105","621045","0.0-11.0-70.0","","","","false","","","","","","","","","","729.1000000238419","","504.2000000476837","","1","0","arrowleft","0","arrowright","[0.85,0.15,0.675,0.325]","","",""
"sailing-trial","106","626400","0.0-11.0-71.0","","","","false","","","","","","","","","","null","","1426.3999999761581","","0","1","null","null","arrowup","[0.85,0.15,0.675,0.325]","","",""
"sailing-trial","107","632237","0.0-11.0-72.0","","","","false","","","","","","","","","","1516.8999999761581","","1038.7999999523163","","1","0","arrowleft","0","arrowright","[0.85,0.15,0.675,0.325]","","",""
"sailing-trial","108","637173","0.0-11.0-73.0","","","","false","","","","","","","","","","null","","2416.2999999523163","","0","1","null","null","arrowup","[0.85,0.15,0.675,0.325]","","",""
"sailing-trial","109","641401","0.0-11.0-74.0","","","","false","","","","","","","","","","659.8000000715256","","78.19999992847443","","2","1","arrowright","1","arrowleft","[0.675,0.325,0.85,0.15]","","",""
"sailing-trial","110","644939","0.0-11.0-75.0","","","","false","","","","","","","","","","null","","1487.6000000238419","","0","0","null","null","arrowup","[0.675,0.325,0.85,0.15]","","",""
"sailing-trial","111","649260","0.0-11.0-76.0","","","","false","","","","","","","","","","1334","","270.90000009536743","","2","1","arrowright","1","arrowleft","[0.675,0.325,0.85,0.15]","","",""
"sailing-trial","112","652909","0.0-11.0-77.0","","","","false","","","","","","","","","","null","","2333.5","","0","0","null","null","arrowup","[0.675,0.325,0.85,0.15]","","",""
"sailing-trial","113","656886","0.0-11.0-78.0","","","","false","","","","","","","","","","499.6999999284744","","375.60000002384186","","2","1","arrowright","1","arrowleft","[0.675,0.325,0.85,0.15]","","",""
"sailing-trial","114","659588","0.0-11.0-79.0","","","","false","","","","","","","","","","null","","1074.3000000715256","","1","0","null","null","arrowup","[0.675,0.325,0.85,0.15]","","",""
"sailing-trial","115","663381","0.0-11.0-80.0","","","","false","","","","","","","","","","820.2999999523163","","152.89999997615814","","2","1","arrowright","1","arrowleft","[0.675,0.325,0.85,0.15]","","",""
"sailing-trial","116","665677","0.0-11.0-81.0","","","","false","","","","","","","","","","null","","818.8999999761581","","3","0","null","null","arrowup","[0.675,0.325,0.85,0.15]","","",""
"sailing-trial","117","669109","0.0-11.0-82.0","","","","false","","","","","","","","","","523.6999999284744","","4.600000023841858","","2","1","arrowright","1","arrowleft","[0.675,0.325,0.85,0.15]","","",""
"sailing-trial","118","671688","0.0-11.0-83.0","","","","false","","","","","","","","","","null","","835.7000000476837","","2","1","null","null","arrowup","[0.675,0.325,0.85,0.15]","","",""
"sailing-trial","119","674986","0.0-11.0-84.0","","","","false","","","","","","","","","","312.60000002384186","","314","","2","1","arrowright","1","arrowleft","[0.675,0.325,0.85,0.15]","","",""
"sailing-trial","120","677099","0.0-11.0-85.0","","","","false","","","","","","","","","","null","","1002","","3","0","null","null","arrowup","[0.675,0.325,0.85,0.15]","","",""
"sailing-trial","121","681462","0.0-11.0-86.0","","","","false","","","","","","","","","","1012.6000000238419","","612.2000000476837","","2","1","arrowright","1","arrowleft","[0.675,0.325,0.85,0.15]","","",""
"sailing-trial","122","683837","0.0-11.0-87.0","","","","false","","","","","","","","","","null","","1076.1000000238419","","3","0","null","null","arrowup","[0.675,0.325,0.85,0.15]","","",""
"sailing-trial","123","687389","0.0-11.0-88.0","","","","false","","","","","","","","","","636.1999999284744","","234.80000007152557","","2","1","arrowright","1","arrowleft","[0.675,0.325,0.85,0.15]","","",""
"sailing-trial","124","689939","0.0-11.0-89.0","","","","false","","","","","","","","","","null","","723.7000000476837","","0","1","null","null","arrowup","[0.675,0.325,0.85,0.15]","","",""
"sailing-trial","125","693652","0.0-11.0-90.0","","","","false","","","","","","","","","","479.2999999523163","","363.10000002384186","","2","1","arrowright","1","arrowleft","[0.675,0.325,0.85,0.15]","","",""
"sailing-trial","126","695546","0.0-11.0-91.0","","","","false","","","","","","","","","","null","","590.7000000476837","","3","0","null","null","arrowup","[0.675,0.325,0.85,0.15]","","",""
"sailing-trial","127","698978","0.0-11.0-92.0","","","","false","","","","","","","","","","529.2000000476837","","245.10000002384186","","2","1","arrowright","1","arrowleft","[0.675,0.325,0.85,0.15]","","",""
"sailing-trial","128","700955","0.0-11.0-93.0","","","","false","","","","","","","","","","null","","760.6000000238419","","0","0","null","null","arrowup","[0.675,0.325,0.85,0.15]","","",""
"sailing-trial","129","704209","0.0-11.0-94.0","","","","false","","","","","","","","","","364.89999997615814","","144.19999992847443","","2","1","arrowright","1","arrowleft","[0.85,0.15,0.675,0.325]","","",""
"sailing-trial","130","707404","0.0-11.0-95.0","","","","false","","","","","","","","","","null","","1633.3999999761581","","0","1","null","null","arrowup","[0.85,0.15,0.675,0.325]","","",""
"sailing-trial","131","710534","0.0-11.0-96.0","","","","false","","","","","","","","","","537.5","","15.399999976158142","","2","1","arrowright","1","arrowleft","[0.85,0.15,0.675,0.325]","","",""
"sailing-trial","132","713432","0.0-11.0-97.0","","","","false","","","","","","","","","","null","","915.2999999523163","","2","1","null","null","arrowup","[0.85,0.15,0.675,0.325]","","",""
"sailing-trial","133","716760","0.0-11.0-98.0","","","","false","","","","","","","","","","412.39999997615814","","295.39999997615814","","2","1","arrowright","1","arrowleft","[0.85,0.15,0.675,0.325]","","",""
"sailing-trial","134","719791","0.0-11.0-99.0","","","","false","","","","","","","","","","null","","896.2999999523163","","3","1","null","null","arrowup","[0.85,0.15,0.675,0.325]","","",""
"sailing-trial","135","723087","0.0-11.0-100.0","","","","false","","","","","","","","","","626.8000000715256","","46.89999997615814","","2","1","arrowright","1","arrowleft","[0.85,0.15,0.675,0.325]","","",""
"sailing-trial","136","725355","0.0-11.0-101.0","","","","false","","","","","","","","","","null","","811.8999999761581","","3","0","null","null","arrowup","[0.85,0.15,0.675,0.325]","","",""
"sailing-trial","137","728800","0.0-11.0-102.0","","","","false","","","","","","","","","","437.39999997615814","","379.7999999523163","","2","1","arrowright","1","arrowleft","[0.85,0.15,0.675,0.325]","","",""
"sailing-trial","138","730563","0.0-11.0-103.0","","","","false","","","","","","","","","","null","","712.9000000953674","","2","0","null","null","arrowup","[0.85,0.15,0.675,0.325]","","",""
"sailing-trial","139","734528","0.0-11.0-104.0","","","","false","","","","","","","","","","861.1999999284744","","32.90000009536743","","2","1","arrowright","1","arrowleft","[0.85,0.15,0.675,0.325]","","",""
"sailing-trial","140","737074","0.0-11.0-105.0","","","","false","","","","","","","","","","null","","1004.5","","3","0","null","null","arrowup","[0.85,0.15,0.675,0.325]","","",""
"sailing-trial","141","740871","0.0-11.0-106.0","","","","false","","","","","","","","","","726.8000000715256","","152.5","","2","1","arrowright","1","arrowleft","[0.85,0.15,0.675,0.325]","","",""
"sailing-trial","142","744434","0.0-11.0-107.0","","","","false","","","","","","","","","","null","","1354.2999999523163","","2","1","null","null","arrowup","[0.85,0.15,0.675,0.325]","","",""
"sailing-trial","143","749951","0.0-11.0-108.0","","","","false","","","","","","","","","","1569.6000000238419","","801.3999999761581","","2","0","arrowright","1","arrowleft","[0.85,0.15,0.675,0.325]","","",""
"sailing-trial","144","752059","0.0-11.0-109.0","","","","false","","","","","","","","","","null","","936.5999999046326","","3","0","null","null","arrowup","[0.85,0.15,0.675,0.325]","","",""
"sailing-trial","145","755475","0.0-11.0-110.0","","","","false","","","","","","","","","","505.09999990463257","","316","","0","0","arrowleft","0","arrowleft","[0.85,0.15,0.675,0.325]","","",""
"sailing-trial","146","757603","0.0-11.0-111.0","","","","false","","","","","","","","","","null","","957.6999999284744","","3","0","null","null","arrowup","[0.85,0.15,0.675,0.325]","","",""
"sailing-trial","147","761501","0.0-11.0-112.0","","","","false","","","","","","","","","","632.7999999523163","","489.89999997615814","","1","1","arrowleft","0","arrowright","[0.15,0.85,0.325,0.675]","","",""
"sailing-trial","148","764516","0.0-11.0-113.0","","","","false","","","","","","","","","","null","","1044","","3","1","null","null","arrowup","[0.15,0.85,0.325,0.675]","","",""
"sailing-trial","149","768260","0.0-11.0-114.0","","","","false","","","","","","","","","","676.7000000476837","","411.3000000715256","","1","1","arrowleft","0","arrowright","[0.15,0.85,0.325,0.675]","","",""
"sailing-trial","150","770618","0.0-11.0-115.0","","","","false","","","","","","","","","","null","","888.8999999761581","","0","0","null","null","arrowup","[0.15,0.85,0.325,0.675]","","",""
"sailing-trial","151","778502","0.0-11.0-116.0","","","","false","","","","","","","","","","3718.5999999046326","","837.7000000476837","","1","1","arrowleft","0","arrowright","[0.15,0.85,0.325,0.675]","","",""
"sailing-trial","152","783763","0.0-11.0-117.0","","","","false","","","","","","","","","","null","","2476.2000000476837","","1","1","null","null","arrowup","[0.15,0.85,0.325,0.675]","","",""
"sailing-trial","153","788641","0.0-11.0-118.0","","","","false","","","","","","","","","","1918.1000000238419","","65.5","","1","1","arrowleft","0","arrowright","[0.15,0.85,0.325,0.675]","","",""
"sailing-trial","154","793370","0.0-11.0-119.0","","","","false","","","","","","","","","","null","","2373.1999999284744","","1","1","null","null","arrowup","[0.15,0.85,0.325,0.675]","","",""
"sailing-trial","155","797798","0.0-11.0-120.0","","","","false","","","","","","","","","","1286.3999999761581","","291.2999999523163","","1","1","arrowleft","0","arrowright","[0.15,0.85,0.325,0.675]","","",""
"sailing-trial","156","801995","0.0-11.0-121.0","","","","false","","","","","","","","","","null","","1466.8000000715256","","1","1","null","null","arrowup","[0.15,0.85,0.325,0.675]","","",""
"sailing-trial","157","806625","0.0-11.0-122.0","","","","false","","","","","","","","","","1477.5","","410.10000002384186","","1","1","arrowleft","0","arrowright","[0.15,0.85,0.325,0.675]","","",""
"sailing-trial","158","810420","0.0-11.0-123.0","","","","false","","","","","","","","","","null","","1728.1000000238419","","1","1","null","null","arrowup","[0.15,0.85,0.325,0.675]","","",""
"sailing-trial","159","815248","0.0-11.0-124.0","","","","false","","","","","","","","","","1601.6999999284744","","502.1999999284744","","1","1","arrowleft","0","arrowright","[0.15,0.85,0.325,0.675]","","",""
"sailing-trial","160","819388","0.0-11.0-125.0","","","","false","","","","","","","","","","null","","1250.7000000476837","","1","0","null","null","arrowup","[0.15,0.85,0.325,0.675]","","",""
"sailing-trial","161","823526","0.0-11.0-126.0","","","","false","","","","","","","","","","752.9000000953674","","680.2999999523163","","1","0","arrowleft","0","arrowright","[0.15,0.85,0.325,0.675]","","",""
"sailing-trial","162","826138","0.0-11.0-127.0","","","","false","","","","","","","","","","null","","994.8000000715256","","1","1","null","null","arrowup","[0.15,0.85,0.325,0.675]","","",""
"sailing-trial","163","829537","0.0-11.0-128.0","","","","false","","","","","","","","","","495.89999997615814","","178.69999992847443","","0","1","arrowleft","0","arrowleft","[0.15,0.85,0.325,0.675]","","",""
"sailing-trial","164","833498","0.0-11.0-129.0","","","","false","","","","","","","","","","null","","1753.1000000238419","","1","1","null","null","arrowup","[0.15,0.85,0.325,0.675]","","",""
"sailing-trial","165","836934","0.0-11.0-130.0","","","","false","","","","","","","","","","773.6999999284744","","155.19999992847443","","0","0","arrowleft","0","arrowleft","[0.325,0.675,0.15,0.85]","","",""
"sailing-trial","166","839763","0.0-11.0-131.0","","","","false","","","","","","","","","","null","","1186.5999999046326","","0","0","null","null","arrowup","[0.325,0.675,0.15,0.85]","","",""
"sailing-trial","167","843236","0.0-11.0-132.0","","","","false","","","","","","","","","","877.7999999523163","","212.89999997615814","","2","0","arrowright","1","arrowleft","[0.325,0.675,0.15,0.85]","","",""
"sailing-trial","168","845917","0.0-11.0-133.0","","","","false","","","","","","","","","","null","","994.8999999761581","","0","1","null","null","arrowup","[0.325,0.675,0.15,0.85]","","",""
"sailing-trial","169","849381","0.0-11.0-134.0","","","","false","","","","","","","","","","691.1999999284744","","71.89999997615814","","3","1","arrowright","1","arrowright","[0.325,0.675,0.15,0.85]","","",""
"sailing-trial","170","852078","0.0-11.0-135.0","","","","false","","","","","","","","","","null","","973.2000000476837","","3","1","null","null","arrowup","[0.325,0.675,0.15,0.85]","","",""
"sailing-trial","171","855539","0.0-11.0-136.0","","","","false","","","","","","","","","","930.2999999523163","","196.79999995231628","","3","0","arrowright","1","arrowright","[0.325,0.675,0.15,0.85]","","",""
"sailing-trial","172","857707","0.0-11.0-137.0","","","","false","","","","","","","","","","null","","839","","0","0","null","null","arrowup","[0.325,0.675,0.15,0.85]","","",""
"sailing-trial","173","861257","0.0-11.0-138.0","","","","false","","","","","","","","","","805.5","","270.7000000476837","","2","0","arrowright","1","arrowleft","[0.325,0.675,0.15,0.85]","","",""
"sailing-trial","174","864283","0.0-11.0-139.0","","","","false","","","","","","","","","","null","","910.8999999761581","","3","1","null","null","arrowup","[0.325,0.675,0.15,0.85]","","",""
"sailing-trial","175","867510","0.0-11.0-140.0","","","","false","","","","","","","","","","741","","189.60000002384186","","1","0","arrowleft","0","arrowright","[0.325,0.675,0.15,0.85]","","",""
"sailing-trial","176","870236","0.0-11.0-141.0","","","","false","","","","","","","","","","null","","900.2999999523163","","0","0","null","null","arrowup","[0.325,0.675,0.15,0.85]","","",""
"sailing-trial","177","873268","0.0-11.0-142.0","","","","false","","","","","","","","","","561.8999999761581","","84.89999997615814","","0","0","arrowleft","0","arrowleft","[0.325,0.675,0.15,0.85]","","",""
"sailing-trial","178","875315","0.0-11.0-143.0","","","","false","","","","","","","","","","null","","750.3999999761581","","2","0","null","null","arrowup","[0.325,0.675,0.15,0.85]","","",""
"sailing-trial","179","879102","0.0-11.0-144.0","","","","false","","","","","","","","","","709.6000000238419","","401.5","","1","1","arrowleft","0","arrowright","[0.325,0.675,0.15,0.85]","","",""
"sailing-trial","180","881951","0.0-11.0-145.0","","","","false","","","","","","","","","","null","","955.6999999284744","","1","1","null","null","arrowup","[0.325,0.675,0.15,0.85]","","",""
"sailing-trial","181","886245","0.0-11.0-146.0","","","","false","","","","","","","","","","569.8999999761581","","787.7000000476837","","1","1","arrowleft","0","arrowright","[0.325,0.675,0.15,0.85]","","",""
"sailing-trial","182","890676","0.0-11.0-147.0","","","","false","","","","","","","","","","null","","2596.399999976158","","2","1","null","null","arrowup","[0.325,0.675,0.15,0.85]","","",""
"sailing-trial","183","893972","0.0-11.0-148.0","","","","false","","","","","","","","","","596.2999999523163","","255.60000002384186","","2","0","arrowright","1","arrowleft","[0.15,0.85,0.325,0.675]","","",""
"sailing-trial","184","896174","0.0-11.0-149.0","","","","false","","","","","","","","","","null","","884.2000000476837","","2","0","null","null","arrowup","[0.15,0.85,0.325,0.675]","","",""
"sailing-trial","185","899433","0.0-11.0-150.0","","","","false","","","","","","","","","","611.8999999761581","","40.40000009536743","","1","1","arrowleft","0","arrowright","[0.15,0.85,0.325,0.675]","","",""
"sailing-trial","186","902402","0.0-11.0-151.0","","","","false","","","","","","","","","","null","","830.1000000238419","","0","0","null","null","arrowup","[0.15,0.85,0.325,0.675]","","",""
"sailing-trial","187","906326","0.0-11.0-152.0","","","","false","","","","","","","","","","758.2000000476837","","348.5","","1","1","arrowleft","0","arrowright","[0.15,0.85,0.325,0.675]","","",""
"sailing-trial","188","909257","0.0-11.0-153.0","","","","false","","","","","","","","","","null","","923.1000000238419","","1","1","null","null","arrowup","[0.15,0.85,0.325,0.675]","","",""
"sailing-trial","189","912968","0.0-11.0-154.0","","","","false","","","","","","","","","","818.3000000715256","","313.60000002384186","","1","1","arrowleft","0","arrowright","[0.15,0.85,0.325,0.675]","","",""
"sailing-trial","190","915782","0.0-11.0-155.0","","","","false","","","","","","","","","","null","","928.1000000238419","","1","1","null","null","arrowup","[0.15,0.85,0.325,0.675]","","",""
"sailing-trial","191","920179","0.0-11.0-156.0","","","","false","","","","","","","","","","1316.0999999046326","","197","","1","1","arrowleft","0","arrowright","[0.15,0.85,0.325,0.675]","","",""
"sailing-trial","192","922842","0.0-11.0-157.0","","","","false","","","","","","","","","","null","","918.6999999284744","","3","1","null","null","arrowup","[0.15,0.85,0.325,0.675]","","",""
"sailing-trial","193","926757","0.0-11.0-158.0","","","","false","","","","","","","","","","646.7000000476837","","262.5","","1","1","arrowleft","0","arrowright","[0.15,0.85,0.325,0.675]","","",""
"sailing-trial","194","931140","0.0-11.0-159.0","","","","false","","","","","","","","","","null","","2514.399999976158","","2","0","null","null","arrowup","[0.15,0.85,0.325,0.675]","","",""
"sailing-trial","195","934798","0.0-11.0-160.0","","","","false","","","","","","","","","","726.7999999523163","","91.89999997615814","","1","1","arrowleft","0","arrowright","[0.15,0.85,0.325,0.675]","","",""
"sailing-trial","196","937962","0.0-11.0-161.0","","","","false","","","","","","","","","","null","","1841.7999999523163","","0","0","null","null","arrowup","[0.15,0.85,0.325,0.675]","","",""
"sailing-trial","197","942041","0.0-11.0-162.0","","","","false","","","","","","","","","","1196.9000000953674","","31","","1","1","arrowleft","0","arrowright","[0.15,0.85,0.325,0.675]","","",""
"sailing-trial","198","944044","0.0-11.0-163.0","","","","false","","","","","","","","","","null","","760.6000000238419","","2","0","null","null","arrowup","[0.15,0.85,0.325,0.675]","","",""
"sailing-trial","199","950815","0.0-11.0-164.0","","","","false","","","","","","","","","","637","","1511.7999999523163","","1","1","arrowleft","0","arrowright","[0.15,0.85,0.325,0.675]","","",""
"sailing-trial","200","954810","0.0-11.0-165.0","","","","false","","","","","","","","","","null","","1949.2000000476837","","3","1","null","null","arrowup","[0.15,0.85,0.325,0.675]","","",""
"sailing-trial","201","958392","0.0-11.0-166.0","","","","false","","","","","","","","","","737.5","","232.70000004768372","","1","1","arrowleft","0","arrowright","[0.15,0.85,0.325,0.675]","","",""
"sailing-trial","202","960346","0.0-11.0-167.0","","","","false","","","","","","","","","","null","","839.4000000953674","","2","0","null","null","arrowup","[0.15,0.85,0.325,0.675]","","",""
"sailing-trial","203","964352","0.0-11.0-168.0","","","","false","","","","","","","","","","654.1999999284744","","492.89999997615814","","1","1","arrowleft","0","arrowright","[0.15,0.85,0.325,0.675]","","",""
"sailing-trial","204","967215","0.0-11.0-169.0","","","","false","","","","","","","","","","null","","1142.8000000715256","","1","1","null","null","arrowup","[0.15,0.85,0.325,0.675]","","",""
"sailing-trial","205","970994","0.0-11.0-170.0","","","","false","","","","","","","","","","681.2000000476837","","525","","1","1","arrowleft","0","arrowright","[0.325,0.675,0.15,0.85]","","",""
"sailing-trial","206","973693","0.0-11.0-171.0","","","","false","","","","","","","","","","null","","926.3999999761581","","1","1","null","null","arrowup","[0.325,0.675,0.15,0.85]","","",""
"sailing-trial","207","977476","0.0-11.0-172.0","","","","false","","","","","","","","","","866.9000000953674","","227.80000007152557","","1","0","arrowleft","0","arrowright","[0.325,0.675,0.15,0.85]","","",""
"sailing-trial","208","981487","0.0-11.0-173.0","","","","false","","","","","","","","","","null","","975.3000000715256","","2","0","null","null","arrowup","[0.325,0.675,0.15,0.85]","","",""
"sailing-trial","209","985415","0.0-11.0-174.0","","","","false","","","","","","","","","","1144.8999999761581","","132.70000004768372","","2","1","arrowright","1","arrowleft","[0.325,0.675,0.15,0.85]","","",""
"sailing-trial","210","988011","0.0-11.0-175.0","","","","false","","","","","","","","","","null","","930.3999999761581","","3","1","null","null","arrowup","[0.325,0.675,0.15,0.85]","","",""
"sailing-trial","211","994039","0.0-11.0-176.0","","","","false","","","","","","","","","","861.6000000238419","","2481.9000000953674","","2","1","arrowright","1","arrowleft","[0.325,0.675,0.15,0.85]","","",""
"sailing-trial","212","996786","0.0-11.0-177.0","","","","false","","","","","","","","","","null","","849","","1","1","null","null","arrowup","[0.325,0.675,0.15,0.85]","","",""
"sailing-trial","213","1000227","0.0-11.0-178.0","","","","false","","","","","","","","","","576.1000000238419","","647.6000000238419","","2","0","arrowright","1","arrowleft","[0.325,0.675,0.15,0.85]","","",""
"sailing-trial","214","1002610","0.0-11.0-179.0","","","","false","","","","","","","","","","null","","916.7000000476837","","1","0","null","null","arrowup","[0.325,0.675,0.15,0.85]","","",""
"sailing-trial","215","1006012","0.0-11.0-180.0","","","","false","","","","","","","","","","537.4000000953674","","219","","3","1","arrowright","1","arrowright","[0.325,0.675,0.15,0.85]","","",""
"sailing-trial","216","1009258","0.0-11.0-181.0","","","","false","","","","","","","","","","null","","1496.3999999761581","","3","1","null","null","arrowup","[0.325,0.675,0.15,0.85]","","",""
"sailing-trial","217","1013855","0.0-11.0-182.0","","","","false","","","","","","","","","","983.5","","798.5","","3","1","arrowright","1","arrowright","[0.325,0.675,0.15,0.85]","","",""
"sailing-trial","218","1017135","0.0-11.0-183.0","","","","false","","","","","","","","","","null","","1067.1000000238419","","0","1","null","null","arrowup","[0.325,0.675,0.15,0.85]","","",""
"sailing-trial","219","1021147","0.0-11.0-184.0","","","","false","","","","","","","","","","823.6000000238419","","290.10000002384186","","3","1","arrowright","1","arrowright","[0.325,0.675,0.15,0.85]","","",""
"sailing-trial","220","1025220","0.0-11.0-185.0","","","","false","","","","","","","","","","null","","2575.5","","2","0","null","null","arrowup","[0.325,0.675,0.15,0.85]","","",""
"sailing-trial","221","1030837","0.0-11.0-186.0","","","","false","","","","","","","","","","931.8000000715256","","1867.3999999761581","","3","1","arrowright","1","arrowright","[0.325,0.675,0.15,0.85]","","",""
"sailing-trial","222","1033324","0.0-11.0-187.0","","","","false","","","","","","","","","","null","","861.9000000953674","","2","0","null","null","arrowup","[0.325,0.675,0.15,0.85]","","",""
"sailing-trial","223","1037482","0.0-11.0-188.0","","","","false","","","","","","","","","","687.8999999761581","","862","","3","1","arrowright","1","arrowright","[0.325,0.675,0.15,0.85]","","",""
"sailing-trial","224","1040565","0.0-11.0-189.0","","","","false","","","","","","","","","","null","","1088.5","","2","0","null","null","arrowup","[0.325,0.675,0.15,0.85]","","",""
"sailing-trial","225","1044474","0.0-11.0-190.0","","","","false","","","","","","","","","","540","","545.8000000715256","","3","1","arrowright","1","arrowright","[0.325,0.675,0.15,0.85]","","",""
"sailing-trial","226","1047091","0.0-11.0-191.0","","","","false","","","","","","","","","","null","","855.2999999523163","","2","0","null","null","arrowup","[0.325,0.675,0.15,0.85]","","",""
"sailing-trial","227","1050124","0.0-11.0-192.0","","","","false","","","","","","","","","","549.5999999046326","","417.3000000715256","","3","0","arrowright","1","arrowright","[0.675,0.325,0.85,0.15]","","",""
"sailing-trial","228","1053697","0.0-11.0-193.0","","","","false","","","","","","","","","","null","","1598.7000000476837","","2","1","null","null","arrowup","[0.675,0.325,0.85,0.15]","","",""
"sailing-trial","229","1057037","0.0-11.0-194.0","","","","false","","","","","","","","","","807.7000000476837","","241.90000009536743","","0","0","arrowleft","0","arrowleft","[0.675,0.325,0.85,0.15]","","",""
"sailing-trial","230","1059170","0.0-11.0-195.0","","","","false","","","","","","","","","","null","","1092","","1","0","null","null","arrowup","[0.675,0.325,0.85,0.15]","","",""
"sailing-trial","231","1063023","0.0-11.0-196.0","","","","false","","","","","","","","","","593.7999999523163","","217","","1","1","arrowleft","0","arrowright","[0.675,0.325,0.85,0.15]","","",""
"sailing-trial","232","1066104","0.0-11.0-197.0","","","","false","","","","","","","","","","null","","929.7999999523163","","0","1","null","null","arrowup","[0.675,0.325,0.85,0.15]","","",""
"sailing-trial","233","1069197","0.0-11.0-198.0","","","","false","","","","","","","","","","760.6000000238419","","75.89999997615814","","1","0","arrowleft","0","arrowright","[0.675,0.325,0.85,0.15]","","",""
"sailing-trial","234","1071695","0.0-11.0-199.0","","","","false","","","","","","","","","","null","","979.6999999284744","","0","0","null","null","arrowup","[0.675,0.325,0.85,0.15]","","",""
"sailing-trial","235","1075244","0.0-11.0-200.0","","","","false","","","","","","","","","","931.3999999761581","","25.700000047683716","","2","1","arrowright","1","arrowleft","[0.675,0.325,0.85,0.15]","","",""
"sailing-trial","236","1080209","0.0-11.0-201.0","","","","false","","","","","","","","","","null","","1931.5","","3","0","null","null","arrowup","[0.675,0.325,0.85,0.15]","","",""
"sailing-trial","237","1084301","0.0-11.0-202.0","","","","false","","","","","","","","","","800.6000000238419","","361.39999997615814","","2","1","arrowright","1","arrowleft","[0.675,0.325,0.85,0.15]","","",""
"sailing-trial","238","1086714","0.0-11.0-203.0","","","","false","","","","","","","","","","null","","861.6000000238419","","1","0","null","null","arrowup","[0.675,0.325,0.85,0.15]","","",""
"sailing-trial","239","1090380","0.0-11.0-204.0","","","","false","","","","","","","","","","782.6000000238419","","678.0999999046326","","2","0","arrowright","1","arrowleft","[0.675,0.325,0.85,0.15]","","",""
"sailing-trial","240","1092876","0.0-11.0-205.0","","","","false","","","","","","","","","","null","","899.9000000953674","","0","1","null","null","arrowup","[0.675,0.325,0.85,0.15]","","",""
"sailing-trial","241","1097036","0.0-11.0-206.0","","","","false","","","","","","","","","","517.1000000238419","","868.8999999761581","","3","1","arrowright","1","arrowright","[0.675,0.325,0.85,0.15]","","",""
"sailing-trial","242","1100266","0.0-11.0-207.0","","","","false","","","","","","","","","","null","","1399","","2","0","null","null","arrowup","[0.675,0.325,0.85,0.15]","","",""
"sailing-trial","243","1103379","0.0-11.0-208.0","","","","false","","","","","","","","","","576.8000000715256","","299","","3","0","arrowright","1","arrowright","[0.675,0.325,0.85,0.15]","","",""
"sailing-trial","244","1105747","0.0-11.0-209.0","","","","false","","","","","","","","","","null","","658.3999999761581","","1","1","null","null","arrowup","[0.675,0.325,0.85,0.15]","","",""
"sailing-trial","245","1109294","0.0-11.0-210.0","","","","false","","","","","","","","","","640.6000000238419","","202.10000002384186","","0","1","arrowleft","0","arrowleft","[0.675,0.325,0.85,0.15]","","",""
"sailing-trial","246","1112256","0.0-11.0-211.0","","","","false","","","","","","","","","","null","","1258.7000000476837","","0","1","null","null","arrowup","[0.675,0.325,0.85,0.15]","","",""
"sailing-trial","247","1115565","0.0-11.0-212.0","","","","false","","","","","","","","","","936.8000000715256","","195.60000002384186","","0","0","arrowleft","0","arrowleft","[0.15,0.85,0.325,0.675]","","",""
"sailing-trial","248","1117781","0.0-11.0-213.0","","","","false","","","","","","","","","","null","","948.8999999761581","","0","0","null","null","arrowup","[0.15,0.85,0.325,0.675]","","",""
"sailing-trial","249","1122048","0.0-11.0-214.0","","","","false","","","","","","","","","","762.2999999523163","","586.1000000238419","","1","1","arrowleft","0","arrowright","[0.15,0.85,0.325,0.675]","","",""
"sailing-trial","250","1125844","0.0-11.0-215.0","","","","false","","","","","","","","","","null","","1823.5","","1","1","null","null","arrowup","[0.15,0.85,0.325,0.675]","","",""
"sailing-trial","251","1130090","0.0-11.0-216.0","","","","false","","","","","","","","","","725.3999999761581","","303","","1","1","arrowleft","0","arrowright","[0.15,0.85,0.325,0.675]","","",""
"sailing-trial","252","1133169","0.0-11.0-217.0","","","","false","","","","","","","","","","null","","1288.0999999046326","","3","1","null","null","arrowup","[0.15,0.85,0.325,0.675]","","",""
"sailing-trial","253","1136851","0.0-11.0-218.0","","","","false","","","","","","","","","","1425.8999999761581","","165.60000002384186","","2","0","arrowright","1","arrowleft","[0.15,0.85,0.325,0.675]","","",""
"sailing-trial","254","1138965","0.0-11.0-219.0","","","","false","","","","","","","","","","null","","904.1000000238419","","1","0","null","null","arrowup","[0.15,0.85,0.325,0.675]","","",""
"sailing-trial","255","1144992","0.0-11.0-220.0","","","","false","","","","","","","","","","2349.2000000476837","","807.4000000953674","","3","1","arrowright","1","arrowright","[0.15,0.85,0.325,0.675]","","",""
"sailing-trial","256","1149273","0.0-11.0-221.0","","","","false","","","","","","","","","","null","","1255.3999999761581","","2","0","null","null","arrowup","[0.15,0.85,0.325,0.675]","","",""
"sailing-trial","257","1152534","0.0-11.0-222.0","","","","false","","","","","","","","","","416.7000000476837","","94.69999992847443","","3","1","arrowright","1","arrowright","[0.15,0.85,0.325,0.675]","","",""
"sailing-trial","258","1155431","0.0-11.0-223.0","","","","false","","","","","","","","","","null","","1020.7000000476837","","3","1","null","null","arrowup","[0.15,0.85,0.325,0.675]","","",""
"sailing-trial","259","1159095","0.0-11.0-224.0","","","","false","","","","","","","","","","475.60000002384186","","388.60000002384186","","3","1","arrowright","1","arrowright","[0.15,0.85,0.325,0.675]","","",""
"sailing-trial","260","1162707","0.0-11.0-225.0","","","","false","","","","","","","","","","null","","1848.5","","3","1","null","null","arrowup","[0.15,0.85,0.325,0.675]","","",""
"sailing-trial","261","1166619","0.0-11.0-226.0","","","","false","","","","","","","","","","1044.5","","549.6999999284744","","3","0","arrowright","1","arrowright","[0.15,0.85,0.325,0.675]","","",""
"sailing-trial","262","1169418","0.0-11.0-227.0","","","","false","","","","","","","","","","null","","964.7999999523163","","1","1","null","null","arrowup","[0.15,0.85,0.325,0.675]","","",""
"sailing-trial","263","1172764","0.0-11.0-228.0","","","","false","","","","","","","","","","662.2000000476837","","46.199999928474426","","0","1","arrowleft","0","arrowleft","[0.85,0.15,0.675,0.325]","","",""
"sailing-trial","264","1175460","0.0-11.0-229.0","","","","false","","","","","","","","","","null","","909.7999999523163","","0","1","null","null","arrowup","[0.85,0.15,0.675,0.325]","","",""
"sailing-trial","265","1179658","0.0-11.0-230.0","","","","false","","","","","","","","","","611.7999999523163","","344.6999999284744","","0","1","arrowleft","0","arrowleft","[0.85,0.15,0.675,0.325]","","",""
"sailing-trial","266","1182232","0.0-11.0-231.0","","","","false","","","","","","","","","","null","","1221.5","","0","0","null","null","arrowup","[0.85,0.15,0.675,0.325]","","",""
"sailing-trial","267","1186685","0.0-11.0-232.0","","","","false","","","","","","","","","","609.1000000238419","","674.3999999761581","","0","1","arrowleft","0","arrowleft","[0.85,0.15,0.675,0.325]","","",""
"sailing-trial","268","1190081","0.0-11.0-233.0","","","","false","","","","","","","","","","null","","1403.6000000238419","","0","1","null","null","arrowup","[0.85,0.15,0.675,0.325]","","",""
"sailing-trial","269","1193529","0.0-11.0-234.0","","","","false","","","","","","","","","","629","","101.89999997615814","","0","1","arrowleft","0","arrowleft","[0.85,0.15,0.675,0.325]","","",""
"sailing-trial","270","1198340","0.0-11.0-235.0","","","","false","","","","","","","","","","null","","2447.7000000476837","","3","0","null","null","arrowup","[0.85,0.15,0.675,0.325]","","",""
"sailing-trial","271","1205499","0.0-11.0-236.0","","","","false","","","","","","","","","","2045","","1757.2000000476837","","0","0","arrowleft","0","arrowleft","[0.85,0.15,0.675,0.325]","","",""
"sailing-trial","272","1208705","0.0-11.0-237.0","","","","false","","","","","","","","","","null","","1446.6000000238419","","1","0","null","null","arrowup","[0.85,0.15,0.675,0.325]","","",""
"sailing-trial","273","1213058","0.0-11.0-238.0","","","","false","","","","","","","","","","1474.6000000238419","","565.7000000476837","","1","0","arrowleft","0","arrowright","[0.85,0.15,0.675,0.325]","","",""
"sailing-trial","274","1215394","0.0-11.0-239.0","","","","false","","","","","","","","","","null","","921.5","","1","0","null","null","arrowup","[0.85,0.15,0.675,0.325]","","",""
"sailing-trial","275","1219370","0.0-11.0-240.0","","","","false","","","","","","","","","","814.8999999761581","","438.59999990463257","","2","1","arrowright","1","arrowleft","[0.85,0.15,0.675,0.325]","","",""
"sailing-trial","276","1223918","0.0-11.0-241.0","","","","false","","","","","","","","","","null","","1550.8999999761581","","1","0","null","null","arrowup","[0.85,0.15,0.675,0.325]","","",""
"sailing-trial","277","1229747","0.0-11.0-242.0","","","","false","","","","","","","","","","3324.2000000476837","","333.7000000476837","","2","0","arrowright","1","arrowleft","[0.85,0.15,0.675,0.325]","","",""
"sailing-trial","278","1232208","0.0-11.0-243.0","","","","false","","","","","","","","","","null","","869.3999999761581","","0","1","null","null","arrowup","[0.85,0.15,0.675,0.325]","","",""
"sailing-trial","279","1235886","0.0-11.0-244.0","","","","false","","","","","","","","","","690","","70","","1","1","arrowleft","0","arrowright","[0.675,0.325,0.85,0.15]","","",""
"sailing-trial","280","1237718","0.0-11.0-245.0","","","","false","","","","","","","","","","null","","739.8999999761581","","0","0","null","null","arrowup","[0.675,0.325,0.85,0.15]","","",""
"sailing-trial","281","1240451","0.0-11.0-246.0","","","","false","","","","","","","","","","610","","0.5","","1","0","arrowleft","0","arrowright","[0.675,0.325,0.85,0.15]","","",""
"sailing-trial","282","1242707","0.0-11.0-247.0","","","","false","","","","","","","","","","null","","1062.1000000238419","","3","0","null","null","arrowup","[0.675,0.325,0.85,0.15]","","",""
"sailing-trial","283","1245619","0.0-11.0-248.0","","","","false","","","","","","","","","","542","","201.5","","3","0","arrowright","1","arrowright","[0.675,0.325,0.85,0.15]","","",""
"sailing-trial","284","1248240","0.0-11.0-249.0","","","","false","","","","","","","","","","null","","750","","2","1","null","null","arrowup","[0.675,0.325,0.85,0.15]","","",""
"sailing-trial","285","1252104","0.0-11.0-250.0","","","","false","","","","","","","","","","463.8000000715256","","420.1999999284744","","0","1","arrowleft","0","arrowleft","[0.675,0.325,0.85,0.15]","","",""
"sailing-trial","286","1255779","0.0-11.0-251.0","","","","false","","","","","","","","","","null","","1808.2999999523163","","3","0","null","null","arrowup","[0.675,0.325,0.85,0.15]","","",""
"sailing-trial","287","1259283","0.0-11.0-252.0","","","","false","","","","","","","","","","1086.8999999761581","","244.70000004768372","","0","0","arrowleft","0","arrowleft","[0.675,0.325,0.85,0.15]","","",""
"sailing-trial","288","1265623","0.0-11.0-253.0","","","","false","","","","","","","","","","null","","2988.5","","0","1","null","null","arrowup","[0.675,0.325,0.85,0.15]","","",""
"sailing-trial","289","1269503","0.0-11.0-254.0","","","","false","","","","","","","","","","1226.2999999523163","","2.1999999284744263","","0","1","arrowleft","0","arrowleft","[0.675,0.325,0.85,0.15]","","",""
"sailing-trial","290","1273652","0.0-11.0-255.0","","","","false","","","","[{""event"":""fullscreenenter"",""trial"":3,""time"":25009},{""event"":""blur"",""trial"":291,""time"":1275925},{""event"":""focus"",""trial"":291,""time"":1276995}]","false","","","","","null","","1138.5999999046326","","1","0","null","null","arrowup","[0.675,0.325,0.85,0.15]","","",""
"sailing-trial","291","1280236","0.0-11.0-256.0","","","","false","","","","","","","","","","4164.900000095367","","308.2000000476837","","0","0","arrowleft","0","arrowleft","[0.675,0.325,0.85,0.15]","","",""
"sailing-trial","292","1282178","0.0-11.0-257.0","","","","false","","","","","","","","","","null","","816.6999999284744","","0","0","null","null","arrowup","[0.675,0.325,0.85,0.15]","","",""
"sailing-trial","293","1286886","0.0-11.0-258.0","","","","false","","","","","","","","","","1678.2000000476837","","190","","1","1","arrowleft","0","arrowright","[0.675,0.325,0.85,0.15]","","",""
"sailing-trial","294","1289379","0.0-11.0-259.0","","","","false","","","","","","","","","","null","","1170","","3","0","null","null","arrowup","[0.675,0.325,0.85,0.15]","","",""
"sailing-trial","295","1292459","0.0-11.0-260.0","","","","false","","","","","","","","","","528.3999999761581","","251","","1","0","arrowleft","0","arrowright","[0.85,0.15,0.675,0.325]","","",""
"sailing-trial","296","1295028","0.0-11.0-261.0","","","","false","","","","","","","","","","null","","816.3000000715256","","2","1","null","null","arrowup","[0.85,0.15,0.675,0.325]","","",""
"sailing-trial","297","1297955","0.0-11.0-262.0","","","","false","","","","","","","","","","469","","400.2000000476837","","2","0","arrowright","1","arrowleft","[0.85,0.15,0.675,0.325]","","",""
"sailing-trial","298","1300406","0.0-11.0-263.0","","","","false","","","","","","","","","","null","","909.3999999761581","","0","1","null","null","arrowup","[0.85,0.15,0.675,0.325]","","",""
"sailing-trial","299","1303886","0.0-11.0-264.0","","","","false","","","","","","","","","","587.6000000238419","","265.60000002384186","","3","1","arrowright","1","arrowright","[0.85,0.15,0.675,0.325]","","",""
"sailing-trial","300","1305876","0.0-11.0-265.0","","","","false","","","","","","","","","","null","","945.8999999761581","","3","0","null","null","arrowup","[0.85,0.15,0.675,0.325]","","",""
"sailing-trial","301","1308845","0.0-11.0-266.0","","","","false","","","","","","","","","","435.5","","234.19999992847443","","3","0","arrowright","1","arrowright","[0.85,0.15,0.675,0.325]","","",""
"sailing-trial","302","1311879","0.0-11.0-267.0","","","","false","","","","","","","","","","null","","803.6000000238419","","2","1","null","null","arrowup","[0.85,0.15,0.675,0.325]","","",""
"sailing-trial","303","1315558","0.0-11.0-268.0","","","","false","","","","","","","","","","424.5","","311.7999999523163","","0","1","arrowleft","0","arrowleft","[0.85,0.15,0.675,0.325]","","",""
"sailing-trial","304","1319634","0.0-11.0-269.0","","","","false","","","","","","","","","","null","","1084.2000000476837","","3","0","null","null","arrowup","[0.85,0.15,0.675,0.325]","","",""
"sailing-trial","305","1323683","0.0-11.0-270.0","","","","false","","","","","","","","","","662","","152.70000004768372","","0","1","arrowleft","0","arrowleft","[0.85,0.15,0.675,0.325]","","",""
"sailing-trial","306","1326834","0.0-11.0-271.0","","","","false","","","","","","","","","","null","","948.6000000238419","","3","0","null","null","arrowup","[0.85,0.15,0.675,0.325]","","",""
"sailing-trial","307","1330612","0.0-11.0-272.0","","","","false","","","","","","","","","","696.3999999761581","","333.2999999523163","","0","1","arrowleft","0","arrowleft","[0.85,0.15,0.675,0.325]","","",""
"sailing-trial","308","1333891","0.0-11.0-273.0","","","","false","","","","","","","","","","null","","1526","","0","1","null","null","arrowup","[0.85,0.15,0.675,0.325]","","",""
"sailing-trial","309","1338569","0.0-11.0-274.0","","","","false","","","","","","","","","","1997","","87.89999997615814","","0","1","arrowleft","0","arrowleft","[0.85,0.15,0.675,0.325]","","",""
"sailing-trial","310","1341177","0.0-11.0-275.0","","","","false","","","","","","","","","","null","","1312","","3","0","null","null","arrowup","[0.85,0.15,0.675,0.325]","","",""
"sailing-trial","311","1350391","0.0-11.0-276.0","","","","false","","","","","","","","","","6346.700000047684","","176.10000002384186","","0","1","arrowleft","0","arrowleft","[0.85,0.15,0.675,0.325]","","",""
"sailing-trial","312","1352443","0.0-11.0-277.0","","","","false","","","","","","","","","","null","","976.5999999046326","","3","0","null","null","arrowup","[0.85,0.15,0.675,0.325]","","",""
"sailing-trial","313","1355568","0.0-11.0-278.0","","","","false","","","","","","","","","","383.7000000476837","","90.80000007152557","","0","1","arrowleft","0","arrowleft","[0.85,0.15,0.675,0.325]","","",""
"sailing-trial","314","1358581","0.0-11.0-279.0","","","","false","","","","","","","","","","null","","839.8999999761581","","3","1","null","null","arrowup","[0.85,0.15,0.675,0.325]","","",""
"sailing-trial","315","1362063","0.0-11.0-280.0","","","","false","","","","","","","","","","518","","366.10000002384186","","0","1","arrowleft","0","arrowleft","[0.675,0.325,0.85,0.15]","","",""
"sailing-trial","316","1364644","0.0-11.0-281.0","","","","false","","","","","","","","","","null","","858.2999999523163","","2","1","null","null","arrowup","[0.675,0.325,0.85,0.15]","","",""
"sailing-trial","317","1367683","0.0-11.0-282.0","","","","false","","","","","","","","","","382.39999997615814","","180.79999995231628","","0","0","arrowleft","0","arrowleft","[0.675,0.325,0.85,0.15]","","",""
"sailing-trial","318","1369861","0.0-11.0-283.0","","","","false","","","","","","","","","","null","","764.1000000238419","","3","0","null","null","arrowup","[0.675,0.325,0.85,0.15]","","",""
"sailing-trial","319","1373059","0.0-11.0-284.0","","","","false","","","","","","","","","","730.4000000953674","","122.70000004768372","","1","0","arrowleft","0","arrowright","[0.675,0.325,0.85,0.15]","","",""
"sailing-trial","320","1375235","0.0-11.0-285.0","","","","false","","","","","","","","","","null","","820.8999999761581","","3","0","null","null","arrowup","[0.675,0.325,0.85,0.15]","","",""
"sailing-trial","321","1379846","0.0-11.0-286.0","","","","false","","","","","","","","","","708.7000000476837","","1043.6000000238419","","2","1","arrowright","1","arrowleft","[0.675,0.325,0.85,0.15]","","",""
"sailing-trial","322","1382242","0.0-11.0-287.0","","","","false","","","","","","","","","","null","","730","","2","1","null","null","arrowup","[0.675,0.325,0.85,0.15]","","",""
"sailing-trial","323","1385855","0.0-11.0-288.0","","","","false","","","","","","","","","","712.5999999046326","","273.2000000476837","","2","1","arrowright","1","arrowleft","[0.675,0.325,0.85,0.15]","","",""
"sailing-trial","324","1388452","0.0-11.0-289.0","","","","false","","","","","","","","","","null","","937","","1","1","null","null","arrowup","[0.675,0.325,0.85,0.15]","","",""
"sailing-trial","325","1391702","0.0-11.0-290.0","","","","false","","","","","","","","","","378.10000002384186","","174.30000007152557","","2","1","arrowright","1","arrowleft","[0.675,0.325,0.85,0.15]","","",""
"sailing-trial","326","1394348","0.0-11.0-291.0","","","","false","","","","","","","","","","null","","1002","","3","1","null","null","arrowup","[0.675,0.325,0.85,0.15]","","",""
"sailing-trial","327","1403056","0.0-11.0-292.0","","","","false","","","","","","","","","","5823.700000047684","","136","","2","1","arrowright","1","arrowleft","[0.675,0.325,0.85,0.15]","","",""
"sailing-trial","328","1406785","0.0-11.0-293.0","","","","false","","","","","","","","","","null","","1265","","3","1","null","null","arrowup","[0.675,0.325,0.85,0.15]","","",""
"sailing-trial","329","1410898","0.0-11.0-294.0","","","","false","","","","","","","","","","741.8999999761581","","226.5","","2","1","arrowright","1","arrowleft","[0.675,0.325,0.85,0.15]","","",""
"sailing-trial","330","1413859","0.0-11.0-295.0","","","","false","","","","","","","","","","null","","924.6999999284744","","3","0","null","null","arrowup","[0.675,0.325,0.85,0.15]","","",""
"sailing-trial","331","1418423","0.0-11.0-296.0","","","","false","","","","","","","","","","781.1999999284744","","671.2999999523163","","0","1","arrowleft","0","arrowleft","[0.85,0.15,0.675,0.325]","","",""
"sailing-trial","332","1421341","0.0-11.0-297.0","","","","false","","","","","","","","","","null","","1000.5","","1","0","null","null","arrowup","[0.85,0.15,0.675,0.325]","","",""
"sailing-trial","333","1425383","0.0-11.0-298.0","","","","false","","","","","","","","","","330.39999997615814","","967.3999999761581","","2","1","arrowright","1","arrowleft","[0.85,0.15,0.675,0.325]","","",""
"sailing-trial","334","1428614","0.0-11.0-299.0","","","","false","","","","","","","","","","null","","800.5","","3","1","null","null","arrowup","[0.85,0.15,0.675,0.325]","","",""
"sailing-trial","335","1433060","0.0-11.0-300.0","","","","false","","","","","","","","","","1122.7999999523163","","573.1999999284744","","2","1","arrowright","1","arrowleft","[0.85,0.15,0.675,0.325]","","",""
"sailing-trial","336","1437209","0.0-11.0-301.0","","","","false","","","","","","","","","","null","","1117.7999999523163","","0","0","null","null","arrowup","[0.85,0.15,0.675,0.325]","","",""
"sailing-trial","337","1441484","0.0-11.0-302.0","","","","false","","","","","","","","","","1095.2999999523163","","5.200000047683716","","2","1","arrowright","1","arrowleft","[0.85,0.15,0.675,0.325]","","",""
"sailing-trial","338","1443932","0.0-11.0-303.0","","","","false","","","","","","","","","","null","","830.7999999523163","","1","1","null","null","arrowup","[0.85,0.15,0.675,0.325]","","",""
"sailing-trial","339","1447330","0.0-11.0-304.0","","","","false","","","","","","","","","","489","","398.5","","2","0","arrowright","1","arrowleft","[0.85,0.15,0.675,0.325]","","",""
"sailing-trial","340","1449878","0.0-11.0-305.0","","","","false","","","","","","","","","","null","","962.1999999284744","","1","1","null","null","arrowup","[0.85,0.15,0.675,0.325]","","",""
"sailing-trial","341","1453082","0.0-11.0-306.0","","","","false","","","","","","","","","","582","","338.40000009536743","","3","0","arrowright","1","arrowright","[0.85,0.15,0.675,0.325]","","",""
"sailing-trial","342","1455097","0.0-11.0-307.0","","","","false","","","","","","","","","","null","","713.0999999046326","","2","0","null","null","arrowup","[0.85,0.15,0.675,0.325]","","",""
"sailing-trial","343","1458302","0.0-11.0-308.0","","","","false","","","","","","","","","","337.39999997615814","","152.19999992847443","","0","1","arrowleft","0","arrowleft","[0.85,0.15,0.675,0.325]","","",""
"sailing-trial","344","1460537","0.0-11.0-309.0","","","","false","","","","","","","","","","null","","913.2000000476837","","3","0","null","null","arrowup","[0.85,0.15,0.675,0.325]","","",""
"sailing-trial","345","1464011","0.0-11.0-310.0","","","","false","","","","","","","","","","474.6999999284744","","262.60000002384186","","0","1","arrowleft","0","arrowleft","[0.85,0.15,0.675,0.325]","","",""
"sailing-trial","346","1465730","0.0-11.0-311.0","","","","false","","","","","","","","","","null","","623.7999999523163","","2","0","null","null","arrowup","[0.85,0.15,0.675,0.325]","","",""
"sailing-trial","347","1469523","0.0-11.0-312.0","","","","false","","","","","","","","","","474.7999999523163","","404.3000000715256","","0","1","arrowleft","0","arrowleft","[0.675,0.325,0.85,0.15]","","",""
"sailing-trial","348","1471257","0.0-11.0-313.0","","","","false","","","","","","","","","","null","","719","","1","0","null","null","arrowup","[0.675,0.325,0.85,0.15]","","",""
"sailing-trial","349","1474618","0.0-11.0-314.0","","","","false","","","","","","","","","","410.39999997615814","","238.19999992847443","","0","1","arrowleft","0","arrowleft","[0.675,0.325,0.85,0.15]","","",""
"sailing-trial","350","1476397","0.0-11.0-315.0","","","","false","","","","","","","","","","null","","704.1999999284744","","3","0","null","null","arrowup","[0.675,0.325,0.85,0.15]","","",""
"sailing-trial","351","1479009","0.0-11.0-316.0","","","","false","","","","","","","","","","394.89999997615814","","78.30000007152557","","0","0","arrowleft","0","arrowleft","[0.675,0.325,0.85,0.15]","","",""
"sailing-trial","352","1482106","0.0-11.0-317.0","","","","false","","","","","","","","","","null","","1714.9000000953674","","1","0","null","null","arrowup","[0.675,0.325,0.85,0.15]","","",""
"sailing-trial","353","1486698","0.0-11.0-318.0","","","","false","","","","","","","","","","2098.7999999523163","","269.2000000476837","","1","0","arrowleft","0","arrowright","[0.675,0.325,0.85,0.15]","","",""
"sailing-trial","354","1490152","0.0-11.0-319.0","","","","false","","","","","","","","","","null","","1168.3999999761581","","2","1","null","null","arrowup","[0.675,0.325,0.85,0.15]","","",""
"sailing-trial","355","1494681","0.0-11.0-320.0","","","","false","","","","","","","","","","1163.1000000238419","","558.8000000715256","","2","1","arrowright","1","arrowleft","[0.675,0.325,0.85,0.15]","","",""
"sailing-trial","356","1496708","0.0-11.0-321.0","","","","false","","","","","","","","","","null","","961.6000000238419","","1","0","null","null","arrowup","[0.675,0.325,0.85,0.15]","","",""
"sailing-trial","357","1500310","0.0-11.0-322.0","","","","false","","","","","","","","","","676.2999999523163","","186.70000004768372","","2","1","arrowright","1","arrowleft","[0.675,0.325,0.85,0.15]","","",""
"sailing-trial","358","1502874","0.0-11.0-323.0","","","","false","","","","","","","","","","null","","850.2999999523163","","0","1","null","null","arrowup","[0.675,0.325,0.85,0.15]","","",""
"sailing-trial","359","1506419","0.0-11.0-324.0","","","","false","","","","","","","","","","633.3999999761581","","213.60000002384186","","2","1","arrowright","1","arrowleft","[0.675,0.325,0.85,0.15]","","",""
"sailing-trial","360","1508265","0.0-11.0-325.0","","","","false","","","","","","","","","","null","","757.2999999523163","","3","0","null","null","arrowup","[0.675,0.325,0.85,0.15]","","",""
"sailing-trial","361","1511398","0.0-11.0-326.0","","","","false","","","","","","","","","","494","","31.699999928474426","","2","1","arrowright","1","arrowleft","[0.675,0.325,0.85,0.15]","","",""
"sailing-trial","362","1514248","0.0-11.0-327.0","","","","false","","","","","","","","","","null","","782","","2","1","null","null","arrowup","[0.675,0.325,0.85,0.15]","","",""
"sailing-trial","363","1517477","0.0-11.0-328.0","","","","false","","","","","","","","","","438.6999999284744","","222.60000002384186","","2","1","arrowright","1","arrowleft","[0.675,0.325,0.85,0.15]","","",""
"sailing-trial","364","1519778","0.0-11.0-329.0","","","","false","","","","","","","","","","null","","1092.3000000715256","","1","0","null","null","arrowup","[0.675,0.325,0.85,0.15]","","",""
"sailing-trial","365","1523437","0.0-11.0-330.0","","","","false","","","","","","","","","","621.8999999761581","","288.7000000476837","","2","1","arrowright","1","arrowleft","[0.675,0.325,0.85,0.15]","","",""
"sailing-trial","366","1525411","0.0-11.0-331.0","","","","false","","","","","","","","","","null","","786.1000000238419","","2","0","null","null","arrowup","[0.675,0.325,0.85,0.15]","","",""
"sailing-trial","367","1528799","0.0-11.0-332.0","","","","false","","","","","","","","","","590.1000000238419","","68.90000009536743","","2","1","arrowright","1","arrowleft","[0.85,0.15,0.675,0.325]","","",""
"sailing-trial","368","1536425","0.0-11.0-333.0","","","","false","","","","","","","","","","null","","5899.899999976158","","0","1","null","null","arrowup","[0.85,0.15,0.675,0.325]","","",""
"sailing-trial","369","1539688","0.0-11.0-334.0","","","","false","","","","","","","","","","597","","105.5","","2","1","arrowright","1","arrowleft","[0.85,0.15,0.675,0.325]","","",""
"sailing-trial","370","1542051","0.0-11.0-335.0","","","","false","","","","","","","","","","null","","923.8999999761581","","1","0","null","null","arrowup","[0.85,0.15,0.675,0.325]","","",""
"sailing-trial","371","1545916","0.0-11.0-336.0","","","","false","","","","","","","","","","558.1999999284744","","291.2000000476837","","2","1","arrowright","1","arrowleft","[0.85,0.15,0.675,0.325]","","",""
"sailing-trial","372","1548464","0.0-11.0-337.0","","","","false","","","","","","","","","","null","","1523.8999999761581","","3","0","null","null","arrowup","[0.85,0.15,0.675,0.325]","","",""
"sailing-trial","373","1551776","0.0-11.0-338.0","","","","false","","","","","","","","","","480.60000002384186","","228.70000004768372","","2","1","arrowright","1","arrowleft","[0.85,0.15,0.675,0.325]","","",""
"sailing-trial","374","1554490","0.0-11.0-339.0","","","","false","","","","","","","","","","null","","1095.1999999284744","","3","1","null","null","arrowup","[0.85,0.15,0.675,0.325]","","",""
"sailing-trial","375","1557970","0.0-11.0-340.0","","","","false","","","","","","","","","","549.8999999761581","","359.60000002384186","","2","1","arrowright","1","arrowleft","[0.85,0.15,0.675,0.325]","","",""
"sailing-trial","376","1561217","0.0-11.0-341.0","","","","false","","","","","","","","","","null","","1620.1000000238419","","3","1","null","null","arrowup","[0.85,0.15,0.675,0.325]","","",""
"sailing-trial","377","1566978","0.0-11.0-342.0","","","","false","","","","","","","","","","2703.0999999046326","","211.10000002384186","","2","1","arrowright","1","arrowleft","[0.85,0.15,0.675,0.325]","","",""
"sailing-trial","378","1570194","0.0-11.0-343.0","","","","false","","","","","","","","","","null","","1447.1999999284744","","2","1","null","null","arrowup","[0.85,0.15,0.675,0.325]","","",""
"sailing-trial","379","1573273","0.0-11.0-344.0","","","","false","","","","","","","","","","350.39999997615814","","113.20000004768372","","2","1","arrowright","1","arrowleft","[0.85,0.15,0.675,0.325]","","",""
"sailing-trial","380","1575770","0.0-11.0-345.0","","","","false","","","","","","","","","","null","","926.6000000238419","","2","1","null","null","arrowup","[0.85,0.15,0.675,0.325]","","",""
"sailing-trial","381","1578681","0.0-11.0-346.0","","","","false","","","","","","","","","","593.8000000715256","","59.59999990463257","","2","0","arrowright","1","arrowleft","[0.85,0.15,0.675,0.325]","","",""
"sailing-trial","382","1580626","0.0-11.0-347.0","","","","false","","","","","","","","","","null","","839","","2","0","null","null","arrowup","[0.85,0.15,0.675,0.325]","","",""
"sailing-trial","383","1583745","0.0-11.0-348.0","","","","false","","","","","","","","","","543.6000000238419","","131.5","","3","0","arrowright","1","arrowright","[0.85,0.15,0.675,0.325]","","",""
"sailing-trial","384","1585957","0.0-11.0-349.0","","","","false","","","","","","","","","","null","","861","","1","0","null","null","arrowup","[0.85,0.15,0.675,0.325]","","",""
"sailing-trial","385","1589067","0.0-11.0-350.0","","","","false","","","","","","","","","","436.09999990463257","","443","","0","0","arrowleft","0","arrowleft","[0.675,0.325,0.85,0.15]","","",""
"sailing-trial","386","1591290","0.0-11.0-351.0","","","","false","","","","","","","","","","null","","903.2999999523163","","3","0","null","null","arrowup","[0.675,0.325,0.85,0.15]","","",""
"sailing-trial","387","1594867","0.0-11.0-352.0","","","","false","","","","","","","","","","500.89999997615814","","338.5","","1","1","arrowleft","0","arrowright","[0.675,0.325,0.85,0.15]","","",""
"sailing-trial","388","1597058","0.0-11.0-353.0","","","","false","","","","","","","","","","null","","885","","0","0","null","null","arrowup","[0.675,0.325,0.85,0.15]","","",""
"sailing-trial","389","1599995","0.0-11.0-354.0","","","","false","","","","","","","","","","654.5","","2.399999976158142","","1","0","arrowleft","0","arrowright","[0.675,0.325,0.85,0.15]","","",""
"sailing-trial","390","1602543","0.0-11.0-355.0","","","","false","","","","","","","","","","null","","911.8000000715256","","2","1","null","null","arrowup","[0.675,0.325,0.85,0.15]","","",""
"sailing-trial","391","1606773","0.0-11.0-356.0","","","","false","","","","","","","","","","400.7000000476837","","441.7000000476837","","2","1","arrowright","1","arrowleft","[0.675,0.325,0.85,0.15]","","",""
"sailing-trial","392","1609467","0.0-11.0-357.0","","","","false","","","","","","","","","","null","","924.6000000238419","","0","0","null","null","arrowup","[0.675,0.325,0.85,0.15]","","",""
"sailing-trial","393","1614398","0.0-11.0-358.0","","","","false","","","","","","","","","","1197","","393.39999997615814","","2","1","arrowright","1","arrowleft","[0.675,0.325,0.85,0.15]","","",""
"sailing-trial","394","1617862","0.0-11.0-359.0","","","","false","","","","","","","","","","null","","1217.5999999046326","","0","1","null","null","arrowup","[0.675,0.325,0.85,0.15]","","",""
"sailing-trial","395","1621858","0.0-11.0-360.0","","","","false","","","","","","","","","","571.1000000238419","","465.89999997615814","","2","1","arrowright","1","arrowleft","[0.675,0.325,0.85,0.15]","","",""
"sailing-trial","396","1625287","0.0-11.0-361.0","","","","false","","","","","","","","","","null","","1184.3999999761581","","2","1","null","null","arrowup","[0.675,0.325,0.85,0.15]","","",""
"sailing-trial","397","1630733","0.0-11.0-362.0","","","","false","","","","","","","","","","1409.5","","720.4000000953674","","2","1","arrowright","1","arrowleft","[0.675,0.325,0.85,0.15]","","",""
"sailing-trial","398","1634163","0.0-11.0-363.0","","","","false","","","","","","","","","","null","","1115.3000000715256","","1","1","null","null","arrowup","[0.675,0.325,0.85,0.15]","","",""
"sailing-trial","399","1639225","0.0-11.0-364.0","","","","false","","","","","","","","","","1621.3999999761581","","624","","2","1","arrowright","1","arrowleft","[0.675,0.325,0.85,0.15]","","",""
"sailing-trial","400","1643028","0.0-11.0-365.0","","","","false","","","","","","","","","","null","","2519.399999976158","","1","0","null","null","arrowup","[0.675,0.325,0.85,0.15]","","",""
"sailing-trial","401","1646952","0.0-11.0-366.0","","","","false","","","","","","","","","","723.6000000238419","","349.3000000715256","","2","1","arrowright","1","arrowleft","[0.675,0.325,0.85,0.15]","","",""
"sailing-trial","402","1651119","0.0-11.0-367.0","","","","false","","","","","","","","","","null","","1147","","3","0","null","null","arrowup","[0.675,0.325,0.85,0.15]","","",""
"sailing-trial","403","1655526","0.0-11.0-368.0","","","","false","","","","","","","","","","904.2999999523163","","226.5","","2","1","arrowright","1","arrowleft","[0.85,0.15,0.675,0.325]","","",""
"sailing-trial","404","1659998","0.0-11.0-369.0","","","","false","","","","","","","","","","null","","2354.100000023842","","2","0","null","null","arrowup","[0.85,0.15,0.675,0.325]","","",""
"sailing-trial","405","1664027","0.0-11.0-370.0","","","","false","","","","","","","","","","593.5","","531.2000000476837","","3","0","arrowright","1","arrowright","[0.85,0.15,0.675,0.325]","","",""
"sailing-trial","406","1667398","0.0-11.0-371.0","","","","false","","","","","","","","","","null","","1468.8999999761581","","2","1","null","null","arrowup","[0.85,0.15,0.675,0.325]","","",""
"sailing-trial","407","1671661","0.0-11.0-372.0","","","","false","","","","","","","","","","466.60000002384186","","254.10000002384186","","0","1","arrowleft","0","arrowleft","[0.85,0.15,0.675,0.325]","","",""
"sailing-trial","408","1674823","0.0-11.0-373.0","","","","false","","","","","","","","","","null","","1138.7000000476837","","0","1","null","null","arrowup","[0.85,0.15,0.675,0.325]","","",""
"sailing-trial","409","1679138","0.0-11.0-374.0","","","","false","","","","","","","","","","529.2999999523163","","1499.5","","0","0","arrowleft","0","arrowleft","[0.85,0.15,0.675,0.325]","","",""
"sailing-trial","410","1681984","0.0-11.0-375.0","","","","false","","","","","","","","","","null","","1101.8999999761581","","2","1","null","null","arrowup","[0.85,0.15,0.675,0.325]","","",""
"sailing-trial","411","1686628","0.0-11.0-376.0","","","","false","","","","","","","","","","1807.6000000238419","","234.89999997615814","","1","1","arrowleft","0","arrowright","[0.85,0.15,0.675,0.325]","","",""
"sailing-trial","412","1690274","0.0-11.0-377.0","","","","false","","","","","","","","","","null","","1142","","0","1","null","null","arrowup","[0.85,0.15,0.675,0.325]","","",""
"sailing-trial","413","1694402","0.0-11.0-378.0","","","","false","","","","","","","","","","1807.5","","117.39999997615814","","1","0","arrowleft","0","arrowright","[0.85,0.15,0.675,0.325]","","",""
"sailing-trial","414","1696611","0.0-11.0-379.0","","","","false","","","","","","","","","","null","","886.1000000238419","","3","0","null","null","arrowup","[0.85,0.15,0.675,0.325]","","",""
"sailing-trial","415","1700449","0.0-11.0-380.0","","","","false","","","","","","","","","","844.5999999046326","","427.6999999284744","","2","1","arrowright","1","arrowleft","[0.85,0.15,0.675,0.325]","","",""
"sailing-trial","416","1703147","0.0-11.0-381.0","","","","false","","","","","","","","","","null","","1279.5999999046326","","2","0","null","null","arrowup","[0.85,0.15,0.675,0.325]","","",""
"sailing-trial","417","1707574","0.0-11.0-382.0","","","","false","","","","","","","","","","1540.3999999761581","","154.5","","0","1","arrowleft","0","arrowleft","[0.85,0.15,0.675,0.325]","","",""
"sailing-trial","418","1710193","0.0-11.0-383.0","","","","false","","","","","","","","","","null","","1025.6000000238419","","2","0","null","null","arrowup","[0.85,0.15,0.675,0.325]","","",""
"sailing-trial","419","1714499","0.0-11.0-384.0","","","","false","","","","","","","","","","1440.6999999284744","","203.10000002384186","","1","1","arrowleft","0","arrowright","[0.325,0.675,0.15,0.85]","","",""
"sailing-trial","420","1716765","0.0-11.0-385.0","","","","false","","","","","","","","","","null","","1149.3999999761581","","2","0","null","null","arrowup","[0.325,0.675,0.15,0.85]","","",""
"sailing-trial","421","1719740","0.0-11.0-386.0","","","","false","","","","","","","","","","523.3999999761581","","228.80000007152557","","2","0","arrowright","1","arrowleft","[0.325,0.675,0.15,0.85]","","",""
"sailing-trial","422","1722739","0.0-11.0-387.0","","","","false","","","","","","","","","","null","","1147.8999999761581","","1","1","null","null","arrowup","[0.325,0.675,0.15,0.85]","","",""
"sailing-trial","423","1725947","0.0-11.0-388.0","","","","false","","","","","","","","","","478.2000000476837","","268.89999997615814","","1","0","arrowleft","0","arrowright","[0.325,0.675,0.15,0.85]","","",""
"sailing-trial","424","1727996","0.0-11.0-389.0","","","","false","","","","","","","","","","null","","989","","1","0","null","null","arrowup","[0.325,0.675,0.15,0.85]","","",""
"sailing-trial","425","1731883","0.0-11.0-390.0","","","","false","","","","","","","","","","539.6999999284744","","277.10000002384186","","3","1","arrowright","1","arrowright","[0.325,0.675,0.15,0.85]","","",""
"sailing-trial","426","1734714","0.0-11.0-391.0","","","","false","","","","","","","","","","null","","1125.3999999761581","","1","1","null","null","arrowup","[0.325,0.675,0.15,0.85]","","",""
"sailing-trial","427","1738002","0.0-11.0-392.0","","","","false","","","","","","","","","","433.7000000476837","","242.70000004768372","","3","0","arrowright","1","arrowright","[0.325,0.675,0.15,0.85]","","",""
"sailing-trial","428","1740978","0.0-11.0-393.0","","","","false","","","","","","","","","","null","","1198.7000000476837","","1","1","null","null","arrowup","[0.325,0.675,0.15,0.85]","","",""
"sailing-trial","429","1743740","0.0-11.0-394.0","","","","false","","","","","","","","","","526.1999999284744","","194.69999992847443","","0","0","arrowleft","0","arrowleft","[0.325,0.675,0.15,0.85]","","",""
"sailing-trial","430","1746634","0.0-11.0-395.0","","","","false","","","","","","","","","","null","","1526.1000000238419","","1","0","null","null","arrowup","[0.325,0.675,0.15,0.85]","","",""
"sailing-trial","431","1750197","0.0-11.0-396.0","","","","false","","","","","","","","","","1271.6999999284744","","49.40000009536743","","2","0","arrowright","1","arrowleft","[0.325,0.675,0.15,0.85]","","",""
"sailing-trial","432","1752540","0.0-11.0-397.0","","","","false","","","","","","","","","","null","","847.2999999523163","","2","0","null","null","arrowup","[0.325,0.675,0.15,0.85]","","",""
"sailing-trial","433","1756410","0.0-11.0-398.0","","","","false","","","","","","","","","","600.3999999761581","","220.5","","3","1","arrowright","1","arrowright","[0.325,0.675,0.15,0.85]","","",""
"sailing-trial","434","1759858","0.0-11.0-399.0","","","","false","","","","","","","","","","null","","1646.3999999761581","","3","1","null","null","arrowup","[0.325,0.675,0.15,0.85]","","",""
"instructions","435","1764095","0.0-12.0","","","","","","","","","","4235.599999904633","","","","","","","","","","","","","","","","[{""page_index"":0,""viewing_time"":4234.799999952316}]"
"survey-debrief","436","1804400","0.0-13.0","","","","","","","","","","40302.799999952316","","","","","","","","","","","","","","{""difficulty"":""5"",""fun"":""2"",""clarity"":""5"",""strategy"":""When a store gave me treasure continue to go to that store "",""feedback"":""""}","",""
