"trial_type","trial_index","time_elapsed","internal_node_id","value","metadata","success","timeout","failed_images","failed_audio","failed_video","browser_interaction","low_quality","rt","stimulus","response","button_pressed","island_rt","island_response","boat_rt","boat_response","boat","reward","island_key","island","boat_key","reward_probabilities","responses","num_errors","view_history"
"pavlovia","0","5","0.0-0.0","","","","","","","","","","","","","","","","","","","","","","","","","",""
"call-function","1","5","0.0-1.0","","{""task_version"":""sr_pilot_v2"",""task_condition"":""good"",""boats"":[""C"",""A"",""D"",""B""],""boats_demo"":[""G"",""E"",""F"",""H""],""islands"":[""A"",""B""],""subject_id"":""13832"",""age"":""10"",""gender"":""Female""}","","","","","","","","","","","","","","","","","","","","","","","",""
"preload","2","3315","0.0-2.0","","","true","false","[]","[]","[]","[{""event"":""fullscreenenter"",""trial"":3,""time"":5886}]","false","","","","","","","","","","","","","","","","",""
"fullscreen","3","6876","0.0-3.0","","","true","","","","","","","","","","","","","","","","","","","","","","",""
"audio-keyboard-response","4","8992","0.0-4.0-0.0","","","","","","","","","","2119.999999999999","audio/beep_loop.wav"," ","","","","","","","","","","","","","",""
"audio-test","5","10913","0.0-4.0-1.0","","","","","","","","","","null","audio/turtle.mp3","","3","","","","","","","","","","","","",""
"audio-test","6","13056","0.0-4.0-2.0","","","","","","","","[{""event"":""fullscreenenter"",""trial"":3,""time"":5886},{""event"":""blur"",""trial"":7,""time"":42803},{""event"":""focus"",""trial"":7,""time"":47304}]","false","null","audio/shark.mp3","","2","","","","","","","","","","","","",""
"sailing-instructions","7","53121","0.0-5.0-0.0-0.0","","","","","","","","","","","","","","null","null","null","null","null","null","","","","","","",""
"sailing-trial","8","62417","0.0-5.0-0.0-1.0-0.0","","","","false","","","","","","","","","","3869.7999999523163","","null","","null","null","arrowleft","0","null","null","","",""
"sailing-trial","9","64717","0.0-5.0-0.0-1.0-1.0","","","","false","","","","","","","","","","1177.5","","null","","null","null","arrowright","1","null","null","","",""
"sailing-trial","10","67317","0.0-5.0-0.0-1.0-2.0","","","","false","","","","","","","","","","1481.3999999761581","","null","","null","null","arrowleft","0","null","null","","",""
"sailing-instructions","11","111991","0.0-5.0-0.0-2.0","","","","","","","","","","","","","","null","null","null","null","0","null","","","","","","",""
"sailing-trial","12","123903","0.0-5.0-0.0-3.0-0.0","","","","false","","","","","","","","","","null","","6532.299999952316","","2","1","null","null","arrowleft","[1,1,1,1]","","",""
"sailing-trial","13","128122","0.0-5.0-0.0-3.0-1.0","","","","false","","","","","","","","","","null","","1182.7999999523163","","3","1","null","null","arrowright","[1,1,1,1]","","",""
"sailing-trial","14","132052","0.0-5.0-0.0-3.0-2.0","","","","false","","","","","","","","","","null","","1222.5","","2","0","null","null","arrowleft","[0,0,0,0]","","",""
"sailing-instructions","15","139313","0.0-5.0-0.0-4.0","","","","","","","","","","","","","","null","null","null","null","null","null","","","","","","",""
"sailing-comprehension","16","159508","0.0-5.0-0.0-5.0","","","","","","","","","","14201.200000047684","","","","","","","","","","","","","","[""true"",""false"",""false"",""true""]","1",""
"sailing-instructions","17","187536","0.0-5.0-0.1-0.1","","","","","","","","","","","","","","null","null","null","null","null","null","","","","","","",""
"sailing-trial","18","189801","0.0-5.0-0.1-1.1-0.1","","","","false","","","","","","","","","","1156.5","","null","","null","null","arrowleft","0","null","null","","",""
"sailing-trial","19","191386","0.0-5.0-0.1-1.1-1.1","","","","false","","","","","","","","","","468.10000002384186","","null","","null","null","arrowright","1","null","null","","",""
"sailing-trial","20","192919","0.0-5.0-0.1-1.1-2.1","","","","false","","","","","","","","","","416.89999997615814","","null","","null","null","arrowleft","0","null","null","","",""
"sailing-instructions","21","233100","0.0-5.0-0.1-2.1","","","","","","","","","","","","","","null","null","null","null","0","null","","","","","","",""
"sailing-trial","22","237237","0.0-5.0-0.1-3.1-0.1","","","","false","","","","","","","","","","null","","1451.5","","2","1","null","null","arrowleft","[1,1,1,1]","","",""
"sailing-trial","23","239555","0.0-5.0-0.1-3.1-1.1","","","","false","","","","","","","","","","null","","203.09999990463257","","3","1","null","null","arrowright","[1,1,1,1]","","",""
"sailing-trial","24","241720","0.0-5.0-0.1-3.1-2.1","","","","false","","","","","","","","","","null","","382.39999997615814","","3","0","null","null","arrowright","[0,0,0,0]","","",""
"sailing-instructions","25","248845","0.0-5.0-0.1-4.1","","","","","","","","","","","","","","null","null","null","null","null","null","","","","","","",""
"sailing-comprehension","26","261482","0.0-5.0-0.1-5.1","","","","","","","","","","10145.5","","","","","","","","","","","","","","[""true"",""true"",""false"",""true""]","0",""
"sailing-instructions","27","336775","0.0-6.0-0.0-0.0","","","","","","","","","","","","","","null","null","null","null","null","null","","","","","","",""
"sailing-comprehension","28","356319","0.0-6.0-0.0-1.0","","","","","","","","","","13488.299999952316","","","","","","","","","","","","","","[""true"",""false"",""true""]","0",""
"sailing-instructions","29","371309","0.0-7.0-0.0-0.0","","","","","","","","","","","","","","null","null","null","null","null","null","","","","","","",""
"sailing-trial","30","377008","0.0-7.0-0.0-1.0-0.0","","","","false","","","","","","","","","","null","","3330.2000000476837","","0","0","null","null","arrowup","[0.2,0.8,0.2,0.8]","","",""
"sailing-trial","31","380780","0.0-7.0-0.0-1.0-1.0","","","","false","","","","","","","","","","null","","1909.3000000715256","","1","1","null","null","arrowup","[0.2,0.8,0.2,0.8]","","",""
"sailing-trial","32","382923","0.0-7.0-0.0-1.0-2.0","","","","false","","","","","","","","","","null","","656.6000000238419","","2","0","null","null","arrowup","[0.2,0.8,0.2,0.8]","","",""
"sailing-trial","33","385559","0.0-7.0-0.0-1.0-3.0","","","","false","","","","","","","","","","null","","871.9000000953674","","3","1","null","null","arrowup","[0.2,0.8,0.2,0.8]","","",""
"sailing-comprehension","34","396422","0.0-7.0-0.0-2.0","","","","","","","","","","4344","","","","","","","","","","","","","","[""false""]","0",""
"sailing-instructions","35","406413","0.0-8.0-0.0-0.0","","","","","","","","","","","","","","null","null","null","null","null","null","","","","","","",""
"sailing-comprehension","36","416001","0.0-8.0-0.0-1.0","","","","","","","","","","6162.600000023842","","","","","","","","","","","","","","[""true""]","0",""
"sailing-instructions","37","456330","0.0-9.0-0.0-0.0","","","","","","","","","","","","","","null","null","null","null","null","null","","","","","","",""
"sailing-trial","38","462113","0.0-9.0-0.0-1.0-0.0","","","","false","","","","","","","","","","1710.1000000238419","","801.3000000715256","","1","1","arrowleft","0","arrowright","[0.2,0.8,0.2,0.8]","","",""
"sailing-trial","39","466494","0.0-9.0-0.0-1.0-1.0","","","","false","","","","","","","","","","733","","223.29999995231628","","2","0","arrowright","1","arrowleft","[0.2,0.8,0.2,0.8]","","",""
"sailing-trial","40","469694","0.0-9.0-0.0-1.0-2.0","","","","false","","","","","","","","","","null","","1482.2000000476837","","0","0","null","null","arrowup","[0.2,0.8,0.2,0.8]","","",""
"sailing-trial","41","474612","0.0-9.0-0.0-1.0-3.0","","","","false","","","","","","","","","","996.1000000238419","","356.7999999523163","","1","1","arrowleft","0","arrowright","[0.2,0.8,0.2,0.8]","","",""
"sailing-trial","42","478212","0.0-9.0-0.0-1.0-4.0","","","","false","","","","","","","","","","null","","1380.3000000715256","","3","1","null","null","arrowup","[0.2,0.8,0.2,0.8]","","",""
"sailing-trial","43","481913","0.0-9.0-0.0-1.0-5.0","","","","false","","","","","","","","","","588.5","","61.700000047683716","","3","1","arrowright","1","arrowright","[0.2,0.8,0.2,0.8]","","",""
"sailing-instructions","44","512368","0.0-10.0","","","","","","","","","","","","","","null","null","null","null","null","null","","","","","","",""
"sailing-trial","45","519513","0.0-11.0-0.0","","","","false","","","","","","","","","","2349.5","","815.6999999284744","","0","1","arrowleft","0","arrowleft","[0.85,0.15,0.675,0.325]","","",""
"sailing-trial","46","524112","0.0-11.0-1.0","","","","false","","","","","","","","","","null","","1561.3000000715256","","1","0","null","null","arrowup","[0.85,0.15,0.675,0.325]","","",""
"sailing-trial","47","529963","0.0-11.0-2.0","","","","false","","","","","","","","","","1014.7999999523163","","613","","3","1","arrowright","1","arrowright","[0.85,0.15,0.675,0.325]","","",""
"sailing-trial","48","533762","0.0-11.0-3.0","","","","false","","","","","","","","","","null","","1282.1999999284744","","3","1","null","null","arrowup","[0.85,0.15,0.675,0.325]","","",""
"sailing-trial","49","539347","0.0-11.0-4.0","","","","false","","","","","","","","","","726.5","","494.10000002384186","","1","1","arrowleft","0","arrowright","[0.85,0.15,0.675,0.325]","","",""
"sailing-trial","50","544712","0.0-11.0-5.0","","","","false","","","","","","","","","","null","","4294.800000071526","","3","0","null","null","arrowup","[0.85,0.15,0.675,0.325]","","",""
"sailing-trial","51","552048","0.0-11.0-6.0","","","","false","","","","","","","","","","1497","","664.1999999284744","","2","1","arrowright","1","arrowleft","[0.85,0.15,0.675,0.325]","","",""
"sailing-trial","52","555576","0.0-11.0-7.0","","","","false","","","","","","","","","","null","","1266","","1","0","null","null","arrowup","[0.85,0.15,0.675,0.325]","","",""
"sailing-trial","53","560898","0.0-11.0-8.0","","","","false","","","","","","","","","","1334.8999999761581","","192","","0","1","arrowleft","0","arrowleft","[0.85,0.15,0.675,0.325]","","",""
"sailing-trial","54","564013","0.0-11.0-9.0","","","","false","","","","","","","","","","null","","1250.6000000238419","","3","0","null","null","arrowup","[0.85,0.15,0.675,0.325]","","",""
"sailing-trial","55","570047","0.0-11.0-10.0","","","","false","","","","","","","","","","988.4000000953674","","1143.1000000238419","","2","1","arrowright","1","arrowleft","[0.85,0.15,0.675,0.325]","","",""
"sailing-trial","56","573881","0.0-11.0-11.0","","","","false","","","","","","","","","","null","","2049.5","","3","0","null","null","arrowup","[0.85,0.15,0.675,0.325]","","",""
"sailing-trial","57","580081","0.0-11.0-12.0","","","","false","","","","","","","","","","2463.9000000953674","","341.89999997615814","","0","1","arrowleft","0","arrowleft","[0.85,0.15,0.675,0.325]","","",""
"sailing-trial","58","583998","0.0-11.0-13.0","","","","false","","","","","","","","","","null","","1561.6000000238419","","0","1","null","null","arrowup","[0.85,0.15,0.675,0.325]","","",""
"sailing-trial","59","588238","0.0-11.0-14.0","","","","false","","","","","","","","","","637.7000000476837","","503.7999999523163","","3","0","arrowright","1","arrowright","[0.85,0.15,0.675,0.325]","","",""
"sailing-trial","60","591932","0.0-11.0-15.0","","","","false","","","","","","","","","","null","","1654.7000000476837","","2","1","null","null","arrowup","[0.85,0.15,0.675,0.325]","","",""
"sailing-trial","61","596698","0.0-11.0-16.0","","","","false","","","","","","","","","","1432","","223.20000004768372","","0","1","arrowleft","0","arrowleft","[0.85,0.15,0.675,0.325]","","",""
"sailing-trial","62","602257","0.0-11.0-17.0","","","","false","","","","","","","","","","null","","3662.5","","1","0","null","null","arrowup","[0.85,0.15,0.675,0.325]","","",""
"sailing-trial","63","608016","0.0-11.0-18.0","","","","false","","","","","","","","","","1366.2999999523163","","862.2999999523163","","2","1","arrowright","1","arrowleft","[0.675,0.325,0.85,0.15]","","",""
"sailing-trial","64","610810","0.0-11.0-19.0","","","","false","","","","","","","","","","null","","1078.3000000715256","","0","0","null","null","arrowup","[0.675,0.325,0.85,0.15]","","",""
"sailing-trial","65","614521","0.0-11.0-20.0","","","","false","","","","","","","","","","1017.1000000238419","","278.2000000476837","","0","0","arrowleft","0","arrowleft","[0.675,0.325,0.85,0.15]","","",""
"sailing-trial","66","618365","0.0-11.0-21.0","","","","false","","","","","","","","","","null","","1149.4000000953674","","1","0","null","null","arrowup","[0.675,0.325,0.85,0.15]","","",""
"sailing-trial","67","621551","0.0-11.0-22.0","","","","false","","","","","","","","","","559.8000000715256","","52.89999997615814","","3","0","arrowright","1","arrowright","[0.675,0.325,0.85,0.15]","","",""
"sailing-trial","68","624063","0.0-11.0-23.0","","","","false","","","","","","","","","","null","","1181.6000000238419","","3","0","null","null","arrowup","[0.675,0.325,0.85,0.15]","","",""
"sailing-trial","69","627183","0.0-11.0-24.0","","","","false","","","","","","","","","","536.2999999523163","","61.200000047683716","","2","1","arrowright","1","arrowleft","[0.675,0.325,0.85,0.15]","","",""
"sailing-trial","70","630266","0.0-11.0-25.0","","","","false","","","","","","","","","","null","","1143.7999999523163","","1","1","null","null","arrowup","[0.675,0.325,0.85,0.15]","","",""
"sailing-trial","71","634001","0.0-11.0-26.0","","","","false","","","","","","","","","","445.5","","334.5","","0","1","arrowleft","0","arrowleft","[0.675,0.325,0.85,0.15]","","",""
"sailing-trial","72","636227","0.0-11.0-27.0","","","","false","","","","","","","","","","null","","872.3000000715256","","1","0","null","null","arrowup","[0.675,0.325,0.85,0.15]","","",""
"sailing-trial","73","639752","0.0-11.0-28.0","","","","false","","","","","","","","","","583.3999999761581","","410.6999999284744","","2","0","arrowright","1","arrowleft","[0.675,0.325,0.85,0.15]","","",""
"sailing-trial","74","642142","0.0-11.0-29.0","","","","false","","","","","","","","","","null","","902","","0","0","null","null","arrowup","[0.675,0.325,0.85,0.15]","","",""
"sailing-trial","75","645319","0.0-11.0-30.0","","","","false","","","","","","","","","","569","","294.90000009536743","","1","0","arrowleft","0","arrowright","[0.675,0.325,0.85,0.15]","","",""
"sailing-trial","76","648025","0.0-11.0-31.0","","","","false","","","","","","","","","","null","","1197.6000000238419","","0","0","null","null","arrowup","[0.675,0.325,0.85,0.15]","","",""
"sailing-trial","77","651434","0.0-11.0-32.0","","","","false","","","","","","","","","","469","","55.5","","2","1","arrowright","1","arrowleft","[0.675,0.325,0.85,0.15]","","",""
"sailing-trial","78","654208","0.0-11.0-33.0","","","","false","","","","","","","","","","null","","943.1000000238419","","3","0","null","null","arrowup","[0.675,0.325,0.85,0.15]","","",""
"sailing-trial","79","657516","0.0-11.0-34.0","","","","false","","","","","","","","","","791.8999999761581","","190","","0","0","arrowleft","0","arrowleft","[0.15,0.85,0.325,0.675]","","",""
"sailing-trial","80","661151","0.0-11.0-35.0","","","","false","","","","","","","","","","null","","947.8000000715256","","2","0","null","null","arrowup","[0.15,0.85,0.325,0.675]","","",""
"sailing-trial","81","664319","0.0-11.0-36.0","","","","false","","","","","","","","","","523.5","","315.40000009536743","","2","0","arrowright","1","arrowleft","[0.15,0.85,0.325,0.675]","","",""
"sailing-trial","82","666630","0.0-11.0-37.0","","","","false","","","","","","","","","","null","","1002.0999999046326","","2","0","null","null","arrowup","[0.15,0.85,0.325,0.675]","","",""
"sailing-trial","83","670616","0.0-11.0-38.0","","","","false","","","","","","","","","","557.8999999761581","","264.7000000476837","","1","1","arrowleft","0","arrowright","[0.15,0.85,0.325,0.675]","","",""
"sailing-trial","84","672943","0.0-11.0-39.0","","","","false","","","","","","","","","","null","","983.8999999761581","","3","0","null","null","arrowup","[0.15,0.85,0.325,0.675]","","",""
"sailing-trial","85","676651","0.0-11.0-40.0","","","","false","","","","","","","","","","587.3000000715256","","256.7000000476837","","1","1","arrowleft","0","arrowright","[0.15,0.85,0.325,0.675]","","",""
"sailing-trial","86","679117","0.0-11.0-41.0","","","","false","","","","","","","","","","null","","660","","3","1","null","null","arrowup","[0.15,0.85,0.325,0.675]","","",""
"sailing-trial","87","682768","0.0-11.0-42.0","","","","false","","","","","","","","","","704","","106.59999990463257","","1","1","arrowleft","0","arrowright","[0.15,0.85,0.325,0.675]","","",""
"sailing-trial","88","685466","0.0-11.0-43.0","","","","false","","","","","","","","","","null","","909.3000000715256","","1","1","null","null","arrowup","[0.15,0.85,0.325,0.675]","","",""
"sailing-trial","89","688689","0.0-11.0-44.0","","","","false","","","","","","","","","","415.7999999523163","","214.20000004768372","","3","0","arrowright","1","arrowright","[0.15,0.85,0.325,0.675]","","",""
"sailing-trial","90","691617","0.0-11.0-45.0","","","","false","","","","","","","","","","null","","957.1999999284744","","3","1","null","null","arrowup","[0.15,0.85,0.325,0.675]","","",""
"sailing-trial","91","694389","0.0-11.0-46.0","","","","false","","","","","","","","","","483.7000000476837","","19.699999928474426","","1","0","arrowleft","0","arrowright","[0.15,0.85,0.325,0.675]","","",""
"sailing-trial","92","697300","0.0-11.0-47.0","","","","false","","","","","","","","","","null","","959.0999999046326","","2","1","null","null","arrowup","[0.15,0.85,0.325,0.675]","","",""
"sailing-trial","93","700379","0.0-11.0-48.0","","","","false","","","","","","","","","","462.5","","198.60000002384186","","2","0","arrowright","1","arrowleft","[0.15,0.85,0.325,0.675]","","",""
"sailing-trial","94","703134","0.0-11.0-49.0","","","","false","","","","","","","","","","null","","882.8999999761581","","2","1","null","null","arrowup","[0.15,0.85,0.325,0.675]","","",""
"sailing-trial","95","706663","0.0-11.0-50.0","","","","false","","","","","","","","","","961.6000000238419","","149.10000002384186","","0","0","arrowleft","0","arrowleft","[0.15,0.85,0.325,0.675]","","",""
"sailing-trial","96","710033","0.0-11.0-51.0","","","","false","","","","","","","","","","null","","829.8999999761581","","2","0","null","null","arrowup","[0.15,0.85,0.325,0.675]","","",""
"sailing-trial","97","713479","0.0-11.0-52.0","","","","false","","","","","","","","","","1001.5","","37.60000002384186","","1","0","arrowleft","0","arrowright","[0.325,0.675,0.15,0.85]","","",""
"sailing-trial","98","716848","0.0-11.0-53.0","","","","false","","","","","","","","","","null","","978.7999999523163","","0","0","null","null","arrowup","[0.325,0.675,0.15,0.85]","","",""
"sailing-trial","99","720031","0.0-11.0-54.0","","","","false","","","","","","","","","","583","","105.60000002384186","","2","0","arrowright","1","arrowleft","[0.325,0.675,0.15,0.85]","","",""
"sailing-trial","100","723301","0.0-11.0-55.0","","","","false","","","","","","","","","","null","","1074.3999999761581","","3","1","null","null","arrowup","[0.325,0.675,0.15,0.85]","","",""
"sailing-trial","101","726885","0.0-11.0-56.0","","","","false","","","","","","","","","","417.5","","62","","1","1","arrowleft","0","arrowright","[0.325,0.675,0.15,0.85]","","",""
"sailing-trial","102","729619","0.0-11.0-57.0","","","","false","","","","","","","","","","null","","811.6999999284744","","0","1","null","null","arrowup","[0.325,0.675,0.15,0.85]","","",""
"sailing-trial","103","732968","0.0-11.0-58.0","","","","false","","","","","","","","","","433.09999990463257","","61.800000071525574","","3","1","arrowright","1","arrowright","[0.325,0.675,0.15,0.85]","","",""
"sailing-trial","104","735928","0.0-11.0-59.0","","","","false","","","","","","","","","","null","","859.7999999523163","","0","0","null","null","arrowup","[0.325,0.675,0.15,0.85]","","",""
"sailing-trial","105","739164","0.0-11.0-60.0","","","","false","","","","","","","","","","701.7999999523163","","148.5","","0","0","arrowleft","0","arrowleft","[0.325,0.675,0.15,0.85]","","",""
"sailing-trial","106","741580","0.0-11.0-61.0","","","","false","","","","","","","","","","null","","1115.6000000238419","","0","0","null","null","arrowup","[0.325,0.675,0.15,0.85]","","",""
"sailing-trial","107","745318","0.0-11.0-62.0","","","","false","","","","","","","","","","559.2000000476837","","404.10000002384186","","3","1","arrowright","1","arrowright","[0.325,0.675,0.15,0.85]","","",""
"sailing-trial","108","748173","0.0-11.0-63.0","","","","false","","","","","","","","","","null","","1333.1999999284744","","1","0","null","null","arrowup","[0.325,0.675,0.15,0.85]","","",""
"sailing-trial","109","751769","0.0-11.0-64.0","","","","false","","","","","","","","","","645.7000000476837","","61.299999952316284","","1","1","arrowleft","0","arrowright","[0.325,0.675,0.15,0.85]","","",""
"sailing-trial","110","753961","0.0-11.0-65.0","","","","false","","","","","","","","","","null","","883.3999999761581","","2","0","null","null","arrowup","[0.325,0.675,0.15,0.85]","","",""
"sailing-trial","111","758002","0.0-11.0-66.0","","","","false","","","","","","","","","","676.8000000715256","","557.7999999523163","","3","1","arrowright","1","arrowright","[0.325,0.675,0.15,0.85]","","",""
"sailing-trial","112","762402","0.0-11.0-67.0","","","","false","","","","","","","","","","null","","2550.2999999523163","","3","1","null","null","arrowup","[0.325,0.675,0.15,0.85]","","",""
"sailing-trial","113","765735","0.0-11.0-68.0","","","","false","","","","","","","","","","274.2000000476837","","213.79999995231628","","3","0","arrowright","1","arrowright","[0.675,0.325,0.85,0.15]","","",""
"sailing-trial","114","767972","0.0-11.0-69.0","","","","false","","","","","","","","","","null","","886.7000000476837","","1","0","null","null","arrowup","[0.675,0.325,0.85,0.15]","","",""
"sailing-trial","115","771820","0.0-11.0-70.0","","","","false","","","","","","","","","","609.8999999761581","","371.3000000715256","","2","1","arrowright","1","arrowleft","[0.675,0.325,0.85,0.15]","","",""
"sailing-trial","116","774605","0.0-11.0-71.0","","","","false","","","","","","","","","","null","","886.6000000238419","","0","1","null","null","arrowup","[0.675,0.325,0.85,0.15]","","",""
"sailing-trial","117","777668","0.0-11.0-72.0","","","","false","","","","","","","","","","531.2000000476837","","62.299999952316284","","0","0","arrowleft","0","arrowleft","[0.675,0.325,0.85,0.15]","","",""
"sailing-trial","118","779921","0.0-11.0-73.0","","","","false","","","","","","","","","","null","","841.3000000715256","","2","0","null","null","arrowup","[0.675,0.325,0.85,0.15]","","",""
"sailing-trial","119","783555","0.0-11.0-74.0","","","","false","","","","","","","","","","597.1000000238419","","9.799999952316284","","2","1","arrowright","1","arrowleft","[0.675,0.325,0.85,0.15]","","",""
"sailing-trial","120","785848","0.0-11.0-75.0","","","","false","","","","","","","","","","null","","943.6000000238419","","3","0","null","null","arrowup","[0.675,0.325,0.85,0.15]","","",""
"sailing-trial","121","789370","0.0-11.0-76.0","","","","false","","","","","","","","","","547","","105.30000007152557","","0","1","arrowleft","0","arrowleft","[0.675,0.325,0.85,0.15]","","",""
"sailing-trial","122","792888","0.0-11.0-77.0","","","","false","","","","","","","","","","null","","1647.5","","0","1","null","null","arrowup","[0.675,0.325,0.85,0.15]","","",""
"sailing-trial","123","796370","0.0-11.0-78.0","","","","false","","","","","","","","","","401.60000002384186","","164.89999997615814","","2","1","arrowright","1","arrowleft","[0.675,0.325,0.85,0.15]","","",""
"sailing-trial","124","798826","0.0-11.0-79.0","","","","false","","","","","","","","","","null","","1032.3000000715256","","1","0","null","null","arrowup","[0.675,0.325,0.85,0.15]","","",""
"sailing-trial","125","802720","0.0-11.0-80.0","","","","false","","","","","","","","","","636.6000000238419","","172.29999995231628","","0","1","arrowleft","0","arrowleft","[0.675,0.325,0.85,0.15]","","",""
"sailing-trial","126","805620","0.0-11.0-81.0","","","","false","","","","","","","","","","null","","1115.8999999761581","","0","1","null","null","arrowup","[0.675,0.325,0.85,0.15]","","",""
"sailing-trial","127","809239","0.0-11.0-82.0","","","","false","","","","","","","","","","529.2999999523163","","36.699999928474426","","2","1","arrowright","1","arrowleft","[0.675,0.325,0.85,0.15]","","",""
"sailing-trial","128","811481","0.0-11.0-83.0","","","","false","","","","","","","","","","null","","957.3999999761581","","0","0","null","null","arrowup","[0.675,0.325,0.85,0.15]","","",""
"sailing-trial","129","815604","0.0-11.0-84.0","","","","false","","","","","","","","","","838.6000000238419","","35.200000047683716","","0","1","arrowleft","0","arrowleft","[0.85,0.15,0.675,0.325]","","",""
"sailing-trial","130","817742","0.0-11.0-85.0","","","","false","","","","","","","","","","null","","869.4000000953674","","0","0","null","null","arrowup","[0.85,0.15,0.675,0.325]","","",""
"sailing-trial","131","822404","0.0-11.0-86.0","","","","false","","","","","","","","","","1024.6000000238419","","551.6999999284744","","0","1","arrowleft","0","arrowleft","[0.85,0.15,0.675,0.325]","","",""
"sailing-trial","132","825087","0.0-11.0-87.0","","","","false","","","","","","","","","","null","","868.1999999284744","","2","1","null","null","arrowup","[0.85,0.15,0.675,0.325]","","",""
"sailing-trial","133","828446","0.0-11.0-88.0","","","","false","","","","","","","","","","590.6000000238419","","398.2000000476837","","2","0","arrowright","1","arrowleft","[0.85,0.15,0.675,0.325]","","",""
"sailing-trial","134","831038","0.0-11.0-89.0","","","","false","","","","","","","","","","null","","1065.0999999046326","","3","0","null","null","arrowup","[0.85,0.15,0.675,0.325]","","",""
"sailing-trial","135","834771","0.0-11.0-90.0","","","","false","","","","","","","","","","563","","241.19999992847443","","0","1","arrowleft","0","arrowleft","[0.85,0.15,0.675,0.325]","","",""
"sailing-trial","136","836820","0.0-11.0-91.0","","","","false","","","","","","","","","","null","","804.5","","1","0","null","null","arrowup","[0.85,0.15,0.675,0.325]","","",""
"sailing-trial","137","840555","0.0-11.0-92.0","","","","false","","","","","","","","","","544.2000000476837","","189.5","","3","1","arrowright","1","arrowright","[0.85,0.15,0.675,0.325]","","",""
"sailing-trial","138","843058","0.0-11.0-93.0","","","","false","","","","","","","","","","null","","1318.3000000715256","","1","0","null","null","arrowup","[0.85,0.15,0.675,0.325]","","",""
"sailing-trial","139","846406","0.0-11.0-94.0","","","","false","","","","","","","","","","553.8999999761581","","82.60000002384186","","0","1","arrowleft","0","arrowleft","[0.85,0.15,0.675,0.325]","","",""
"sailing-trial","140","848553","0.0-11.0-95.0","","","","false","","","","","","","","","","null","","888.2999999523163","","1","0","null","null","arrowup","[0.85,0.15,0.675,0.325]","","",""
"sailing-trial","141","852423","0.0-11.0-96.0","","","","false","","","","","","","","","","635.1000000238419","","413.60000002384186","","2","1","arrowright","1","arrowleft","[0.85,0.15,0.675,0.325]","","",""
"sailing-trial","142","855171","0.0-11.0-97.0","","","","false","","","","","","","","","","null","","900.3000000715256","","0","1","null","null","arrowup","[0.85,0.15,0.675,0.325]","","",""
"sailing-trial","143","860623","0.0-11.0-98.0","","","","false","","","","","","","","","","569.1000000238419","","765.8999999761581","","2","1","arrowright","1","arrowleft","[0.85,0.15,0.675,0.325]","","",""
"sailing-trial","144","863588","0.0-11.0-99.0","","","","false","","","","","","","","","","null","","1166.7999999523163","","2","1","null","null","arrowup","[0.85,0.15,0.675,0.325]","","",""
"sailing-trial","145","867524","0.0-11.0-100.0","","","","false","","","","","","","","","","617.7000000476837","","150.30000007152557","","0","1","arrowleft","0","arrowleft","[0.675,0.325,0.85,0.15]","","",""
"sailing-trial","146","870190","0.0-11.0-101.0","","","","false","","","","","","","","","","null","","895.6000000238419","","0","1","null","null","arrowup","[0.675,0.325,0.85,0.15]","","",""
"sailing-trial","147","874138","0.0-11.0-102.0","","","","false","","","","","","","","","","1073.6000000238419","","48.60000002384186","","2","1","arrowright","1","arrowleft","[0.675,0.325,0.85,0.15]","","",""
"sailing-trial","148","877290","0.0-11.0-103.0","","","","false","","","","","","","","","","null","","1059","","0","1","null","null","arrowup","[0.675,0.325,0.85,0.15]","","",""
"sailing-trial","149","881055","0.0-11.0-104.0","","","","false","","","","","","","","","","701.3999999761581","","298.5","","2","1","arrowright","1","arrowleft","[0.675,0.325,0.85,0.15]","","",""
"sailing-trial","150","883566","0.0-11.0-105.0","","","","false","","","","","","","","","","null","","1004","","1","0","null","null","arrowup","[0.675,0.325,0.85,0.15]","","",""
"sailing-trial","151","886592","0.0-11.0-106.0","","","","false","","","","","","","","","","633.6999999284744","","71.60000002384186","","0","0","arrowleft","0","arrowleft","[0.675,0.325,0.85,0.15]","","",""
"sailing-trial","152","888703","0.0-11.0-107.0","","","","false","","","","","","","","","","null","","881.1000000238419","","2","0","null","null","arrowup","[0.675,0.325,0.85,0.15]","","",""
"sailing-trial","153","892361","0.0-11.0-108.0","","","","false","","","","","","","","","","590.5","","427.5","","3","0","arrowright","1","arrowright","[0.675,0.325,0.85,0.15]","","",""
"sailing-trial","154","894940","0.0-11.0-109.0","","","","false","","","","","","","","","","null","","784.7999999523163","","2","1","null","null","arrowup","[0.675,0.325,0.85,0.15]","","",""
"sailing-trial","155","898590","0.0-11.0-110.0","","","","false","","","","","","","","","","396.89999997615814","","249","","0","1","arrowleft","0","arrowleft","[0.675,0.325,0.85,0.15]","","",""
"sailing-trial","156","901240","0.0-11.0-111.0","","","","false","","","","","","","","","","null","","958.7999999523163","","0","1","null","null","arrowup","[0.675,0.325,0.85,0.15]","","",""
"sailing-trial","157","904607","0.0-11.0-112.0","","","","false","","","","","","","","","","541.5","","44.39999997615814","","2","1","arrowright","1","arrowleft","[0.675,0.325,0.85,0.15]","","",""
"sailing-trial","158","907177","0.0-11.0-113.0","","","","false","","","","","","","","","","null","","829.3000000715256","","2","0","null","null","arrowup","[0.675,0.325,0.85,0.15]","","",""
"sailing-trial","159","910940","0.0-11.0-114.0","","","","false","","","","","","","","","","728.1999999284744","","136.69999992847443","","0","1","arrowleft","0","arrowleft","[0.675,0.325,0.85,0.15]","","",""
"sailing-trial","160","914975","0.0-11.0-115.0","","","","false","","","","","","","","","","null","","1617.8999999761581","","2","1","null","null","arrowup","[0.675,0.325,0.85,0.15]","","",""
"sailing-trial","161","918640","0.0-11.0-116.0","","","","false","","","","","","","","","","548.3999999761581","","218","","2","1","arrowright","1","arrowleft","[0.85,0.15,0.675,0.325]","","",""
"sailing-trial","162","921302","0.0-11.0-117.0","","","","false","","","","","","","","","","null","","1061.6999999284744","","3","0","null","null","arrowup","[0.85,0.15,0.675,0.325]","","",""
"sailing-trial","163","925258","0.0-11.0-118.0","","","","false","","","","","","","","","","709.2000000476837","","339.2999999523163","","0","1","arrowleft","0","arrowleft","[0.85,0.15,0.675,0.325]","","",""
"sailing-trial","164","929044","0.0-11.0-119.0","","","","false","","","","","","","","","","null","","1481.7999999523163","","0","0","null","null","arrowup","[0.85,0.15,0.675,0.325]","","",""
"sailing-trial","165","932292","0.0-11.0-120.0","","","","false","","","","","","","","","","472.7000000476837","","45.39999997615814","","2","1","arrowright","1","arrowleft","[0.85,0.15,0.675,0.325]","","",""
"sailing-trial","166","936524","0.0-11.0-121.0","","","","false","","","","","","","","","","null","","2244.3000000715256","","1","1","null","null","arrowup","[0.85,0.15,0.675,0.325]","","",""
"sailing-trial","167","942244","0.0-11.0-122.0","","","","false","","","","","","","","","","1321.8999999761581","","402.5","","3","0","arrowright","1","arrowright","[0.85,0.15,0.675,0.325]","","",""
"sailing-trial","168","947725","0.0-11.0-123.0","","","","false","","","","","","","","","","null","","3672.100000023842","","2","1","null","null","arrowup","[0.85,0.15,0.675,0.325]","","",""
"sailing-trial","169","951442","0.0-11.0-124.0","","","","false","","","","","","","","","","415.60000002384186","","350.7999999523163","","0","1","arrowleft","0","arrowleft","[0.85,0.15,0.675,0.325]","","",""
"sailing-trial","170","954587","0.0-11.0-125.0","","","","false","","","","","","","","","","null","","1074.5999999046326","","3","0","null","null","arrowup","[0.85,0.15,0.675,0.325]","","",""
"sailing-trial","171","958193","0.0-11.0-126.0","","","","false","","","","","","","","","","584.3999999761581","","198.70000004768372","","0","1","arrowleft","0","arrowleft","[0.85,0.15,0.675,0.325]","","",""
"sailing-trial","172","960975","0.0-11.0-127.0","","","","false","","","","","","","","","","null","","892.2000000476837","","2","1","null","null","arrowup","[0.85,0.15,0.675,0.325]","","",""
"sailing-trial","173","963940","0.0-11.0-128.0","","","","false","","","","","","","","","","458.6999999284744","","121.89999997615814","","0","0","arrowleft","0","arrowleft","[0.85,0.15,0.675,0.325]","","",""
"sailing-trial","174","966347","0.0-11.0-129.0","","","","false","","","","","","","","","","null","","985.1000000238419","","2","0","null","null","arrowup","[0.85,0.15,0.675,0.325]","","",""
"sailing-trial","175","970158","0.0-11.0-130.0","","","","false","","","","","","","","","","586.1999999284744","","302.39999997615814","","3","1","arrowright","1","arrowright","[0.85,0.15,0.675,0.325]","","",""
"sailing-trial","176","972710","0.0-11.0-131.0","","","","false","","","","","","","","","","null","","1222.1999999284744","","3","0","null","null","arrowup","[0.85,0.15,0.675,0.325]","","",""
"sailing-trial","177","975918","0.0-11.0-132.0","","","","false","","","","","","","","","","489.7000000476837","","225.79999995231628","","1","0","arrowleft","0","arrowright","[0.85,0.15,0.675,0.325]","","",""
"sailing-trial","178","977977","0.0-11.0-133.0","","","","false","","","","","","","","","","null","","721","","0","0","null","null","arrowup","[0.85,0.15,0.675,0.325]","","",""
"sailing-trial","179","981173","0.0-11.0-134.0","","","","false","","","","","","","","","","622","","250","","1","0","arrowleft","0","arrowright","[0.85,0.15,0.675,0.325]","","",""
"sailing-trial","180","983423","0.0-11.0-135.0","","","","false","","","","","","","","","","null","","863.1999999284744","","1","0","null","null","arrowup","[0.85,0.15,0.675,0.325]","","",""
"sailing-trial","181","986494","0.0-11.0-136.0","","","","false","","","","","","","","","","431.59999990463257","","270.7000000476837","","3","0","arrowright","1","arrowright","[0.85,0.15,0.675,0.325]","","",""
"sailing-trial","182","989510","0.0-11.0-137.0","","","","false","","","","","","","","","","null","","962.8000000715256","","1","1","null","null","arrowup","[0.85,0.15,0.675,0.325]","","",""
"sailing-trial","183","992549","0.0-11.0-138.0","","","","false","","","","","","","","","","628.8000000715256","","4.199999928474426","","1","0","arrowleft","0","arrowright","[0.675,0.325,0.85,0.15]","","",""
"sailing-trial","184","995276","0.0-11.0-139.0","","","","false","","","","","","","","","","null","","849.7000000476837","","0","1","null","null","arrowup","[0.675,0.325,0.85,0.15]","","",""
"sailing-trial","185","998694","0.0-11.0-140.0","","","","false","","","","","","","","","","520.6000000238419","","52.40000009536743","","0","1","arrowleft","0","arrowleft","[0.675,0.325,0.85,0.15]","","",""
"sailing-trial","186","1000893","0.0-11.0-141.0","","","","false","","","","","","","","","","null","","857.9000000953674","","0","0","null","null","arrowup","[0.675,0.325,0.85,0.15]","","",""
"sailing-trial","187","1004927","0.0-11.0-142.0","","","","false","","","","","","","","","","422.7000000476837","","348.60000002384186","","2","1","arrowright","1","arrowleft","[0.675,0.325,0.85,0.15]","","",""
"sailing-trial","188","1007560","0.0-11.0-143.0","","","","false","","","","","","","","","","null","","783.5","","2","1","null","null","arrowup","[0.675,0.325,0.85,0.15]","","",""
"sailing-trial","189","1011526","0.0-11.0-144.0","","","","false","","","","","","","","","","830.7999999523163","","131.60000002384186","","0","1","arrowleft","0","arrowleft","[0.675,0.325,0.85,0.15]","","",""
"sailing-trial","190","1014178","0.0-11.0-145.0","","","","false","","","","","","","","","","null","","831.6999999284744","","0","1","null","null","arrowup","[0.675,0.325,0.85,0.15]","","",""
"sailing-trial","191","1017810","0.0-11.0-146.0","","","","false","","","","","","","","","","706.6000000238419","","185","","2","1","arrowright","1","arrowleft","[0.675,0.325,0.85,0.15]","","",""
"sailing-trial","192","1020544","0.0-11.0-147.0","","","","false","","","","","","","","","","null","","1014.1000000238419","","1","1","null","null","arrowup","[0.675,0.325,0.85,0.15]","","",""
"sailing-trial","193","1024110","0.0-11.0-148.0","","","","false","","","","","","","","","","508.5","","149.89999997615814","","0","1","arrowleft","0","arrowleft","[0.675,0.325,0.85,0.15]","","",""
"sailing-trial","194","1026261","0.0-11.0-149.0","","","","false","","","","","","","","","","null","","832.2999999523163","","3","0","null","null","arrowup","[0.675,0.325,0.85,0.15]","","",""
"sailing-trial","195","1029677","0.0-11.0-150.0","","","","false","","","","","","","","","","521.7000000476837","","91.60000002384186","","2","1","arrowright","1","arrowleft","[0.675,0.325,0.85,0.15]","","",""
"sailing-trial","196","1032042","0.0-11.0-151.0","","","","false","","","","","","","","","","null","","808.5","","0","0","null","null","arrowup","[0.675,0.325,0.85,0.15]","","",""
"sailing-trial","197","1035880","0.0-11.0-152.0","","","","false","","","","","","","","","","840.1000000238419","","239.89999997615814","","0","1","arrowleft","0","arrowleft","[0.675,0.325,0.85,0.15]","","",""
"sailing-trial","198","1038330","0.0-11.0-153.0","","","","false","","","","","","","","","","null","","808.1000000238419","","3","0","null","null","arrowup","[0.675,0.325,0.85,0.15]","","",""
"sailing-trial","199","1042295","0.0-11.0-154.0","","","","false","","","","","","","","","","475.89999997615814","","443","","0","1","arrowleft","0","arrowleft","[0.85,0.15,0.675,0.325]","","",""
"sailing-trial","200","1045364","0.0-11.0-155.0","","","","false","","","","","","","","","","null","","1335.5","","1","0","null","null","arrowup","[0.85,0.15,0.675,0.325]","","",""
"sailing-trial","201","1049095","0.0-11.0-156.0","","","","false","","","","","","","","","","513.6000000238419","","316.6999999284744","","2","1","arrowright","1","arrowleft","[0.85,0.15,0.675,0.325]","","",""
"sailing-trial","202","1051813","0.0-11.0-157.0","","","","false","","","","","","","","","","null","","924.6000000238419","","1","0","null","null","arrowup","[0.85,0.15,0.675,0.325]","","",""
"sailing-trial","203","1055912","0.0-11.0-158.0","","","","false","","","","","","","","","","997.3999999761581","","66.09999990463257","","0","1","arrowleft","0","arrowleft","[0.85,0.15,0.675,0.325]","","",""
"sailing-trial","204","1058945","0.0-11.0-159.0","","","","false","","","","","","","","","","null","","1230.6000000238419","","0","1","null","null","arrowup","[0.85,0.15,0.675,0.325]","","",""
"sailing-trial","205","1062596","0.0-11.0-160.0","","","","false","","","","","","","","","","633.5","","70.39999997615814","","2","1","arrowright","1","arrowleft","[0.85,0.15,0.675,0.325]","","",""
"sailing-trial","206","1065411","0.0-11.0-161.0","","","","false","","","","","","","","","","null","","846.3999999761581","","0","1","null","null","arrowup","[0.85,0.15,0.675,0.325]","","",""
"sailing-trial","207","1068812","0.0-11.0-162.0","","","","false","","","","","","","","","","807.5","","13.200000047683716","","2","0","arrowright","1","arrowleft","[0.85,0.15,0.675,0.325]","","",""
"sailing-trial","208","1071696","0.0-11.0-163.0","","","","false","","","","","","","","","","null","","1232.5999999046326","","1","0","null","null","arrowup","[0.85,0.15,0.675,0.325]","","",""
"sailing-trial","209","1076111","0.0-11.0-164.0","","","","false","","","","","","","","","","712.6000000238419","","427.7999999523163","","0","1","arrowleft","0","arrowleft","[0.85,0.15,0.675,0.325]","","",""
"sailing-trial","210","1079178","0.0-11.0-165.0","","","","false","","","","","","","","","","null","","1297.5","","0","1","null","null","arrowup","[0.85,0.15,0.675,0.325]","","",""
"sailing-trial","211","1083041","0.0-11.0-166.0","","","","false","","","","","","","","","","1258.3999999761581","","327","","2","0","arrowright","1","arrowleft","[0.85,0.15,0.675,0.325]","","",""
"sailing-trial","212","1085961","0.0-11.0-167.0","","","","false","","","","","","","","","","null","","990.8000000715256","","0","1","null","null","arrowup","[0.85,0.15,0.675,0.325]","","",""
"sailing-trial","213","1090212","0.0-11.0-168.0","","","","false","","","","","","","","","","520.7999999523163","","756.5","","0","1","arrowleft","0","arrowleft","[0.85,0.15,0.675,0.325]","","",""
"sailing-trial","214","1093342","0.0-11.0-169.0","","","","false","","","","","","","","","","null","","1738.7999999523163","","3","0","null","null","arrowup","[0.85,0.15,0.675,0.325]","","",""
"sailing-trial","215","1096899","0.0-11.0-170.0","","","","false","","","","","","","","","","718.6000000238419","","527.1000000238419","","0","0","arrowleft","0","arrowleft","[0.85,0.15,0.675,0.325]","","",""
"sailing-trial","216","1098865","0.0-11.0-171.0","","","","false","","","","","","","","","","null","","690.5999999046326","","3","0","null","null","arrowup","[0.85,0.15,0.675,0.325]","","",""
"sailing-trial","217","1102597","0.0-11.0-172.0","","","","false","","","","","","","","","","622.9000000953674","","356.7999999523163","","2","1","arrowright","1","arrowleft","[0.675,0.325,0.85,0.15]","","",""
"sailing-trial","218","1104669","0.0-11.0-173.0","","","","false","","","","","","","","","","null","","832.8000000715256","","3","0","null","null","arrowup","[0.675,0.325,0.85,0.15]","","",""
"sailing-trial","219","1108394","0.0-11.0-174.0","","","","false","","","","","","","","","","426.59999990463257","","377.1999999284744","","0","1","arrowleft","0","arrowleft","[0.675,0.325,0.85,0.15]","","",""
"sailing-trial","220","1110865","0.0-11.0-175.0","","","","false","","","","","","","","","","null","","955.2000000476837","","3","0","null","null","arrowup","[0.675,0.325,0.85,0.15]","","",""
"sailing-trial","221","1114663","0.0-11.0-176.0","","","","false","","","","","","","","","","558.2000000476837","","416.7000000476837","","2","1","arrowright","1","arrowleft","[0.675,0.325,0.85,0.15]","","",""
"sailing-trial","222","1117051","0.0-11.0-177.0","","","","false","","","","","","","","","","null","","1059.6000000238419","","3","0","null","null","arrowup","[0.675,0.325,0.85,0.15]","","",""
"sailing-trial","223","1120310","0.0-11.0-178.0","","","","false","","","","","","","","","","493.8000000715256","","327.1999999284744","","0","0","arrowleft","0","arrowleft","[0.675,0.325,0.85,0.15]","","",""
"sailing-trial","224","1122532","0.0-11.0-179.0","","","","false","","","","","","","","","","null","","911.1999999284744","","1","0","null","null","arrowup","[0.675,0.325,0.85,0.15]","","",""
"sailing-trial","225","1127195","0.0-11.0-180.0","","","","false","","","","","","","","","","566.6000000238419","","219.5","","2","1","arrowright","1","arrowleft","[0.675,0.325,0.85,0.15]","","",""
"sailing-trial","226","1129995","0.0-11.0-181.0","","","","false","","","","","","","","","","null","","961.6999999284744","","2","1","null","null","arrowup","[0.675,0.325,0.85,0.15]","","",""
"sailing-trial","227","1133779","0.0-11.0-182.0","","","","false","","","","","","","","","","451.59999990463257","","594.8000000715256","","0","1","arrowleft","0","arrowleft","[0.675,0.325,0.85,0.15]","","",""
"sailing-trial","228","1137402","0.0-11.0-183.0","","","","false","","","","","","","","","","null","","2291.600000023842","","1","0","null","null","arrowup","[0.675,0.325,0.85,0.15]","","",""
"sailing-trial","229","1141280","0.0-11.0-184.0","","","","false","","","","","","","","","","871.3999999761581","","459.1999999284744","","2","0","arrowright","1","arrowleft","[0.675,0.325,0.85,0.15]","","",""
"sailing-trial","230","1143914","0.0-11.0-185.0","","","","false","","","","","","","","","","null","","866.5","","0","1","null","null","arrowup","[0.675,0.325,0.85,0.15]","","",""
"sailing-trial","231","1147136","0.0-11.0-186.0","","","","false","","","","","","","","","","540","","313.6999999284744","","0","0","arrowleft","0","arrowleft","[0.675,0.325,0.85,0.15]","","",""
"sailing-trial","232","1150079","0.0-11.0-187.0","","","","false","","","","","","","","","","null","","989.7000000476837","","1","1","null","null","arrowup","[0.675,0.325,0.85,0.15]","","",""
"sailing-trial","233","1153552","0.0-11.0-188.0","","","","false","","","","","","","","","","651.2000000476837","","565.7999999523163","","3","0","arrowright","1","arrowright","[0.675,0.325,0.85,0.15]","","",""
"sailing-trial","234","1155839","0.0-11.0-189.0","","","","false","","","","","","","","","","null","","859.2000000476837","","1","0","null","null","arrowup","[0.675,0.325,0.85,0.15]","","",""
"sailing-trial","235","1159546","0.0-11.0-190.0","","","","false","","","","","","","","","","515.3000000715256","","380.5","","0","1","arrowleft","0","arrowleft","[0.675,0.325,0.85,0.15]","","",""
"sailing-trial","236","1162142","0.0-11.0-191.0","","","","false","","","","","","","","","","null","","1283.1999999284744","","2","0","null","null","arrowup","[0.675,0.325,0.85,0.15]","","",""
"sailing-trial","237","1165387","0.0-11.0-192.0","","","","false","","","","","","","","","","620.6999999284744","","316.90000009536743","","0","0","arrowleft","0","arrowleft","[0.675,0.325,0.85,0.15]","","",""
"sailing-trial","238","1168248","0.0-11.0-193.0","","","","false","","","","","","","","","","null","","884.8999999761581","","3","1","null","null","arrowup","[0.675,0.325,0.85,0.15]","","",""
"sailing-trial","239","1171850","0.0-11.0-194.0","","","","false","","","","","","","","","","423.6999999284744","","286.7000000476837","","3","0","arrowright","1","arrowright","[0.85,0.15,0.675,0.325]","","",""
"sailing-trial","240","1174515","0.0-11.0-195.0","","","","false","","","","","","","","","","null","","852.6999999284744","","0","1","null","null","arrowup","[0.85,0.15,0.675,0.325]","","",""
"sailing-trial","241","1178047","0.0-11.0-196.0","","","","false","","","","","","","","","","593.6999999284744","","188.29999995231628","","0","1","arrowleft","0","arrowleft","[0.85,0.15,0.675,0.325]","","",""
"sailing-trial","242","1180123","0.0-11.0-197.0","","","","false","","","","","","","","","","null","","782.5","","1","0","null","null","arrowup","[0.85,0.15,0.675,0.325]","","",""
"sailing-trial","243","1183828","0.0-11.0-198.0","","","","false","","","","","","","","","","652.5","","714","","0","0","arrowleft","0","arrowleft","[0.85,0.15,0.675,0.325]","","",""
"sailing-trial","244","1186305","0.0-11.0-199.0","","","","false","","","","","","","","","","null","","1047.4000000953674","","1","0","null","null","arrowup","[0.85,0.15,0.675,0.325]","","",""
"sailing-trial","245","1190192","0.0-11.0-200.0","","","","false","","","","","","","","","","603.3000000715256","","377","","2","0","arrowright","1","arrowleft","[0.85,0.15,0.675,0.325]","","",""
"sailing-trial","246","1192914","0.0-11.0-201.0","","","","false","","","","","","","","","","null","","902.7999999523163","","0","1","null","null","arrowup","[0.85,0.15,0.675,0.325]","","",""
"sailing-trial","247","1196215","0.0-11.0-202.0","","","","false","","","","","","","","","","639.5","","365.39999997615814","","2","0","arrowright","1","arrowleft","[0.85,0.15,0.675,0.325]","","",""
"sailing-trial","248","1199794","0.0-11.0-203.0","","","","false","","","","","","","","","","null","","879.5","","1","0","null","null","arrowup","[0.85,0.15,0.675,0.325]","","",""
"sailing-trial","249","1203665","0.0-11.0-204.0","","","","false","","","","","","","","","","577.2000000476837","","443.40000009536743","","0","1","arrowleft","0","arrowleft","[0.85,0.15,0.675,0.325]","","",""
"sailing-trial","250","1207198","0.0-11.0-205.0","","","","false","","","","","","","","","","null","","1388.5","","0","1","null","null","arrowup","[0.85,0.15,0.675,0.325]","","",""
"sailing-trial","251","1210981","0.0-11.0-206.0","","","","false","","","","","","","","","","891.5","","68.69999992847443","","2","1","arrowright","1","arrowleft","[0.85,0.15,0.675,0.325]","","",""
"sailing-trial","252","1213308","0.0-11.0-207.0","","","","false","","","","","","","","","","null","","896.6999999284744","","1","0","null","null","arrowup","[0.85,0.15,0.675,0.325]","","",""
"sailing-trial","253","1217281","0.0-11.0-208.0","","","","false","","","","","","","","","","698","","266.39999997615814","","2","1","arrowright","1","arrowleft","[0.85,0.15,0.675,0.325]","","",""
"sailing-trial","254","1220133","0.0-11.0-209.0","","","","false","","","","","","","","","","null","","997.6000000238419","","2","1","null","null","arrowup","[0.85,0.15,0.675,0.325]","","",""
"sailing-trial","255","1224150","0.0-11.0-210.0","","","","false","","","","","","","","","","939","","283.5","","0","1","arrowleft","0","arrowleft","[0.85,0.15,0.675,0.325]","","",""
"sailing-trial","256","1226089","0.0-11.0-211.0","","","","false","","","","","","","","","","null","","906.3999999761581","","2","0","null","null","arrowup","[0.85,0.15,0.675,0.325]","","",""
"sailing-trial","257","1230699","0.0-11.0-212.0","","","","false","","","","","","","","","","513.8999999761581","","1304.7999999523163","","0","1","arrowleft","0","arrowleft","[0.85,0.15,0.675,0.325]","","",""
"sailing-trial","258","1233417","0.0-11.0-213.0","","","","false","","","","","","","","","","null","","959.1999999284744","","3","1","null","null","arrowup","[0.85,0.15,0.675,0.325]","","",""
"sailing-trial","259","1237181","0.0-11.0-214.0","","","","false","","","","","","","","","","817.1999999284744","","477.5","","0","0","arrowleft","0","arrowleft","[0.85,0.15,0.675,0.325]","","",""
"sailing-trial","260","1240033","0.0-11.0-215.0","","","","false","","","","","","","","","","null","","1117.3000000715256","","0","1","null","null","arrowup","[0.85,0.15,0.675,0.325]","","",""
"sailing-trial","261","1243666","0.0-11.0-216.0","","","","false","","","","","","","","","","668.7999999523163","","161.5","","2","1","arrowright","1","arrowleft","[0.85,0.15,0.675,0.325]","","",""
"sailing-trial","262","1246465","0.0-11.0-217.0","","","","false","","","","","","","","","","null","","836.1000000238419","","2","1","null","null","arrowup","[0.85,0.15,0.675,0.325]","","",""
"sailing-trial","263","1249713","0.0-11.0-218.0","","","","false","","","","","","","","","","717.9000000953674","","211","","0","0","arrowleft","0","arrowleft","[0.15,0.85,0.325,0.675]","","",""
"sailing-trial","264","1252101","0.0-11.0-219.0","","","","false","","","","","","","","","","null","","1028.8999999761581","","3","0","null","null","arrowup","[0.15,0.85,0.325,0.675]","","",""
"sailing-trial","265","1255199","0.0-11.0-220.0","","","","false","","","","","","","","","","580.3000000715256","","120","","2","0","arrowright","1","arrowleft","[0.15,0.85,0.325,0.675]","","",""
"sailing-trial","266","1257800","0.0-11.0-221.0","","","","false","","","","","","","","","","null","","1227.6999999284744","","1","0","null","null","arrowup","[0.15,0.85,0.325,0.675]","","",""
"sailing-trial","267","1261502","0.0-11.0-222.0","","","","false","","","","","","","","","","584.4000000953674","","96.70000004768372","","0","1","arrowleft","0","arrowleft","[0.15,0.85,0.325,0.675]","","",""
"sailing-trial","268","1263685","0.0-11.0-223.0","","","","false","","","","","","","","","","null","","869.1999999284744","","0","0","null","null","arrowup","[0.15,0.85,0.325,0.675]","","",""
"sailing-trial","269","1267857","0.0-11.0-224.0","","","","false","","","","","","","","","","731.5","","878.1000000238419","","2","0","arrowright","1","arrowleft","[0.15,0.85,0.325,0.675]","","",""
"sailing-trial","270","1270057","0.0-11.0-225.0","","","","false","","","","","","","","","","null","","839.8999999761581","","1","0","null","null","arrowup","[0.15,0.85,0.325,0.675]","","",""
"sailing-trial","271","1273074","0.0-11.0-226.0","","","","false","","","","","","","","","","447.60000002384186","","294.7999999523163","","0","0","arrowleft","0","arrowleft","[0.15,0.85,0.325,0.675]","","",""
"sailing-trial","272","1275269","0.0-11.0-227.0","","","","false","","","","","","","","","","null","","906.0999999046326","","1","0","null","null","arrowup","[0.15,0.85,0.325,0.675]","","",""
"sailing-trial","273","1278917","0.0-11.0-228.0","","","","false","","","","","","","","","","647.5","","172.79999995231628","","2","1","arrowright","1","arrowleft","[0.15,0.85,0.325,0.675]","","",""
"sailing-trial","274","1280936","0.0-11.0-229.0","","","","false","","","","","","","","","","null","","757.1000000238419","","2","0","null","null","arrowup","[0.15,0.85,0.325,0.675]","","",""
"sailing-trial","275","1284616","0.0-11.0-230.0","","","","false","","","","","","","","","","667.7999999523163","","215.10000002384186","","3","1","arrowright","1","arrowright","[0.15,0.85,0.325,0.675]","","",""
"sailing-trial","276","1287333","0.0-11.0-231.0","","","","false","","","","","","","","","","null","","883.5","","3","1","null","null","arrowup","[0.15,0.85,0.325,0.675]","","",""
"sailing-trial","277","1291001","0.0-11.0-232.0","","","","false","","","","","","","","","","606.6000000238419","","287.39999997615814","","1","1","arrowleft","0","arrowright","[0.15,0.85,0.325,0.675]","","",""
"sailing-trial","278","1293055","0.0-11.0-233.0","","","","false","","","","","","","","","","null","","784.8999999761581","","0","0","null","null","arrowup","[0.15,0.85,0.325,0.675]","","",""
"sailing-trial","279","1297018","0.0-11.0-234.0","","","","false","","","","","","","","","","538.7999999523163","","614.2999999523163","","3","1","arrowright","1","arrowright","[0.15,0.85,0.325,0.675]","","",""
"sailing-trial","280","1299917","0.0-11.0-235.0","","","","false","","","","","","","","","","null","","874","","3","1","null","null","arrowup","[0.15,0.85,0.325,0.675]","","",""
"sailing-trial","281","1303552","0.0-11.0-236.0","","","","false","","","","","","","","","","491.2999999523163","","363.6999999284744","","1","1","arrowleft","0","arrowright","[0.15,0.85,0.325,0.675]","","",""
"sailing-trial","282","1305688","0.0-11.0-237.0","","","","false","","","","","","","","","","null","","865.8000000715256","","2","0","null","null","arrowup","[0.15,0.85,0.325,0.675]","","",""
"sailing-trial","283","1309267","0.0-11.0-238.0","","","","false","","","","","","","","","","574.7000000476837","","189.10000002384186","","3","1","arrowright","1","arrowright","[0.325,0.675,0.15,0.85]","","",""
"sailing-trial","284","1311920","0.0-11.0-239.0","","","","false","","","","","","","","","","null","","1175.8999999761581","","0","0","null","null","arrowup","[0.325,0.675,0.15,0.85]","","",""
"sailing-trial","285","1315717","0.0-11.0-240.0","","","","false","","","","","","","","","","655.3000000715256","","213.39999997615814","","1","1","arrowleft","0","arrowright","[0.325,0.675,0.15,0.85]","","",""
"sailing-trial","286","1318047","0.0-11.0-241.0","","","","false","","","","","","","","","","null","","945.2000000476837","","1","0","null","null","arrowup","[0.325,0.675,0.15,0.85]","","",""
"sailing-trial","287","1321417","0.0-11.0-242.0","","","","false","","","","","","","","","","639.7000000476837","","372.7000000476837","","3","0","arrowright","1","arrowright","[0.325,0.675,0.15,0.85]","","",""
"sailing-trial","288","1324501","0.0-11.0-243.0","","","","false","","","","","","","","","","null","","1067.2999999523163","","2","1","null","null","arrowup","[0.325,0.675,0.15,0.85]","","",""
"sailing-trial","289","1328501","0.0-11.0-244.0","","","","false","","","","","","","","","","545.7000000476837","","244.89999997615814","","3","1","arrowright","1","arrowright","[0.325,0.675,0.15,0.85]","","",""
"sailing-trial","290","1331386","0.0-11.0-245.0","","","","false","","","","","","","","","","null","","1017.2000000476837","","3","1","null","null","arrowup","[0.325,0.675,0.15,0.85]","","",""
"sailing-trial","291","1335284","0.0-11.0-246.0","","","","false","","","","","","","","","","195","","531.5","","3","1","arrowright","1","arrowright","[0.325,0.675,0.15,0.85]","","",""
"sailing-trial","292","1337380","0.0-11.0-247.0","","","","false","","","","","","","","","","null","","762.1999999284744","","2","0","null","null","arrowup","[0.325,0.675,0.15,0.85]","","",""
"sailing-trial","293","1341081","0.0-11.0-248.0","","","","false","","","","","","","","","","820.8999999761581","","511.2000000476837","","1","0","arrowleft","0","arrowright","[0.325,0.675,0.15,0.85]","","",""
"sailing-trial","294","1344203","0.0-11.0-249.0","","","","false","","","","","","","","","","null","","996.7999999523163","","3","1","null","null","arrowup","[0.325,0.675,0.15,0.85]","","",""
"sailing-trial","295","1347736","0.0-11.0-250.0","","","","false","","","","","","","","","","266","","238.19999992847443","","3","1","arrowright","1","arrowright","[0.325,0.675,0.15,0.85]","","",""
"sailing-trial","296","1351635","0.0-11.0-251.0","","","","false","","","","","","","","","","null","","1913.5999999046326","","0","1","null","null","arrowup","[0.325,0.675,0.15,0.85]","","",""
"sailing-trial","297","1355670","0.0-11.0-252.0","","","","false","","","","","","","","","","1054.5","","27.5","","1","1","arrowleft","0","arrowright","[0.325,0.675,0.15,0.85]","","",""
"sailing-trial","298","1358686","0.0-11.0-253.0","","","","false","","","","","","","","","","null","","924","","3","1","null","null","arrowup","[0.325,0.675,0.15,0.85]","","",""
"sailing-trial","299","1362669","0.0-11.0-254.0","","","","false","","","","","","","","","","353.10000002384186","","550.6000000238419","","3","1","arrowright","1","arrowright","[0.325,0.675,0.15,0.85]","","",""
"sailing-trial","300","1365586","0.0-11.0-255.0","","","","false","","","","","","","","","","null","","820.2999999523163","","1","1","null","null","arrowup","[0.325,0.675,0.15,0.85]","","",""
"sailing-trial","301","1369238","0.0-11.0-256.0","","","","false","","","","","","","","","","646.8999999761581","","205.60000002384186","","3","1","arrowright","1","arrowright","[0.325,0.675,0.15,0.85]","","",""
"sailing-trial","302","1371920","0.0-11.0-257.0","","","","false","","","","","","","","","","null","","887.5999999046326","","3","1","null","null","arrowup","[0.325,0.675,0.15,0.85]","","",""
"sailing-trial","303","1375902","0.0-11.0-258.0","","","","false","","","","","","","","","","655.3999999761581","","415.60000002384186","","1","1","arrowleft","0","arrowright","[0.15,0.85,0.325,0.675]","","",""
"sailing-trial","304","1379068","0.0-11.0-259.0","","","","false","","","","","","","","","","null","","1784.7000000476837","","2","0","null","null","arrowup","[0.15,0.85,0.325,0.675]","","",""
"sailing-trial","305","1384653","0.0-11.0-260.0","","","","false","","","","","","","","","","671.0999999046326","","309.40000009536743","","3","1","arrowright","1","arrowright","[0.15,0.85,0.325,0.675]","","",""
"sailing-trial","306","1388454","0.0-11.0-261.0","","","","false","","","","","","","","","","null","","1937.8999999761581","","2","1","null","null","arrowup","[0.15,0.85,0.325,0.675]","","",""
"sailing-trial","307","1392352","0.0-11.0-262.0","","","","false","","","","","","","","","","749.9000000953674","","348.2999999523163","","3","1","arrowright","1","arrowright","[0.15,0.85,0.325,0.675]","","",""
"sailing-trial","308","1395120","0.0-11.0-263.0","","","","false","","","","","","","","","","null","","814","","1","1","null","null","arrowup","[0.15,0.85,0.325,0.675]","","",""
"sailing-trial","309","1399288","0.0-11.0-264.0","","","","false","","","","","","","","","","550.2000000476837","","282.10000002384186","","1","1","arrowleft","0","arrowright","[0.15,0.85,0.325,0.675]","","",""
"sailing-trial","310","1401471","0.0-11.0-265.0","","","","false","","","","","","","","","","null","","863.3000000715256","","3","0","null","null","arrowup","[0.15,0.85,0.325,0.675]","","",""
"sailing-trial","311","1405287","0.0-11.0-266.0","","","","false","","","","","","","","","","785.8000000715256","","159.89999997615814","","1","1","arrowleft","0","arrowright","[0.15,0.85,0.325,0.675]","","",""
"sailing-trial","312","1408070","0.0-11.0-267.0","","","","false","","","","","","","","","","null","","743.8000000715256","","0","1","null","null","arrowup","[0.15,0.85,0.325,0.675]","","",""
"sailing-trial","313","1411954","0.0-11.0-268.0","","","","false","","","","","","","","","","600.2999999523163","","217.10000002384186","","3","1","arrowright","1","arrowright","[0.15,0.85,0.325,0.675]","","",""
"sailing-trial","314","1414788","0.0-11.0-269.0","","","","false","","","","","","","","","","null","","906.3999999761581","","3","1","null","null","arrowup","[0.15,0.85,0.325,0.675]","","",""
"sailing-trial","315","1418953","0.0-11.0-270.0","","","","false","","","","","","","","","","927.1000000238419","","182.60000002384186","","1","1","arrowleft","0","arrowright","[0.15,0.85,0.325,0.675]","","",""
"sailing-trial","316","1421175","0.0-11.0-271.0","","","","false","","","","","","","","","","null","","833.3000000715256","","3","0","null","null","arrowup","[0.15,0.85,0.325,0.675]","","",""
"sailing-trial","317","1424637","0.0-11.0-272.0","","","","false","","","","","","","","","","642.3999999761581","","45.60000002384186","","3","1","arrowright","1","arrowright","[0.15,0.85,0.325,0.675]","","",""
"sailing-trial","318","1427270","0.0-11.0-273.0","","","","false","","","","","","","","","","null","","893.8999999761581","","3","1","null","null","arrowup","[0.15,0.85,0.325,0.675]","","",""
"sailing-trial","319","1432419","0.0-11.0-274.0","","","","false","","","","","","","","","","789.3000000715256","","1597.7000000476837","","3","1","arrowright","1","arrowright","[0.15,0.85,0.325,0.675]","","",""
"sailing-trial","320","1435037","0.0-11.0-275.0","","","","false","","","","","","","","","","null","","1073","","1","1","null","null","arrowup","[0.15,0.85,0.325,0.675]","","",""
"sailing-trial","321","1437960","0.0-11.0-276.0","","","","false","","","","","","","","","","556.1999999284744","","36.699999928474426","","1","0","arrowleft","0","arrowright","[0.85,0.15,0.675,0.325]","","",""
"sailing-trial","322","1440571","0.0-11.0-277.0","","","","false","","","","","","","","","","null","","795.0999999046326","","0","1","null","null","arrowup","[0.85,0.15,0.675,0.325]","","",""
"sailing-trial","323","1446400","0.0-11.0-278.0","","","","false","","","","","","","","","","590.1000000238419","","2901.5","","3","0","arrowright","1","arrowright","[0.85,0.15,0.675,0.325]","","",""
"sailing-trial","324","1449038","0.0-11.0-279.0","","","","false","","","","","","","","","","null","","825.8000000715256","","2","1","null","null","arrowup","[0.85,0.15,0.675,0.325]","","",""
"sailing-trial","325","1452653","0.0-11.0-280.0","","","","false","","","","","","","","","","543","","250.80000007152557","","0","1","arrowleft","0","arrowleft","[0.85,0.15,0.675,0.325]","","",""
"sailing-trial","326","1456424","0.0-11.0-281.0","","","","false","","","","","","","","","","null","","2228.1999999284744","","1","0","null","null","arrowup","[0.85,0.15,0.675,0.325]","","",""
"sailing-trial","327","1460687","0.0-11.0-282.0","","","","false","","","","","","","","","","908.7999999523163","","417.5","","0","1","arrowleft","0","arrowleft","[0.85,0.15,0.675,0.325]","","",""
"sailing-trial","328","1463322","0.0-11.0-283.0","","","","false","","","","","","","","","","null","","801.7999999523163","","2","1","null","null","arrowup","[0.85,0.15,0.675,0.325]","","",""
"sailing-trial","329","1467221","0.0-11.0-284.0","","","","false","","","","","","","","","","508.89999997615814","","465","","2","1","arrowright","1","arrowleft","[0.85,0.15,0.675,0.325]","","",""
"sailing-trial","330","1470270","0.0-11.0-285.0","","","","false","","","","","","","","","","null","","905.8999999761581","","2","1","null","null","arrowup","[0.85,0.15,0.675,0.325]","","",""
"sailing-trial","331","1474473","0.0-11.0-286.0","","","","false","","","","","","","","","","717","","563.3000000715256","","3","1","arrowright","1","arrowright","[0.85,0.15,0.675,0.325]","","",""
"sailing-trial","332","1477106","0.0-11.0-287.0","","","","false","","","","","","","","","","null","","800.8999999761581","","0","1","null","null","arrowup","[0.85,0.15,0.675,0.325]","","",""
"sailing-trial","333","1480921","0.0-11.0-288.0","","","","false","","","","","","","","","","520.7000000476837","","325.10000002384186","","2","1","arrowright","1","arrowleft","[0.85,0.15,0.675,0.325]","","",""
"sailing-trial","334","1483905","0.0-11.0-289.0","","","","false","","","","","","","","","","null","","1165.3000000715256","","3","1","null","null","arrowup","[0.85,0.15,0.675,0.325]","","",""
"sailing-trial","335","1489306","0.0-11.0-290.0","","","","false","","","","","","","","","","742.2000000476837","","1918.2000000476837","","0","1","arrowleft","0","arrowleft","[0.85,0.15,0.675,0.325]","","",""
"sailing-trial","336","1492039","0.0-11.0-291.0","","","","false","","","","","","","","","","null","","877.3999999761581","","1","1","null","null","arrowup","[0.85,0.15,0.675,0.325]","","",""
"sailing-trial","337","1495468","0.0-11.0-292.0","","","","false","","","","","","","","","","648.8000000715256","","367.8000000715256","","2","0","arrowright","1","arrowleft","[0.675,0.325,0.85,0.15]","","",""
"sailing-trial","338","1497409","0.0-11.0-293.0","","","","false","","","","","","","","","","null","","795.8999999761581","","1","0","null","null","arrowup","[0.675,0.325,0.85,0.15]","","",""
"sailing-trial","339","1500957","0.0-11.0-294.0","","","","false","","","","","","","","","","578.3999999761581","","236","","0","1","arrowleft","0","arrowleft","[0.675,0.325,0.85,0.15]","","",""
"sailing-trial","340","1503572","0.0-11.0-295.0","","","","false","","","","","","","","","","null","","874.2999999523163","","2","1","null","null","arrowup","[0.675,0.325,0.85,0.15]","","",""
"sailing-trial","341","1506924","0.0-11.0-296.0","","","","false","","","","","","","","","","700.5","","47.199999928474426","","2","1","arrowright","1","arrowleft","[0.675,0.325,0.85,0.15]","","",""
"sailing-trial","342","1509860","0.0-11.0-297.0","","","","false","","","","","","","","","","null","","1635","","0","0","null","null","arrowup","[0.675,0.325,0.85,0.15]","","",""
"sailing-trial","343","1513957","0.0-11.0-298.0","","","","false","","","","","","","","","","853.1999999284744","","358.6999999284744","","2","1","arrowright","1","arrowleft","[0.675,0.325,0.85,0.15]","","",""
"sailing-trial","344","1517225","0.0-11.0-299.0","","","","false","","","","","","","","","","null","","1225.7999999523163","","2","1","null","null","arrowup","[0.675,0.325,0.85,0.15]","","",""
"sailing-trial","345","1521228","0.0-11.0-300.0","","","","false","","","","","","","","","","680","","301.60000002384186","","0","1","arrowleft","0","arrowleft","[0.675,0.325,0.85,0.15]","","",""
"sailing-trial","346","1523794","0.0-11.0-301.0","","","","false","","","","","","","","","","null","","1402.3000000715256","","1","0","null","null","arrowup","[0.675,0.325,0.85,0.15]","","",""
"sailing-trial","347","1527906","0.0-11.0-302.0","","","","false","","","","","","","","","","659.8999999761581","","415.5","","2","1","arrowright","1","arrowleft","[0.675,0.325,0.85,0.15]","","",""
"sailing-trial","348","1533890","0.0-11.0-303.0","","","","false","","","","","","","","","","null","","1750.5","","0","1","null","null","arrowup","[0.675,0.325,0.85,0.15]","","",""
"sailing-trial","349","1537923","0.0-11.0-304.0","","","","false","","","","","","","","","","516.8999999761581","","175.29999995231628","","0","1","arrowleft","0","arrowleft","[0.675,0.325,0.85,0.15]","","",""
"sailing-trial","350","1540874","0.0-11.0-305.0","","","","false","","","","","","","","","","null","","937.5","","1","1","null","null","arrowup","[0.675,0.325,0.85,0.15]","","",""
"sailing-trial","351","1544390","0.0-11.0-306.0","","","","false","","","","","","","","","","554.7999999523163","","303.40000009536743","","0","1","arrowleft","0","arrowleft","[0.675,0.325,0.85,0.15]","","",""
"sailing-trial","352","1546555","0.0-11.0-307.0","","","","false","","","","","","","","","","null","","876.5999999046326","","3","0","null","null","arrowup","[0.675,0.325,0.85,0.15]","","",""
"sailing-trial","353","1552111","0.0-11.0-308.0","","","","false","","","","","","","","","","506.10000002384186","","1033.4000000953674","","2","0","arrowright","1","arrowleft","[0.85,0.15,0.675,0.325]","","",""
"sailing-trial","354","1554490","0.0-11.0-309.0","","","","false","","","","","","","","","","null","","1126.3000000715256","","1","0","null","null","arrowup","[0.85,0.15,0.675,0.325]","","",""
"sailing-trial","355","1558008","0.0-11.0-310.0","","","","false","","","","","","","","","","489.2000000476837","","274.60000002384186","","0","1","arrowleft","0","arrowleft","[0.85,0.15,0.675,0.325]","","",""
"sailing-trial","356","1560399","0.0-11.0-311.0","","","","false","","","","","","","","","","null","","1109.8000000715256","","2","0","null","null","arrowup","[0.85,0.15,0.675,0.325]","","",""
"sailing-trial","357","1564075","0.0-11.0-312.0","","","","false","","","","","","","","","","674","","379.8000000715256","","2","1","arrowright","1","arrowleft","[0.85,0.15,0.675,0.325]","","",""
"sailing-trial","358","1566758","0.0-11.0-313.0","","","","false","","","","","","","","","","null","","892.6000000238419","","2","1","null","null","arrowup","[0.85,0.15,0.675,0.325]","","",""
"sailing-trial","359","1570724","0.0-11.0-314.0","","","","false","","","","","","","","","","816.8000000715256","","198.39999997615814","","0","1","arrowleft","0","arrowleft","[0.85,0.15,0.675,0.325]","","",""
"sailing-trial","360","1573408","0.0-11.0-315.0","","","","false","","","","","","","","","","null","","849.6000000238419","","2","1","null","null","arrowup","[0.85,0.15,0.675,0.325]","","",""
"sailing-trial","361","1576908","0.0-11.0-316.0","","","","false","","","","","","","","","","240.69999992847443","","203.10000002384186","","0","1","arrowleft","0","arrowleft","[0.85,0.15,0.675,0.325]","","",""
"sailing-trial","362","1579134","0.0-11.0-317.0","","","","false","","","","","","","","","","null","","868.2000000476837","","2","0","null","null","arrowup","[0.85,0.15,0.675,0.325]","","",""
"sailing-trial","363","1582934","0.0-11.0-318.0","","","","false","","","","","","","","","","994.3999999761581","","302.89999997615814","","2","0","arrowright","1","arrowleft","[0.85,0.15,0.675,0.325]","","",""
"sailing-trial","364","1585674","0.0-11.0-319.0","","","","false","","","","","","","","","","null","","852.7999999523163","","2","1","null","null","arrowup","[0.85,0.15,0.675,0.325]","","",""
"sailing-trial","365","1589341","0.0-11.0-320.0","","","","false","","","","","","","","","","679.2000000476837","","15","","0","1","arrowleft","0","arrowleft","[0.85,0.15,0.675,0.325]","","",""
"sailing-trial","366","1591772","0.0-11.0-321.0","","","","false","","","","","","","","","","null","","1012.5","","0","0","null","null","arrowup","[0.85,0.15,0.675,0.325]","","",""
"sailing-trial","367","1596075","0.0-11.0-322.0","","","","false","","","","","","","","","","1079.1000000238419","","410.3000000715256","","0","1","arrowleft","0","arrowleft","[0.85,0.15,0.675,0.325]","","",""
"sailing-trial","368","1599194","0.0-11.0-323.0","","","","false","","","","","","","","","","null","","802.1000000238419","","2","1","null","null","arrowup","[0.85,0.15,0.675,0.325]","","",""
"sailing-trial","369","1602355","0.0-11.0-324.0","","","","false","","","","","","","","","","436.09999990463257","","182.89999997615814","","2","0","arrowright","1","arrowleft","[0.85,0.15,0.675,0.325]","","",""
"sailing-trial","370","1605293","0.0-11.0-325.0","","","","false","","","","","","","","","","null","","791.8999999761581","","0","1","null","null","arrowup","[0.85,0.15,0.675,0.325]","","",""
"sailing-trial","371","1608775","0.0-11.0-326.0","","","","false","","","","","","","","","","505.6999999284744","","8.399999976158142","","0","1","arrowleft","0","arrowleft","[0.85,0.15,0.675,0.325]","","",""
"sailing-trial","372","1611592","0.0-11.0-327.0","","","","false","","","","","","","","","","null","","835.8999999761581","","2","1","null","null","arrowup","[0.85,0.15,0.675,0.325]","","",""
"sailing-trial","373","1615842","0.0-11.0-328.0","","","","false","","","","","","","","","","1281.1000000238419","","184.69999992847443","","2","1","arrowright","1","arrowleft","[0.675,0.325,0.85,0.15]","","",""
"sailing-trial","374","1619313","0.0-11.0-329.0","","","","false","","","","","","","","","","null","","1941.2000000476837","","1","0","null","null","arrowup","[0.675,0.325,0.85,0.15]","","",""
"sailing-trial","375","1622759","0.0-11.0-330.0","","","","false","","","","","","","","","","546.8000000715256","","159.19999992847443","","0","1","arrowleft","0","arrowleft","[0.675,0.325,0.85,0.15]","","",""
"sailing-trial","376","1625792","0.0-11.0-331.0","","","","false","","","","","","","","","","null","","1209.6999999284744","","2","1","null","null","arrowup","[0.675,0.325,0.85,0.15]","","",""
"sailing-trial","377","1629593","0.0-11.0-332.0","","","","false","","","","","","","","","","616.4000000953674","","371.60000002384186","","2","1","arrowright","1","arrowleft","[0.675,0.325,0.85,0.15]","","",""
"sailing-trial","378","1632112","0.0-11.0-333.0","","","","false","","","","","","","","","","null","","782.1999999284744","","0","1","null","null","arrowup","[0.675,0.325,0.85,0.15]","","",""
"sailing-trial","379","1635675","0.0-11.0-334.0","","","","false","","","","","","","","","","738","","394.8000000715256","","0","0","arrowleft","0","arrowleft","[0.675,0.325,0.85,0.15]","","",""
"sailing-trial","380","1639142","0.0-11.0-335.0","","","","false","","","","","","","","","","null","","1739.7000000476837","","3","0","null","null","arrowup","[0.675,0.325,0.85,0.15]","","",""
"sailing-trial","381","1643294","0.0-11.0-336.0","","","","false","","","","","","","","","","1415.3999999761581","","28.699999928474426","","0","1","arrowleft","0","arrowleft","[0.675,0.325,0.85,0.15]","","",""
"sailing-trial","382","1645844","0.0-11.0-337.0","","","","false","","","","","","","","","","null","","888.1999999284744","","0","1","null","null","arrowup","[0.675,0.325,0.85,0.15]","","",""
"sailing-trial","383","1650126","0.0-11.0-338.0","","","","false","","","","","","","","","","1030.8999999761581","","423.60000002384186","","2","1","arrowright","1","arrowleft","[0.675,0.325,0.85,0.15]","","",""
"sailing-trial","384","1653012","0.0-11.0-339.0","","","","false","","","","","","","","","","null","","812.9000000953674","","1","1","null","null","arrowup","[0.675,0.325,0.85,0.15]","","",""
"sailing-trial","385","1656179","0.0-11.0-340.0","","","","false","","","","","","","","","","985.6000000238419","","15.900000095367432","","0","0","arrowleft","0","arrowleft","[0.675,0.325,0.85,0.15]","","",""
"sailing-trial","386","1658795","0.0-11.0-341.0","","","","false","","","","","","","","","","null","","867.6999999284744","","1","1","null","null","arrowup","[0.675,0.325,0.85,0.15]","","",""
"sailing-trial","387","1662013","0.0-11.0-342.0","","","","false","","","","","","","","","","610.2000000476837","","382","","3","0","arrowright","1","arrowright","[0.675,0.325,0.85,0.15]","","",""
"sailing-trial","388","1665511","0.0-11.0-343.0","","","","false","","","","","","","","","","null","","1543.1000000238419","","1","1","null","null","arrowup","[0.675,0.325,0.85,0.15]","","",""
"sailing-trial","389","1668686","0.0-11.0-344.0","","","","false","","","","","","","","","","655.2999999523163","","10.5","","1","0","arrowleft","0","arrowright","[0.675,0.325,0.85,0.15]","","",""
"sailing-trial","390","1671277","0.0-11.0-345.0","","","","false","","","","","","","","","","null","","822.5","","2","1","null","null","arrowup","[0.675,0.325,0.85,0.15]","","",""
"sailing-trial","391","1675277","0.0-11.0-346.0","","","","false","","","","","","","","","","759.8000000715256","","183.29999995231628","","2","1","arrowright","1","arrowleft","[0.85,0.15,0.675,0.325]","","",""
"sailing-trial","392","1677911","0.0-11.0-347.0","","","","false","","","","","","","","","","null","","838.3999999761581","","2","1","null","null","arrowup","[0.85,0.15,0.675,0.325]","","",""
"sailing-trial","393","1682177","0.0-11.0-348.0","","","","false","","","","","","","","","","682.6000000238419","","506.10000002384186","","2","1","arrowright","1","arrowleft","[0.85,0.15,0.675,0.325]","","",""
"sailing-trial","394","1684894","0.0-11.0-349.0","","","","false","","","","","","","","","","null","","798","","2","1","null","null","arrowup","[0.85,0.15,0.675,0.325]","","",""
"sailing-trial","395","1688795","0.0-11.0-350.0","","","","false","","","","","","","","","","511","","318.89999997615814","","2","1","arrowright","1","arrowleft","[0.85,0.15,0.675,0.325]","","",""
"sailing-trial","396","1690805","0.0-11.0-351.0","","","","false","","","","","","","","","","null","","918.8999999761581","","1","0","null","null","arrowup","[0.85,0.15,0.675,0.325]","","",""
"sailing-trial","397","1694973","0.0-11.0-352.0","","","","false","","","","","","","","","","749.5","","1187.8999999761581","","2","0","arrowright","1","arrowleft","[0.85,0.15,0.675,0.325]","","",""
"sailing-trial","398","1699444","0.0-11.0-353.0","","","","false","","","","","","","","","","null","","1684.3999999761581","","3","1","null","null","arrowup","[0.85,0.15,0.675,0.325]","","",""
"sailing-trial","399","1703528","0.0-11.0-354.0","","","","false","","","","","","","","","","813.3000000715256","","351.10000002384186","","2","1","arrowright","1","arrowleft","[0.85,0.15,0.675,0.325]","","",""
"sailing-trial","400","1705743","0.0-11.0-355.0","","","","false","","","","","","","","","","null","","807","","3","0","null","null","arrowup","[0.85,0.15,0.675,0.325]","","",""
"sailing-trial","401","1709277","0.0-11.0-356.0","","","","false","","","","","","","","","","505.8000000715256","","148.90000009536743","","0","1","arrowleft","0","arrowleft","[0.85,0.15,0.675,0.325]","","",""
"sailing-trial","402","1711407","0.0-11.0-357.0","","","","false","","","","","","","","","","null","","852.7999999523163","","3","0","null","null","arrowup","[0.85,0.15,0.675,0.325]","","",""
"sailing-trial","403","1715479","0.0-11.0-358.0","","","","false","","","","","","","","","","572.2000000476837","","963.5999999046326","","0","1","arrowleft","0","arrowleft","[0.85,0.15,0.675,0.325]","","",""
"sailing-trial","404","1717427","0.0-11.0-359.0","","","","false","","","","","","","","","","null","","786.9000000953674","","3","0","null","null","arrowup","[0.85,0.15,0.675,0.325]","","",""
"sailing-trial","405","1720845","0.0-11.0-360.0","","","","false","","","","","","","","","","809.2999999523163","","21.399999976158142","","2","1","arrowright","1","arrowleft","[0.85,0.15,0.675,0.325]","","",""
"sailing-trial","406","1723822","0.0-11.0-361.0","","","","false","","","","","","","","","","null","","890.3000000715256","","3","0","null","null","arrowup","[0.85,0.15,0.675,0.325]","","",""
"sailing-trial","407","1727179","0.0-11.0-362.0","","","","false","","","","","","","","","","436.09999990463257","","361.59999990463257","","0","1","arrowleft","0","arrowleft","[0.325,0.675,0.15,0.85]","","",""
"sailing-trial","408","1730725","0.0-11.0-363.0","","","","false","","","","","","","","","","null","","2232.600000023842","","2","0","null","null","arrowup","[0.325,0.675,0.15,0.85]","","",""
"sailing-trial","409","1735897","0.0-11.0-364.0","","","","false","","","","","","","","","","952.8999999761581","","219.29999995231628","","0","0","arrowleft","0","arrowleft","[0.325,0.675,0.15,0.85]","","",""
"sailing-trial","410","1739299","0.0-11.0-365.0","","","","false","","","","","","","","","","null","","2152.2000000476837","","2","0","null","null","arrowup","[0.325,0.675,0.15,0.85]","","",""
"sailing-trial","411","1742730","0.0-11.0-366.0","","","","false","","","","","","","","","","538.1000000238419","","121.89999997615814","","3","1","arrowright","1","arrowright","[0.325,0.675,0.15,0.85]","","",""
"sailing-trial","412","1745795","0.0-11.0-367.0","","","","false","","","","","","","","","","null","","1206.3999999761581","","3","1","null","null","arrowup","[0.325,0.675,0.15,0.85]","","",""
"sailing-trial","413","1748971","0.0-11.0-368.0","","","","false","","","","","","","","","","610.6999999284744","","141.10000002384186","","1","0","arrowleft","0","arrowright","[0.325,0.675,0.15,0.85]","","",""
"sailing-trial","414","1751928","0.0-11.0-369.0","","","","false","","","","","","","","","","null","","866.9000000953674","","0","1","null","null","arrowup","[0.325,0.675,0.15,0.85]","","",""
"sailing-trial","415","1755217","0.0-11.0-370.0","","","","false","","","","","","","","","","698.2000000476837","","241","","0","0","arrowleft","0","arrowleft","[0.325,0.675,0.15,0.85]","","",""
"sailing-trial","416","1758013","0.0-11.0-371.0","","","","false","","","","","","","","","","null","","970.3999999761581","","1","1","null","null","arrowup","[0.325,0.675,0.15,0.85]","","",""
"sailing-trial","417","1761461","0.0-11.0-372.0","","","","false","","","","","","","","","","653.2999999523163","","5.399999976158142","","3","1","arrowright","1","arrowright","[0.325,0.675,0.15,0.85]","","",""
"sailing-trial","418","1764378","0.0-11.0-373.0","","","","false","","","","","","","","","","null","","1054.5","","0","1","null","null","arrowup","[0.325,0.675,0.15,0.85]","","",""
"sailing-trial","419","1768145","0.0-11.0-374.0","","","","false","","","","","","","","","","512.6000000238419","","256.8000000715256","","1","1","arrowleft","0","arrowright","[0.325,0.675,0.15,0.85]","","",""
"sailing-trial","420","1770205","0.0-11.0-375.0","","","","false","","","","","","","","","","null","","889.5","","2","0","null","null","arrowup","[0.325,0.675,0.15,0.85]","","",""
"sailing-trial","421","1773579","0.0-11.0-376.0","","","","false","","","","","","","","","","550.6000000238419","","46.10000002384186","","3","1","arrowright","1","arrowright","[0.325,0.675,0.15,0.85]","","",""
"sailing-trial","422","1776479","0.0-11.0-377.0","","","","false","","","","","","","","","","null","","934.7000000476837","","0","1","null","null","arrowup","[0.325,0.675,0.15,0.85]","","",""
"sailing-trial","423","1780297","0.0-11.0-378.0","","","","false","","","","","","","","","","733.6000000238419","","124.89999997615814","","3","1","arrowright","1","arrowright","[0.325,0.675,0.15,0.85]","","",""
"sailing-trial","424","1783263","0.0-11.0-379.0","","","","false","","","","","","","","","","null","","806.8999999761581","","3","1","null","null","arrowup","[0.325,0.675,0.15,0.85]","","",""
"sailing-trial","425","1786852","0.0-11.0-380.0","","","","false","","","","","","","","","","664.8999999761581","","485.6999999284744","","1","0","arrowleft","0","arrowright","[0.85,0.15,0.675,0.325]","","",""
"sailing-trial","426","1790437","0.0-11.0-381.0","","","","false","","","","","","","","","","null","","1329.2000000476837","","3","0","null","null","arrowup","[0.85,0.15,0.675,0.325]","","",""
"sailing-trial","427","1794715","0.0-11.0-382.0","","","","false","","","","","","","","","","1179.1000000238419","","90.69999992847443","","0","1","arrowleft","0","arrowleft","[0.85,0.15,0.675,0.325]","","",""
"sailing-trial","428","1797546","0.0-11.0-383.0","","","","false","","","","","","","","","","null","","847.5","","2","1","null","null","arrowup","[0.85,0.15,0.675,0.325]","","",""
"sailing-trial","429","1801046","0.0-11.0-384.0","","","","false","","","","","","","","","","790.3000000715256","","201","","2","0","arrowright","1","arrowleft","[0.85,0.15,0.675,0.325]","","",""
"sailing-trial","430","1804263","0.0-11.0-385.0","","","","false","","","","","","","","","","null","","831.1000000238419","","1","1","null","null","arrowup","[0.85,0.15,0.675,0.325]","","",""
"sailing-trial","431","1808130","0.0-11.0-386.0","","","","false","","","","","","","","","","806.8000000715256","","276.60000002384186","","3","1","arrowright","1","arrowright","[0.85,0.15,0.675,0.325]","","",""
"sailing-trial","432","1810351","0.0-11.0-387.0","","","","false","","","","","","","","","","null","","837","","1","0","null","null","arrowup","[0.85,0.15,0.675,0.325]","","",""
"sailing-trial","433","1813638","0.0-11.0-388.0","","","","false","","","","","","","","","","570.3000000715256","","410.7999999523163","","1","0","arrowleft","0","arrowright","[0.85,0.15,0.675,0.325]","","",""
"sailing-trial","434","1816466","0.0-11.0-389.0","","","","false","","","","","","","","","","null","","807.2999999523163","","0","1","null","null","arrowup","[0.85,0.15,0.675,0.325]","","",""
"sailing-trial","435","1819638","0.0-11.0-390.0","","","","false","","","","","","","","","","616","","24.800000071525574","","3","0","arrowright","1","arrowright","[0.85,0.15,0.675,0.325]","","",""
"sailing-trial","436","1822216","0.0-11.0-391.0","","","","false","","","","","","","","","","null","","788.8999999761581","","2","1","null","null","arrowup","[0.85,0.15,0.675,0.325]","","",""
"sailing-trial","437","1826001","0.0-11.0-392.0","","","","false","","","","","","","","","","590.1000000238419","","526","","0","1","arrowleft","0","arrowleft","[0.85,0.15,0.675,0.325]","","",""
"sailing-trial","438","1829381","0.0-11.0-393.0","","","","false","","","","","","","","","","null","","1802.6000000238419","","0","1","null","null","arrowup","[0.85,0.15,0.675,0.325]","","",""
"sailing-trial","439","1833232","0.0-11.0-394.0","","","","false","","","","","","","","","","515.1000000238419","","588.3999999761581","","2","1","arrowright","1","arrowleft","[0.85,0.15,0.675,0.325]","","",""
"sailing-trial","440","1835948","0.0-11.0-395.0","","","","false","","","","","","","","","","null","","819.6000000238419","","3","1","null","null","arrowup","[0.85,0.15,0.675,0.325]","","",""
"sailing-trial","441","1839948","0.0-11.0-396.0","","","","false","","","","","","","","","","581.6000000238419","","310.6999999284744","","0","1","arrowleft","0","arrowleft","[0.85,0.15,0.675,0.325]","","",""
"sailing-trial","442","1842069","0.0-11.0-397.0","","","","false","","","","","","","","","","null","","882.7000000476837","","3","0","null","null","arrowup","[0.85,0.15,0.675,0.325]","","",""
"sailing-trial","443","1845298","0.0-11.0-398.0","","","","false","","","","","","","","","","444.5","","38.40000009536743","","0","1","arrowleft","0","arrowleft","[0.85,0.15,0.675,0.325]","","",""
"sailing-trial","444","1847931","0.0-11.0-399.0","","","","false","","","","","","","","","","null","","758.1999999284744","","3","1","null","null","arrowup","[0.85,0.15,0.675,0.325]","","",""
"instructions","445","1852611","0.0-12.0","","","","","","","","","","4679.199999928474","","","","","","","","","","","","","","","","[{""page_index"":0,""viewing_time"":4677.799999952316}]"
"survey-debrief","446","1881397","0.0-13.0","","","","","","","","","","28741.799999952316","","","","","","","","","","","","","","{""difficulty"":""5"",""fun"":""4"",""clarity"":""5"",""strategy"":""no"",""feedback"":""no""}","",""
