"trial_type","trial_index","time_elapsed","internal_node_id","value","metadata","success","timeout","failed_images","failed_audio","failed_video","browser_interaction","low_quality","rt","stimulus","response","button_pressed","island_rt","island_response","boat_rt","boat_response","boat","reward","island_key","island","boat_key","reward_probabilities","responses","num_errors","view_history"
"pavlovia","0","1","0.0-0.0","","","","","","","","","","","","","","","","","","","","","","","","","",""
"call-function","1","1","0.0-1.0","","{""task_version"":""sailing_part1_v1"",""task_condition"":""good"",""boats"":[""B"",""A"",""D"",""C""],""boats_demo"":[""F"",""G"",""H"",""E""],""islands"":[""B"",""A""],""subject_id"":""15429"",""age"":""21"",""gender"":""Male""}","","","","","","","","","","","","","","","","","","","","","","","",""
"preload","2","1995","0.0-2.0","","","true","false","[]","[]","[]","[{""event"":""fullscreenenter"",""trial"":3,""time"":4544}]","false","","","","","","","","","","","","","","","","",""
"fullscreen","3","5536","0.0-3.0","","","true","","","","","","","","","","","","","","","","","","","","","","",""
"audio-keyboard-response","4","9399","0.0-4.0-0.0","","","","","","","","","","3829.3333333333335","audio/beep_loop.wav"," ","","","","","","","","","","","","","",""
"audio-test","5","12015","0.0-4.0-1.0","","","","","","","","","","null","audio/turtle.mp3","","3","","","","","","","","","","","","",""
"audio-test","6","14968","0.0-4.0-2.0","","","","","","","","","","null","audio/shark.mp3","","2","","","","","","","","","","","","",""
"sailing-instructions","7","43945","0.0-5.0-0.0-0.0","","","","","","","","","","","","","","null","null","null","null","null","null","","","","","","",""
"sailing-trial","8","47046","0.0-5.0-0.0-1.0-0.0","","","","false","","","","","","","","","","1982.5999999642372","","null","","null","null","arrowleft","0","null","null","","",""
"sailing-trial","9","49449","0.0-5.0-0.0-1.0-1.0","","","","false","","","","","","","","","","1282.5","","null","","null","null","arrowright","1","null","null","","",""
"sailing-trial","10","52730","0.0-5.0-0.0-1.0-2.0","","","","false","","","","","","","","","","2162.100000023842","","null","","null","null","arrowleft","0","null","null","","",""
"sailing-instructions","11","92696","0.0-5.0-0.0-2.0","","","","","","","","","","","","","","null","null","null","null","0","null","","","","","","",""
"sailing-trial","12","98146","0.0-5.0-0.0-3.0-0.0","","","","false","","","","","","","","","","null","","1779.2999999523163","","2","1","null","null","arrowleft","[1,1,1,1]","","",""
"sailing-trial","13","102761","0.0-5.0-0.0-3.0-1.0","","","","false","","","","","","","","","","null","","1732.3999999761581","","3","1","null","null","arrowright","[1,1,1,1]","","",""
"sailing-trial","14","107103","0.0-5.0-0.0-3.0-2.0","","","","false","","","","","","","","","","null","","1305.300000011921","","2","0","null","null","arrowleft","[0,0,0,0]","","",""
"sailing-instructions","15","114405","0.0-5.0-0.0-4.0","","","","","","","","","","","","","","null","null","null","null","null","null","","","","","","",""
"sailing-comprehension","16","157264","0.0-5.0-0.0-5.0","","","","","","","","[{""event"":""fullscreenenter"",""trial"":3,""time"":4544},{""event"":""blur"",""trial"":17,""time"":167702},{""event"":""focus"",""trial"":17,""time"":170457},{""event"":""blur"",""trial"":17,""time"":171885},{""event"":""focus"",""trial"":17,""time"":175398},{""event"":""blur"",""trial"":17,""time"":179350},{""event"":""focus"",""trial"":17,""time"":183157},{""event"":""blur"",""trial"":17,""time"":195516},{""event"":""focus"",""trial"":17,""time"":197492}]","false","16865.600000023842","","","","","","","","","","","","","","[""true"",""false"",""true"",""true""]","2",""
"sailing-instructions","17","197624","0.0-5.0-0.1-0.1","","","","","","","","","","","","","","null","null","null","null","null","null","","","","","","",""
"sailing-trial","18","199907","0.0-5.0-0.1-1.1-0.1","","","","false","","","","","","","","","","1170.800000011921","","null","","null","null","arrowleft","0","null","null","","",""
"sailing-trial","19","201593","0.0-5.0-0.1-1.1-1.1","","","","false","","","","","","","","","","583.1000000238419","","null","","null","null","arrowright","1","null","null","","",""
"sailing-trial","20","203009","0.0-5.0-0.1-1.1-2.1","","","","false","","","","[{""event"":""fullscreenenter"",""trial"":3,""time"":4544},{""event"":""blur"",""trial"":17,""time"":167702},{""event"":""focus"",""trial"":17,""time"":170457},{""event"":""blur"",""trial"":17,""time"":171885},{""event"":""focus"",""trial"":17,""time"":175398},{""event"":""blur"",""trial"":17,""time"":179350},{""event"":""focus"",""trial"":17,""time"":183157},{""event"":""blur"",""trial"":17,""time"":195516},{""event"":""focus"",""trial"":17,""time"":197492},{""event"":""blur"",""trial"":21,""time"":207121},{""event"":""focus"",""trial"":21,""time"":211682}]","false","","","","","296.9000000357628","","null","","null","null","arrowright","1","null","null","","",""
"sailing-instructions","21","243340","0.0-5.0-0.1-2.1","","","","","","","","","","","","","","null","null","null","null","0","null","","","","","","",""
"sailing-trial","22","247140","0.0-5.0-0.1-3.1-0.1","","","","false","","","","","","","","","","null","","1254.800000011921","","2","1","null","null","arrowleft","[1,1,1,1]","","",""
"sailing-trial","23","250275","0.0-5.0-0.1-3.1-1.1","","","","false","","","","","","","","","","null","","416.10000002384186","","3","1","null","null","arrowright","[1,1,1,1]","","",""
"sailing-trial","24","253582","0.0-5.0-0.1-3.1-2.1","","","","false","","","","","","","","","","null","","286.89999997615814","","3","0","null","null","arrowright","[0,0,0,0]","","",""
"sailing-instructions","25","261836","0.0-5.0-0.1-4.1","","","","","","","","","","","","","","null","null","null","null","null","null","","","","","","",""
"sailing-comprehension","26","276924","0.0-5.0-0.1-5.1","","","","","","","","","","12977.199999988079","","","","","","","","","","","","","","[""true"",""true"",""false"",""true""]","0",""
"sailing-instructions","27","337286","0.0-6.0-0.0-0.0","","","","","","","","","","","","","","null","null","null","null","null","null","","","","","","",""
"sailing-comprehension","28","357530","0.0-6.0-0.0-1.0","","","","","","","","","","16132.599999964237","","","","","","","","","","","","","","[""true"",""false"",""true""]","0",""
"sailing-instructions","29","370844","0.0-7.0-0.0-0.0","","","","","","","","","","","","","","null","null","null","null","null","null","","","","","","",""
"sailing-trial","30","376957","0.0-7.0-0.0-1.0-0.0","","","","false","","","","","","","","","","null","","3629.599999964237","","0","0","null","null","arrowup","[0.2,0.8,0.2,0.8]","","",""
"sailing-trial","31","381000","0.0-7.0-0.0-1.0-1.0","","","","false","","","","","","","","","","null","","1878.8999999761581","","1","1","null","null","arrowup","[0.2,0.8,0.2,0.8]","","",""
"sailing-trial","32","384130","0.0-7.0-0.0-1.0-2.0","","","","false","","","","","","","","","","null","","1268.0999999642372","","2","0","null","null","arrowup","[0.2,0.8,0.2,0.8]","","",""
"sailing-trial","33","386549","0.0-7.0-0.0-1.0-3.0","","","","false","","","","","","","","","","null","","693.3999999761581","","3","0","null","null","arrowup","[0.2,0.8,0.2,0.8]","","",""
"sailing-comprehension","34","396766","0.0-7.0-0.0-2.0","","","","","","","","","","8023.599999964237","","","","","","","","","","","","","","[""false""]","0",""
"sailing-instructions","35","406856","0.0-8.0-0.0-0.0","","","","","","","","","","","","","","null","null","null","null","null","null","","","","","","",""
"sailing-comprehension","36","416950","0.0-8.0-0.0-1.0","","","","","","","","","","9123.300000011921","","","","","","","","","","","","","","[""true""]","0",""
"sailing-instructions","37","441689","0.0-9.0-0.0-0.0","","","","","","","","","","","","","","null","null","null","null","null","null","","","","","","",""
"sailing-trial","38","446521","0.0-9.0-0.0-1.0-0.0","","","","false","","","","","","","","","","1190.9000000357628","","251.9000000357628","","0","0","arrowleft","0","arrowleft","[0.2,0.8,0.2,0.8]","","",""
"sailing-trial","39","450322","0.0-9.0-0.0-1.0-1.0","","","","false","","","","","","","","","","693.6000000238419","","8.699999988079071","","1","0","arrowleft","0","arrowright","[0.2,0.8,0.2,0.8]","","",""
"sailing-trial","40","453470","0.0-9.0-0.0-1.0-2.0","","","","false","","","","","","","","","","null","","1339.8999999761581","","0","0","null","null","arrowup","[0.2,0.8,0.2,0.8]","","",""
"sailing-trial","41","457436","0.0-9.0-0.0-1.0-3.0","","","","false","","","","","","","","","","1076.7000000476837","","56.69999998807907","","2","0","arrowright","1","arrowleft","[0.2,0.8,0.2,0.8]","","",""
"sailing-trial","42","460982","0.0-9.0-0.0-1.0-4.0","","","","false","","","","","","","","","","null","","1454.800000011921","","3","1","null","null","arrowup","[0.2,0.8,0.2,0.8]","","",""
"sailing-trial","43","465784","0.0-9.0-0.0-1.0-5.0","","","","false","","","","[{""event"":""fullscreenenter"",""trial"":3,""time"":4544},{""event"":""blur"",""trial"":17,""time"":167702},{""event"":""focus"",""trial"":17,""time"":170457},{""event"":""blur"",""trial"":17,""time"":171885},{""event"":""focus"",""trial"":17,""time"":175398},{""event"":""blur"",""trial"":17,""time"":179350},{""event"":""focus"",""trial"":17,""time"":183157},{""event"":""blur"",""trial"":17,""time"":195516},{""event"":""focus"",""trial"":17,""time"":197492},{""event"":""blur"",""trial"":21,""time"":207121},{""event"":""focus"",""trial"":21,""time"":211682},{""event"":""blur"",""trial"":44,""time"":472465},{""event"":""focus"",""trial"":44,""time"":477711}]","false","","","","","765.3000000119209","","642.5999999642372","","3","1","arrowright","1","arrowright","[0.2,0.8,0.2,0.8]","","",""
"sailing-instructions","44","501599","0.0-10.0","","","","","","","","","","","","","","null","null","null","null","null","null","","","","","","",""
"sailing-trial","45","506003","0.0-11.0-0.0","","","","false","","","","","","","","","","1153.3999999761581","","130.4000000357628","","0","0","arrowleft","0","arrowleft","[0.85,0.15,0.675,0.325]","","",""
"sailing-trial","46","509251","0.0-11.0-1.0","","","","false","","","","","","","","","","null","","1125.6000000238419","","3","1","null","null","arrowup","[0.85,0.15,0.675,0.325]","","",""
"sailing-trial","47","513358","0.0-11.0-2.0","","","","false","","","","","","","","","","713.1000000238419","","572.5","","1","0","arrowleft","0","arrowright","[0.85,0.15,0.675,0.325]","","",""
"sailing-trial","48","516231","0.0-11.0-3.0","","","","false","","","","","","","","","","null","","891.8999999761581","","0","1","null","null","arrowup","[0.85,0.15,0.675,0.325]","","",""
"sailing-trial","49","520499","0.0-11.0-4.0","","","","false","","","","","","","","","","607","","448.89999997615814","","2","1","arrowright","1","arrowleft","[0.85,0.15,0.675,0.325]","","",""
"sailing-trial","50","523047","0.0-11.0-5.0","","","","false","","","","","","","","","","null","","1077.8999999761581","","2","0","null","null","arrowup","[0.85,0.15,0.675,0.325]","","",""
"sailing-trial","51","527066","0.0-11.0-6.0","","","","false","","","","","","","","","","800.5","","78.39999997615814","","3","1","arrowright","1","arrowright","[0.85,0.15,0.675,0.325]","","",""
"sailing-trial","52","529815","0.0-11.0-7.0","","","","false","","","","","","","","","","null","","856.6000000238419","","3","1","null","null","arrowup","[0.85,0.15,0.675,0.325]","","",""
"sailing-trial","53","533957","0.0-11.0-8.0","","","","false","","","","","","","","","","643","","737.8999999761581","","2","0","arrowright","1","arrowleft","[0.85,0.15,0.675,0.325]","","",""
"sailing-trial","54","536849","0.0-11.0-9.0","","","","false","","","","","","","","","","null","","917.6999999880791","","2","1","null","null","arrowup","[0.85,0.15,0.675,0.325]","","",""
"sailing-trial","55","540579","0.0-11.0-10.0","","","","false","","","","","","","","","","676.8000000119209","","16.399999976158142","","3","1","arrowright","1","arrowright","[0.85,0.15,0.675,0.325]","","",""
"sailing-trial","56","543279","0.0-11.0-11.0","","","","false","","","","","","","","","","null","","1180.699999988079","","0","0","null","null","arrowup","[0.85,0.15,0.675,0.325]","","",""
"sailing-trial","57","546619","0.0-11.0-12.0","","","","false","","","","","","","","","","703.3999999761581","","84.19999998807907","","3","0","arrowright","1","arrowright","[0.85,0.15,0.675,0.325]","","",""
"sailing-trial","58","549513","0.0-11.0-13.0","","","","false","","","","","","","","","","null","","917","","3","1","null","null","arrowup","[0.85,0.15,0.675,0.325]","","",""
"sailing-trial","59","552876","0.0-11.0-14.0","","","","false","","","","","","","","","","566.3000000119209","","137.5999999642372","","3","0","arrowright","1","arrowright","[0.85,0.15,0.675,0.325]","","",""
"sailing-trial","60","555947","0.0-11.0-15.0","","","","false","","","","","","","","","","null","","1046.0999999642372","","0","1","null","null","arrowup","[0.85,0.15,0.675,0.325]","","",""
"sailing-trial","61","561098","0.0-11.0-16.0","","","","false","","","","","","","","","","1606.300000011921","","353.7000000476837","","2","1","arrowright","1","arrowleft","[0.85,0.15,0.675,0.325]","","",""
"sailing-trial","62","563450","0.0-11.0-17.0","","","","false","","","","","","","","","","null","","835.3999999761581","","2","0","null","null","arrowup","[0.85,0.15,0.675,0.325]","","",""
"sailing-trial","63","567878","0.0-11.0-18.0","","","","false","","","","","","","","","","1268.300000011921","","46.30000001192093","","2","1","arrowright","1","arrowleft","[0.675,0.325,0.85,0.15]","","",""
"sailing-trial","64","570814","0.0-11.0-19.0","","","","false","","","","","","","","","","null","","826","","0","1","null","null","arrowup","[0.675,0.325,0.85,0.15]","","",""
"sailing-trial","65","575346","0.0-11.0-20.0","","","","false","","","","","","","","","","590","","687.8000000119209","","2","1","arrowright","1","arrowleft","[0.675,0.325,0.85,0.15]","","",""
"sailing-trial","66","577651","0.0-11.0-21.0","","","","false","","","","","","","","","","null","","767.4000000357628","","2","0","null","null","arrowup","[0.675,0.325,0.85,0.15]","","",""
"sailing-trial","67","581662","0.0-11.0-22.0","","","","false","","","","","","","","","","868.2000000476837","","67.19999998807907","","2","1","arrowright","1","arrowleft","[0.675,0.325,0.85,0.15]","","",""
"sailing-trial","68","584279","0.0-11.0-23.0","","","","false","","","","","","","","","","null","","655","","0","1","null","null","arrowup","[0.675,0.325,0.85,0.15]","","",""
"sailing-trial","69","587460","0.0-11.0-24.0","","","","false","","","","","","","","","","557.4000000357628","","117.59999996423721","","2","0","arrowright","1","arrowleft","[0.675,0.325,0.85,0.15]","","",""
"sailing-trial","70","590229","0.0-11.0-25.0","","","","false","","","","","","","","","","null","","963.2000000476837","","3","0","null","null","arrowup","[0.675,0.325,0.85,0.15]","","",""
"sailing-trial","71","594225","0.0-11.0-26.0","","","","false","","","","","","","","","","734.1000000238419","","91.80000001192093","","2","1","arrowright","1","arrowleft","[0.675,0.325,0.85,0.15]","","",""
"sailing-trial","72","597227","0.0-11.0-27.0","","","","false","","","","","","","","","","null","","944.8000000119209","","1","1","null","null","arrowup","[0.675,0.325,0.85,0.15]","","",""
"sailing-trial","73","601659","0.0-11.0-28.0","","","","false","","","","","","","","","","635","","562.3999999761581","","2","0","arrowright","1","arrowleft","[0.675,0.325,0.85,0.15]","","",""
"sailing-trial","74","604427","0.0-11.0-29.0","","","","false","","","","","","","","","","null","","769.8000000119209","","0","1","null","null","arrowup","[0.675,0.325,0.85,0.15]","","",""
"sailing-trial","75","607637","0.0-11.0-30.0","","","","false","","","","","","","","","","598.7000000476837","","82.69999998807907","","3","0","arrowright","1","arrowright","[0.675,0.325,0.85,0.15]","","",""
"sailing-trial","76","609757","0.0-11.0-31.0","","","","false","","","","","","","","","","null","","751.6000000238419","","1","0","null","null","arrowup","[0.675,0.325,0.85,0.15]","","",""
"sailing-trial","77","613243","0.0-11.0-32.0","","","","false","","","","","","","","","","796.8000000119209","","195.5","","2","0","arrowright","1","arrowleft","[0.675,0.325,0.85,0.15]","","",""
"sailing-trial","78","615356","0.0-11.0-33.0","","","","false","","","","","","","","","","null","","768","","3","0","null","null","arrowup","[0.675,0.325,0.85,0.15]","","",""
"sailing-trial","79","619810","0.0-11.0-34.0","","","","false","","","","","","","","","","939.1999999880791","","522.8000000119209","","3","1","arrowright","1","arrowright","[0.675,0.325,0.85,0.15]","","",""
"sailing-trial","80","622209","0.0-11.0-35.0","","","","false","","","","","","","","","","null","","582.3000000119209","","2","1","null","null","arrowup","[0.675,0.325,0.85,0.15]","","",""
"sailing-trial","81","626328","0.0-11.0-36.0","","","","false","","","","","","","","","","709.6999999880791","","105.30000001192093","","0","1","arrowleft","0","arrowleft","[0.675,0.325,0.85,0.15]","","",""
"sailing-trial","82","629193","0.0-11.0-37.0","","","","false","","","","","","","","","","null","","965.0999999642372","","2","1","null","null","arrowup","[0.675,0.325,0.85,0.15]","","",""
"sailing-trial","83","632762","0.0-11.0-38.0","","","","false","","","","","","","","","","519.7999999523163","","61.39999997615814","","0","1","arrowleft","0","arrowleft","[0.15,0.85,0.325,0.675]","","",""
"sailing-trial","84","634902","0.0-11.0-39.0","","","","false","","","","","","","","","","null","","645.5","","1","0","null","null","arrowup","[0.15,0.85,0.325,0.675]","","",""
"sailing-trial","85","638261","0.0-11.0-40.0","","","","false","","","","","","","","","","776.8999999761581","","99.40000003576279","","0","0","arrowleft","0","arrowleft","[0.15,0.85,0.325,0.675]","","",""
"sailing-trial","86","640525","0.0-11.0-41.0","","","","false","","","","","","","","","","null","","779.5999999642372","","2","0","null","null","arrowup","[0.15,0.85,0.325,0.675]","","",""
"sailing-trial","87","644575","0.0-11.0-42.0","","","","false","","","","","","","","","","726.1000000238419","","369.80000001192093","","1","1","arrowleft","0","arrowright","[0.15,0.85,0.325,0.675]","","",""
"sailing-trial","88","646449","0.0-11.0-43.0","","","","false","","","","","","","","","","null","","566.1999999880791","","0","0","null","null","arrowup","[0.15,0.85,0.325,0.675]","","",""
"sailing-trial","89","650459","0.0-11.0-44.0","","","","false","","","","","","","","","","826.9000000357628","","66.29999995231628","","1","1","arrowleft","0","arrowright","[0.15,0.85,0.325,0.675]","","",""
"sailing-trial","90","652876","0.0-11.0-45.0","","","","false","","","","","","","","","","null","","552","","1","1","null","null","arrowup","[0.15,0.85,0.325,0.675]","","",""
"sailing-trial","91","656397","0.0-11.0-46.0","","","","false","","","","","","","","","","484.60000002384186","","10.299999952316284","","1","1","arrowleft","0","arrowright","[0.15,0.85,0.325,0.675]","","",""
"sailing-trial","92","658759","0.0-11.0-47.0","","","","false","","","","","","","","","","null","","549.8000000119209","","1","1","null","null","arrowup","[0.15,0.85,0.325,0.675]","","",""
"sailing-trial","93","661936","0.0-11.0-48.0","","","","false","","","","","","","","","","441.89999997615814","","4.800000011920929","","1","0","arrowleft","0","arrowright","[0.15,0.85,0.325,0.675]","","",""
"sailing-trial","94","664628","0.0-11.0-49.0","","","","false","","","","","","","","","","null","","767.0999999642372","","1","1","null","null","arrowup","[0.15,0.85,0.325,0.675]","","",""
"sailing-trial","95","668528","0.0-11.0-50.0","","","","false","","","","","","","","","","525.7999999523163","","425.4000000357628","","1","1","arrowleft","0","arrowright","[0.15,0.85,0.325,0.675]","","",""
"sailing-trial","96","672443","0.0-11.0-51.0","","","","false","","","","","","","","","","null","","2058.5","","3","1","null","null","arrowup","[0.15,0.85,0.325,0.675]","","",""
"sailing-trial","97","677091","0.0-11.0-52.0","","","","false","","","","","","","","","","1185.699999988079","","760.1000000238419","","0","0","arrowleft","0","arrowleft","[0.15,0.85,0.325,0.675]","","",""
"sailing-trial","98","680241","0.0-11.0-53.0","","","","false","","","","","","","","","","null","","1239.9000000357628","","1","1","null","null","arrowup","[0.15,0.85,0.325,0.675]","","",""
"sailing-trial","99","684026","0.0-11.0-54.0","","","","false","","","","","","","","","","576.9000000357628","","229.69999998807907","","1","1","arrowleft","0","arrowright","[0.15,0.85,0.325,0.675]","","",""
"sailing-trial","100","687059","0.0-11.0-55.0","","","","false","","","","","","","","","","null","","1155.0999999642372","","1","1","null","null","arrowup","[0.15,0.85,0.325,0.675]","","",""
"sailing-trial","101","690811","0.0-11.0-56.0","","","","false","","","","","","","","","","573.0999999642372","","110.5","","1","1","arrowleft","0","arrowright","[0.325,0.675,0.15,0.85]","","",""
"sailing-trial","102","693206","0.0-11.0-57.0","","","","false","","","","","","","","","","null","","923","","2","0","null","null","arrowup","[0.325,0.675,0.15,0.85]","","",""
"sailing-trial","103","697191","0.0-11.0-58.0","","","","false","","","","","","","","","","759.5","","204.10000002384186","","3","1","arrowright","1","arrowright","[0.325,0.675,0.15,0.85]","","",""
"sailing-trial","104","699703","0.0-11.0-59.0","","","","false","","","","","","","","","","null","","1039.699999988079","","2","0","null","null","arrowup","[0.325,0.675,0.15,0.85]","","",""
"sailing-trial","105","703492","0.0-11.0-60.0","","","","false","","","","","","","","","","744.8000000119209","","258.30000001192093","","3","0","arrowright","1","arrowright","[0.325,0.675,0.15,0.85]","","",""
"sailing-trial","106","706306","0.0-11.0-61.0","","","","false","","","","","","","","","","null","","929.3000000119209","","3","1","null","null","arrowup","[0.325,0.675,0.15,0.85]","","",""
"sailing-trial","107","710059","0.0-11.0-62.0","","","","false","","","","","","","","","","572.3000000119209","","96.39999997615814","","3","1","arrowright","1","arrowright","[0.325,0.675,0.15,0.85]","","",""
"sailing-trial","108","712169","0.0-11.0-63.0","","","","false","","","","","","","","","","null","","789.5","","2","0","null","null","arrowup","[0.325,0.675,0.15,0.85]","","",""
"sailing-trial","109","715553","0.0-11.0-64.0","","","","false","","","","","","","","","","670.1000000238419","","253.89999997615814","","2","0","arrowright","1","arrowleft","[0.325,0.675,0.15,0.85]","","",""
"sailing-trial","110","718226","0.0-11.0-65.0","","","","false","","","","","","","","","","null","","1240.5","","2","0","null","null","arrowup","[0.325,0.675,0.15,0.85]","","",""
"sailing-trial","111","722056","0.0-11.0-66.0","","","","false","","","","","","","","","","858","","34","","3","1","arrowright","1","arrowright","[0.325,0.675,0.15,0.85]","","",""
"sailing-trial","112","724824","0.0-11.0-67.0","","","","false","","","","","","","","","","null","","1324.699999988079","","2","0","null","null","arrowup","[0.325,0.675,0.15,0.85]","","",""
"sailing-trial","113","728690","0.0-11.0-68.0","","","","false","","","","","","","","","","683.8000000119209","","3.100000023841858","","3","1","arrowright","1","arrowright","[0.325,0.675,0.15,0.85]","","",""
"sailing-trial","114","731307","0.0-11.0-69.0","","","","false","","","","","","","","","","null","","681.1999999880791","","1","1","null","null","arrowup","[0.325,0.675,0.15,0.85]","","",""
"sailing-trial","115","735126","0.0-11.0-70.0","","","","false","","","","","","","","","","730.3999999761581","","59","","1","1","arrowleft","0","arrowright","[0.325,0.675,0.15,0.85]","","",""
"sailing-trial","116","737830","0.0-11.0-71.0","","","","false","","","","","","","","","","null","","1046.300000011921","","1","0","null","null","arrowup","[0.325,0.675,0.15,0.85]","","",""
"sailing-trial","117","741676","0.0-11.0-72.0","","","","false","","","","","","","","","","711","","197.5","","0","1","arrowleft","0","arrowleft","[0.15,0.85,0.325,0.675]","","",""
"sailing-trial","118","744251","0.0-11.0-73.0","","","","false","","","","","","","","","","null","","1192.800000011921","","2","0","null","null","arrowup","[0.15,0.85,0.325,0.675]","","",""
"sailing-trial","119","747337","0.0-11.0-74.0","","","","false","","","","","","","","","","628.1999999880791","","31.600000023841858","","3","0","arrowright","1","arrowright","[0.15,0.85,0.325,0.675]","","",""
"sailing-trial","120","749601","0.0-11.0-75.0","","","","false","","","","","","","","","","null","","865.1000000238419","","2","0","null","null","arrowup","[0.15,0.85,0.325,0.675]","","",""
"sailing-trial","121","753132","0.0-11.0-76.0","","","","false","","","","","","","","","","654.8000000119209","","510.0999999642372","","3","0","arrowright","1","arrowright","[0.15,0.85,0.325,0.675]","","",""
"sailing-trial","122","755806","0.0-11.0-77.0","","","","false","","","","","","","","","","null","","785.5","","0","1","null","null","arrowup","[0.15,0.85,0.325,0.675]","","",""
"sailing-trial","123","758566","0.0-11.0-78.0","","","","false","","","","","","","","","","474","","54.40000003576279","","0","0","arrowleft","0","arrowleft","[0.15,0.85,0.325,0.675]","","",""
"sailing-trial","124","761114","0.0-11.0-79.0","","","","false","","","","","","","","","","null","","1198.300000011921","","3","0","null","null","arrowup","[0.15,0.85,0.325,0.675]","","",""
"sailing-trial","125","764548","0.0-11.0-80.0","","","","false","","","","","","","","","","651.5","","87.69999998807907","","2","0","arrowright","1","arrowleft","[0.15,0.85,0.325,0.675]","","",""
"sailing-trial","126","767026","0.0-11.0-81.0","","","","false","","","","","","","","","","null","","644.4000000357628","","1","1","null","null","arrowup","[0.15,0.85,0.325,0.675]","","",""
"sailing-trial","127","770806","0.0-11.0-82.0","","","","false","","","","","","","","","","453.80000001192093","","357.80000001192093","","1","1","arrowleft","0","arrowright","[0.15,0.85,0.325,0.675]","","",""
"sailing-trial","128","772888","0.0-11.0-83.0","","","","false","","","","","","","","","","null","","680.6999999880791","","3","0","null","null","arrowup","[0.15,0.85,0.325,0.675]","","",""
"sailing-trial","129","777937","0.0-11.0-84.0","","","","false","","","","","","","","","","837.3999999761581","","1212.800000011921","","1","1","arrowleft","0","arrowright","[0.15,0.85,0.325,0.675]","","",""
"sailing-trial","130","780640","0.0-11.0-85.0","","","","false","","","","","","","","","","null","","788.6000000238419","","3","1","null","null","arrowup","[0.15,0.85,0.325,0.675]","","",""
"sailing-trial","131","785071","0.0-11.0-86.0","","","","false","","","","","","","","","","1338.0999999642372","","73.79999995231628","","3","1","arrowright","1","arrowright","[0.15,0.85,0.325,0.675]","","",""
"sailing-trial","132","787839","0.0-11.0-87.0","","","","false","","","","","","","","","","null","","875.1000000238419","","1","1","null","null","arrowup","[0.15,0.85,0.325,0.675]","","",""
"sailing-trial","133","791357","0.0-11.0-88.0","","","","false","","","","","","","","","","497.4000000357628","","57.09999996423721","","1","1","arrowleft","0","arrowright","[0.15,0.85,0.325,0.675]","","",""
"sailing-trial","134","794223","0.0-11.0-89.0","","","","false","","","","","","","","","","null","","984.5","","3","1","null","null","arrowup","[0.15,0.85,0.325,0.675]","","",""
"sailing-trial","135","798257","0.0-11.0-90.0","","","","false","","","","","","","","","","517.3000000119209","","551.6999999880791","","3","1","arrowright","1","arrowright","[0.325,0.675,0.15,0.85]","","",""
"sailing-trial","136","801121","0.0-11.0-91.0","","","","false","","","","","","","","","","null","","968.5","","3","1","null","null","arrowup","[0.325,0.675,0.15,0.85]","","",""
"sailing-trial","137","804855","0.0-11.0-92.0","","","","false","","","","","","","","","","445.5","","300.4000000357628","","3","1","arrowright","1","arrowright","[0.325,0.675,0.15,0.85]","","",""
"sailing-trial","138","806669","0.0-11.0-93.0","","","","false","","","","","","","","","","null","","647.8000000119209","","2","0","null","null","arrowup","[0.325,0.675,0.15,0.85]","","",""
"sailing-trial","139","810235","0.0-11.0-94.0","","","","false","","","","","","","","","","566.8000000119209","","469.69999998807907","","3","0","arrowright","1","arrowright","[0.325,0.675,0.15,0.85]","","",""
"sailing-trial","140","812738","0.0-11.0-95.0","","","","false","","","","","","","","","","null","","678.6999999880791","","0","1","null","null","arrowup","[0.325,0.675,0.15,0.85]","","",""
"sailing-trial","141","815666","0.0-11.0-96.0","","","","false","","","","","","","","","","425","","27","","0","0","arrowleft","0","arrowleft","[0.325,0.675,0.15,0.85]","","",""
"sailing-trial","142","817948","0.0-11.0-97.0","","","","false","","","","","","","","","","null","","891.4000000357628","","1","0","null","null","arrowup","[0.325,0.675,0.15,0.85]","","",""
"sailing-trial","143","822019","0.0-11.0-98.0","","","","false","","","","","","","","","","562.3000000119209","","442","","0","1","arrowleft","0","arrowleft","[0.325,0.675,0.15,0.85]","","",""
"sailing-trial","144","824490","0.0-11.0-99.0","","","","false","","","","","","","","","","null","","643.5","","1","1","null","null","arrowup","[0.325,0.675,0.15,0.85]","","",""
"sailing-trial","145","828188","0.0-11.0-100.0","","","","false","","","","","","","","","","279.80000001192093","","469.89999997615814","","1","1","arrowleft","0","arrowright","[0.325,0.675,0.15,0.85]","","",""
"sailing-trial","146","831256","0.0-11.0-101.0","","","","false","","","","","","","","","","null","","1257.2999999523163","","3","1","null","null","arrowup","[0.325,0.675,0.15,0.85]","","",""
"sailing-trial","147","835470","0.0-11.0-102.0","","","","false","","","","","","","","","","493.89999997615814","","636.2999999523163","","3","1","arrowright","1","arrowright","[0.325,0.675,0.15,0.85]","","",""
"sailing-trial","148","838470","0.0-11.0-103.0","","","","false","","","","","","","","","","null","","1142.8999999761581","","3","1","null","null","arrowup","[0.325,0.675,0.15,0.85]","","",""
"sailing-trial","149","842156","0.0-11.0-104.0","","","","false","","","","","","","","","","448.19999998807907","","345.19999998807907","","3","1","arrowright","1","arrowright","[0.325,0.675,0.15,0.85]","","",""
"sailing-trial","150","844455","0.0-11.0-105.0","","","","false","","","","","","","","","","null","","140.60000002384186","","0","1","null","null","arrowup","[0.325,0.675,0.15,0.85]","","",""
"sailing-trial","151","847737","0.0-11.0-106.0","","","","false","","","","","","","","","","330.2000000476837","","65.20000004768372","","3","1","arrowright","1","arrowright","[0.325,0.675,0.15,0.85]","","",""
"sailing-trial","152","850302","0.0-11.0-107.0","","","","false","","","","","","","","","","null","","725","","3","1","null","null","arrowup","[0.325,0.675,0.15,0.85]","","",""
"sailing-trial","153","854001","0.0-11.0-108.0","","","","false","","","","","","","","","","347.10000002384186","","205.60000002384186","","3","1","arrowright","1","arrowright","[0.325,0.675,0.15,0.85]","","",""
"sailing-trial","154","856453","0.0-11.0-109.0","","","","false","","","","","","","","","","null","","523.3999999761581","","3","1","null","null","arrowup","[0.325,0.675,0.15,0.85]","","",""
"sailing-trial","155","860137","0.0-11.0-110.0","","","","false","","","","","","","","","","391.89999997615814","","141.60000002384186","","3","1","arrowright","1","arrowright","[0.325,0.675,0.15,0.85]","","",""
"sailing-trial","156","862802","0.0-11.0-111.0","","","","false","","","","","","","","","","null","","903.0999999642372","","2","1","null","null","arrowup","[0.325,0.675,0.15,0.85]","","",""
"sailing-trial","157","866056","0.0-11.0-112.0","","","","false","","","","","","","","","","528.3000000119209","","203.39999997615814","","2","0","arrowright","1","arrowleft","[0.85,0.15,0.675,0.325]","","",""
"sailing-trial","158","868790","0.0-11.0-113.0","","","","false","","","","","","","","","","null","","919.1999999880791","","0","1","null","null","arrowup","[0.85,0.15,0.675,0.325]","","",""
"sailing-trial","159","872952","0.0-11.0-114.0","","","","false","","","","","","","","","","352","","42.80000001192093","","0","0","arrowleft","0","arrowleft","[0.85,0.15,0.675,0.325]","","",""
"sailing-trial","160","874883","0.0-11.0-115.0","","","","false","","","","","","","","","","null","","560.6999999880791","","1","0","null","null","arrowup","[0.85,0.15,0.675,0.325]","","",""
"sailing-trial","161","878386","0.0-11.0-116.0","","","","false","","","","","","","","","","1069.199999988079","","62.40000003576279","","1","0","arrowleft","0","arrowright","[0.85,0.15,0.675,0.325]","","",""
"sailing-trial","162","881086","0.0-11.0-117.0","","","","false","","","","","","","","","","null","","701.3999999761581","","2","1","null","null","arrowup","[0.85,0.15,0.675,0.325]","","",""
"sailing-trial","163","884237","0.0-11.0-118.0","","","","false","","","","","","","","","","478.80000001192093","","166.30000001192093","","2","0","arrowright","1","arrowleft","[0.85,0.15,0.675,0.325]","","",""
"sailing-trial","164","887708","0.0-11.0-119.0","","","","false","","","","","","","","","","null","","904.1999999880791","","2","0","null","null","arrowup","[0.85,0.15,0.675,0.325]","","",""
"sailing-trial","165","892102","0.0-11.0-120.0","","","","false","","","","","","","","","","711.4000000357628","","688.7999999523163","","3","1","arrowright","1","arrowright","[0.85,0.15,0.675,0.325]","","",""
"sailing-trial","166","894687","0.0-11.0-121.0","","","","false","","","","","","","","","","null","","582.1000000238419","","0","1","null","null","arrowup","[0.85,0.15,0.675,0.325]","","",""
"sailing-trial","167","898751","0.0-11.0-122.0","","","","false","","","","","","","","","","736.9000000357628","","395.19999998807907","","0","1","arrowleft","0","arrowleft","[0.85,0.15,0.675,0.325]","","",""
"sailing-trial","168","901285","0.0-11.0-123.0","","","","false","","","","","","","","","","null","","754.6000000238419","","0","1","null","null","arrowup","[0.85,0.15,0.675,0.325]","","",""
"sailing-trial","169","904292","0.0-11.0-124.0","","","","false","","","","","","","","","","340.60000002384186","","7.800000011920929","","0","0","arrowleft","0","arrowleft","[0.85,0.15,0.675,0.325]","","",""
"sailing-trial","170","906967","0.0-11.0-125.0","","","","false","","","","","","","","","","null","","748.8999999761581","","2","1","null","null","arrowup","[0.85,0.15,0.675,0.325]","","",""
"sailing-trial","171","910484","0.0-11.0-126.0","","","","false","","","","","","","","","","384.89999997615814","","68.60000002384186","","2","1","arrowright","1","arrowleft","[0.85,0.15,0.675,0.325]","","",""
"sailing-trial","172","912752","0.0-11.0-127.0","","","","false","","","","","","","","","","null","","316.5","","0","1","null","null","arrowup","[0.85,0.15,0.675,0.325]","","",""
"sailing-trial","173","915723","0.0-11.0-128.0","","","","false","","","","","","","","","","325.0999999642372","","4.399999976158142","","0","0","arrowleft","0","arrowleft","[0.325,0.675,0.15,0.85]","","",""
"sailing-trial","174","918420","0.0-11.0-129.0","","","","false","","","","","","","","","","null","","888.7999999523163","","2","1","null","null","arrowup","[0.325,0.675,0.15,0.85]","","",""
"sailing-trial","175","922902","0.0-11.0-130.0","","","","false","","","","","","","","","","1121.1000000238419","","110.89999997615814","","1","1","arrowleft","0","arrowright","[0.325,0.675,0.15,0.85]","","",""
"sailing-trial","176","925680","0.0-11.0-131.0","","","","false","","","","","","","","","","null","","1288.5","","0","0","null","null","arrowup","[0.325,0.675,0.15,0.85]","","",""
"sailing-trial","177","929907","0.0-11.0-132.0","","","","false","","","","","","","","","","757.7999999523163","","60.69999998807907","","1","0","arrowleft","0","arrowright","[0.325,0.675,0.15,0.85]","","",""
"sailing-trial","178","932584","0.0-11.0-133.0","","","","false","","","","","","","","","","null","","624.5","","2","1","null","null","arrowup","[0.325,0.675,0.15,0.85]","","",""
"sailing-trial","179","935439","0.0-11.0-134.0","","","","false","","","","","","","","","","298.89999997615814","","4","","2","0","arrowright","1","arrowleft","[0.325,0.675,0.15,0.85]","","",""
"sailing-trial","180","938018","0.0-11.0-135.0","","","","false","","","","","","","","","","null","","739.3000000119209","","1","1","null","null","arrowup","[0.325,0.675,0.15,0.85]","","",""
"sailing-trial","181","941584","0.0-11.0-136.0","","","","false","","","","","","","","","","562.9000000357628","","43.10000002384186","","1","0","arrowleft","0","arrowright","[0.325,0.675,0.15,0.85]","","",""
"sailing-trial","182","943375","0.0-11.0-137.0","","","","false","","","","","","","","","","null","","403.5","","2","0","null","null","arrowup","[0.325,0.675,0.15,0.85]","","",""
"sailing-trial","183","947602","0.0-11.0-138.0","","","","false","","","","","","","","","","827.2000000476837","","387.60000002384186","","1","1","arrowleft","0","arrowright","[0.325,0.675,0.15,0.85]","","",""
"sailing-trial","184","949582","0.0-11.0-139.0","","","","false","","","","","","","","","","null","","658.6999999880791","","0","0","null","null","arrowup","[0.325,0.675,0.15,0.85]","","",""
"sailing-trial","185","953716","0.0-11.0-140.0","","","","false","","","","","","","","","","852.4000000357628","","123.5","","1","1","arrowleft","0","arrowright","[0.325,0.675,0.15,0.85]","","",""
"sailing-trial","186","955916","0.0-11.0-141.0","","","","false","","","","","","","","","","null","","819.5","","0","0","null","null","arrowup","[0.325,0.675,0.15,0.85]","","",""
"sailing-trial","187","960092","0.0-11.0-142.0","","","","false","","","","","","","","","","760.1000000238419","","61.80000001192093","","2","0","arrowright","1","arrowleft","[0.325,0.675,0.15,0.85]","","",""
"sailing-trial","188","962464","0.0-11.0-143.0","","","","false","","","","","","","","","","null","","1002.3999999761581","","1","0","null","null","arrowup","[0.325,0.675,0.15,0.85]","","",""
"sailing-trial","189","966936","0.0-11.0-144.0","","","","false","","","","","","","","","","711.1999999880791","","441.89999997615814","","0","0","arrowleft","0","arrowleft","[0.325,0.675,0.15,0.85]","","",""
"sailing-trial","190","969533","0.0-11.0-145.0","","","","false","","","","","","","","","","null","","801.6999999880791","","1","1","null","null","arrowup","[0.325,0.675,0.15,0.85]","","",""
"sailing-trial","191","972537","0.0-11.0-146.0","","","","false","","","","","","","","","","575.1999999880791","","11.800000011920929","","1","0","arrowleft","0","arrowright","[0.325,0.675,0.15,0.85]","","",""
"sailing-trial","192","975899","0.0-11.0-147.0","","","","false","","","","","","","","","","null","","1664.4000000357628","","3","1","null","null","arrowup","[0.325,0.675,0.15,0.85]","","",""
"sailing-trial","193","979532","0.0-11.0-148.0","","","","false","","","","","","","","","","450.0999999642372","","476","","3","0","arrowright","1","arrowright","[0.15,0.85,0.325,0.675]","","",""
"sailing-trial","194","981683","0.0-11.0-149.0","","","","false","","","","","","","","","","null","","562.5999999642372","","1","0","null","null","arrowup","[0.15,0.85,0.325,0.675]","","",""
"sailing-trial","195","986322","0.0-11.0-150.0","","","","false","","","","","","","","","","1741.5","","101.20000004768372","","0","0","arrowleft","0","arrowleft","[0.15,0.85,0.325,0.675]","","",""
"sailing-trial","196","989440","0.0-11.0-151.0","","","","false","","","","","","","","","","null","","986.3000000119209","","0","0","null","null","arrowup","[0.15,0.85,0.325,0.675]","","",""
"sailing-trial","197","993310","0.0-11.0-152.0","","","","false","","","","","","","","","","977.5999999642372","","104.89999997615814","","0","0","arrowleft","0","arrowleft","[0.15,0.85,0.325,0.675]","","",""
"sailing-trial","198","995095","0.0-11.0-153.0","","","","false","","","","","","","","","","null","","452","","2","0","null","null","arrowup","[0.15,0.85,0.325,0.675]","","",""
"sailing-trial","199","999732","0.0-11.0-154.0","","","","false","","","","","","","","","","781","","914.3000000119209","","1","1","arrowleft","0","arrowright","[0.15,0.85,0.325,0.675]","","",""
"sailing-trial","200","1002048","0.0-11.0-155.0","","","","false","","","","","","","","","","null","","693.5","","2","0","null","null","arrowup","[0.15,0.85,0.325,0.675]","","",""
"sailing-trial","201","1005923","0.0-11.0-156.0","","","","false","","","","","","","","","","875.3999999761581","","594","","2","0","arrowright","1","arrowleft","[0.15,0.85,0.325,0.675]","","",""
"sailing-trial","202","1008215","0.0-11.0-157.0","","","","false","","","","","","","","","","null","","1015.1000000238419","","0","0","null","null","arrowup","[0.15,0.85,0.325,0.675]","","",""
"sailing-trial","203","1011748","0.0-11.0-158.0","","","","false","","","","","","","","","","601.6000000238419","","16","","3","1","arrowright","1","arrowright","[0.15,0.85,0.325,0.675]","","",""
"sailing-trial","204","1014796","0.0-11.0-159.0","","","","false","","","","","","","","","","null","","1413.3999999761581","","1","1","null","null","arrowup","[0.15,0.85,0.325,0.675]","","",""
"sailing-trial","205","1018405","0.0-11.0-160.0","","","","false","","","","","","","","","","335.80000001192093","","486","","3","0","arrowright","1","arrowright","[0.15,0.85,0.325,0.675]","","",""
"sailing-trial","206","1020154","0.0-11.0-161.0","","","","false","","","","","","","","","","null","","487.0999999642372","","2","0","null","null","arrowup","[0.15,0.85,0.325,0.675]","","",""
"sailing-trial","207","1023914","0.0-11.0-162.0","","","","false","","","","","","","","","","620","","41.60000002384186","","3","1","arrowright","1","arrowright","[0.15,0.85,0.325,0.675]","","",""
"sailing-trial","208","1025996","0.0-11.0-163.0","","","","false","","","","","","","","","","null","","187.10000002384186","","2","1","null","null","arrowup","[0.15,0.85,0.325,0.675]","","",""
"sailing-trial","209","1028542","0.0-11.0-164.0","","","","false","","","","","","","","","","126.40000003576279","","145","","3","0","arrowright","1","arrowright","[0.85,0.15,0.675,0.325]","","",""
"sailing-trial","210","1030496","0.0-11.0-165.0","","","","false","","","","","","","","","","null","","377","","0","1","null","null","arrowup","[0.85,0.15,0.675,0.325]","","",""
"sailing-trial","211","1033025","0.0-11.0-166.0","","","","false","","","","","","","","","","192.9000000357628","","5","","1","0","arrowleft","0","arrowright","[0.85,0.15,0.675,0.325]","","",""
"sailing-trial","212","1034392","0.0-11.0-167.0","","","","false","","","","","","","","","","null","","88.10000002384186","","3","0","null","null","arrowup","[0.85,0.15,0.675,0.325]","","",""
"sailing-trial","213","1037702","0.0-11.0-168.0","","","","false","","","","","","","","","","615.5999999642372","","7","","3","0","arrowright","1","arrowright","[0.85,0.15,0.675,0.325]","","",""
"sailing-trial","214","1039847","0.0-11.0-169.0","","","","false","","","","","","","","","","null","","465.4000000357628","","3","1","null","null","arrowup","[0.85,0.15,0.675,0.325]","","",""
"sailing-trial","215","1042776","0.0-11.0-170.0","","","","false","","","","","","","","","","680","","119.80000001192093","","1","0","arrowleft","0","arrowright","[0.85,0.15,0.675,0.325]","","",""
"sailing-trial","216","1044915","0.0-11.0-171.0","","","","false","","","","","","","","","","null","","380.5","","0","1","null","null","arrowup","[0.85,0.15,0.675,0.325]","","",""
"sailing-trial","217","1047734","0.0-11.0-172.0","","","","false","","","","","","","","","","334.60000002384186","","113.89999997615814","","1","0","arrowleft","0","arrowright","[0.85,0.15,0.675,0.325]","","",""
"sailing-trial","218","1049020","0.0-11.0-173.0","","","","false","","","","","","","","","","null","","246.10000002384186","","3","0","null","null","arrowup","[0.85,0.15,0.675,0.325]","","",""
"sailing-trial","219","1052380","0.0-11.0-174.0","","","","false","","","","","","","","","","408.30000001192093","","137.80000001192093","","1","0","arrowleft","0","arrowright","[0.85,0.15,0.675,0.325]","","",""
"sailing-trial","220","1053673","0.0-11.0-175.0","","","","false","","","","","","","","","","null","","200.29999995231628","","3","0","null","null","arrowup","[0.85,0.15,0.675,0.325]","","",""
"sailing-trial","221","1057388","0.0-11.0-176.0","","","","false","","","","","","","","","","499.5","","214.69999998807907","","1","0","arrowleft","0","arrowright","[0.85,0.15,0.675,0.325]","","",""
"sailing-trial","222","1059114","0.0-11.0-177.0","","","","false","","","","","","","","","","null","","154","","0","1","null","null","arrowup","[0.85,0.15,0.675,0.325]","","",""
"sailing-trial","223","1062396","0.0-11.0-178.0","","","","false","","","","","","","","","","66","","350.0999999642372","","0","1","arrowleft","0","arrowleft","[0.85,0.15,0.675,0.325]","","",""
"sailing-trial","224","1064199","0.0-11.0-179.0","","","","false","","","","","","","","","","null","","477","","2","0","null","null","arrowup","[0.85,0.15,0.675,0.325]","","",""
"sailing-trial","225","1067826","0.0-11.0-180.0","","","","false","","","","","","","","","","295","","102.10000002384186","","0","0","arrowleft","0","arrowleft","[0.15,0.85,0.325,0.675]","","",""
"sailing-trial","226","1069548","0.0-11.0-181.0","","","","false","","","","","","","","","","null","","93.30000001192093","","3","1","null","null","arrowup","[0.15,0.85,0.325,0.675]","","",""
"sailing-trial","227","1072646","0.0-11.0-182.0","","","","false","","","","","","","","","","281.19999998807907","","187.69999998807907","","0","1","arrowleft","0","arrowleft","[0.15,0.85,0.325,0.675]","","",""
"sailing-trial","228","1074514","0.0-11.0-183.0","","","","false","","","","","","","","","","null","","76.40000003576279","","0","1","null","null","arrowup","[0.15,0.85,0.325,0.675]","","",""
"sailing-trial","229","1078247","0.0-11.0-184.0","","","","false","","","","","","","","","","694.5","","228.60000002384186","","3","1","arrowright","1","arrowright","[0.15,0.85,0.325,0.675]","","",""
"sailing-trial","230","1079779","0.0-11.0-185.0","","","","false","","","","","","","","","","null","","208.30000001192093","","2","0","null","null","arrowup","[0.15,0.85,0.325,0.675]","","",""
"sailing-trial","231","1083695","0.0-11.0-186.0","","","","false","","","","","","","","","","504.30000001192093","","575.3999999761581","","0","1","arrowleft","0","arrowleft","[0.15,0.85,0.325,0.675]","","",""
"sailing-trial","232","1084870","0.0-11.0-187.0","","","","false","","","","","","","","","","null","","2.300000011920929","","2","0","null","null","arrowup","[0.15,0.85,0.325,0.675]","","",""
"sailing-trial","233","1088100","0.0-11.0-188.0","","","","false","","","","","","","","","","704.8000000119209","","294.39999997615814","","0","0","arrowleft","0","arrowleft","[0.15,0.85,0.325,0.675]","","",""
"sailing-trial","234","1089273","0.0-11.0-189.0","","","","false","","","","","","","","","","null","","137.70000004768372","","0","0","null","null","arrowup","[0.15,0.85,0.325,0.675]","","",""
"sailing-trial","235","1091743","0.0-11.0-190.0","","","","false","","","","","","","","","","69.39999997615814","","182.80000001192093","","0","0","arrowleft","0","arrowleft","[0.15,0.85,0.325,0.675]","","",""
"sailing-trial","236","1093006","0.0-11.0-191.0","","","","false","","","","","","","","","","null","","140.4000000357628","","3","0","null","null","arrowup","[0.15,0.85,0.325,0.675]","","",""
"sailing-trial","237","1095357","0.0-11.0-192.0","","","","false","","","","","","","","","","185.79999995231628","","83.60000002384186","","0","0","arrowleft","0","arrowleft","[0.15,0.85,0.325,0.675]","","",""
"sailing-trial","238","1096513","0.0-11.0-193.0","","","","false","","","","","","","","","","null","","67","","3","0","null","null","arrowup","[0.15,0.85,0.325,0.675]","","",""
"sailing-trial","239","1099519","0.0-11.0-194.0","","","","false","","","","","","","","","","35.5","","209.0999999642372","","0","0","arrowleft","0","arrowleft","[0.15,0.85,0.325,0.675]","","",""
"sailing-trial","240","1102014","0.0-11.0-195.0","","","","false","","","","","","","","","","null","","623.4000000357628","","1","1","null","null","arrowup","[0.15,0.85,0.325,0.675]","","",""
"sailing-trial","241","1105427","0.0-11.0-196.0","","","","false","","","","","","","","","","687.8000000119209","","140.89999997615814","","1","1","arrowleft","0","arrowright","[0.15,0.85,0.325,0.675]","","",""
"sailing-trial","242","1108493","0.0-11.0-197.0","","","","false","","","","","","","","","","null","","201.20000004768372","","2","0","null","null","arrowup","[0.15,0.85,0.325,0.675]","","",""
"sailing-trial","243","1111662","0.0-11.0-198.0","","","","false","","","","","","","","","","90.89999997615814","","226.69999998807907","","1","1","arrowleft","0","arrowright","[0.15,0.85,0.325,0.675]","","",""
"sailing-trial","244","1113878","0.0-11.0-199.0","","","","false","","","","","","","","","","null","","564.5","","2","1","null","null","arrowup","[0.15,0.85,0.325,0.675]","","",""
"sailing-trial","245","1117578","0.0-11.0-200.0","","","","false","","","","","","","","","","165.20000004768372","","44.89999997615814","","1","1","arrowleft","0","arrowright","[0.15,0.85,0.325,0.675]","","",""
"sailing-trial","246","1118877","0.0-11.0-201.0","","","","false","","","","","","","","","","null","","115.60000002384186","","0","0","null","null","arrowup","[0.15,0.85,0.325,0.675]","","",""
"sailing-trial","247","1122426","0.0-11.0-202.0","","","","false","","","","","","","","","","296.60000002384186","","77.60000002384186","","1","1","arrowleft","0","arrowright","[0.325,0.675,0.15,0.85]","","",""
"sailing-trial","248","1124745","0.0-11.0-203.0","","","","false","","","","","","","","","","null","","484.4000000357628","","0","1","null","null","arrowup","[0.325,0.675,0.15,0.85]","","",""
"sailing-trial","249","1127715","0.0-11.0-204.0","","","","false","","","","","","","","","","670.5999999642372","","62.30000001192093","","0","0","arrowleft","0","arrowleft","[0.325,0.675,0.15,0.85]","","",""
"sailing-trial","250","1129497","0.0-11.0-205.0","","","","false","","","","","","","","","","null","","616.1999999880791","","2","0","null","null","arrowup","[0.325,0.675,0.15,0.85]","","",""
"sailing-trial","251","1133034","0.0-11.0-206.0","","","","false","","","","","","","","","","1023.4000000357628","","226.0999999642372","","0","0","arrowleft","0","arrowleft","[0.325,0.675,0.15,0.85]","","",""
"sailing-trial","252","1136006","0.0-11.0-207.0","","","","false","","","","","","","","","","null","","1151.5","","3","0","null","null","arrowup","[0.325,0.675,0.15,0.85]","","",""
"sailing-trial","253","1139010","0.0-11.0-208.0","","","","false","","","","","","","","","","660.8999999761581","","158.80000001192093","","2","0","arrowright","1","arrowleft","[0.325,0.675,0.15,0.85]","","",""
"sailing-trial","254","1141161","0.0-11.0-209.0","","","","false","","","","","","","","","","null","","539.6999999880791","","1","1","null","null","arrowup","[0.325,0.675,0.15,0.85]","","",""
"sailing-trial","255","1144293","0.0-11.0-210.0","","","","false","","","","","","","","","","269.69999998807907","","230.69999998807907","","1","1","arrowleft","0","arrowright","[0.325,0.675,0.15,0.85]","","",""
"sailing-trial","256","1145863","0.0-11.0-211.0","","","","false","","","","","","","","","","null","","187.79999995231628","","0","0","null","null","arrowup","[0.325,0.675,0.15,0.85]","","",""
"sailing-trial","257","1148819","0.0-11.0-212.0","","","","false","","","","","","","","","","467.10000002384186","","198.69999998807907","","1","0","arrowleft","0","arrowright","[0.325,0.675,0.15,0.85]","","",""
"sailing-trial","258","1150304","0.0-11.0-213.0","","","","false","","","","","","","","","","null","","427.0999999642372","","0","0","null","null","arrowup","[0.325,0.675,0.15,0.85]","","",""
"sailing-trial","259","1154059","0.0-11.0-214.0","","","","false","","","","","","","","","","951.8000000119209","","96.30000001192093","","1","1","arrowleft","0","arrowright","[0.325,0.675,0.15,0.85]","","",""
"sailing-trial","260","1155487","0.0-11.0-215.0","","","","false","","","","","","","","","","null","","254.29999995231628","","0","0","null","null","arrowup","[0.325,0.675,0.15,0.85]","","",""
"sailing-trial","261","1158124","0.0-11.0-216.0","","","","false","","","","","","","","","","431.5","","152.5","","1","0","arrowleft","0","arrowright","[0.325,0.675,0.15,0.85]","","",""
"sailing-trial","262","1160276","0.0-11.0-217.0","","","","false","","","","","","","","","","null","","575.8000000119209","","1","1","null","null","arrowup","[0.325,0.675,0.15,0.85]","","",""
"sailing-trial","263","1164693","0.0-11.0-218.0","","","","false","","","","","","","","","","1066.3999999761581","","88.19999998807907","","1","1","arrowleft","0","arrowright","[0.325,0.675,0.15,0.85]","","",""
"sailing-trial","264","1167562","0.0-11.0-219.0","","","","false","","","","","","","","","","null","","95.69999998807907","","2","0","null","null","arrowup","[0.325,0.675,0.15,0.85]","","",""
"sailing-trial","265","1170609","0.0-11.0-220.0","","","","false","","","","","","","","","","168.5","","163.0999999642372","","1","1","arrowleft","0","arrowright","[0.675,0.325,0.85,0.15]","","",""
"sailing-trial","266","1172894","0.0-11.0-221.0","","","","false","","","","","","","","","","null","","572.4000000357628","","2","1","null","null","arrowup","[0.675,0.325,0.85,0.15]","","",""
"sailing-trial","267","1176815","0.0-11.0-222.0","","","","false","","","","","","","","","","709.1999999880791","","975.1999999880791","","1","0","arrowleft","0","arrowright","[0.675,0.325,0.85,0.15]","","",""
"sailing-trial","268","1180245","0.0-11.0-223.0","","","","false","","","","","","","","","","null","","1575","","3","1","null","null","arrowup","[0.675,0.325,0.85,0.15]","","",""
"sailing-trial","269","1183792","0.0-11.0-224.0","","","","false","","","","","","","","","","572.8000000119209","","32.19999998807907","","0","1","arrowleft","0","arrowleft","[0.675,0.325,0.85,0.15]","","",""
"sailing-trial","270","1185511","0.0-11.0-225.0","","","","false","","","","","","","","","","null","","429.30000001192093","","1","0","null","null","arrowup","[0.675,0.325,0.85,0.15]","","",""
"sailing-trial","271","1190320","0.0-11.0-226.0","","","","false","","","","","","","","","","541.6000000238419","","631.1000000238419","","3","0","arrowright","1","arrowright","[0.675,0.325,0.85,0.15]","","",""
"sailing-trial","272","1192268","0.0-11.0-227.0","","","","false","","","","","","","","","","null","","714.3999999761581","","3","0","null","null","arrowup","[0.675,0.325,0.85,0.15]","","",""
"sailing-trial","273","1195629","0.0-11.0-228.0","","","","false","","","","","","","","","","767.3000000119209","","68.89999997615814","","1","0","arrowleft","0","arrowright","[0.675,0.325,0.85,0.15]","","",""
"sailing-trial","274","1197691","0.0-11.0-229.0","","","","false","","","","","","","","","","null","","481.10000002384186","","0","1","null","null","arrowup","[0.675,0.325,0.85,0.15]","","",""
"sailing-trial","275","1202862","0.0-11.0-230.0","","","","false","","","","","","","","","","590","","1695.199999988079","","1","0","arrowleft","0","arrowright","[0.675,0.325,0.85,0.15]","","",""
"sailing-trial","276","1206991","0.0-11.0-231.0","","","","false","","","","","","","","","","null","","578.6999999880791","","3","1","null","null","arrowup","[0.675,0.325,0.85,0.15]","","",""
"sailing-trial","277","1209999","0.0-11.0-232.0","","","","false","","","","","","","","","","528.4000000357628","","186.5","","1","0","arrowleft","0","arrowright","[0.675,0.325,0.85,0.15]","","",""
"sailing-trial","278","1212473","0.0-11.0-233.0","","","","false","","","","","","","","","","null","","519.1999999880791","","2","1","null","null","arrowup","[0.675,0.325,0.85,0.15]","","",""
"sailing-trial","279","1216165","0.0-11.0-234.0","","","","false","","","","","","","","","","445.0999999642372","","323.2000000476837","","2","1","arrowright","1","arrowleft","[0.675,0.325,0.85,0.15]","","",""
"sailing-trial","280","1219084","0.0-11.0-235.0","","","","false","","","","","","","","","","null","","1712.0999999642372","","1","0","null","null","arrowup","[0.675,0.325,0.85,0.15]","","",""
"sailing-trial","281","1225326","0.0-11.0-236.0","","","","false","","","","","","","","","","850.8999999761581","","2555.100000023842","","0","1","arrowleft","0","arrowleft","[0.85,0.15,0.675,0.325]","","",""
"sailing-trial","282","1227551","0.0-11.0-237.0","","","","false","","","","","","","","","","null","","1072.199999988079","","0","0","null","null","arrowup","[0.85,0.15,0.675,0.325]","","",""
"sailing-trial","283","1231040","0.0-11.0-238.0","","","","false","","","","","","","","","","717.1999999880791","","100.09999996423721","","3","1","arrowright","1","arrowright","[0.85,0.15,0.675,0.325]","","",""
"sailing-trial","284","1233759","0.0-11.0-239.0","","","","false","","","","","","","","","","null","","801.6999999880791","","3","1","null","null","arrowup","[0.85,0.15,0.675,0.325]","","",""
"sailing-trial","285","1237033","0.0-11.0-240.0","","","","false","","","","","","","","","","557.1000000238419","","277","","0","0","arrowleft","0","arrowleft","[0.85,0.15,0.675,0.325]","","",""
"sailing-trial","286","1239305","0.0-11.0-241.0","","","","false","","","","","","","","","","null","","710","","2","1","null","null","arrowup","[0.85,0.15,0.675,0.325]","","",""
"sailing-trial","287","1243009","0.0-11.0-242.0","","","","false","","","","","","","","","","442.9000000357628","","139","","1","1","arrowleft","0","arrowright","[0.85,0.15,0.675,0.325]","","",""
"sailing-trial","288","1244992","0.0-11.0-243.0","","","","false","","","","","","","","","","null","","65.09999996423721","","0","1","null","null","arrowup","[0.85,0.15,0.675,0.325]","","",""
"sailing-trial","289","1247585","0.0-11.0-244.0","","","","false","","","","","","","","","","230.39999997615814","","49.69999998807907","","0","0","arrowleft","0","arrowleft","[0.85,0.15,0.675,0.325]","","",""
"sailing-trial","290","1250608","0.0-11.0-245.0","","","","false","","","","","","","","","","null","","935.0999999642372","","3","1","null","null","arrowup","[0.85,0.15,0.675,0.325]","","",""
"sailing-trial","291","1253106","0.0-11.0-246.0","","","","false","","","","","","","","","","289.60000002384186","","77.39999997615814","","1","0","arrowleft","0","arrowright","[0.85,0.15,0.675,0.325]","","",""
"sailing-trial","292","1255492","0.0-11.0-247.0","","","","false","","","","","","","","","","null","","805","","1","1","null","null","arrowup","[0.85,0.15,0.675,0.325]","","",""
"sailing-trial","293","1258323","0.0-11.0-248.0","","","","false","","","","","","","","","","316","","187.5","","1","0","arrowleft","0","arrowright","[0.85,0.15,0.675,0.325]","","",""
"sailing-trial","294","1261308","0.0-11.0-249.0","","","","false","","","","","","","","","","null","","866.8999999761581","","0","1","null","null","arrowup","[0.85,0.15,0.675,0.325]","","",""
"sailing-trial","295","1265214","0.0-11.0-250.0","","","","false","","","","","","","","","","205.5","","1316.300000011921","","1","0","arrowleft","0","arrowright","[0.85,0.15,0.675,0.325]","","",""
"sailing-trial","296","1267707","0.0-11.0-251.0","","","","false","","","","","","","","","","null","","802","","0","1","null","null","arrowup","[0.85,0.15,0.675,0.325]","","",""
"sailing-trial","297","1271193","0.0-11.0-252.0","","","","false","","","","","","","","","","257.60000002384186","","331.5","","2","0","arrowright","1","arrowleft","[0.85,0.15,0.675,0.325]","","",""
"sailing-trial","298","1274005","0.0-11.0-253.0","","","","false","","","","","","","","","","null","","1196.2999999523163","","1","1","null","null","arrowup","[0.85,0.15,0.675,0.325]","","",""
"sailing-trial","299","1276949","0.0-11.0-254.0","","","","false","","","","","","","","","","116.09999996423721","","144.20000004768372","","1","0","arrowleft","0","arrowright","[0.675,0.325,0.85,0.15]","","",""
"sailing-trial","300","1278891","0.0-11.0-255.0","","","","false","","","","","","","","","","null","","332.5","","2","1","null","null","arrowup","[0.675,0.325,0.85,0.15]","","",""
"sailing-trial","301","1281722","0.0-11.0-256.0","","","","false","","","","","","","","","","163.80000001192093","","16.80000001192093","","3","1","arrowright","1","arrowright","[0.675,0.325,0.85,0.15]","","",""
"sailing-trial","302","1283041","0.0-11.0-257.0","","","","false","","","","","","","","","","null","","147.9000000357628","","3","0","null","null","arrowup","[0.675,0.325,0.85,0.15]","","",""
"sailing-trial","303","1285241","0.0-11.0-258.0","","","","false","","","","","","","","","","21","","5.800000011920929","","2","0","arrowright","1","arrowleft","[0.675,0.325,0.85,0.15]","","",""
"sailing-trial","304","1286642","0.0-11.0-259.0","","","","false","","","","","","","","","","null","","86.10000002384186","","1","0","null","null","arrowup","[0.675,0.325,0.85,0.15]","","",""
"sailing-trial","305","1289640","0.0-11.0-260.0","","","","false","","","","","","","","","","76.59999996423721","","170.30000001192093","","2","1","arrowright","1","arrowleft","[0.675,0.325,0.85,0.15]","","",""
"sailing-trial","306","1290925","0.0-11.0-261.0","","","","false","","","","","","","","","","null","","267.19999998807907","","1","0","null","null","arrowup","[0.675,0.325,0.85,0.15]","","",""
"sailing-trial","307","1293414","0.0-11.0-262.0","","","","false","","","","","","","","","","241.80000001192093","","27.399999976158142","","1","0","arrowleft","0","arrowright","[0.675,0.325,0.85,0.15]","","",""
"sailing-trial","308","1294945","0.0-11.0-263.0","","","","false","","","","","","","","","","null","","309.60000002384186","","1","0","null","null","arrowup","[0.675,0.325,0.85,0.15]","","",""
"sailing-trial","309","1297757","0.0-11.0-264.0","","","","false","","","","","","","","","","257.69999998807907","","195.9000000357628","","0","0","arrowleft","0","arrowleft","[0.675,0.325,0.85,0.15]","","",""
"sailing-trial","310","1300004","0.0-11.0-265.0","","","","false","","","","","","","","","","null","","342.80000001192093","","2","1","null","null","arrowup","[0.675,0.325,0.85,0.15]","","",""
"sailing-trial","311","1303289","0.0-11.0-266.0","","","","false","","","","","","","","","","29.80000001192093","","247.39999997615814","","2","1","arrowright","1","arrowleft","[0.675,0.325,0.85,0.15]","","",""
"sailing-trial","312","1304795","0.0-11.0-267.0","","","","false","","","","","","","","","","null","","314.4000000357628","","3","0","null","null","arrowup","[0.675,0.325,0.85,0.15]","","",""
"sailing-trial","313","1307606","0.0-11.0-268.0","","","","false","","","","","","","","","","21.299999952316284","","197.10000002384186","","3","1","arrowright","1","arrowright","[0.675,0.325,0.85,0.15]","","",""
"sailing-trial","314","1309508","0.0-11.0-269.0","","","","false","","","","","","","","","","null","","313.0999999642372","","0","1","null","null","arrowup","[0.675,0.325,0.85,0.15]","","",""
"sailing-trial","315","1312157","0.0-11.0-270.0","","","","false","","","","","","","","","","224.60000002384186","","139.60000002384186","","0","0","arrowleft","0","arrowleft","[0.675,0.325,0.85,0.15]","","",""
"sailing-trial","316","1314155","0.0-11.0-271.0","","","","false","","","","","","","","","","null","","84.19999998807907","","1","1","null","null","arrowup","[0.675,0.325,0.85,0.15]","","",""
"sailing-trial","317","1317238","0.0-11.0-272.0","","","","false","","","","","","","","","","143.70000004768372","","128.89999997615814","","0","1","arrowleft","0","arrowleft","[0.85,0.15,0.675,0.325]","","",""
"sailing-trial","318","1319124","0.0-11.0-273.0","","","","false","","","","","","","","","","null","","80.19999998807907","","0","1","null","null","arrowup","[0.85,0.15,0.675,0.325]","","",""
"sailing-trial","319","1321287","0.0-11.0-274.0","","","","false","","","","","","","","","","0.19999998807907104","","79.30000001192093","","3","0","arrowright","1","arrowright","[0.85,0.15,0.675,0.325]","","",""
"sailing-trial","320","1323288","0.0-11.0-275.0","","","","false","","","","","","","","","","null","","236.30000001192093","","2","1","null","null","arrowup","[0.85,0.15,0.675,0.325]","","",""
"sailing-trial","321","1326238","0.0-11.0-276.0","","","","false","","","","","","","","","","45.69999998807907","","110.09999996423721","","2","1","arrowright","1","arrowleft","[0.85,0.15,0.675,0.325]","","",""
"sailing-trial","322","1327490","0.0-11.0-277.0","","","","false","","","","","","","","","","null","","78.5","","0","0","null","null","arrowup","[0.85,0.15,0.675,0.325]","","",""
"sailing-trial","323","1329984","0.0-11.0-278.0","","","","false","","","","","","","","","","43.80000001192093","","73.69999998807907","","3","0","arrowright","1","arrowright","[0.85,0.15,0.675,0.325]","","",""
"sailing-trial","324","1331484","0.0-11.0-279.0","","","","false","","","","","","","","","","null","","249.10000002384186","","3","0","null","null","arrowup","[0.85,0.15,0.675,0.325]","","",""
"sailing-trial","325","1334030","0.0-11.0-280.0","","","","false","","","","","","","","","","166.60000002384186","","43.69999998807907","","2","0","arrowright","1","arrowleft","[0.85,0.15,0.675,0.325]","","",""
"sailing-trial","326","1335390","0.0-11.0-281.0","","","","false","","","","","","","","","","null","","53.299999952316284","","1","0","null","null","arrowup","[0.85,0.15,0.675,0.325]","","",""
"sailing-trial","327","1337792","0.0-11.0-282.0","","","","false","","","","","","","","","","29.900000035762787","","158.30000001192093","","2","0","arrowright","1","arrowleft","[0.85,0.15,0.675,0.325]","","",""
"sailing-trial","328","1339670","0.0-11.0-283.0","","","","false","","","","","","","","","","null","","250.19999998807907","","0","1","null","null","arrowup","[0.85,0.15,0.675,0.325]","","",""
"sailing-trial","329","1342786","0.0-11.0-284.0","","","","false","","","","","","","","","","186.80000001192093","","168.10000002384186","","0","1","arrowleft","0","arrowleft","[0.85,0.15,0.675,0.325]","","",""
"sailing-trial","330","1344164","0.0-11.0-285.0","","","","false","","","","","","","","","","null","","306.10000002384186","","1","0","null","null","arrowup","[0.85,0.15,0.675,0.325]","","",""
"sailing-trial","331","1347103","0.0-11.0-286.0","","","","false","","","","","","","","","","198.9000000357628","","47.799999952316284","","0","1","arrowleft","0","arrowleft","[0.85,0.15,0.675,0.325]","","",""
"sailing-trial","332","1348281","0.0-11.0-287.0","","","","false","","","","","","","","","","null","","43.19999998807907","","1","0","null","null","arrowup","[0.85,0.15,0.675,0.325]","","",""
"sailing-trial","333","1351501","0.0-11.0-288.0","","","","false","","","","","","","","","","184","","226.69999998807907","","0","1","arrowleft","0","arrowleft","[0.85,0.15,0.675,0.325]","","",""
"sailing-trial","334","1353485","0.0-11.0-289.0","","","","false","","","","","","","","","","null","","266","","0","1","null","null","arrowup","[0.85,0.15,0.675,0.325]","","",""
"sailing-trial","335","1356352","0.0-11.0-290.0","","","","false","","","","","","","","","","52.60000002384186","","211.69999998807907","","0","1","arrowleft","0","arrowleft","[0.85,0.15,0.675,0.325]","","",""
"sailing-trial","336","1358454","0.0-11.0-291.0","","","","false","","","","","","","","","","null","","303.19999998807907","","2","1","null","null","arrowup","[0.85,0.15,0.675,0.325]","","",""
"sailing-trial","337","1361170","0.0-11.0-292.0","","","","false","","","","","","","","","","321.0999999642372","","38.10000002384186","","3","0","arrowright","1","arrowright","[0.675,0.325,0.85,0.15]","","",""
"sailing-trial","338","1362546","0.0-11.0-293.0","","","","false","","","","","","","","","","null","","360.39999997615814","","3","0","null","null","arrowup","[0.675,0.325,0.85,0.15]","","",""
"sailing-trial","339","1365437","0.0-11.0-294.0","","","","false","","","","","","","","","","129.39999997615814","","81.19999998807907","","0","1","arrowleft","0","arrowleft","[0.675,0.325,0.85,0.15]","","",""
"sailing-trial","340","1366755","0.0-11.0-295.0","","","","false","","","","","","","","","","null","","212.69999998807907","","1","0","null","null","arrowup","[0.675,0.325,0.85,0.15]","","",""
"sailing-trial","341","1369023","0.0-11.0-296.0","","","","false","","","","","","","","","","125.5","","28.5","","3","0","arrowright","1","arrowright","[0.675,0.325,0.85,0.15]","","",""
"sailing-trial","342","1370541","0.0-11.0-297.0","","","","false","","","","","","","","","","null","","290.5","","2","0","null","null","arrowup","[0.675,0.325,0.85,0.15]","","",""
"sailing-trial","343","1373370","0.0-11.0-298.0","","","","false","","","","","","","","","","11.099999964237213","","76.10000002384186","","0","1","arrowleft","0","arrowleft","[0.675,0.325,0.85,0.15]","","",""
"sailing-trial","344","1374800","0.0-11.0-299.0","","","","false","","","","","","","","","","null","","132.30000001192093","","3","0","null","null","arrowup","[0.675,0.325,0.85,0.15]","","",""
"sailing-trial","345","1377619","0.0-11.0-300.0","","","","false","","","","","","","","","","13.5","","34.59999996423721","","0","1","arrowleft","0","arrowleft","[0.675,0.325,0.85,0.15]","","",""
"sailing-trial","346","1378887","0.0-11.0-301.0","","","","false","","","","","","","","","","null","","27.5","","2","0","null","null","arrowup","[0.675,0.325,0.85,0.15]","","",""
"sailing-trial","347","1381095","0.0-11.0-302.0","","","","false","","","","","","","","","","49.30000001192093","","26.5","","1","0","arrowleft","0","arrowright","[0.675,0.325,0.85,0.15]","","",""
"sailing-trial","348","1382607","0.0-11.0-303.0","","","","false","","","","","","","","","","null","","273.19999998807907","","3","0","null","null","arrowup","[0.675,0.325,0.85,0.15]","","",""
"sailing-trial","349","1385104","0.0-11.0-304.0","","","","false","","","","","","","","","","0.09999996423721313","","112.39999997615814","","1","0","arrowleft","0","arrowright","[0.675,0.325,0.85,0.15]","","",""
"sailing-trial","350","1386418","0.0-11.0-305.0","","","","false","","","","","","","","","","null","","215.19999998807907","","0","0","null","null","arrowup","[0.675,0.325,0.85,0.15]","","",""
"sailing-trial","351","1388758","0.0-11.0-306.0","","","","false","","","","","","","","","","56.5","","34.10000002384186","","3","0","arrowright","1","arrowright","[0.675,0.325,0.85,0.15]","","",""
"sailing-trial","352","1390821","0.0-11.0-307.0","","","","false","","","","","","","","","","null","","56.59999996423721","","0","1","null","null","arrowup","[0.675,0.325,0.85,0.15]","","",""
"sailing-trial","353","1393284","0.0-11.0-308.0","","","","false","","","","","","","","","","161","","179.19999998807907","","0","0","arrowleft","0","arrowleft","[0.675,0.325,0.85,0.15]","","",""
"sailing-trial","354","1395192","0.0-11.0-309.0","","","","false","","","","","","","","","","null","","611.1999999880791","","0","0","null","null","arrowup","[0.675,0.325,0.85,0.15]","","",""
"sailing-trial","355","1397710","0.0-11.0-310.0","","","","false","","","","","","","","","","92.30000001192093","","101.40000003576279","","1","0","arrowleft","0","arrowright","[0.675,0.325,0.85,0.15]","","",""
"sailing-trial","356","1402572","0.0-11.0-311.0","","","","false","","","","","","","","","","null","","1850.3999999761581","","1","0","null","null","arrowup","[0.675,0.325,0.85,0.15]","","",""
"sailing-trial","357","1406202","0.0-11.0-312.0","","","","false","","","","","","","","","","452.19999998807907","","420.80000001192093","","2","1","arrowright","1","arrowleft","[0.675,0.325,0.85,0.15]","","",""
"sailing-trial","358","1408204","0.0-11.0-313.0","","","","false","","","","","","","","","","null","","422.5999999642372","","2","1","null","null","arrowup","[0.675,0.325,0.85,0.15]","","",""
"sailing-trial","359","1412384","0.0-11.0-314.0","","","","false","","","","","","","","","","1102.8999999761581","","142.79999995231628","","2","1","arrowright","1","arrowleft","[0.675,0.325,0.85,0.15]","","",""
"sailing-trial","360","1414371","0.0-11.0-315.0","","","","false","","","","","","","","","","null","","825.5","","3","0","null","null","arrowup","[0.675,0.325,0.85,0.15]","","",""
"sailing-trial","361","1417024","0.0-11.0-316.0","","","","false","","","","","","","","","","510.19999998807907","","1.199999988079071","","2","0","arrowright","1","arrowleft","[0.85,0.15,0.675,0.325]","","",""
"sailing-trial","362","1418686","0.0-11.0-317.0","","","","false","","","","","","","","","","null","","500.10000002384186","","3","0","null","null","arrowup","[0.85,0.15,0.675,0.325]","","",""
"sailing-trial","363","1421702","0.0-11.0-318.0","","","","false","","","","","","","","","","256.69999998807907","","96.30000001192093","","2","1","arrowright","1","arrowleft","[0.85,0.15,0.675,0.325]","","",""
"sailing-trial","364","1424866","0.0-11.0-319.0","","","","false","","","","","","","","","","null","","1578.699999988079","","2","1","null","null","arrowup","[0.85,0.15,0.675,0.325]","","",""
"sailing-trial","365","1427983","0.0-11.0-320.0","","","","false","","","","","","","","","","66.69999998807907","","304.69999998807907","","0","1","arrowleft","0","arrowleft","[0.85,0.15,0.675,0.325]","","",""
"sailing-trial","366","1429509","0.0-11.0-321.0","","","","false","","","","","","","","","","null","","100.09999996423721","","1","0","null","null","arrowup","[0.85,0.15,0.675,0.325]","","",""
"sailing-trial","367","1431957","0.0-11.0-322.0","","","","false","","","","","","","","","","303.5","","33","","2","0","arrowright","1","arrowleft","[0.85,0.15,0.675,0.325]","","",""
"sailing-trial","368","1433362","0.0-11.0-323.0","","","","false","","","","","","","","","","null","","8.900000035762787","","3","0","null","null","arrowup","[0.85,0.15,0.675,0.325]","","",""
"sailing-trial","369","1436708","0.0-11.0-324.0","","","","false","","","","","","","","","","293.4000000357628","","209","","2","0","arrowright","1","arrowleft","[0.85,0.15,0.675,0.325]","","",""
"sailing-trial","370","1439411","0.0-11.0-325.0","","","","false","","","","","","","","","","null","","729.3000000119209","","1","0","null","null","arrowup","[0.85,0.15,0.675,0.325]","","",""
"sailing-trial","371","1441987","0.0-11.0-326.0","","","","false","","","","","","","","","","224.4000000357628","","270.89999997615814","","1","0","arrowleft","0","arrowright","[0.85,0.15,0.675,0.325]","","",""
"sailing-trial","372","1444169","0.0-11.0-327.0","","","","false","","","","","","","","","","null","","314.10000002384186","","3","1","null","null","arrowup","[0.85,0.15,0.675,0.325]","","",""
"sailing-trial","373","1446829","0.0-11.0-328.0","","","","false","","","","","","","","","","267.5","","262.89999997615814","","2","0","arrowright","1","arrowleft","[0.85,0.15,0.675,0.325]","","",""
"sailing-trial","374","1448751","0.0-11.0-329.0","","","","false","","","","","","","","","","null","","467.80000001192093","","1","0","null","null","arrowup","[0.85,0.15,0.675,0.325]","","",""
"sailing-trial","375","1451767","0.0-11.0-330.0","","","","false","","","","","","","","","","263.30000001192093","","85.09999996423721","","0","1","arrowleft","0","arrowleft","[0.85,0.15,0.675,0.325]","","",""
"sailing-trial","376","1453273","0.0-11.0-331.0","","","","false","","","","","","","","","","null","","244.79999995231628","","3","0","null","null","arrowup","[0.85,0.15,0.675,0.325]","","",""
"sailing-trial","377","1457334","0.0-11.0-332.0","","","","false","","","","","","","","","","665.1999999880791","","376.5","","0","1","arrowleft","0","arrowleft","[0.675,0.325,0.85,0.15]","","",""
"sailing-trial","378","1458914","0.0-11.0-333.0","","","","false","","","","","","","","","","null","","546.3000000119209","","1","0","null","null","arrowup","[0.675,0.325,0.85,0.15]","","",""
"sailing-trial","379","1462317","0.0-11.0-334.0","","","","false","","","","","","","","","","11.200000047683716","","502.9000000357628","","2","1","arrowright","1","arrowleft","[0.675,0.325,0.85,0.15]","","",""
"sailing-trial","380","1464003","0.0-11.0-335.0","","","","false","","","","","","","","","","null","","272.60000002384186","","0","0","null","null","arrowup","[0.675,0.325,0.85,0.15]","","",""
"sailing-trial","381","1468898","0.0-11.0-336.0","","","","false","","","","","","","","","","393.10000002384186","","833.6000000238419","","3","0","arrowright","1","arrowright","[0.675,0.325,0.85,0.15]","","",""
"sailing-trial","382","1470633","0.0-11.0-337.0","","","","false","","","","","","","","","","null","","293.10000002384186","","1","0","null","null","arrowup","[0.675,0.325,0.85,0.15]","","",""
"sailing-trial","383","1473800","0.0-11.0-338.0","","","","false","","","","","","","","","","268.10000002384186","","37.200000047683716","","3","1","arrowright","1","arrowright","[0.675,0.325,0.85,0.15]","","",""
"sailing-trial","384","1476002","0.0-11.0-339.0","","","","false","","","","","","","","","","null","","407.80000001192093","","0","1","null","null","arrowup","[0.675,0.325,0.85,0.15]","","",""
"sailing-trial","385","1479598","0.0-11.0-340.0","","","","false","","","","","","","","","","306.0999999642372","","135.5","","1","1","arrowleft","0","arrowright","[0.675,0.325,0.85,0.15]","","",""
"sailing-trial","386","1481195","0.0-11.0-341.0","","","","false","","","","","","","","","","null","","333","","1","0","null","null","arrowup","[0.675,0.325,0.85,0.15]","","",""
"sailing-trial","387","1484681","0.0-11.0-342.0","","","","false","","","","","","","","","","284.5","","439.19999998807907","","0","1","arrowleft","0","arrowleft","[0.675,0.325,0.85,0.15]","","",""
"sailing-trial","388","1486072","0.0-11.0-343.0","","","","false","","","","","","","","","","null","","67.60000002384186","","3","0","null","null","arrowup","[0.675,0.325,0.85,0.15]","","",""
"sailing-trial","389","1489149","0.0-11.0-344.0","","","","false","","","","","","","","","","235.19999998807907","","711.5999999642372","","3","0","arrowright","1","arrowright","[0.675,0.325,0.85,0.15]","","",""
"sailing-trial","390","1491834","0.0-11.0-345.0","","","","false","","","","","","","","","","null","","1506.8999999761581","","0","0","null","null","arrowup","[0.675,0.325,0.85,0.15]","","",""
"sailing-trial","391","1495301","0.0-11.0-346.0","","","","false","","","","","","","","","","694.1999999880791","","263.69999998807907","","0","0","arrowleft","0","arrowleft","[0.675,0.325,0.85,0.15]","","",""
"sailing-trial","392","1497053","0.0-11.0-347.0","","","","false","","","","","","","","","","null","","182.69999998807907","","1","0","null","null","arrowup","[0.675,0.325,0.85,0.15]","","",""
"sailing-trial","393","1500183","0.0-11.0-348.0","","","","false","","","","","","","","","","203.5","","305.80000001192093","","2","1","arrowright","1","arrowleft","[0.85,0.15,0.675,0.325]","","",""
"sailing-trial","394","1501567","0.0-11.0-349.0","","","","false","","","","","","","","","","null","","264.7000000476837","","3","0","null","null","arrowup","[0.85,0.15,0.675,0.325]","","",""
"sailing-trial","395","1505213","0.0-11.0-350.0","","","","false","","","","","","","","","","414.9000000357628","","221.80000001192093","","0","1","arrowleft","0","arrowleft","[0.85,0.15,0.675,0.325]","","",""
"sailing-trial","396","1507049","0.0-11.0-351.0","","","","false","","","","","","","","","","null","","201.30000001192093","","3","1","null","null","arrowup","[0.85,0.15,0.675,0.325]","","",""
"sailing-trial","397","1510815","0.0-11.0-352.0","","","","false","","","","","","","","","","405.0999999642372","","42.299999952316284","","0","1","arrowleft","0","arrowleft","[0.85,0.15,0.675,0.325]","","",""
"sailing-trial","398","1512405","0.0-11.0-353.0","","","","false","","","","","","","","","","null","","174.5","","1","0","null","null","arrowup","[0.85,0.15,0.675,0.325]","","",""
"sailing-trial","399","1517364","0.0-11.0-354.0","","","","false","","","","","","","","","","173.60000002384186","","227.70000004768372","","3","1","arrowright","1","arrowright","[0.85,0.15,0.675,0.325]","","",""
"sailing-trial","400","1519880","0.0-11.0-355.0","","","","false","","","","","","","","","","null","","67.70000004768372","","0","1","null","null","arrowup","[0.85,0.15,0.675,0.325]","","",""
"sailing-trial","401","1523398","0.0-11.0-356.0","","","","false","","","","","","","","","","442.7000000476837","","213.60000002384186","","0","1","arrowleft","0","arrowleft","[0.85,0.15,0.675,0.325]","","",""
"sailing-trial","402","1524893","0.0-11.0-357.0","","","","false","","","","","","","","","","null","","180.39999997615814","","0","0","null","null","arrowup","[0.85,0.15,0.675,0.325]","","",""
"sailing-trial","403","1530213","0.0-11.0-358.0","","","","false","","","","","","","","","","640.5999999642372","","706.1999999880791","","0","1","arrowleft","0","arrowleft","[0.85,0.15,0.675,0.325]","","",""
"sailing-trial","404","1532616","0.0-11.0-359.0","","","","false","","","","","","","","","","null","","337.69999998807907","","3","1","null","null","arrowup","[0.85,0.15,0.675,0.325]","","",""
"sailing-trial","405","1536566","0.0-11.0-360.0","","","","false","","","","","","","","","","574.8000000119209","","137.29999995231628","","0","1","arrowleft","0","arrowleft","[0.85,0.15,0.675,0.325]","","",""
"sailing-trial","406","1538412","0.0-11.0-361.0","","","","false","","","","","","","","","","null","","756.0999999642372","","3","0","null","null","arrowup","[0.85,0.15,0.675,0.325]","","",""
"sailing-trial","407","1541766","0.0-11.0-362.0","","","","false","","","","","","","","","","44","","277.60000002384186","","1","0","arrowleft","0","arrowright","[0.85,0.15,0.675,0.325]","","",""
"sailing-trial","408","1544407","0.0-11.0-363.0","","","","false","","","","","","","","","","null","","503.9000000357628","","2","0","null","null","arrowup","[0.85,0.15,0.675,0.325]","","",""
"sailing-trial","409","1547456","0.0-11.0-364.0","","","","false","","","","","","","","","","402.5","","194.30000001192093","","1","0","arrowleft","0","arrowright","[0.85,0.15,0.675,0.325]","","",""
"sailing-trial","410","1549009","0.0-11.0-365.0","","","","false","","","","","","","","","","null","","200.69999998807907","","1","0","null","null","arrowup","[0.85,0.15,0.675,0.325]","","",""
"sailing-trial","411","1552013","0.0-11.0-366.0","","","","false","","","","","","","","","","278.4000000357628","","36.69999998807907","","2","1","arrowright","1","arrowleft","[0.85,0.15,0.675,0.325]","","",""
"sailing-trial","412","1553548","0.0-11.0-367.0","","","","false","","","","","","","","","","null","","89.10000002384186","","3","0","null","null","arrowup","[0.85,0.15,0.675,0.325]","","",""
"sailing-trial","413","1556231","0.0-11.0-368.0","","","","false","","","","","","","","","","239.10000002384186","","186.69999998807907","","2","0","arrowright","1","arrowleft","[0.675,0.325,0.85,0.15]","","",""
"sailing-trial","414","1558113","0.0-11.0-369.0","","","","false","","","","","","","","","","null","","175.30000001192093","","2","1","null","null","arrowup","[0.675,0.325,0.85,0.15]","","",""
"sailing-trial","415","1561145","0.0-11.0-370.0","","","","false","","","","","","","","","","193.69999998807907","","144.30000001192093","","1","0","arrowleft","0","arrowright","[0.675,0.325,0.85,0.15]","","",""
"sailing-trial","416","1563096","0.0-11.0-371.0","","","","false","","","","","","","","","","null","","363.30000001192093","","2","1","null","null","arrowup","[0.675,0.325,0.85,0.15]","","",""
"sailing-trial","417","1566278","0.0-11.0-372.0","","","","false","","","","","","","","","","263.30000001192093","","226","","2","1","arrowright","1","arrowleft","[0.675,0.325,0.85,0.15]","","",""
"sailing-trial","418","1568179","0.0-11.0-373.0","","","","false","","","","","","","","","","null","","136.19999998807907","","2","1","null","null","arrowup","[0.675,0.325,0.85,0.15]","","",""
"sailing-trial","419","1571379","0.0-11.0-374.0","","","","false","","","","","","","","","","109.60000002384186","","379.4000000357628","","2","0","arrowright","1","arrowleft","[0.675,0.325,0.85,0.15]","","",""
"sailing-trial","420","1574596","0.0-11.0-375.0","","","","false","","","","","","","","","","null","","206.69999998807907","","1","0","null","null","arrowup","[0.675,0.325,0.85,0.15]","","",""
"sailing-trial","421","1578445","0.0-11.0-376.0","","","","false","","","","","","","","","","365.69999998807907","","724","","2","1","arrowright","1","arrowleft","[0.675,0.325,0.85,0.15]","","",""
"sailing-trial","422","1580512","0.0-11.0-377.0","","","","false","","","","","","","","","","null","","433","","0","1","null","null","arrowup","[0.675,0.325,0.85,0.15]","","",""
"sailing-trial","423","1583713","0.0-11.0-378.0","","","","false","","","","","","","","","","357.60000002384186","","186.20000004768372","","2","1","arrowright","1","arrowleft","[0.675,0.325,0.85,0.15]","","",""
"sailing-trial","424","1585747","0.0-11.0-379.0","","","","false","","","","","","","","","","null","","300.19999998807907","","2","1","null","null","arrowup","[0.675,0.325,0.85,0.15]","","",""
"sailing-trial","425","1589364","0.0-11.0-380.0","","","","false","","","","","","","","","","153.80000001192093","","731.8000000119209","","1","1","arrowleft","0","arrowright","[0.675,0.325,0.85,0.15]","","",""
"sailing-trial","426","1592911","0.0-11.0-381.0","","","","false","","","","","","","","","","null","","1642","","1","1","null","null","arrowup","[0.675,0.325,0.85,0.15]","","",""
"sailing-trial","427","1595587","0.0-11.0-382.0","","","","false","","","","","","","","","","546.0999999642372","","43.69999998807907","","2","0","arrowright","1","arrowleft","[0.675,0.325,0.85,0.15]","","",""
"sailing-trial","428","1597473","0.0-11.0-383.0","","","","false","","","","","","","","","","null","","817.9000000357628","","3","0","null","null","arrowup","[0.675,0.325,0.85,0.15]","","",""
"sailing-trial","429","1602128","0.0-11.0-384.0","","","","false","","","","","","","","","","710.6000000238419","","643.5999999642372","","0","1","arrowleft","0","arrowleft","[0.85,0.15,0.675,0.325]","","",""
"sailing-trial","430","1603776","0.0-11.0-385.0","","","","false","","","","","","","","","","null","","74.10000002384186","","0","1","null","null","arrowup","[0.85,0.15,0.675,0.325]","","",""
"sailing-trial","431","1606727","0.0-11.0-386.0","","","","false","","","","","","","","","","220.80000001192093","","106.59999996423721","","2","1","arrowright","1","arrowleft","[0.85,0.15,0.675,0.325]","","",""
"sailing-trial","432","1608697","0.0-11.0-387.0","","","","false","","","","","","","","","","null","","416.69999998807907","","0","1","null","null","arrowup","[0.85,0.15,0.675,0.325]","","",""
"sailing-trial","433","1612246","0.0-11.0-388.0","","","","false","","","","","","","","","","405.7999999523163","","251.9000000357628","","2","1","arrowright","1","arrowleft","[0.85,0.15,0.675,0.325]","","",""
"sailing-trial","434","1614496","0.0-11.0-389.0","","","","false","","","","","","","","","","null","","383.19999998807907","","2","1","null","null","arrowup","[0.85,0.15,0.675,0.325]","","",""
"sailing-trial","435","1618826","0.0-11.0-390.0","","","","false","","","","","","","","","","1414.6000000238419","","177.5999999642372","","0","1","arrowleft","0","arrowleft","[0.85,0.15,0.675,0.325]","","",""
"sailing-trial","436","1622061","0.0-11.0-391.0","","","","false","","","","","","","","","","null","","1319.300000011921","","1","1","null","null","arrowup","[0.85,0.15,0.675,0.325]","","",""
"sailing-trial","437","1625111","0.0-11.0-392.0","","","","false","","","","","","","","","","384.69999998807907","","93.69999998807907","","1","1","arrowleft","0","arrowright","[0.85,0.15,0.675,0.325]","","",""
"sailing-trial","438","1627193","0.0-11.0-393.0","","","","false","","","","","","","","","","null","","309.7999999523163","","1","1","null","null","arrowup","[0.85,0.15,0.675,0.325]","","",""
"sailing-trial","439","1632612","0.0-11.0-394.0","","","","false","","","","","","","","","","353.30000001192093","","2394","","0","1","arrowleft","0","arrowleft","[0.85,0.15,0.675,0.325]","","",""
"sailing-trial","440","1635996","0.0-11.0-395.0","","","","false","","","","","","","","","","null","","1263.9000000357628","","3","1","null","null","arrowup","[0.85,0.15,0.675,0.325]","","",""
"sailing-trial","441","1639317","0.0-11.0-396.0","","","","false","","","","","","","","","","825.8000000119209","","167.69999998807907","","1","0","arrowleft","0","arrowright","[0.85,0.15,0.675,0.325]","","",""
"sailing-trial","442","1640526","0.0-11.0-397.0","","","","false","","","","","","","","","","null","","183.5","","1","0","null","null","arrowup","[0.85,0.15,0.675,0.325]","","",""
"sailing-trial","443","1646825","0.0-11.0-398.0","","","","false","","","","","","","","","","1972.8999999761581","","183.10000002384186","","3","1","arrowright","1","arrowright","[0.85,0.15,0.675,0.325]","","",""
"sailing-trial","444","1648521","0.0-11.0-399.0","","","","false","","","","","","","","","","null","","552.8999999761581","","3","0","null","null","arrowup","[0.85,0.15,0.675,0.325]","","",""
"instructions","445","1651660","0.0-12.0","","","","","","","","","","3137.699999988079","","","","","","","","","","","","","","","","[{""page_index"":0,""viewing_time"":3136.600000023842}]"
"survey-debrief","446","1664108","0.0-13.0","","","","","","","","","","12444","","","","","","","","","","","","","","{""difficulty"":""5"",""fun"":""2"",""clarity"":""5"",""strategy"":"""",""feedback"":""""}","",""
