"trial_type","trial_index","time_elapsed","internal_node_id","value","metadata","success","timeout","failed_images","failed_audio","failed_video","browser_interaction","low_quality","rt","stimulus","response","button_pressed","island_rt","island_response","boat_rt","boat_response","boat","reward","island_key","island","boat_key","reward_probabilities","responses","num_errors","view_history"
"pavlovia","0","7","0.0-0.0","","","","","","","","","","","","","","","","","","","","","","","","","",""
"call-function","1","8","0.0-1.0","","{""task_version"":""sailing_part1_v1"",""task_condition"":""good"",""boats"":[""A"",""C"",""B"",""D""],""boats_demo"":[""H"",""G"",""F"",""E""],""islands"":[""B"",""A""],""subject_id"":""14733"",""age"":""16"",""gender"":""Male""}","","","","","","","","","","","","","","","","","","","","","","","",""
"preload","2","1195","0.0-2.0","","","true","false","[]","[]","[]","[{""event"":""fullscreenenter"",""trial"":3,""time"":5757}]","false","","","","","","","","","","","","","","","","",""
"fullscreen","3","6703","0.0-3.0","","","true","","","","","","","","","","","","","","","","","","","","","","",""
"audio-keyboard-response","4","15752","0.0-4.0-0.0","","","","","","","","","","0","audio/beep_loop.wav"," ","","","","","","","","","","","","","",""
"audio-test","5","18182","0.0-4.0-1.0","","","","","","","","","","null","audio/turtle.mp3","","3","","","","","","","","","","","","",""
"audio-test","6","21831","0.0-4.0-2.0","","","","","","","","","","null","audio/shark.mp3","","2","","","","","","","","","","","","",""
"sailing-instructions","7","62614","0.0-5.0-0.0-0.0","","","","","","","","","","","","","","null","null","null","null","null","null","","","","","","",""
"sailing-trial","8","70962","0.0-5.0-0.0-1.0-0.0","","","","false","","","","","","","","","","7165","","null","","null","null","arrowleft","0","null","null","","",""
"sailing-trial","9","74162","0.0-5.0-0.0-1.0-1.0","","","","false","","","","","","","","","","2071","","null","","null","null","arrowright","1","null","null","","",""
"sailing-trial","10","77995","0.0-5.0-0.0-1.0-2.0","","","","false","","","","","","","","","","2698","","null","","null","null","arrowright","1","null","null","","",""
"sailing-instructions","11","130565","0.0-5.0-0.0-2.0","","","","","","","","","","","","","","null","null","null","null","0","null","","","","","","",""
"sailing-trial","12","139280","0.0-5.0-0.0-3.0-0.0","","","","false","","","","","","","","","","null","","3387","","2","1","null","null","arrowleft","[1,1,1,1]","","",""
"sailing-trial","13","146098","0.0-5.0-0.0-3.0-1.0","","","","false","","","","","","","","","","null","","1668.999999999971","","3","1","null","null","arrowright","[1,1,1,1]","","",""
"sailing-trial","14","152382","0.0-5.0-0.0-3.0-2.0","","","","false","","","","","","","","","","null","","2717","","3","0","null","null","arrowright","[0,0,0,0]","","",""
"sailing-instructions","15","160562","0.0-5.0-0.0-4.0","","","","","","","","","","","","","","null","null","null","null","null","null","","","","","","",""
"sailing-comprehension","16","192453","0.0-5.0-0.0-5.0","","","","","","","","","","27205","","","","","","","","","","","","","","[""true"",""true"",""false"",""true""]","0",""
"sailing-instructions","17","269174","0.0-6.0-0.0-0.0","","","","","","","","","","","","","","null","null","null","null","null","null","","","","","","",""
"sailing-comprehension","18","289003","0.0-6.0-0.0-1.0","","","","","","","","","","18128","","","","","","","","","","","","","","[""true"",""false"",""true""]","0",""
"sailing-instructions","19","305735","0.0-7.0-0.0-0.0","","","","","","","","","","","","","","null","null","null","null","null","null","","","","","","",""
"sailing-trial","20","313585","0.0-7.0-0.0-1.0-0.0","","","","false","","","","","","","","","","null","","4816","","0","0","null","null","arrowup","[0.2,0.8,0.2,0.8]","","",""
"sailing-trial","21","319215","0.0-7.0-0.0-1.0-1.0","","","","false","","","","","","","","","","null","","2706","","1","0","null","null","arrowup","[0.2,0.8,0.2,0.8]","","",""
"sailing-trial","22","324701","0.0-7.0-0.0-1.0-2.0","","","","false","","","","","","","","","","null","","2820","","2","1","null","null","arrowup","[0.2,0.8,0.2,0.8]","","",""
"sailing-trial","23","328984","0.0-7.0-0.0-1.0-3.0","","","","false","","","","","","","","","","null","","1691","","3","1","null","null","arrowup","[0.2,0.8,0.2,0.8]","","",""
"sailing-comprehension","24","342333","0.0-7.0-0.0-2.0","","","","","","","","","","6952","","","","","","","","","","","","","","[""true""]","1",""
"sailing-instructions","25","356886","0.0-7.0-0.1-0.1","","","","","","","","","","","","","","null","null","null","null","null","null","","","","","","",""
"sailing-trial","26","361185","0.0-7.0-0.1-1.1-0.1","","","","false","","","","","","","","","","null","","1952","","0","1","null","null","arrowup","[0.2,0.8,0.2,0.8]","","",""
"sailing-trial","27","364869","0.0-7.0-0.1-1.1-1.1","","","","false","","","","","","","","","","null","","1270","","1","1","null","null","arrowup","[0.2,0.8,0.2,0.8]","","",""
"sailing-trial","28","368055","0.0-7.0-0.1-1.1-2.1","","","","false","","","","","","","","","","null","","1012","","2","0","null","null","arrowup","[0.2,0.8,0.2,0.8]","","",""
"sailing-trial","29","371369","0.0-7.0-0.1-1.1-3.1","","","","false","","","","","","","","","","null","","1088","","3","1","null","null","arrowup","[0.2,0.8,0.2,0.8]","","",""
"sailing-comprehension","30","376554","0.0-7.0-0.1-2.1","","","","","","","","","","4086","","","","","","","","","","","","","","[""false""]","0",""
"sailing-instructions","31","387389","0.0-8.0-0.0-0.0","","","","","","","","","","","","","","null","null","null","null","null","null","","","","","","",""
"sailing-comprehension","32","392769","0.0-8.0-0.0-1.0","","","","","","","","","","4131","","","","","","","","","","","","","","[""true""]","0",""
"sailing-instructions","33","416571","0.0-9.0-0.0-0.0","","","","","","","","","","","","","","null","null","null","null","null","null","","","","","","",""
"sailing-trial","34","424137","0.0-9.0-0.0-1.0-0.0","","","","false","","","","","","","","","","1348","","2466.000000000058","","3","1","arrowright","1","arrowright","[0.2,0.8,0.2,0.8]","","",""
"sailing-trial","35","430021","0.0-9.0-0.0-1.0-1.0","","","","false","","","","","","","","","","1531","","781","","1","1","arrowleft","0","arrowright","[0.2,0.8,0.2,0.8]","","",""
"sailing-trial","36","433710","0.0-9.0-0.0-1.0-2.0","","","","false","","","","","","","","","","null","","1547","","0","0","null","null","arrowup","[0.2,0.8,0.2,0.8]","","",""
"sailing-trial","37","439531","0.0-9.0-0.0-1.0-3.0","","","","false","","","","","","","","","","1232","","838","","2","0","arrowright","1","arrowleft","[0.2,0.8,0.2,0.8]","","",""
"sailing-trial","38","443471","0.0-9.0-0.0-1.0-4.0","","","","false","","","","","","","","","","null","","1590","","3","1","null","null","arrowup","[0.2,0.8,0.2,0.8]","","",""
"sailing-trial","39","448987","0.0-9.0-0.0-1.0-5.0","","","","false","","","","","","","","","","1147","","735","","1","1","arrowleft","0","arrowright","[0.2,0.8,0.2,0.8]","","",""
"sailing-instructions","40","477191","0.0-10.0","","","","","","","","","","","","","","null","null","null","null","null","null","","","","","","",""
"sailing-trial","41","483989","0.0-11.0-0.0","","","","false","","","","","","","","","","1893","","489","","1","0","arrowleft","0","arrowright","[0.85,0.15,0.325,0.675]","","",""
"sailing-trial","42","488539","0.0-11.0-1.0","","","","false","","","","","","","","","","null","","1508","","1","0","null","null","arrowup","[0.85,0.15,0.325,0.675]","","",""
"sailing-trial","43","495240","0.0-11.0-2.0","","","","false","","","","","","","","","","1655","","656","","2","0","arrowright","1","arrowleft","[0.85,0.15,0.325,0.675]","","",""
"sailing-trial","44","498738","0.0-11.0-3.0","","","","false","","","","","","","","","","null","","1312","","0","1","null","null","arrowup","[0.85,0.15,0.325,0.675]","","",""
"sailing-trial","45","503738","0.0-11.0-4.0","","","","false","","","","","","","","","","1089","","462.9999999999418","","3","1","arrowright","1","arrowright","[0.85,0.15,0.325,0.675]","","",""
"sailing-trial","46","507821","0.0-11.0-5.0","","","","false","","","","","","","","","","null","","1501.0000000000582","","0","1","null","null","arrowup","[0.85,0.15,0.325,0.675]","","",""
"sailing-trial","47","513406","0.0-11.0-6.0","","","","false","","","","","","","","","","1316.0000000000582","","787","","0","1","arrowleft","0","arrowleft","[0.85,0.15,0.325,0.675]","","",""
"sailing-trial","48","517223","0.0-11.0-7.0","","","","false","","","","","","","","","","null","","1701","","3","1","null","null","arrowup","[0.85,0.15,0.325,0.675]","","",""
"sailing-trial","49","522456","0.0-11.0-8.0","","","","false","","","","","","","","","","1416.0000000000582","","324.9999999999418","","3","1","arrowright","1","arrowright","[0.85,0.15,0.325,0.675]","","",""
"sailing-trial","50","526806","0.0-11.0-9.0","","","","false","","","","","","","","","","null","","1324","","1","0","null","null","arrowup","[0.85,0.15,0.325,0.675]","","",""
"sailing-trial","51","532690","0.0-11.0-10.0","","","","false","","","","","","","","","","1067","","407","","3","0","arrowright","1","arrowright","[0.85,0.15,0.325,0.675]","","",""
"sailing-trial","52","536406","0.0-11.0-11.0","","","","false","","","","","","","","","","null","","1479.9999999998836","","0","1","null","null","arrowup","[0.85,0.15,0.325,0.675]","","",""
"sailing-trial","53","541105","0.0-11.0-12.0","","","","false","","","","","","","","","","961","","295","","0","1","arrowleft","0","arrowleft","[0.85,0.15,0.325,0.675]","","",""
"sailing-trial","54","546158","0.0-11.0-13.0","","","","false","","","","","","","","","","null","","2016","","3","0","null","null","arrowup","[0.85,0.15,0.325,0.675]","","",""
"sailing-trial","55","550774","0.0-11.0-14.0","","","","false","","","","","","","","","","1053","","139","","3","1","arrowright","1","arrowright","[0.85,0.15,0.325,0.675]","","",""
"sailing-trial","56","554457","0.0-11.0-15.0","","","","false","","","","","","","","","","null","","1301","","2","1","null","null","arrowup","[0.85,0.15,0.325,0.675]","","",""
"sailing-trial","57","559606","0.0-11.0-16.0","","","","false","","","","","","","","","","1075","","477","","0","1","arrowleft","0","arrowleft","[0.85,0.15,0.325,0.675]","","",""
"sailing-trial","58","563040","0.0-11.0-17.0","","","","false","","","","","","","","","","null","","1173","","0","1","null","null","arrowup","[0.85,0.15,0.325,0.675]","","",""
"sailing-trial","59","567873","0.0-11.0-18.0","","","","false","","","","","","","","","","1209","","98.00000000011642","","3","1","arrowright","1","arrowright","[0.85,0.15,0.325,0.675]","","",""
"sailing-trial","60","571925","0.0-11.0-19.0","","","","false","","","","","","","","","","null","","1015","","2","0","null","null","arrowup","[0.85,0.15,0.325,0.675]","","",""
"sailing-trial","61","576706","0.0-11.0-20.0","","","","false","","","","","","","","","","1156","","200","","3","1","arrowright","1","arrowright","[0.85,0.15,0.325,0.675]","","",""
"sailing-trial","62","580891","0.0-11.0-21.0","","","","false","","","","","","","","","","null","","1150","","1","0","null","null","arrowup","[0.85,0.15,0.325,0.675]","","",""
"sailing-trial","63","586591","0.0-11.0-22.0","","","","false","","","","","","","","","","829","","457","","0","0","arrowleft","0","arrowleft","[0.15,0.85,0.675,0.325]","","",""
"sailing-trial","64","590591","0.0-11.0-23.0","","","","false","","","","","","","","","","null","","959","","2","0","null","null","arrowup","[0.15,0.85,0.675,0.325]","","",""
"sailing-trial","65","596758","0.0-11.0-24.0","","","","false","","","","","","","","","","1312","","444","","0","0","arrowleft","0","arrowleft","[0.15,0.85,0.675,0.325]","","",""
"sailing-trial","66","600024","0.0-11.0-25.0","","","","false","","","","","","","","","","null","","1246","","3","1","null","null","arrowup","[0.15,0.85,0.675,0.325]","","",""
"sailing-trial","67","605725","0.0-11.0-26.0","","","","false","","","","","","","","","","1158","","136","","3","0","arrowright","1","arrowright","[0.15,0.85,0.675,0.325]","","",""
"sailing-trial","68","609843","0.0-11.0-27.0","","","","false","","","","","","","","","","null","","1081","","3","0","null","null","arrowup","[0.15,0.85,0.675,0.325]","","",""
"sailing-trial","69","614775","0.0-11.0-28.0","","","","false","","","","","","","","","","1050.9999999998836","","178.99999999988358","","3","1","arrowright","1","arrowright","[0.15,0.85,0.675,0.325]","","",""
"sailing-trial","70","617958","0.0-11.0-29.0","","","","false","","","","","","","","","","null","","991.0000000001164","","3","1","null","null","arrowup","[0.15,0.85,0.675,0.325]","","",""
"sailing-trial","71","623605","0.0-11.0-30.0","","","","false","","","","","","","","","","1084","","279","","0","0","arrowleft","0","arrowleft","[0.15,0.85,0.675,0.325]","","",""
"sailing-trial","72","627593","0.0-11.0-31.0","","","","false","","","","","","","","","","null","","948","","3","0","null","null","arrowup","[0.15,0.85,0.675,0.325]","","",""
"sailing-trial","73","632491","0.0-11.0-32.0","","","","false","","","","","","","","","","1153.0000000001164","","241","","1","1","arrowleft","0","arrowright","[0.15,0.85,0.675,0.325]","","",""
"sailing-trial","74","636791","0.0-11.0-33.0","","","","false","","","","","","","","","","null","","2094","","1","1","null","null","arrowup","[0.15,0.85,0.675,0.325]","","",""
"sailing-trial","75","641957","0.0-11.0-34.0","","","","false","","","","","","","","","","1210","","432.0000000001164","","3","1","arrowright","1","arrowright","[0.15,0.85,0.675,0.325]","","",""
"sailing-trial","76","646159","0.0-11.0-35.0","","","","false","","","","","","","","","","null","","1169","","0","0","null","null","arrowup","[0.15,0.85,0.675,0.325]","","",""
"sailing-trial","77","650842","0.0-11.0-36.0","","","","false","","","","","","","","","","872","","369","","3","1","arrowright","1","arrowright","[0.15,0.85,0.675,0.325]","","",""
"sailing-trial","78","654926","0.0-11.0-37.0","","","","false","","","","","","","","","","null","","1042","","1","0","null","null","arrowup","[0.15,0.85,0.675,0.325]","","",""
"sailing-trial","79","659759","0.0-11.0-38.0","","","","false","","","","","","","","","","958","","280.9999999998836","","1","1","arrowleft","0","arrowright","[0.325,0.675,0.85,0.15]","","",""
"sailing-trial","80","663042","0.0-11.0-39.0","","","","false","","","","","","","","","","null","","1010","","2","1","null","null","arrowup","[0.325,0.675,0.85,0.15]","","",""
"sailing-trial","81","668909","0.0-11.0-40.0","","","","false","","","","","","","","","","1242","","218","","3","0","arrowright","1","arrowright","[0.325,0.675,0.85,0.15]","","",""
"sailing-trial","82","673177","0.0-11.0-41.0","","","","false","","","","","","","","","","null","","1234","","0","0","null","null","arrowup","[0.325,0.675,0.85,0.15]","","",""
"sailing-trial","83","677035","0.0-11.0-42.0","","","","false","","","","","","","","","","868.0000000001164","","54","","3","0","arrowright","1","arrowright","[0.325,0.675,0.85,0.15]","","",""
"sailing-trial","84","680225","0.0-11.0-43.0","","","","false","","","","","","","","","","null","","921","","2","1","null","null","arrowup","[0.325,0.675,0.85,0.15]","","",""
"sailing-trial","85","685777","0.0-11.0-44.0","","","","false","","","","","","","","","","819","","318","","1","0","arrowleft","0","arrowright","[0.325,0.675,0.85,0.15]","","",""
"sailing-trial","86","689793","0.0-11.0-45.0","","","","false","","","","","","","","","","null","","985","","3","0","null","null","arrowup","[0.325,0.675,0.85,0.15]","","",""
"sailing-trial","87","695193","0.0-11.0-46.0","","","","false","","","","","","","","","","954","","43","","0","0","arrowleft","0","arrowleft","[0.325,0.675,0.85,0.15]","","",""
"sailing-trial","88","698493","0.0-11.0-47.0","","","","false","","","","","","","","","","null","","900","","2","1","null","null","arrowup","[0.325,0.675,0.85,0.15]","","",""
"sailing-trial","89","704377","0.0-11.0-48.0","","","","false","","","","","","","","","","1053.9999999998836","","409","","0","0","arrowleft","0","arrowleft","[0.325,0.675,0.85,0.15]","","",""
"sailing-trial","90","708461","0.0-11.0-49.0","","","","false","","","","","","","","","","null","","1045","","3","0","null","null","arrowup","[0.325,0.675,0.85,0.15]","","",""
"sailing-trial","91","714360","0.0-11.0-50.0","","","","false","","","","","","","","","","540","","958","","3","0","arrowright","1","arrowright","[0.325,0.675,0.85,0.15]","","",""
"sailing-trial","92","717676","0.0-11.0-51.0","","","","false","","","","","","","","","","null","","1050","","1","1","null","null","arrowup","[0.325,0.675,0.85,0.15]","","",""
"sailing-trial","93","724010","0.0-11.0-52.0","","","","false","","","","","","","","","","2317.9999999998836","","380","","2","1","arrowright","1","arrowleft","[0.325,0.675,0.85,0.15]","","",""
"sailing-trial","94","728427","0.0-11.0-53.0","","","","false","","","","","","","","","","null","","1380","","1","0","null","null","arrowup","[0.325,0.675,0.85,0.15]","","",""
"sailing-trial","95","734360","0.0-11.0-54.0","","","","false","","","","","","","","","","768.0000000001164","","747","","0","0","arrowleft","0","arrowleft","[0.325,0.675,0.85,0.15]","","",""
"sailing-trial","96","738476","0.0-11.0-55.0","","","","false","","","","","","","","","","null","","1089","","3","0","null","null","arrowup","[0.325,0.675,0.85,0.15]","","",""
"sailing-trial","97","745210","0.0-11.0-56.0","","","","false","","","","","","","","","","988","","1338.0000000001164","","2","0","arrowright","1","arrowleft","[0.325,0.675,0.85,0.15]","","",""
"sailing-trial","98","748727","0.0-11.0-57.0","","","","false","","","","","","","","","","null","","1068","","1","1","null","null","arrowup","[0.325,0.675,0.85,0.15]","","",""
"sailing-trial","99","754545","0.0-11.0-58.0","","","","false","","","","","","","","","","1545","","722","","3","1","arrowright","1","arrowright","[0.15,0.85,0.675,0.325]","","",""
"sailing-trial","100","757961","0.0-11.0-59.0","","","","false","","","","","","","","","","null","","1222","","2","1","null","null","arrowup","[0.15,0.85,0.675,0.325]","","",""
"sailing-trial","101","763995","0.0-11.0-60.0","","","","false","","","","","","","","","","1504","","139","","3","0","arrowright","1","arrowright","[0.15,0.85,0.675,0.325]","","",""
"sailing-trial","102","767261","0.0-11.0-61.0","","","","false","","","","","","","","","","null","","1053","","1","1","null","null","arrowup","[0.15,0.85,0.675,0.325]","","",""
"sailing-trial","103","772728","0.0-11.0-62.0","","","","false","","","","","","","","","","1132","","562.9999999998836","","1","1","arrowleft","0","arrowright","[0.15,0.85,0.675,0.325]","","",""
"sailing-trial","104","776028","0.0-11.0-63.0","","","","false","","","","","","","","","","null","","1037","","2","1","null","null","arrowup","[0.15,0.85,0.675,0.325]","","",""
"sailing-trial","105","780711","0.0-11.0-64.0","","","","false","","","","","","","","","","1058","","93.00000000011642","","1","1","arrowleft","0","arrowright","[0.15,0.85,0.675,0.325]","","",""
"sailing-trial","106","784762","0.0-11.0-65.0","","","","false","","","","","","","","","","null","","1013","","0","0","null","null","arrowup","[0.15,0.85,0.675,0.325]","","",""
"sailing-trial","107","789245","0.0-11.0-66.0","","","","false","","","","","","","","","","642","","423.9999999998836","","1","1","arrowleft","0","arrowright","[0.15,0.85,0.675,0.325]","","",""
"sailing-trial","108","792545","0.0-11.0-67.0","","","","false","","","","","","","","","","null","","1090.9999999998836","","1","1","null","null","arrowup","[0.15,0.85,0.675,0.325]","","",""
"sailing-trial","109","797345","0.0-11.0-68.0","","","","false","","","","","","","","","","946.0000000001164","","276","","3","1","arrowright","1","arrowright","[0.15,0.85,0.675,0.325]","","",""
"sailing-trial","110","800978","0.0-11.0-69.0","","","","false","","","","","","","","","","null","","1324.0000000001164","","2","1","null","null","arrowup","[0.15,0.85,0.675,0.325]","","",""
"sailing-trial","111","806413","0.0-11.0-70.0","","","","false","","","","","","","","","","974.0000000001164","","64","","3","0","arrowright","1","arrowright","[0.15,0.85,0.675,0.325]","","",""
"sailing-trial","112","810614","0.0-11.0-71.0","","","","false","","","","","","","","","","null","","1165","","3","0","null","null","arrowup","[0.15,0.85,0.675,0.325]","","",""
"sailing-trial","113","815462","0.0-11.0-72.0","","","","false","","","","","","","","","","1130","","208","","1","1","arrowleft","0","arrowright","[0.15,0.85,0.675,0.325]","","",""
"sailing-trial","114","819045","0.0-11.0-73.0","","","","false","","","","","","","","","","null","","1306","","1","1","null","null","arrowup","[0.15,0.85,0.675,0.325]","","",""
"sailing-trial","115","823895","0.0-11.0-74.0","","","","false","","","","","","","","","","1095.0000000001164","","233.00000000011642","","3","1","arrowright","1","arrowright","[0.15,0.85,0.675,0.325]","","",""
"sailing-trial","116","828064","0.0-11.0-75.0","","","","false","","","","","","","","","","null","","1136.9999999998836","","2","0","null","null","arrowup","[0.15,0.85,0.675,0.325]","","",""
"sailing-trial","117","832879","0.0-11.0-76.0","","","","false","","","","","","","","","","935","","268","","1","1","arrowleft","0","arrowright","[0.15,0.85,0.675,0.325]","","",""
"sailing-trial","118","837013","0.0-11.0-77.0","","","","false","","","","","","","","","","null","","1096","","0","0","null","null","arrowup","[0.15,0.85,0.675,0.325]","","",""
"sailing-trial","119","841996","0.0-11.0-78.0","","","","false","","","","","","","","","","1201","","317","","1","1","arrowleft","0","arrowright","[0.325,0.675,0.85,0.15]","","",""
"sailing-trial","120","846263","0.0-11.0-79.0","","","","false","","","","","","","","","","null","","1234","","3","0","null","null","arrowup","[0.325,0.675,0.85,0.15]","","",""
"sailing-trial","121","851397","0.0-11.0-80.0","","","","false","","","","","","","","","","1372","","205","","3","1","arrowright","1","arrowright","[0.325,0.675,0.85,0.15]","","",""
"sailing-trial","122","855582","0.0-11.0-81.0","","","","false","","","","","","","","","","null","","1148","","3","0","null","null","arrowup","[0.325,0.675,0.85,0.15]","","",""
"sailing-trial","123","860296","0.0-11.0-82.0","","","","false","","","","","","","","","","1029","","119","","3","1","arrowright","1","arrowright","[0.325,0.675,0.85,0.15]","","",""
"sailing-trial","124","863680","0.0-11.0-83.0","","","","false","","","","","","","","","","null","","1079","","2","1","null","null","arrowup","[0.325,0.675,0.85,0.15]","","",""
"sailing-trial","125","869897","0.0-11.0-84.0","","","","false","","","","","","","","","","2429.9999999998836","","310.9999999998836","","1","1","arrowleft","0","arrowright","[0.325,0.675,0.85,0.15]","","",""
"sailing-trial","126","873579","0.0-11.0-85.0","","","","false","","","","","","","","","","null","","1223","","2","1","null","null","arrowup","[0.325,0.675,0.85,0.15]","","",""
"sailing-trial","127","878281","0.0-11.0-86.0","","","","false","","","","","","","","","","1189.9999999998836","","62","","1","1","arrowleft","0","arrowright","[0.325,0.675,0.85,0.15]","","",""
"sailing-trial","128","882382","0.0-11.0-87.0","","","","false","","","","","","","","","","null","","1072","","0","0","null","null","arrowup","[0.325,0.675,0.85,0.15]","","",""
"sailing-trial","129","888164","0.0-11.0-88.0","","","","false","","","","","","","","","","963","","396.0000000001164","","1","0","arrowleft","0","arrowright","[0.325,0.675,0.85,0.15]","","",""
"sailing-trial","130","891348","0.0-11.0-89.0","","","","false","","","","","","","","","","null","","960","","0","1","null","null","arrowup","[0.325,0.675,0.85,0.15]","","",""
"sailing-trial","131","895681","0.0-11.0-90.0","","","","false","","","","","","","","","","772","","80.99999999988358","","3","1","arrowright","1","arrowright","[0.325,0.675,0.85,0.15]","","",""
"sailing-trial","132","899431","0.0-11.0-91.0","","","","false","","","","","","","","","","null","","1411.0000000001164","","2","1","null","null","arrowup","[0.325,0.675,0.85,0.15]","","",""
"sailing-trial","133","905115","0.0-11.0-92.0","","","","false","","","","","","","","","","896","","388","","3","0","arrowright","1","arrowright","[0.325,0.675,0.85,0.15]","","",""
"sailing-trial","134","908714","0.0-11.0-93.0","","","","false","","","","","","","","","","null","","1434","","1","1","null","null","arrowup","[0.325,0.675,0.85,0.15]","","",""
"sailing-trial","135","913463","0.0-11.0-94.0","","","","false","","","","","","","","","","1096.9999999998836","","158","","3","1","arrowright","1","arrowright","[0.325,0.675,0.85,0.15]","","",""
"sailing-trial","136","917532","0.0-11.0-95.0","","","","false","","","","","","","","","","null","","1042","","0","0","null","null","arrowup","[0.325,0.675,0.85,0.15]","","",""
"sailing-trial","137","922998","0.0-11.0-96.0","","","","false","","","","","","","","","","833","","139.99999999988358","","3","0","arrowright","1","arrowright","[0.325,0.675,0.85,0.15]","","",""
"sailing-trial","138","926180","0.0-11.0-97.0","","","","false","","","","","","","","","","null","","964","","2","1","null","null","arrowup","[0.325,0.675,0.85,0.15]","","",""
"sailing-trial","139","930763","0.0-11.0-98.0","","","","false","","","","","","","","","","950","","117","","1","1","arrowleft","0","arrowright","[0.325,0.675,0.85,0.15]","","",""
"sailing-trial","140","934037","0.0-11.0-99.0","","","","false","","","","","","","","","","null","","1062","","2","1","null","null","arrowup","[0.325,0.675,0.85,0.15]","","",""
"sailing-trial","141","940132","0.0-11.0-100.0","","","","false","","","","","","","","","","1612","","72","","3","0","arrowright","1","arrowright","[0.325,0.675,0.85,0.15]","","",""
"sailing-trial","142","944316","0.0-11.0-101.0","","","","false","","","","","","","","","","null","","1148","","1","0","null","null","arrowup","[0.325,0.675,0.85,0.15]","","",""
"sailing-trial","143","949784","0.0-11.0-102.0","","","","false","","","","","","","","","","977","","71","","1","0","arrowleft","0","arrowright","[0.85,0.15,0.325,0.675]","","",""
"sailing-trial","144","953848","0.0-11.0-103.0","","","","false","","","","","","","","","","null","","1033.9999999998836","","1","0","null","null","arrowup","[0.85,0.15,0.325,0.675]","","",""
"sailing-trial","145","958132","0.0-11.0-104.0","","","","false","","","","","","","","","","781","","17","","3","1","arrowright","1","arrowright","[0.85,0.15,0.325,0.675]","","",""
"sailing-trial","146","963565","0.0-11.0-105.0","","","","false","","","","","","","","","","null","","2392.0000000001164","","1","0","null","null","arrowup","[0.85,0.15,0.325,0.675]","","",""
"sailing-trial","147","969167","0.0-11.0-106.0","","","","false","","","","","","","","","","886","","308","","3","0","arrowright","1","arrowright","[0.85,0.15,0.325,0.675]","","",""
"sailing-trial","148","972433","0.0-11.0-107.0","","","","false","","","","","","","","","","null","","999","","0","1","null","null","arrowup","[0.85,0.15,0.325,0.675]","","",""
"sailing-trial","149","977199","0.0-11.0-108.0","","","","false","","","","","","","","","","1103","","171.00000000011642","","0","1","arrowleft","0","arrowleft","[0.85,0.15,0.325,0.675]","","",""
"sailing-trial","150","981451","0.0-11.0-109.0","","","","false","","","","","","","","","","null","","1221","","1","0","null","null","arrowup","[0.85,0.15,0.325,0.675]","","",""
"sailing-trial","151","987683","0.0-11.0-110.0","","","","false","","","","","","","","","","1205","","589","","2","0","arrowright","1","arrowleft","[0.85,0.15,0.325,0.675]","","",""
"sailing-trial","152","991884","0.0-11.0-111.0","","","","false","","","","","","","","","","null","","1157","","2","0","null","null","arrowup","[0.85,0.15,0.325,0.675]","","",""
"sailing-trial","153","998768","0.0-11.0-112.0","","","","false","","","","","","","","","","1245","","1208.0000000001164","","3","0","arrowright","1","arrowright","[0.85,0.15,0.325,0.675]","","",""
"sailing-trial","154","1002984","0.0-11.0-113.0","","","","false","","","","","","","","","","null","","1175","","2","0","null","null","arrowup","[0.85,0.15,0.325,0.675]","","",""
"sailing-trial","155","1009050","0.0-11.0-114.0","","","","false","","","","","","","","","","830.0000000001164","","820","","1","0","arrowleft","0","arrowright","[0.85,0.15,0.325,0.675]","","",""
"sailing-trial","156","1013284","0.0-11.0-115.0","","","","false","","","","","","","","","","null","","1200.9999999998836","","1","0","null","null","arrowup","[0.85,0.15,0.325,0.675]","","",""
"sailing-trial","157","1018984","0.0-11.0-116.0","","","","false","","","","","","","","","","879","","1115.0000000001164","","1","1","arrowleft","0","arrowright","[0.85,0.15,0.325,0.675]","","",""
"sailing-trial","158","1022417","0.0-11.0-117.0","","","","false","","","","","","","","","","null","","1141","","2","1","null","null","arrowup","[0.85,0.15,0.325,0.675]","","",""
"sailing-trial","159","1027834","0.0-11.0-118.0","","","","false","","","","","","","","","","1443","","432","","1","1","arrowleft","0","arrowright","[0.675,0.325,0.15,0.85]","","",""
"sailing-trial","160","1031334","0.0-11.0-119.0","","","","false","","","","","","","","","","null","","1207.0000000001164","","0","1","null","null","arrowup","[0.675,0.325,0.15,0.85]","","",""
"sailing-trial","161","1037268","0.0-11.0-120.0","","","","false","","","","","","","","","","1058","","454.9999999998836","","1","0","arrowleft","0","arrowright","[0.675,0.325,0.15,0.85]","","",""
"sailing-trial","162","1040585","0.0-11.0-121.0","","","","false","","","","","","","","","","null","","1052.9999999998836","","0","1","null","null","arrowup","[0.675,0.325,0.15,0.85]","","",""
"sailing-trial","163","1046403","0.0-11.0-122.0","","","","false","","","","","","","","","","1045.0000000001164","","350","","1","0","arrowleft","0","arrowright","[0.675,0.325,0.15,0.85]","","",""
"sailing-trial","164","1051019","0.0-11.0-123.0","","","","false","","","","","","","","","","null","","1581.0000000001164","","1","0","null","null","arrowup","[0.675,0.325,0.15,0.85]","","",""
"sailing-trial","165","1055484","0.0-11.0-124.0","","","","false","","","","","","","","","","595","","263","","3","1","arrowright","1","arrowright","[0.675,0.325,0.15,0.85]","","",""
"sailing-trial","166","1059017","0.0-11.0-125.0","","","","false","","","","","","","","","","null","","1259","","3","1","null","null","arrowup","[0.675,0.325,0.15,0.85]","","",""
"sailing-trial","167","1063368","0.0-11.0-126.0","","","","false","","","","","","","","","","738","","106","","3","1","arrowright","1","arrowright","[0.675,0.325,0.15,0.85]","","",""
"sailing-trial","168","1066835","0.0-11.0-127.0","","","","false","","","","","","","","","","null","","1195","","3","1","null","null","arrowup","[0.675,0.325,0.15,0.85]","","",""
"sailing-trial","169","1071102","0.0-11.0-128.0","","","","false","","","","","","","","","","682","","41","","3","1","arrowright","1","arrowright","[0.675,0.325,0.15,0.85]","","",""
"sailing-trial","170","1075052","0.0-11.0-129.0","","","","false","","","","","","","","","","null","","912","","1","0","null","null","arrowup","[0.675,0.325,0.15,0.85]","","",""
"sailing-trial","171","1079186","0.0-11.0-130.0","","","","false","","","","","","","","","","627","","4.000000000232831","","3","1","arrowright","1","arrowright","[0.675,0.325,0.15,0.85]","","",""
"sailing-trial","172","1082702","0.0-11.0-131.0","","","","false","","","","","","","","","","null","","1194","","3","1","null","null","arrowup","[0.675,0.325,0.15,0.85]","","",""
"sailing-trial","173","1087201","0.0-11.0-132.0","","","","false","","","","","","","","","","720","","307","","3","1","arrowright","1","arrowright","[0.675,0.325,0.15,0.85]","","",""
"sailing-trial","174","1091237","0.0-11.0-133.0","","","","false","","","","","","","","","","null","","1000","","1","0","null","null","arrowup","[0.675,0.325,0.15,0.85]","","",""
"sailing-trial","175","1097737","0.0-11.0-134.0","","","","false","","","","","","","","","","715","","1365","","3","0","arrowright","1","arrowright","[0.85,0.15,0.325,0.675]","","",""
"sailing-trial","176","1101786","0.0-11.0-135.0","","","","false","","","","","","","","","","null","","1008","","3","0","null","null","arrowup","[0.85,0.15,0.325,0.675]","","",""
"sailing-trial","177","1106070","0.0-11.0-136.0","","","","false","","","","","","","","","","565","","198","","3","1","arrowright","1","arrowright","[0.85,0.15,0.325,0.675]","","",""
"sailing-trial","178","1109902","0.0-11.0-137.0","","","","false","","","","","","","","","","null","","1610.9999999997672","","1","1","null","null","arrowup","[0.85,0.15,0.325,0.675]","","",""
"sailing-trial","179","1114803","0.0-11.0-138.0","","","","false","","","","","","","","","","1159","","266","","1","1","arrowleft","0","arrowright","[0.85,0.15,0.325,0.675]","","",""
"sailing-trial","180","1118887","0.0-11.0-139.0","","","","false","","","","","","","","","","null","","1048","","3","0","null","null","arrowup","[0.85,0.15,0.325,0.675]","","",""
"sailing-trial","181","1124554","0.0-11.0-140.0","","","","false","","","","","","","","","","848","","1110","","1","1","arrowleft","0","arrowright","[0.85,0.15,0.325,0.675]","","",""
"sailing-trial","182","1127588","0.0-11.0-141.0","","","","false","","","","","","","","","","null","","809","","3","1","null","null","arrowup","[0.85,0.15,0.325,0.675]","","",""
"sailing-trial","183","1134705","0.0-11.0-142.0","","","","false","","","","","","","","","","1285","","1422","","1","0","arrowleft","0","arrowright","[0.85,0.15,0.325,0.675]","","",""
"sailing-trial","184","1138738","0.0-11.0-143.0","","","","false","","","","","","","","","","null","","1002.9999999997672","","1","0","null","null","arrowup","[0.85,0.15,0.325,0.675]","","",""
"sailing-trial","185","1143836","0.0-11.0-144.0","","","","false","","","","","","","","","","901","","480","","3","1","arrowright","1","arrowright","[0.85,0.15,0.325,0.675]","","",""
"sailing-trial","186","1147188","0.0-11.0-145.0","","","","false","","","","","","","","","","null","","1063","","3","1","null","null","arrowup","[0.85,0.15,0.325,0.675]","","",""
"sailing-trial","187","1152706","0.0-11.0-146.0","","","","false","","","","","","","","","","919","","182","","3","0","arrowright","1","arrowright","[0.85,0.15,0.325,0.675]","","",""
"sailing-trial","188","1156772","0.0-11.0-147.0","","","","false","","","","","","","","","","null","","1027.9999999997672","","2","0","null","null","arrowup","[0.85,0.15,0.325,0.675]","","",""
"sailing-trial","189","1161488","0.0-11.0-148.0","","","","false","","","","","","","","","","791","","342.00000000023283","","3","1","arrowright","1","arrowright","[0.85,0.15,0.325,0.675]","","",""
"sailing-trial","190","1164956","0.0-11.0-149.0","","","","false","","","","","","","","","","null","","1266","","3","1","null","null","arrowup","[0.85,0.15,0.325,0.675]","","",""
"sailing-trial","191","1170473","0.0-11.0-150.0","","","","false","","","","","","","","","","809","","287","","3","0","arrowright","1","arrowright","[0.325,0.675,0.85,0.15]","","",""
"sailing-trial","192","1173805","0.0-11.0-151.0","","","","false","","","","","","","","","","null","","1077","","2","1","null","null","arrowup","[0.325,0.675,0.85,0.15]","","",""
"sailing-trial","193","1179005","0.0-11.0-152.0","","","","false","","","","","","","","","","755","","45","","3","0","arrowright","1","arrowright","[0.325,0.675,0.85,0.15]","","",""
"sailing-trial","194","1183356","0.0-11.0-153.0","","","","false","","","","","","","","","","null","","1319","","3","0","null","null","arrowup","[0.325,0.675,0.85,0.15]","","",""
"sailing-trial","195","1189990","0.0-11.0-154.0","","","","false","","","","","","","","","","761","","1457","","1","0","arrowleft","0","arrowright","[0.325,0.675,0.85,0.15]","","",""
"sailing-trial","196","1193189","0.0-11.0-155.0","","","","false","","","","","","","","","","null","","859","","0","1","null","null","arrowup","[0.325,0.675,0.85,0.15]","","",""
"sailing-trial","197","1198373","0.0-11.0-156.0","","","","false","","","","","","","","","","763","","7","","0","0","arrowleft","0","arrowleft","[0.325,0.675,0.85,0.15]","","",""
"sailing-trial","198","1202557","0.0-11.0-157.0","","","","false","","","","","","","","","","null","","1155","","3","0","null","null","arrowup","[0.325,0.675,0.85,0.15]","","",""
"sailing-trial","199","1209273","0.0-11.0-158.0","","","","false","","","","","","","","","","1139","","1161","","1","0","arrowleft","0","arrowright","[0.325,0.675,0.85,0.15]","","",""
"sailing-trial","200","1213391","0.0-11.0-159.0","","","","false","","","","","","","","","","null","","1080","","1","0","null","null","arrowup","[0.325,0.675,0.85,0.15]","","",""
"sailing-trial","201","1218856","0.0-11.0-160.0","","","","false","","","","","","","","","","688","","379","","3","0","arrowright","1","arrowright","[0.325,0.675,0.85,0.15]","","",""
"sailing-trial","202","1222875","0.0-11.0-161.0","","","","false","","","","","","","","","","null","","978","","2","0","null","null","arrowup","[0.325,0.675,0.85,0.15]","","",""
"sailing-trial","203","1228258","0.0-11.0-162.0","","","","false","","","","","","","","","","851.0000000002328","","129.99999999976717","","3","0","arrowright","1","arrowright","[0.325,0.675,0.85,0.15]","","",""
"sailing-trial","204","1231491","0.0-11.0-163.0","","","","false","","","","","","","","","","null","","884","","1","1","null","null","arrowup","[0.325,0.675,0.85,0.15]","","",""
"sailing-trial","205","1236341","0.0-11.0-164.0","","","","false","","","","","","","","","","1160.0000000002328","","85.00000000023283","","2","1","arrowright","1","arrowleft","[0.325,0.675,0.85,0.15]","","",""
"sailing-trial","206","1240341","0.0-11.0-165.0","","","","false","","","","","","","","","","null","","965","","0","0","null","null","arrowup","[0.325,0.675,0.85,0.15]","","",""
"sailing-trial","207","1244557","0.0-11.0-166.0","","","","false","","","","","","","","","","631","","53.99999999976717","","2","1","arrowright","1","arrowleft","[0.325,0.675,0.85,0.15]","","",""
"sailing-trial","208","1247757","0.0-11.0-167.0","","","","false","","","","","","","","","","null","","1001","","2","1","null","null","arrowup","[0.325,0.675,0.85,0.15]","","",""
"sailing-trial","209","1253458","0.0-11.0-168.0","","","","false","","","","","","","","","","994.9999999997672","","287","","2","0","arrowright","1","arrowleft","[0.325,0.675,0.85,0.15]","","",""
"sailing-trial","210","1258209","0.0-11.0-169.0","","","","false","","","","","","","","","","null","","1711","","1","0","null","null","arrowup","[0.325,0.675,0.85,0.15]","","",""
"sailing-trial","211","1263492","0.0-11.0-170.0","","","","false","","","","","","","","","","598.9999999997672","","266","","1","0","arrowleft","0","arrowright","[0.85,0.15,0.325,0.675]","","",""
"sailing-trial","212","1267492","0.0-11.0-171.0","","","","false","","","","","","","","","","null","","970","","2","0","null","null","arrowup","[0.85,0.15,0.325,0.675]","","",""
"sailing-trial","213","1272808","0.0-11.0-172.0","","","","false","","","","","","","","","","1216","","444","","1","1","arrowleft","0","arrowright","[0.85,0.15,0.325,0.675]","","",""
"sailing-trial","214","1276409","0.0-11.0-173.0","","","","false","","","","","","","","","","null","","1083.0000000002328","","0","1","null","null","arrowup","[0.85,0.15,0.325,0.675]","","",""
"sailing-trial","215","1282025","0.0-11.0-174.0","","","","false","","","","","","","","","","825","","380","","1","0","arrowleft","0","arrowright","[0.85,0.15,0.325,0.675]","","",""
"sailing-trial","216","1286227","0.0-11.0-175.0","","","","false","","","","","","","","","","null","","1159","","1","0","null","null","arrowup","[0.85,0.15,0.325,0.675]","","",""
"sailing-trial","217","1291643","0.0-11.0-176.0","","","","false","","","","","","","","","","727","","279","","3","0","arrowright","1","arrowright","[0.85,0.15,0.325,0.675]","","",""
"sailing-trial","218","1295859","0.0-11.0-177.0","","","","false","","","","","","","","","","null","","1177","","0","0","null","null","arrowup","[0.85,0.15,0.325,0.675]","","",""
"sailing-trial","219","1301409","0.0-11.0-178.0","","","","false","","","","","","","","","","1035","","107","","1","0","arrowleft","0","arrowright","[0.85,0.15,0.325,0.675]","","",""
"sailing-trial","220","1304426","0.0-11.0-179.0","","","","false","","","","","","","","","","null","","709","","0","1","null","null","arrowup","[0.85,0.15,0.325,0.675]","","",""
"sailing-trial","221","1309710","0.0-11.0-180.0","","","","false","","","","","","","","","","632","","1160","","0","1","arrowleft","0","arrowleft","[0.85,0.15,0.325,0.675]","","",""
"sailing-trial","222","1313728","0.0-11.0-181.0","","","","false","","","","","","","","","","null","","983","","2","0","null","null","arrowup","[0.85,0.15,0.325,0.675]","","",""
"sailing-trial","223","1319660","0.0-11.0-182.0","","","","false","","","","","","","","","","674.0000000002328","","1694","","0","1","arrowleft","0","arrowleft","[0.85,0.15,0.325,0.675]","","",""
"sailing-trial","224","1323192","0.0-11.0-183.0","","","","false","","","","","","","","","","null","","1101","","0","1","null","null","arrowup","[0.85,0.15,0.325,0.675]","","",""
"sailing-trial","225","1328010","0.0-11.0-184.0","","","","false","","","","","","","","","","1249.0000000002328","","80","","0","1","arrowleft","0","arrowleft","[0.85,0.15,0.325,0.675]","","",""
"sailing-trial","226","1331127","0.0-11.0-185.0","","","","false","","","","","","","","","","null","","857","","0","1","null","null","arrowup","[0.85,0.15,0.325,0.675]","","",""
"sailing-trial","227","1335810","0.0-11.0-186.0","","","","false","","","","","","","","","","925","","131","","0","1","arrowleft","0","arrowleft","[0.85,0.15,0.325,0.675]","","",""
"sailing-trial","228","1339644","0.0-11.0-187.0","","","","false","","","","","","","","","","null","","796.0000000002328","","1","0","null","null","arrowup","[0.85,0.15,0.325,0.675]","","",""
"sailing-trial","229","1345344","0.0-11.0-188.0","","","","false","","","","","","","","","","712","","1481.9999999997672","","0","1","arrowleft","0","arrowleft","[0.85,0.15,0.325,0.675]","","",""
"sailing-trial","230","1349512","0.0-11.0-189.0","","","","false","","","","","","","","","","null","","1129","","3","0","null","null","arrowup","[0.85,0.15,0.325,0.675]","","",""
"sailing-trial","231","1354328","0.0-11.0-190.0","","","","false","","","","","","","","","","1171.0000000002328","","165","","0","1","arrowleft","0","arrowleft","[0.675,0.325,0.15,0.85]","","",""
"sailing-trial","232","1358295","0.0-11.0-191.0","","","","false","","","","","","","","","","null","","929","","1","0","null","null","arrowup","[0.675,0.325,0.15,0.85]","","",""
"sailing-trial","233","1363311","0.0-11.0-192.0","","","","false","","","","","","","","","","1012.0000000002328","","65","","0","1","arrowleft","0","arrowleft","[0.675,0.325,0.15,0.85]","","",""
"sailing-trial","234","1366544","0.0-11.0-193.0","","","","false","","","","","","","","","","null","","974","","3","1","null","null","arrowup","[0.675,0.325,0.15,0.85]","","",""
"sailing-trial","235","1373012","0.0-11.0-194.0","","","","false","","","","","","","","","","1361","","1600","","0","1","arrowleft","0","arrowleft","[0.675,0.325,0.15,0.85]","","",""
"sailing-trial","236","1376077","0.0-11.0-195.0","","","","false","","","","","","","","","","null","","951","","0","1","null","null","arrowup","[0.675,0.325,0.15,0.85]","","",""
"sailing-trial","237","1382911","0.0-11.0-196.0","","","","false","","","","","","","","","","1024.9999999997672","","2144","","0","1","arrowleft","0","arrowleft","[0.675,0.325,0.15,0.85]","","",""
"sailing-trial","238","1385945","0.0-11.0-197.0","","","","false","","","","","","","","","","null","","887.0000000002328","","0","1","null","null","arrowup","[0.675,0.325,0.15,0.85]","","",""
"sailing-trial","239","1390762","0.0-11.0-198.0","","","","false","","","","","","","","","","1153","","167","","0","1","arrowleft","0","arrowleft","[0.675,0.325,0.15,0.85]","","",""
"sailing-trial","240","1395496","0.0-11.0-199.0","","","","false","","","","","","","","","","null","","1702","","3","0","null","null","arrowup","[0.675,0.325,0.15,0.85]","","",""
"sailing-trial","241","1401629","0.0-11.0-200.0","","","","false","","","","","","","","","","1191","","1472","","0","1","arrowleft","0","arrowleft","[0.675,0.325,0.15,0.85]","","",""
"sailing-trial","242","1406079","0.0-11.0-201.0","","","","false","","","","","","","","","","null","","1419.0000000002328","","2","0","null","null","arrowup","[0.675,0.325,0.15,0.85]","","",""
"sailing-trial","243","1411779","0.0-11.0-202.0","","","","false","","","","","","","","","","859","","1319","","0","1","arrowleft","0","arrowleft","[0.675,0.325,0.15,0.85]","","",""
"sailing-trial","244","1415680","0.0-11.0-203.0","","","","false","","","","","","","","","","null","","870","","2","0","null","null","arrowup","[0.675,0.325,0.15,0.85]","","",""
"sailing-trial","245","1422597","0.0-11.0-204.0","","","","false","","","","","","","","","","1586","","1801","","0","1","arrowleft","0","arrowleft","[0.675,0.325,0.15,0.85]","","",""
"sailing-trial","246","1426614","0.0-11.0-205.0","","","","false","","","","","","","","","","null","","977","","2","0","null","null","arrowup","[0.675,0.325,0.15,0.85]","","",""
"sailing-trial","247","1434496","0.0-11.0-206.0","","","","false","","","","","","","","","","1114","","1720.0000000002328","","0","1","arrowleft","0","arrowleft","[0.675,0.325,0.15,0.85]","","",""
"sailing-trial","248","1437797","0.0-11.0-207.0","","","","false","","","","","","","","","","null","","1004","","3","1","null","null","arrowup","[0.675,0.325,0.15,0.85]","","",""
"sailing-trial","249","1443097","0.0-11.0-208.0","","","","false","","","","","","","","","","1369","","163","","0","1","arrowleft","0","arrowleft","[0.85,0.15,0.325,0.675]","","",""
"sailing-trial","250","1447065","0.0-11.0-209.0","","","","false","","","","","","","","","","null","","929","","1","0","null","null","arrowup","[0.85,0.15,0.325,0.675]","","",""
"sailing-trial","251","1451762","0.0-11.0-210.0","","","","false","","","","","","","","","","759","","422","","3","1","arrowright","1","arrowright","[0.85,0.15,0.325,0.675]","","",""
"sailing-trial","252","1454647","0.0-11.0-211.0","","","","false","","","","","","","","","","null","","757","","2","1","null","null","arrowup","[0.85,0.15,0.325,0.675]","","",""
"sailing-trial","253","1460614","0.0-11.0-212.0","","","","false","","","","","","","","","","935.9999999997672","","1546","","3","1","arrowright","1","arrowright","[0.85,0.15,0.325,0.675]","","",""
"sailing-trial","254","1464914","0.0-11.0-213.0","","","","false","","","","","","","","","","null","","1275","","1","0","null","null","arrowup","[0.85,0.15,0.325,0.675]","","",""
"sailing-trial","255","1470998","0.0-11.0-214.0","","","","false","","","","","","","","","","822","","1820.9999999997672","","3","1","arrowright","1","arrowright","[0.85,0.15,0.325,0.675]","","",""
"sailing-trial","256","1475081","0.0-11.0-215.0","","","","false","","","","","","","","","","null","","1049","","1","0","null","null","arrowup","[0.85,0.15,0.325,0.675]","","",""
"sailing-trial","257","1480716","0.0-11.0-216.0","","","","false","","","","","","","","","","953","","280","","3","0","arrowright","1","arrowright","[0.85,0.15,0.325,0.675]","","",""
"sailing-trial","258","1483882","0.0-11.0-217.0","","","","false","","","","","","","","","","null","","1092.9999999997672","","0","1","null","null","arrowup","[0.85,0.15,0.325,0.675]","","",""
"sailing-trial","259","1489031","0.0-11.0-218.0","","","","false","","","","","","","","","","686","","766","","0","1","arrowleft","0","arrowleft","[0.85,0.15,0.325,0.675]","","",""
"sailing-trial","260","1492032","0.0-11.0-219.0","","","","false","","","","","","","","","","null","","909","","3","1","null","null","arrowup","[0.85,0.15,0.325,0.675]","","",""
"sailing-trial","261","1498865","0.0-11.0-220.0","","","","false","","","","","","","","","","747","","1675","","0","0","arrowleft","0","arrowleft","[0.85,0.15,0.325,0.675]","","",""
"sailing-trial","262","1502349","0.0-11.0-221.0","","","","false","","","","","","","","","","null","","1240","","1","1","null","null","arrowup","[0.85,0.15,0.325,0.675]","","",""
"sailing-trial","263","1508284","0.0-11.0-222.0","","","","false","","","","","","","","","","1148","","371","","0","0","arrowleft","0","arrowleft","[0.85,0.15,0.325,0.675]","","",""
"sailing-trial","264","1512350","0.0-11.0-223.0","","","","false","","","","","","","","","","null","","1029","","0","0","null","null","arrowup","[0.85,0.15,0.325,0.675]","","",""
"sailing-trial","265","1517149","0.0-11.0-224.0","","","","false","","","","","","","","","","1076","","176","","3","1","arrowright","1","arrowright","[0.85,0.15,0.325,0.675]","","",""
"sailing-trial","266","1519557","0.0-11.0-225.0","","","","false","","","","","","","","","","null","","707.9999999997672","","2","0","null","null","arrowup","[0.85,0.15,0.325,0.675]","","",""
"sailing-trial","267","1524547","0.0-11.0-226.0","","","","false","","","","","","","","","","1066","","362.99999999976717","","0","1","arrowleft","0","arrowleft","[0.85,0.15,0.325,0.675]","","",""
"sailing-trial","268","1527185","0.0-11.0-227.0","","","","false","","","","","","","","","","null","","949","","1","0","null","null","arrowup","[0.85,0.15,0.325,0.675]","","",""
"sailing-trial","269","1533084","0.0-11.0-228.0","","","","false","","","","","","","","","","705.0000000002328","","785","","3","0","arrowright","1","arrowright","[0.85,0.15,0.325,0.675]","","",""
"sailing-trial","270","1535958","0.0-11.0-229.0","","","","false","","","","","","","","","","null","","1083","","3","0","null","null","arrowup","[0.85,0.15,0.325,0.675]","","",""
"sailing-trial","271","1542601","0.0-11.0-230.0","","","","false","","","","","","","","","","1818.9999999997672","","388","","3","0","arrowright","1","arrowright","[0.15,0.85,0.675,0.325]","","",""
"sailing-trial","272","1545884","0.0-11.0-231.0","","","","false","","","","","","","","","","null","","992","","1","1","null","null","arrowup","[0.15,0.85,0.675,0.325]","","",""
"sailing-trial","273","1550134","0.0-11.0-232.0","","","","false","","","","","","","","","","669.0000000002328","","140","","2","1","arrowright","1","arrowleft","[0.15,0.85,0.675,0.325]","","",""
"sailing-trial","274","1554017","0.0-11.0-233.0","","","","false","","","","","","","","","","null","","1637","","2","1","null","null","arrowup","[0.15,0.85,0.675,0.325]","","",""
"sailing-trial","275","1560385","0.0-11.0-234.0","","","","false","","","","","","","","","","908","","1670","","2","1","arrowright","1","arrowleft","[0.15,0.85,0.675,0.325]","","",""
"sailing-trial","276","1564303","0.0-11.0-235.0","","","","false","","","","","","","","","","null","","888","","0","0","null","null","arrowup","[0.15,0.85,0.675,0.325]","","",""
"sailing-trial","277","1571102","0.0-11.0-236.0","","","","false","","","","","","","","","","1164.0000000002328","","1219","","2","0","arrowright","1","arrowleft","[0.15,0.85,0.675,0.325]","","",""
"sailing-trial","278","1576234","0.0-11.0-237.0","","","","false","","","","","","","","","","null","","2968","","3","1","null","null","arrowup","[0.15,0.85,0.675,0.325]","","",""
"sailing-trial","279","1582036","0.0-11.0-238.0","","","","false","","","","","","","","","","1251","","136","","0","0","arrowleft","0","arrowleft","[0.15,0.85,0.675,0.325]","","",""
"sailing-trial","280","1585901","0.0-11.0-239.0","","","","false","","","","","","","","","","null","","1552.9999999997672","","2","1","null","null","arrowup","[0.15,0.85,0.675,0.325]","","",""
"sailing-trial","281","1592267","0.0-11.0-240.0","","","","false","","","","","","","","","","888.9999999997672","","1921","","0","1","arrowleft","0","arrowleft","[0.15,0.85,0.675,0.325]","","",""
"sailing-trial","282","1595401","0.0-11.0-241.0","","","","false","","","","","","","","","","null","","931","","1","1","null","null","arrowup","[0.15,0.85,0.675,0.325]","","",""
"sailing-trial","283","1601585","0.0-11.0-242.0","","","","false","","","","","","","","","","835.9999999997672","","939","","0","0","arrowleft","0","arrowleft","[0.15,0.85,0.675,0.325]","","",""
"sailing-trial","284","1604786","0.0-11.0-243.0","","","","false","","","","","","","","","","null","","1093","","3","1","null","null","arrowup","[0.15,0.85,0.675,0.325]","","",""
"sailing-trial","285","1610835","0.0-11.0-244.0","","","","false","","","","","","","","","","980","","1520","","2","1","arrowright","1","arrowleft","[0.15,0.85,0.675,0.325]","","",""
"sailing-trial","286","1614086","0.0-11.0-245.0","","","","false","","","","","","","","","","null","","1002.9999999997672","","1","1","null","null","arrowup","[0.15,0.85,0.675,0.325]","","",""
"sailing-trial","287","1619186","0.0-11.0-246.0","","","","false","","","","","","","","","","1200","","351","","3","1","arrowright","1","arrowright","[0.85,0.15,0.325,0.675]","","",""
"sailing-trial","288","1622301","0.0-11.0-247.0","","","","false","","","","","","","","","","null","","951","","2","1","null","null","arrowup","[0.85,0.15,0.325,0.675]","","",""
"sailing-trial","289","1629252","0.0-11.0-248.0","","","","false","","","","","","","","","","943","","1590","","3","0","arrowright","1","arrowright","[0.85,0.15,0.325,0.675]","","",""
"sailing-trial","290","1633653","0.0-11.0-249.0","","","","false","","","","","","","","","","null","","1368","","1","0","null","null","arrowup","[0.85,0.15,0.325,0.675]","","",""
"sailing-trial","291","1639005","0.0-11.0-250.0","","","","false","","","","","","","","","","867.9999999997672","","94","","2","0","arrowright","1","arrowleft","[0.85,0.15,0.325,0.675]","","",""
"sailing-trial","292","1642937","0.0-11.0-251.0","","","","false","","","","","","","","","","null","","899","","2","0","null","null","arrowup","[0.85,0.15,0.325,0.675]","","",""
"sailing-trial","293","1647520","0.0-11.0-252.0","","","","false","","","","","","","","","","1123","","10","","2","1","arrowright","1","arrowleft","[0.85,0.15,0.325,0.675]","","",""
"sailing-trial","294","1650486","0.0-11.0-253.0","","","","false","","","","","","","","","","null","","862","","3","1","null","null","arrowup","[0.85,0.15,0.325,0.675]","","",""
"sailing-trial","295","1656403","0.0-11.0-254.0","","","","false","","","","","","","","","","948","","1389.9999999997672","","0","1","arrowleft","0","arrowleft","[0.85,0.15,0.325,0.675]","","",""
"sailing-trial","296","1659220","0.0-11.0-255.0","","","","false","","","","","","","","","","null","","700.9999999997672","","3","1","null","null","arrowup","[0.85,0.15,0.325,0.675]","","",""
"sailing-trial","297","1664487","0.0-11.0-256.0","","","","false","","","","","","","","","","789","","37","","0","1","arrowleft","0","arrowleft","[0.85,0.15,0.325,0.675]","","",""
"sailing-trial","298","1669054","0.0-11.0-257.0","","","","false","","","","","","","","","","null","","1538","","2","0","null","null","arrowup","[0.85,0.15,0.325,0.675]","","",""
"sailing-trial","299","1674570","0.0-11.0-258.0","","","","false","","","","","","","","","","590.0000000002328","","1414","","0","1","arrowleft","0","arrowleft","[0.85,0.15,0.325,0.675]","","",""
"sailing-trial","300","1677971","0.0-11.0-259.0","","","","false","","","","","","","","","","null","","1121.0000000002328","","2","1","null","null","arrowup","[0.85,0.15,0.325,0.675]","","",""
"sailing-trial","301","1683922","0.0-11.0-260.0","","","","false","","","","","","","","","","1296.9999999997672","","242","","0","0","arrowleft","0","arrowleft","[0.85,0.15,0.325,0.675]","","",""
"sailing-trial","302","1687571","0.0-11.0-261.0","","","","false","","","","","","","","","","null","","1423.0000000002328","","0","1","null","null","arrowup","[0.85,0.15,0.325,0.675]","","",""
"sailing-trial","303","1692388","0.0-11.0-262.0","","","","false","","","","","","","","","","1121.0000000002328","","202","","2","1","arrowright","1","arrowleft","[0.85,0.15,0.325,0.675]","","",""
"sailing-trial","304","1695338","0.0-11.0-263.0","","","","false","","","","","","","","","","null","","832","","2","1","null","null","arrowup","[0.85,0.15,0.325,0.675]","","",""
"sailing-trial","305","1701155","0.0-11.0-264.0","","","","false","","","","","","","","","","923","","480","","2","0","arrowright","1","arrowleft","[0.675,0.325,0.15,0.85]","","",""
"sailing-trial","306","1704772","0.0-11.0-265.0","","","","false","","","","","","","","","","null","","592","","0","0","null","null","arrowup","[0.675,0.325,0.15,0.85]","","",""
"sailing-trial","307","1711123","0.0-11.0-266.0","","","","false","","","","","","","","","","904","","1038","","3","0","arrowright","1","arrowright","[0.675,0.325,0.15,0.85]","","",""
"sailing-trial","308","1714339","0.0-11.0-267.0","","","","false","","","","","","","","","","null","","1025","","2","1","null","null","arrowup","[0.675,0.325,0.15,0.85]","","",""
"sailing-trial","309","1721122","0.0-11.0-268.0","","","","false","","","","","","","","","","1648.9999999997672","","1647","","0","1","arrowleft","0","arrowleft","[0.675,0.325,0.15,0.85]","","",""
"sailing-trial","310","1724991","0.0-11.0-269.0","","","","false","","","","","","","","","","null","","832","","2","0","null","null","arrowup","[0.675,0.325,0.15,0.85]","","",""
"sailing-trial","311","1730490","0.0-11.0-270.0","","","","false","","","","","","","","","","950.9999999997672","","132.99999999976717","","0","0","arrowleft","0","arrowleft","[0.675,0.325,0.15,0.85]","","",""
"sailing-trial","312","1733689","0.0-11.0-271.0","","","","false","","","","","","","","","","null","","1034.9999999997672","","1","1","null","null","arrowup","[0.675,0.325,0.15,0.85]","","",""
"sailing-trial","313","1739408","0.0-11.0-272.0","","","","false","","","","","","","","","","898","","428","","3","0","arrowright","1","arrowright","[0.675,0.325,0.15,0.85]","","",""
"sailing-trial","314","1742990","0.0-11.0-273.0","","","","false","","","","","","","","","","null","","549","","2","0","null","null","arrowup","[0.675,0.325,0.15,0.85]","","",""
"sailing-trial","315","1749274","0.0-11.0-274.0","","","","false","","","","","","","","","","1037","","833","","2","0","arrowright","1","arrowleft","[0.675,0.325,0.15,0.85]","","",""
"sailing-trial","316","1752772","0.0-11.0-275.0","","","","false","","","","","","","","","","null","","1162","","3","1","null","null","arrowup","[0.675,0.325,0.15,0.85]","","",""
"sailing-trial","317","1758524","0.0-11.0-276.0","","","","false","","","","","","","","","","1617.9999999997672","","585","","3","1","arrowright","1","arrowright","[0.675,0.325,0.15,0.85]","","",""
"sailing-trial","318","1761823","0.0-11.0-277.0","","","","false","","","","","","","","","","null","","935","","1","1","null","null","arrowup","[0.675,0.325,0.15,0.85]","","",""
"sailing-trial","319","1768023","0.0-11.0-278.0","","","","false","","","","","","","","","","1301","","1380.0000000002328","","3","1","arrowright","1","arrowright","[0.675,0.325,0.15,0.85]","","",""
"sailing-trial","320","1771507","0.0-11.0-279.0","","","","false","","","","","","","","","","null","","1282","","1","1","null","null","arrowup","[0.675,0.325,0.15,0.85]","","",""
"sailing-trial","321","1777124","0.0-11.0-280.0","","","","false","","","","","","","","","","1134","","1045","","3","1","arrowright","1","arrowright","[0.675,0.325,0.15,0.85]","","",""
"sailing-trial","322","1780241","0.0-11.0-281.0","","","","false","","","","","","","","","","null","","833","","3","1","null","null","arrowup","[0.675,0.325,0.15,0.85]","","",""
"sailing-trial","323","1786025","0.0-11.0-282.0","","","","false","","","","","","","","","","1380","","5","","3","0","arrowright","1","arrowright","[0.85,0.15,0.325,0.675]","","",""
"sailing-trial","324","1790340","0.0-11.0-283.0","","","","false","","","","","","","","","","null","","1112.0000000002328","","0","1","null","null","arrowup","[0.85,0.15,0.325,0.675]","","",""
"sailing-trial","325","1795274","0.0-11.0-284.0","","","","false","","","","","","","","","","1099.9999999997672","","140","","0","1","arrowleft","0","arrowleft","[0.85,0.15,0.325,0.675]","","",""
"sailing-trial","326","1798307","0.0-11.0-285.0","","","","false","","","","","","","","","","null","","860","","0","1","null","null","arrowup","[0.85,0.15,0.325,0.675]","","",""
"sailing-trial","327","1803259","0.0-11.0-286.0","","","","false","","","","","","","","","","1097","","220","","0","1","arrowleft","0","arrowleft","[0.85,0.15,0.325,0.675]","","",""
"sailing-trial","328","1806292","0.0-11.0-287.0","","","","false","","","","","","","","","","null","","863","","0","1","null","null","arrowup","[0.85,0.15,0.325,0.675]","","",""
"sailing-trial","329","1811208","0.0-11.0-288.0","","","","false","","","","","","","","","","1140.9999999997672","","316.00000000023283","","0","1","arrowleft","0","arrowleft","[0.85,0.15,0.325,0.675]","","",""
"sailing-trial","330","1814208","0.0-11.0-289.0","","","","false","","","","","","","","","","null","","843.0000000002328","","2","1","null","null","arrowup","[0.85,0.15,0.325,0.675]","","",""
"sailing-trial","331","1819325","0.0-11.0-290.0","","","","false","","","","","","","","","","983","","662.9999999997672","","0","1","arrowleft","0","arrowleft","[0.85,0.15,0.325,0.675]","","",""
"sailing-trial","332","1822042","0.0-11.0-291.0","","","","false","","","","","","","","","","null","","579","","0","1","null","null","arrowup","[0.85,0.15,0.325,0.675]","","",""
"sailing-trial","333","1826959","0.0-11.0-292.0","","","","false","","","","","","","","","","1151.9999999997672","","261.99999999976717","","0","1","arrowleft","0","arrowleft","[0.85,0.15,0.325,0.675]","","",""
"sailing-trial","334","1830825","0.0-11.0-293.0","","","","false","","","","","","","","","","null","","837","","0","0","null","null","arrowup","[0.85,0.15,0.325,0.675]","","",""
"sailing-trial","335","1837559","0.0-11.0-294.0","","","","false","","","","","","","","","","836","","1489","","0","0","arrowleft","0","arrowleft","[0.85,0.15,0.325,0.675]","","",""
"sailing-trial","336","1840458","0.0-11.0-295.0","","","","false","","","","","","","","","","null","","661","","3","1","null","null","arrowup","[0.85,0.15,0.325,0.675]","","",""
"sailing-trial","337","1846010","0.0-11.0-296.0","","","","false","","","","","","","","","","1112","","19","","3","0","arrowright","1","arrowright","[0.85,0.15,0.325,0.675]","","",""
"sailing-trial","338","1848876","0.0-11.0-297.0","","","","false","","","","","","","","","","null","","622","","3","1","null","null","arrowup","[0.85,0.15,0.325,0.675]","","",""
"sailing-trial","339","1854844","0.0-11.0-298.0","","","","false","","","","","","","","","","1194","","361","","3","0","arrowright","1","arrowright","[0.85,0.15,0.325,0.675]","","",""
"sailing-trial","340","1857942","0.0-11.0-299.0","","","","false","","","","","","","","","","null","","924","","0","1","null","null","arrowup","[0.85,0.15,0.325,0.675]","","",""
"sailing-trial","341","1863894","0.0-11.0-300.0","","","","false","","","","","","","","","","1227.0000000002328","","299","","1","0","arrowleft","0","arrowright","[0.675,0.325,0.15,0.85]","","",""
"sailing-trial","342","1867444","0.0-11.0-301.0","","","","false","","","","","","","","","","null","","1410","","0","1","null","null","arrowup","[0.675,0.325,0.15,0.85]","","",""
"sailing-trial","343","1872210","0.0-11.0-302.0","","","","false","","","","","","","","","","850.0000000002328","","395","","0","1","arrowleft","0","arrowleft","[0.675,0.325,0.15,0.85]","","",""
"sailing-trial","344","1876262","0.0-11.0-303.0","","","","false","","","","","","","","","","null","","1016.0000000002328","","2","0","null","null","arrowup","[0.675,0.325,0.15,0.85]","","",""
"sailing-trial","345","1881962","0.0-11.0-304.0","","","","false","","","","","","","","","","700","","582","","1","0","arrowleft","0","arrowright","[0.675,0.325,0.15,0.85]","","",""
"sailing-trial","346","1885994","0.0-11.0-305.0","","","","false","","","","","","","","","","null","","993","","2","0","null","null","arrowup","[0.675,0.325,0.15,0.85]","","",""
"sailing-trial","347","1892244","0.0-11.0-306.0","","","","false","","","","","","","","","","613","","1368","","0","1","arrowleft","0","arrowleft","[0.675,0.325,0.15,0.85]","","",""
"sailing-trial","348","1895326","0.0-11.0-307.0","","","","false","","","","","","","","","","null","","910","","0","1","null","null","arrowup","[0.675,0.325,0.15,0.85]","","",""
"sailing-trial","349","1901444","0.0-11.0-308.0","","","","false","","","","","","","","","","780","","1821","","0","1","arrowleft","0","arrowleft","[0.675,0.325,0.15,0.85]","","",""
"sailing-trial","350","1905425","0.0-11.0-309.0","","","","false","","","","","","","","","","null","","942","","2","0","null","null","arrowup","[0.675,0.325,0.15,0.85]","","",""
"sailing-trial","351","1912259","0.0-11.0-310.0","","","","false","","","","","","","","","","912","","1506","","0","0","arrowleft","0","arrowleft","[0.675,0.325,0.15,0.85]","","",""
"sailing-trial","352","1916275","0.0-11.0-311.0","","","","false","","","","","","","","","","null","","980","","0","0","null","null","arrowup","[0.675,0.325,0.15,0.85]","","",""
"sailing-trial","353","1922690","0.0-11.0-312.0","","","","false","","","","","","","","","","824.0000000002328","","413","","3","1","arrowright","1","arrowright","[0.675,0.325,0.15,0.85]","","",""
"sailing-trial","354","1926757","0.0-11.0-313.0","","","","false","","","","","","","","","","null","","1032","","2","0","null","null","arrowup","[0.675,0.325,0.15,0.85]","","",""
"sailing-trial","355","1931507","0.0-11.0-314.0","","","","false","","","","","","","","","","1029","","304.00000000023283","","3","1","arrowright","1","arrowright","[0.675,0.325,0.15,0.85]","","",""
"sailing-trial","356","1934407","0.0-11.0-315.0","","","","false","","","","","","","","","","null","","759","","3","1","null","null","arrowup","[0.675,0.325,0.15,0.85]","","",""
"sailing-trial","357","1939140","0.0-11.0-316.0","","","","false","","","","","","","","","","1099","","118.99999999976717","","3","1","arrowright","1","arrowright","[0.675,0.325,0.15,0.85]","","",""
"sailing-trial","358","1943123","0.0-11.0-317.0","","","","false","","","","","","","","","","null","","947","","0","0","null","null","arrowup","[0.675,0.325,0.15,0.85]","","",""
"sailing-trial","359","1949406","0.0-11.0-318.0","","","","false","","","","","","","","","","2537","","236.00000000023283","","3","1","arrowright","1","arrowright","[0.85,0.15,0.325,0.675]","","",""
"sailing-trial","360","1953389","0.0-11.0-319.0","","","","false","","","","","","","","","","null","","945.9999999997672","","2","0","null","null","arrowup","[0.85,0.15,0.325,0.675]","","",""
"sailing-trial","361","1958239","0.0-11.0-320.0","","","","false","","","","","","","","","","592","","766","","3","1","arrowright","1","arrowright","[0.85,0.15,0.325,0.675]","","",""
"sailing-trial","362","1961789","0.0-11.0-321.0","","","","false","","","","","","","","","","null","","1395.0000000002328","","3","1","null","null","arrowup","[0.85,0.15,0.325,0.675]","","",""
"sailing-trial","363","1967507","0.0-11.0-322.0","","","","false","","","","","","","","","","1221","","88.99999999976717","","3","0","arrowright","1","arrowright","[0.85,0.15,0.325,0.675]","","",""
"sailing-trial","364","1972090","0.0-11.0-323.0","","","","false","","","","","","","","","","null","","2389.000000000233","","0","1","null","null","arrowup","[0.85,0.15,0.325,0.675]","","",""
"sailing-trial","365","1977440","0.0-11.0-324.0","","","","false","","","","","","","","","","1346","","248.99999999976717","","0","1","arrowleft","0","arrowleft","[0.85,0.15,0.325,0.675]","","",""
"sailing-trial","366","1981474","0.0-11.0-325.0","","","","false","","","","","","","","","","null","","993","","0","0","null","null","arrowup","[0.85,0.15,0.325,0.675]","","",""
"sailing-trial","367","1988676","0.0-11.0-326.0","","","","false","","","","","","","","","","1243.9999999997672","","1749","","0","1","arrowleft","0","arrowleft","[0.85,0.15,0.325,0.675]","","",""
"sailing-trial","368","1992875","0.0-11.0-327.0","","","","false","","","","","","","","","","null","","1102","","3","0","null","null","arrowup","[0.85,0.15,0.325,0.675]","","",""
"sailing-trial","369","1997308","0.0-11.0-328.0","","","","false","","","","","","","","","","730","","230","","0","1","arrowleft","0","arrowleft","[0.85,0.15,0.325,0.675]","","",""
"sailing-trial","370","2001058","0.0-11.0-329.0","","","","false","","","","","","","","","","null","","722","","3","0","null","null","arrowup","[0.85,0.15,0.325,0.675]","","",""
"sailing-trial","371","2006291","0.0-11.0-330.0","","","","false","","","","","","","","","","866","","14","","0","1","arrowleft","0","arrowleft","[0.85,0.15,0.325,0.675]","","",""
"sailing-trial","372","2009107","0.0-11.0-331.0","","","","false","","","","","","","","","","null","","660","","0","1","null","null","arrowup","[0.85,0.15,0.325,0.675]","","",""
"sailing-trial","373","2013505","0.0-11.0-332.0","","","","false","","","","","","","","","","1174","","275","","0","0","arrowleft","0","arrowleft","[0.85,0.15,0.325,0.675]","","",""
"sailing-trial","374","2017525","0.0-11.0-333.0","","","","false","","","","","","","","","","null","","990","","1","0","null","null","arrowup","[0.85,0.15,0.325,0.675]","","",""
"sailing-trial","375","2022659","0.0-11.0-334.0","","","","false","","","","","","","","","","1465","","41","","3","1","arrowright","1","arrowright","[0.675,0.325,0.15,0.85]","","",""
"sailing-trial","376","2025758","0.0-11.0-335.0","","","","false","","","","","","","","","","null","","874.0000000002328","","0","1","null","null","arrowup","[0.675,0.325,0.15,0.85]","","",""
"sailing-trial","377","2032693","0.0-11.0-336.0","","","","false","","","","","","","","","","1047","","1489","","3","0","arrowright","1","arrowright","[0.675,0.325,0.15,0.85]","","",""
"sailing-trial","378","2039726","0.0-11.0-337.0","","","","false","","","","","","","","","","null","","3994.000000000233","","2","0","null","null","arrowup","[0.675,0.325,0.15,0.85]","","",""
"sailing-trial","379","2045659","0.0-11.0-338.0","","","","false","","","","","","","","","","976.9999999997672","","1436","","0","1","arrowleft","0","arrowleft","[0.675,0.325,0.15,0.85]","","",""
"sailing-trial","380","2049694","0.0-11.0-339.0","","","","false","","","","","","","","","","null","","1001","","2","0","null","null","arrowup","[0.675,0.325,0.15,0.85]","","",""
"sailing-trial","381","2055510","0.0-11.0-340.0","","","","false","","","","","","","","","","1095.0000000002328","","303","","0","0","arrowleft","0","arrowleft","[0.675,0.325,0.15,0.85]","","",""
"sailing-trial","382","2059110","0.0-11.0-341.0","","","","false","","","","","","","","","","null","","1306","","0","1","null","null","arrowup","[0.675,0.325,0.15,0.85]","","",""
"sailing-trial","383","2064711","0.0-11.0-342.0","","","","false","","","","","","","","","","1132","","54.00000000023283","","0","0","arrowleft","0","arrowleft","[0.675,0.325,0.15,0.85]","","",""
"sailing-trial","384","2068961","0.0-11.0-343.0","","","","false","","","","","","","","","","null","","1215.0000000002328","","1","0","null","null","arrowup","[0.675,0.325,0.15,0.85]","","",""
"sailing-trial","385","2074377","0.0-11.0-344.0","","","","false","","","","","","","","","","611","","387.99999999976717","","3","0","arrowright","1","arrowright","[0.675,0.325,0.15,0.85]","","",""
"sailing-trial","386","2077610","0.0-11.0-345.0","","","","false","","","","","","","","","","null","","994.9999999997672","","3","1","null","null","arrowup","[0.675,0.325,0.15,0.85]","","",""
"sailing-trial","387","2082609","0.0-11.0-346.0","","","","false","","","","","","","","","","1045","","477.99999999953434","","3","1","arrowright","1","arrowright","[0.675,0.325,0.15,0.85]","","",""
"sailing-trial","388","2086361","0.0-11.0-347.0","","","","false","","","","","","","","","","null","","1383.0000000002328","","0","1","null","null","arrowup","[0.675,0.325,0.15,0.85]","","",""
"sailing-trial","389","2092411","0.0-11.0-348.0","","","","false","","","","","","","","","","2332.000000000233","","5.999999999767169","","3","1","arrowright","1","arrowright","[0.675,0.325,0.15,0.85]","","",""
"sailing-trial","390","2096094","0.0-11.0-349.0","","","","false","","","","","","","","","","null","","1218.0000000002328","","0","1","null","null","arrowup","[0.675,0.325,0.15,0.85]","","",""
"sailing-trial","391","2102512","0.0-11.0-350.0","","","","false","","","","","","","","","","1612","","284","","3","0","arrowright","1","arrowright","[0.85,0.15,0.325,0.675]","","",""
"sailing-trial","392","2106596","0.0-11.0-351.0","","","","false","","","","","","","","","","null","","1044","","3","0","null","null","arrowup","[0.85,0.15,0.325,0.675]","","",""
"sailing-trial","393","2111678","0.0-11.0-352.0","","","","false","","","","","","","","","","666","","4","","3","0","arrowright","1","arrowright","[0.85,0.15,0.325,0.675]","","",""
"sailing-trial","394","2115027","0.0-11.0-353.0","","","","false","","","","","","","","","","null","","1053.0000000004657","","0","1","null","null","arrowup","[0.85,0.15,0.325,0.675]","","",""
"sailing-trial","395","2121895","0.0-11.0-354.0","","","","false","","","","","","","","","","1018","","1446","","3","0","arrowright","1","arrowright","[0.85,0.15,0.325,0.675]","","",""
"sailing-trial","396","2126028","0.0-11.0-355.0","","","","false","","","","","","","","","","null","","1105","","1","0","null","null","arrowup","[0.85,0.15,0.325,0.675]","","",""
"sailing-trial","397","2130344","0.0-11.0-356.0","","","","false","","","","","","","","","","555","","195","","3","1","arrowright","1","arrowright","[0.85,0.15,0.325,0.675]","","",""
"sailing-trial","398","2134330","0.0-11.0-357.0","","","","false","","","","","","","","","","null","","958","","1","0","null","null","arrowup","[0.85,0.15,0.325,0.675]","","",""
"sailing-trial","399","2138661","0.0-11.0-358.0","","","","false","","","","","","","","","","637","","10","","3","1","arrowright","1","arrowright","[0.85,0.15,0.325,0.675]","","",""
"sailing-trial","400","2141595","0.0-11.0-359.0","","","","false","","","","","","","","","","null","","782","","3","1","null","null","arrowup","[0.85,0.15,0.325,0.675]","","",""
"sailing-trial","401","2145861","0.0-11.0-360.0","","","","false","","","","","","","","","","751","","52","","3","1","arrowright","1","arrowright","[0.85,0.15,0.325,0.675]","","",""
"sailing-trial","402","2149796","0.0-11.0-361.0","","","","false","","","","","","","","","","null","","899.0000000004657","","3","0","null","null","arrowup","[0.85,0.15,0.325,0.675]","","",""
"sailing-trial","403","2156147","0.0-11.0-362.0","","","","false","","","","","","","","","","1039","","907","","0","0","arrowleft","0","arrowleft","[0.85,0.15,0.325,0.675]","","",""
"sailing-trial","404","2160363","0.0-11.0-363.0","","","","false","","","","","","","","","","null","","1189","","1","0","null","null","arrowup","[0.85,0.15,0.325,0.675]","","",""
"sailing-trial","405","2167663","0.0-11.0-364.0","","","","false","","","","","","","","","","2032","","1773","","3","1","arrowright","1","arrowright","[0.85,0.15,0.325,0.675]","","",""
"sailing-trial","406","2171713","0.0-11.0-365.0","","","","false","","","","","","","","","","null","","1010","","0","0","null","null","arrowup","[0.85,0.15,0.325,0.675]","","",""
"sailing-trial","407","2177946","0.0-11.0-366.0","","","","false","","","","","","","","","","1328","","490","","3","0","arrowright","1","arrowright","[0.675,0.325,0.15,0.85]","","",""
"sailing-trial","408","2181546","0.0-11.0-367.0","","","","false","","","","","","","","","","null","","1394","","0","1","null","null","arrowup","[0.675,0.325,0.15,0.85]","","",""
"sailing-trial","409","2190181","0.0-11.0-368.0","","","","false","","","","","","","","","","1810","","2399","","2","0","arrowright","1","arrowleft","[0.675,0.325,0.15,0.85]","","",""
"sailing-trial","410","2194330","0.0-11.0-369.0","","","","false","","","","","","","","","","null","","1119","","0","0","null","null","arrowup","[0.675,0.325,0.15,0.85]","","",""
"sailing-trial","411","2199129","0.0-11.0-370.0","","","","false","","","","","","","","","","886.9999999995343","","409","","0","1","arrowleft","0","arrowleft","[0.675,0.325,0.15,0.85]","","",""
"sailing-trial","412","2203348","0.0-11.0-371.0","","","","false","","","","","","","","","","null","","1183","","0","0","null","null","arrowup","[0.675,0.325,0.15,0.85]","","",""
"sailing-trial","413","2208647","0.0-11.0-372.0","","","","false","","","","","","","","","","1818","","4.999999999534339","","0","1","arrowleft","0","arrowleft","[0.675,0.325,0.15,0.85]","","",""
"sailing-trial","414","2212749","0.0-11.0-373.0","","","","false","","","","","","","","","","null","","1060","","2","0","null","null","arrowup","[0.675,0.325,0.15,0.85]","","",""
"sailing-trial","415","2219831","0.0-11.0-374.0","","","","false","","","","","","","","","","875","","1789","","0","0","arrowleft","0","arrowleft","[0.675,0.325,0.15,0.85]","","",""
"sailing-trial","416","2224299","0.0-11.0-375.0","","","","false","","","","","","","","","","null","","1430.9999999995343","","3","0","null","null","arrowup","[0.675,0.325,0.15,0.85]","","",""
"sailing-trial","417","2230782","0.0-11.0-376.0","","","","false","","","","","","","","","","902","","1177","","3","0","arrowright","1","arrowright","[0.675,0.325,0.15,0.85]","","",""
"sailing-trial","418","2234898","0.0-11.0-377.0","","","","false","","","","","","","","","","null","","1090","","1","0","null","null","arrowup","[0.675,0.325,0.15,0.85]","","",""
"sailing-trial","419","2240082","0.0-11.0-378.0","","","","false","","","","","","","","","","660","","143","","3","0","arrowright","1","arrowright","[0.675,0.325,0.15,0.85]","","",""
"sailing-trial","420","2247631","0.0-11.0-379.0","","","","false","","","","","","","","","","null","","4662.000000000466","","3","1","null","null","arrowup","[0.675,0.325,0.15,0.85]","","",""
"sailing-trial","421","2254764","0.0-11.0-380.0","","","","false","","","","","","","","","","3163.0000000004657","","268","","0","1","arrowleft","0","arrowleft","[0.675,0.325,0.15,0.85]","","",""
"sailing-trial","422","2258649","0.0-11.0-381.0","","","","false","","","","","","","","","","null","","847","","2","0","null","null","arrowup","[0.675,0.325,0.15,0.85]","","",""
"sailing-trial","423","2264182","0.0-11.0-382.0","","","","false","","","","","","","","","","817","","1114","","0","1","arrowleft","0","arrowleft","[0.85,0.15,0.325,0.675]","","",""
"sailing-trial","424","2268099","0.0-11.0-383.0","","","","false","","","","","","","","","","null","","891.0000000004657","","2","0","null","null","arrowup","[0.85,0.15,0.325,0.675]","","",""
"sailing-trial","425","2275299","0.0-11.0-384.0","","","","false","","","","","","","","","","1077","","1700","","3","0","arrowright","1","arrowright","[0.85,0.15,0.325,0.675]","","",""
"sailing-trial","426","2279467","0.0-11.0-385.0","","","","false","","","","","","","","","","null","","1131","","1","0","null","null","arrowup","[0.85,0.15,0.325,0.675]","","",""
"sailing-trial","427","2284549","0.0-11.0-386.0","","","","false","","","","","","","","","","571.9999999995343","","114","","2","0","arrowright","1","arrowleft","[0.85,0.15,0.325,0.675]","","",""
"sailing-trial","428","2288916","0.0-11.0-387.0","","","","false","","","","","","","","","","null","","1326","","3","0","null","null","arrowup","[0.85,0.15,0.325,0.675]","","",""
"sailing-trial","429","2296915","0.0-11.0-388.0","","","","false","","","","","","","","","","1056","","200.00000000046566","","3","1","arrowright","1","arrowright","[0.85,0.15,0.325,0.675]","","",""
"sailing-trial","430","2300000","0.0-11.0-389.0","","","","false","","","","","","","","","","null","","921","","3","1","null","null","arrowup","[0.85,0.15,0.325,0.675]","","",""
"sailing-trial","431","2304867","0.0-11.0-390.0","","","","false","","","","","","","","","","1179","","216","","0","1","arrowleft","0","arrowleft","[0.85,0.15,0.325,0.675]","","",""
"sailing-trial","432","2308918","0.0-11.0-391.0","","","","false","","","","","","","","","","null","","1009","","1","0","null","null","arrowup","[0.85,0.15,0.325,0.675]","","",""
"sailing-trial","433","2313366","0.0-11.0-392.0","","","","false","","","","","","","","","","726","","249","","0","1","arrowleft","0","arrowleft","[0.85,0.15,0.325,0.675]","","",""
"sailing-trial","434","2319017","0.0-11.0-393.0","","","","false","","","","","","","","","","null","","2624","","3","0","null","null","arrowup","[0.85,0.15,0.325,0.675]","","",""
"sailing-trial","435","2323734","0.0-11.0-394.0","","","","false","","","","","","","","","","795","","322","","3","1","arrowright","1","arrowright","[0.85,0.15,0.325,0.675]","","",""
"sailing-trial","436","2326549","0.0-11.0-395.0","","","","false","","","","","","","","","","null","","709","","1","1","null","null","arrowup","[0.85,0.15,0.325,0.675]","","",""
"sailing-trial","437","2333933","0.0-11.0-396.0","","","","false","","","","","","","","","","1965","","1995","","0","1","arrowleft","0","arrowleft","[0.85,0.15,0.325,0.675]","","",""
"sailing-trial","438","2342017","0.0-11.0-397.0","","","","false","","","","","","","","","","null","","5049","","1","0","null","null","arrowup","[0.85,0.15,0.325,0.675]","","",""
"sailing-trial","439","2347619","0.0-11.0-398.0","","","","false","","","","","","","","","","870.9999999995343","","322","","0","0","arrowleft","0","arrowleft","[0.85,0.15,0.325,0.675]","","",""
"sailing-trial","440","2353651","0.0-11.0-399.0","","","","false","","","","","","","","","","null","","1020","","3","1","null","null","arrowup","[0.85,0.15,0.325,0.675]","","",""
"instructions","441","2361468","0.0-12.0","","","","","","","","","","7816","","","","","","","","","","","","","","","","[{""page_index"":0,""viewing_time"":7816}]"
"survey-debrief","442","2386106","0.0-13.0","","","","","","","","","","24634.999999999534","","","","","","","","","","","","","","{""difficulty"":""3"",""fun"":""5"",""clarity"":""5"",""strategy"":""no "",""feedback"":""no""}","",""
