"trial_type","trial_index","time_elapsed","internal_node_id","value","metadata","success","timeout","failed_images","failed_audio","failed_video","browser_interaction","low_quality","rt","stimulus","response","button_pressed","island_rt","island_response","boat_rt","boat_response","boat","reward","island_key","island","boat_key","reward_probabilities","responses","num_errors","view_history"
"pavlovia","0","7","0.0-0.0","","","","","","","","","","","","","","","","","","","","","","","","","",""
"call-function","1","8","0.0-1.0","","{""task_version"":""sailing_part1_v1"",""task_condition"":""good"",""boats"":[""B"",""D"",""C"",""A""],""boats_demo"":[""F"",""E"",""H"",""G""],""islands"":[""A"",""B""],""subject_id"":""14371"",""age"":""17"",""gender"":""Male""}","","","","","","","","","","","","","","","","","","","","","","","",""
"preload","2","3324","0.0-2.0","","","true","false","[]","[]","[]","[{""event"":""fullscreenenter"",""trial"":3,""time"":6111}]","false","","","","","","","","","","","","","","","","",""
"fullscreen","3","7035","0.0-3.0","","","true","","","","","","","","","","","","","","","","","","","","","","",""
"audio-keyboard-response","4","11520","0.0-4.0-0.0","","","","","","","","","","4482.666666666666","audio/beep_loop.wav"," ","","","","","","","","","","","","","",""
"audio-test","5","12766","0.0-4.0-1.0","","","","","","","","","","null","audio/turtle.mp3","","3","","","","","","","","","","","","",""
"audio-test","6","15228","0.0-4.0-2.0","","","","","","","","","","null","audio/shark.mp3","","2","","","","","","","","","","","","",""
"sailing-instructions","7","51908","0.0-5.0-0.0-0.0","","","","","","","","","","","","","","null","null","null","null","null","null","","","","","","",""
"sailing-trial","8","54802","0.0-5.0-0.0-1.0-0.0","","","","false","","","","","","","","","","1731","","null","","null","null","arrowleft","0","null","null","","",""
"sailing-trial","9","57133","0.0-5.0-0.0-1.0-1.0","","","","false","","","","","","","","","","1181","","null","","null","null","arrowright","1","null","null","","",""
"sailing-trial","10","59982","0.0-5.0-0.0-1.0-2.0","","","","false","","","","","","","","","","1697","","null","","null","null","arrowright","1","null","null","","",""
"sailing-instructions","11","107016","0.0-5.0-0.0-2.0","","","","","","","","","","","","","","null","null","null","null","0","null","","","","","","",""
"sailing-trial","12","114692","0.0-5.0-0.0-3.0-0.0","","","","false","","","","","","","","","","null","","4147","","2","1","null","null","arrowleft","[1,1,1,1]","","",""
"sailing-trial","13","117823","0.0-5.0-0.0-3.0-1.0","","","","false","","","","","","","","","","null","","697","","3","1","null","null","arrowright","[1,1,1,1]","","",""
"sailing-trial","14","119981","0.0-5.0-0.0-3.0-2.0","","","","false","","","","","","","","","","null","","428","","3","0","null","null","arrowright","[0,0,0,0]","","",""
"sailing-instructions","15","128735","0.0-5.0-0.0-4.0","","","","","","","","","","","","","","null","null","null","null","null","null","","","","","","",""
"sailing-comprehension","16","147643","0.0-5.0-0.0-5.0","","","","","","","","","","11934.00000000003","","","","","","","","","","","","","","[""true"",""true"",""false"",""true""]","0",""
"sailing-instructions","17","214401","0.0-6.0-0.0-0.0","","","","","","","","","","","","","","null","null","null","null","null","null","","","","","","",""
"sailing-comprehension","18","245019","0.0-6.0-0.0-1.0","","","","","","","","","","27329","","","","","","","","","","","","","","[""true"",""false"",""true""]","0",""
"sailing-instructions","19","344064","0.0-7.0-0.0-0.0","","","","","","","","","","","","","","null","null","null","null","null","null","","","","","","",""
"sailing-trial","20","532745","0.0-7.0-0.0-1.0-0.0","","","","false","","","","","","","","","","null","","185639","","0","0","null","null","arrowup","[0.2,0.8,0.2,0.8]","","",""
"sailing-trial","21","536593","0.0-7.0-0.0-1.0-1.0","","","","false","","","","","","","","","","null","","1583","","1","0","null","null","arrowup","[0.2,0.8,0.2,0.8]","","",""
"sailing-trial","22","540040","0.0-7.0-0.0-1.0-2.0","","","","false","","","","","","","","","","null","","1667","","2","0","null","null","arrowup","[0.2,0.8,0.2,0.8]","","",""
"sailing-trial","23","543884","0.0-7.0-0.0-1.0-3.0","","","","false","","","","","","","","","","null","","1275","","3","1","null","null","arrowup","[0.2,0.8,0.2,0.8]","","",""
"sailing-comprehension","24","564084","0.0-7.0-0.0-2.0","","","","","","","","","","15817","","","","","","","","","","","","","","[""false""]","0",""
"sailing-instructions","25","872540","0.0-8.0-0.0-0.0","","","","","","","","","","","","","","null","null","null","null","null","null","","","","","","",""
"sailing-comprehension","26","878475","0.0-8.0-0.0-1.0","","","","","","","","","","3214.9999999998836","","","","","","","","","","","","","","[""true""]","0",""
"sailing-instructions","27","901800","0.0-9.0-0.0-0.0","","","","","","","","","","","","","","null","null","null","null","null","null","","","","","","",""
"sailing-trial","28","907959","0.0-9.0-0.0-1.0-0.0","","","","false","","","","","","","","","","1179","","742","","0","0","arrowleft","0","arrowleft","[0.2,0.8,0.2,0.8]","","",""
"sailing-trial","29","913719","0.0-9.0-0.0-1.0-1.0","","","","false","","","","","","","","","","854","","230","","1","1","arrowleft","0","arrowright","[0.2,0.8,0.2,0.8]","","",""
"sailing-trial","30","922591","0.0-9.0-0.0-1.0-2.0","","","","false","","","","","","","","","","null","","6790.999999999884","","0","0","null","null","arrowup","[0.2,0.8,0.2,0.8]","","",""
"sailing-trial","31","933458","0.0-9.0-0.0-1.0-3.0","","","","false","","","","","","","","","","1973.9999999998836","","4635.999999999884","","2","0","arrowright","1","arrowleft","[0.2,0.8,0.2,0.8]","","",""
"sailing-trial","32","939568","0.0-9.0-0.0-1.0-4.0","","","","false","","","","","","","","","","null","","2638","","3","1","null","null","arrowup","[0.2,0.8,0.2,0.8]","","",""
"sailing-trial","33","944754","0.0-9.0-0.0-1.0-5.0","","","","false","","","","","","","","","","661","","977","","3","0","arrowright","1","arrowright","[0.2,0.8,0.2,0.8]","","",""
"sailing-instructions","34","1145791","0.0-10.0","","","","","","","","","","","","","","null","null","null","null","null","null","","","","","","",""
"sailing-trial","35","1152929","0.0-11.0-0.0","","","","false","","","","","","","","","","2814","","428","","3","1","arrowright","1","arrowright","[0.675,0.325,0.15,0.85]","","",""
"sailing-trial","36","1160806","0.0-11.0-1.0","","","","false","","","","","","","","","","null","","4853","","3","1","null","null","arrowup","[0.675,0.325,0.15,0.85]","","",""
"sailing-trial","37","1166285","0.0-11.0-2.0","","","","false","","","","","","","","","","461","","1111","","3","1","arrowright","1","arrowright","[0.675,0.325,0.15,0.85]","","",""
"sailing-trial","38","1170633","0.0-11.0-3.0","","","","false","","","","","","","","","","null","","2135","","0","1","null","null","arrowup","[0.675,0.325,0.15,0.85]","","",""
"sailing-trial","39","1175412","0.0-11.0-4.0","","","","false","","","","","","","","","","443","","275","","3","1","arrowright","1","arrowright","[0.675,0.325,0.15,0.85]","","",""
"sailing-trial","40","1180076","0.0-11.0-5.0","","","","false","","","","","","","","","","null","","2642","","1","1","null","null","arrowup","[0.675,0.325,0.15,0.85]","","",""
"sailing-trial","41","1184457","0.0-11.0-6.0","","","","false","","","","","","","","","","581","","51","","3","1","arrowright","1","arrowright","[0.675,0.325,0.15,0.85]","","",""
"sailing-trial","42","1189205","0.0-11.0-7.0","","","","false","","","","","","","","","","null","","1707.0000000002328","","1","0","null","null","arrowup","[0.675,0.325,0.15,0.85]","","",""
"sailing-trial","43","1194315","0.0-11.0-8.0","","","","false","","","","","","","","","","413","","1041","","3","1","arrowright","1","arrowright","[0.675,0.325,0.15,0.85]","","",""
"sailing-trial","44","1197931","0.0-11.0-9.0","","","","false","","","","","","","","","","null","","1628","","0","1","null","null","arrowup","[0.675,0.325,0.15,0.85]","","",""
"sailing-trial","45","1201776","0.0-11.0-10.0","","","","false","","","","","","","","","","500","","410","","3","1","arrowright","1","arrowright","[0.675,0.325,0.15,0.85]","","",""
"sailing-trial","46","1207009","0.0-11.0-11.0","","","","false","","","","","","","","","","null","","2186.999999999767","","0","0","null","null","arrowup","[0.675,0.325,0.15,0.85]","","",""
"sailing-trial","47","1211889","0.0-11.0-12.0","","","","false","","","","","","","","","","381.99999999976717","","251","","3","0","arrowright","1","arrowright","[0.675,0.325,0.15,0.85]","","",""
"sailing-trial","48","1216751","0.0-11.0-13.0","","","","false","","","","","","","","","","null","","1827","","0","1","null","null","arrowup","[0.675,0.325,0.15,0.85]","","",""
"sailing-trial","49","1221014","0.0-11.0-14.0","","","","false","","","","","","","","","","467","","364","","3","1","arrowright","1","arrowright","[0.675,0.325,0.15,0.85]","","",""
"sailing-trial","50","1223775","0.0-11.0-15.0","","","","false","","","","","","","","","","null","","1455","","1","0","null","null","arrowup","[0.675,0.325,0.15,0.85]","","",""
"sailing-trial","51","1228643","0.0-11.0-16.0","","","","false","","","","","","","","","","308","","333","","3","0","arrowright","1","arrowright","[0.85,0.15,0.325,0.675]","","",""
"sailing-trial","52","1232155","0.0-11.0-17.0","","","","false","","","","","","","","","","null","","1255","","0","1","null","null","arrowup","[0.85,0.15,0.325,0.675]","","",""
"sailing-trial","53","1236336","0.0-11.0-18.0","","","","false","","","","","","","","","","872","","324","","0","1","arrowleft","0","arrowleft","[0.85,0.15,0.325,0.675]","","",""
"sailing-trial","54","1240816","0.0-11.0-19.0","","","","false","","","","","","","","","","null","","2112","","3","1","null","null","arrowup","[0.85,0.15,0.325,0.675]","","",""
"sailing-trial","55","1245105","0.0-11.0-20.0","","","","false","","","","","","","","","","537","","168","","0","0","arrowleft","0","arrowleft","[0.85,0.15,0.325,0.675]","","",""
"sailing-trial","56","1247878","0.0-11.0-21.0","","","","false","","","","","","","","","","null","","460","","2","1","null","null","arrowup","[0.85,0.15,0.325,0.675]","","",""
"sailing-trial","57","1251958","0.0-11.0-22.0","","","","false","","","","","","","","","","827","","209.99999999976717","","0","1","arrowleft","0","arrowleft","[0.85,0.15,0.325,0.675]","","",""
"sailing-trial","58","1256105","0.0-11.0-23.0","","","","false","","","","","","","","","","null","","2128","","3","1","null","null","arrowup","[0.85,0.15,0.325,0.675]","","",""
"sailing-trial","59","1260019","0.0-11.0-24.0","","","","false","","","","","","","","","","443.00000000023283","","86","","0","1","arrowleft","0","arrowleft","[0.85,0.15,0.325,0.675]","","",""
"sailing-trial","60","1263400","0.0-11.0-25.0","","","","false","","","","","","","","","","null","","1572.0000000002328","","1","1","null","null","arrowup","[0.85,0.15,0.325,0.675]","","",""
"sailing-trial","61","1270336","0.0-11.0-26.0","","","","false","","","","","","","","","","2417","","890.0000000002328","","0","0","arrowleft","0","arrowleft","[0.85,0.15,0.325,0.675]","","",""
"sailing-trial","62","1271977","0.0-11.0-27.0","","","","false","","","","","","","","","","null","","10","","2","1","null","null","arrowup","[0.85,0.15,0.325,0.675]","","",""
"sailing-trial","63","1276301","0.0-11.0-28.0","","","","false","","","","","","","","","","1279","","575","","0","0","arrowleft","0","arrowleft","[0.85,0.15,0.325,0.675]","","",""
"sailing-trial","64","1280087","0.0-11.0-29.0","","","","false","","","","","","","","","","null","","1513.9999999997672","","3","1","null","null","arrowup","[0.85,0.15,0.325,0.675]","","",""
"sailing-trial","65","1285133","0.0-11.0-30.0","","","","false","","","","","","","","","","514","","1118.0000000002328","","3","1","arrowright","1","arrowright","[0.85,0.15,0.325,0.675]","","",""
"sailing-trial","66","1288698","0.0-11.0-31.0","","","","false","","","","","","","","","","null","","1654","","0","1","null","null","arrowup","[0.85,0.15,0.325,0.675]","","",""
"sailing-trial","67","1292729","0.0-11.0-32.0","","","","false","","","","","","","","","","363","","241","","3","1","arrowright","1","arrowright","[0.85,0.15,0.325,0.675]","","",""
"sailing-trial","68","1295474","0.0-11.0-33.0","","","","false","","","","","","","","","","null","","1462","","1","0","null","null","arrowup","[0.85,0.15,0.325,0.675]","","",""
"sailing-trial","69","1302123","0.0-11.0-34.0","","","","false","","","","","","","","","","926","","2171","","3","1","arrowright","1","arrowright","[0.85,0.15,0.325,0.675]","","",""
"sailing-trial","70","1304886","0.0-11.0-35.0","","","","false","","","","","","","","","","null","","1354","","3","0","null","null","arrowup","[0.85,0.15,0.325,0.675]","","",""
"sailing-trial","71","1310155","0.0-11.0-36.0","","","","false","","","","","","","","","","610","","437","","3","0","arrowright","1","arrowright","[0.85,0.15,0.325,0.675]","","",""
"sailing-trial","72","1313147","0.0-11.0-37.0","","","","false","","","","","","","","","","null","","1085","","3","1","null","null","arrowup","[0.85,0.15,0.325,0.675]","","",""
"sailing-trial","73","1318178","0.0-11.0-38.0","","","","false","","","","","","","","","","915.0000000002328","","979","","3","1","arrowright","1","arrowright","[0.675,0.325,0.15,0.85]","","",""
"sailing-trial","74","1320991","0.0-11.0-39.0","","","","false","","","","","","","","","","null","","1113.0000000002328","","3","1","null","null","arrowup","[0.675,0.325,0.15,0.85]","","",""
"sailing-trial","75","1328103","0.0-11.0-40.0","","","","false","","","","","","","","","","573","","2972","","3","1","arrowright","1","arrowright","[0.675,0.325,0.15,0.85]","","",""
"sailing-trial","76","1330903","0.0-11.0-41.0","","","","false","","","","","","","","","","null","","865","","0","1","null","null","arrowup","[0.675,0.325,0.15,0.85]","","",""
"sailing-trial","77","1337179","0.0-11.0-42.0","","","","false","","","","","","","","","","380","","2535","","3","1","arrowright","1","arrowright","[0.675,0.325,0.15,0.85]","","",""
"sailing-trial","78","1340195","0.0-11.0-43.0","","","","false","","","","","","","","","","null","","1005.0000000002328","","3","1","null","null","arrowup","[0.675,0.325,0.15,0.85]","","",""
"sailing-trial","79","1344575","0.0-11.0-44.0","","","","false","","","","","","","","","","569","","225","","3","1","arrowright","1","arrowright","[0.675,0.325,0.15,0.85]","","",""
"sailing-trial","80","1347423","0.0-11.0-45.0","","","","false","","","","","","","","","","null","","986","","0","1","null","null","arrowup","[0.675,0.325,0.15,0.85]","","",""
"sailing-trial","81","1353018","0.0-11.0-46.0","","","","false","","","","","","","","","","164","","1810","","3","1","arrowright","1","arrowright","[0.675,0.325,0.15,0.85]","","",""
"sailing-trial","82","1355851","0.0-11.0-47.0","","","","false","","","","","","","","","","null","","1507","","2","0","null","null","arrowup","[0.675,0.325,0.15,0.85]","","",""
"sailing-trial","83","1362263","0.0-11.0-48.0","","","","false","","","","","","","","","","572","","2327","","3","1","arrowright","1","arrowright","[0.675,0.325,0.15,0.85]","","",""
"sailing-trial","84","1364876","0.0-11.0-49.0","","","","false","","","","","","","","","","null","","917","","3","1","null","null","arrowup","[0.675,0.325,0.15,0.85]","","",""
"sailing-trial","85","1369225","0.0-11.0-50.0","","","","false","","","","","","","","","","477","","492","","3","1","arrowright","1","arrowright","[0.675,0.325,0.15,0.85]","","",""
"sailing-trial","86","1373159","0.0-11.0-51.0","","","","false","","","","","","","","","","null","","2233","","0","1","null","null","arrowup","[0.675,0.325,0.15,0.85]","","",""
"sailing-trial","87","1379801","0.0-11.0-52.0","","","","false","","","","","","","","","","791","","1698","","3","1","arrowright","1","arrowright","[0.675,0.325,0.15,0.85]","","",""
"sailing-trial","88","1382295","0.0-11.0-53.0","","","","false","","","","","","","","","","null","","1413","","2","0","null","null","arrowup","[0.675,0.325,0.15,0.85]","","",""
"sailing-trial","89","1386779","0.0-11.0-54.0","","","","false","","","","","","","","","","626","","272.99999999976717","","3","1","arrowright","1","arrowright","[0.675,0.325,0.15,0.85]","","",""
"sailing-trial","90","1390134","0.0-11.0-55.0","","","","false","","","","","","","","","","null","","1986.0000000002328","","0","0","null","null","arrowup","[0.675,0.325,0.15,0.85]","","",""
"sailing-trial","91","1394389","0.0-11.0-56.0","","","","false","","","","","","","","","","328","","540","","3","1","arrowright","1","arrowright","[0.325,0.675,0.85,0.15]","","",""
"sailing-trial","92","1396586","0.0-11.0-57.0","","","","false","","","","","","","","","","null","","755","","0","0","null","null","arrowup","[0.325,0.675,0.85,0.15]","","",""
"sailing-trial","93","1400236","0.0-11.0-58.0","","","","false","","","","","","","","","","336","","103","","3","1","arrowright","1","arrowright","[0.325,0.675,0.85,0.15]","","",""
"sailing-trial","94","1403235","0.0-11.0-59.0","","","","false","","","","","","","","","","null","","565","","2","1","null","null","arrowup","[0.325,0.675,0.85,0.15]","","",""
"sailing-trial","95","1408116","0.0-11.0-60.0","","","","false","","","","","","","","","","564","","72","","3","0","arrowright","1","arrowright","[0.325,0.675,0.85,0.15]","","",""
"sailing-trial","96","1410978","0.0-11.0-61.0","","","","false","","","","","","","","","","null","","493","","0","1","null","null","arrowup","[0.325,0.675,0.85,0.15]","","",""
"sailing-trial","97","1413766","0.0-11.0-62.0","","","","false","","","","","","","","","","355","","12","","3","0","arrowright","1","arrowright","[0.325,0.675,0.85,0.15]","","",""
"sailing-trial","98","1417656","0.0-11.0-63.0","","","","false","","","","","","","","","","null","","1146","","3","0","null","null","arrowup","[0.325,0.675,0.85,0.15]","","",""
"sailing-trial","99","1422029","0.0-11.0-64.0","","","","false","","","","","","","","","","419","","193","","0","0","arrowleft","0","arrowleft","[0.325,0.675,0.85,0.15]","","",""
"sailing-trial","100","1424086","0.0-11.0-65.0","","","","false","","","","","","","","","","null","","372","","1","1","null","null","arrowup","[0.325,0.675,0.85,0.15]","","",""
"sailing-trial","101","1428311","0.0-11.0-66.0","","","","false","","","","","","","","","","378","","158","","0","0","arrowleft","0","arrowleft","[0.325,0.675,0.85,0.15]","","",""
"sailing-trial","102","1431503","0.0-11.0-67.0","","","","false","","","","","","","","","","null","","1788","","0","0","null","null","arrowup","[0.325,0.675,0.85,0.15]","","",""
"sailing-trial","103","1436043","0.0-11.0-68.0","","","","false","","","","","","","","","","696","","278","","1","1","arrowleft","0","arrowright","[0.325,0.675,0.85,0.15]","","",""
"sailing-trial","104","1438878","0.0-11.0-69.0","","","","false","","","","","","","","","","null","","1075","","2","0","null","null","arrowup","[0.325,0.675,0.85,0.15]","","",""
"sailing-trial","105","1442957","0.0-11.0-70.0","","","","false","","","","","","","","","","485","","136","","1","1","arrowleft","0","arrowright","[0.325,0.675,0.85,0.15]","","",""
"sailing-trial","106","1446836","0.0-11.0-71.0","","","","false","","","","","","","","","","null","","2413.999999999767","","3","0","null","null","arrowup","[0.325,0.675,0.85,0.15]","","",""
"sailing-trial","107","1449934","0.0-11.0-72.0","","","","false","","","","","","","","","","38","","167","","2","1","arrowright","1","arrowleft","[0.15,0.85,0.675,0.325]","","",""
"sailing-trial","108","1453280","0.0-11.0-73.0","","","","false","","","","","","","","","","null","","1951","","0","0","null","null","arrowup","[0.15,0.85,0.675,0.325]","","",""
"sailing-trial","109","1458376","0.0-11.0-74.0","","","","false","","","","","","","","","","694","","441","","1","0","arrowleft","0","arrowright","[0.15,0.85,0.675,0.325]","","",""
"sailing-trial","110","1461005","0.0-11.0-75.0","","","","false","","","","","","","","","","null","","1080","","0","0","null","null","arrowup","[0.15,0.85,0.675,0.325]","","",""
"sailing-trial","111","1464706","0.0-11.0-76.0","","","","false","","","","","","","","","","165","","87","","1","1","arrowleft","0","arrowright","[0.15,0.85,0.675,0.325]","","",""
"sailing-trial","112","1467035","0.0-11.0-77.0","","","","false","","","","","","","","","","null","","1148","","3","0","null","null","arrowup","[0.15,0.85,0.675,0.325]","","",""
"sailing-trial","113","1471469","0.0-11.0-78.0","","","","false","","","","","","","","","","582","","216","","1","1","arrowleft","0","arrowright","[0.15,0.85,0.675,0.325]","","",""
"sailing-trial","114","1474932","0.0-11.0-79.0","","","","false","","","","","","","","","","null","","1012","","1","1","null","null","arrowup","[0.15,0.85,0.675,0.325]","","",""
"sailing-trial","115","1479196","0.0-11.0-80.0","","","","false","","","","","","","","","","1035","","157.99999999976717","","1","1","arrowleft","0","arrowright","[0.15,0.85,0.675,0.325]","","",""
"sailing-trial","116","1482493","0.0-11.0-81.0","","","","false","","","","","","","","","","null","","998","","3","1","null","null","arrowup","[0.15,0.85,0.675,0.325]","","",""
"sailing-trial","117","1486990","0.0-11.0-82.0","","","","false","","","","","","","","","","528","","158","","1","1","arrowleft","0","arrowright","[0.15,0.85,0.675,0.325]","","",""
"sailing-trial","118","1492931","0.0-11.0-83.0","","","","false","","","","","","","","","","null","","4451","","3","0","null","null","arrowup","[0.15,0.85,0.675,0.325]","","",""
"sailing-trial","119","1497231","0.0-11.0-84.0","","","","false","","","","","","","","","","704","","167.00000000023283","","1","0","arrowleft","0","arrowright","[0.15,0.85,0.675,0.325]","","",""
"sailing-trial","120","1499848","0.0-11.0-85.0","","","","false","","","","","","","","","","null","","848","","2","1","null","null","arrowup","[0.15,0.85,0.675,0.325]","","",""
"sailing-trial","121","1504445","0.0-11.0-86.0","","","","false","","","","","","","","","","853","","501","","1","1","arrowleft","0","arrowright","[0.15,0.85,0.675,0.325]","","",""
"sailing-trial","122","1507036","0.0-11.0-87.0","","","","false","","","","","","","","","","null","","962","","0","0","null","null","arrowup","[0.15,0.85,0.675,0.325]","","",""
"sailing-trial","123","1511441","0.0-11.0-88.0","","","","false","","","","","","","","","","542","","285","","2","0","arrowright","1","arrowleft","[0.15,0.85,0.675,0.325]","","",""
"sailing-trial","124","1514671","0.0-11.0-89.0","","","","false","","","","","","","","","","null","","861.0000000002328","","2","1","null","null","arrowup","[0.15,0.85,0.675,0.325]","","",""
"sailing-trial","125","1518654","0.0-11.0-90.0","","","","false","","","","","","","","","","486","","168","","2","0","arrowright","1","arrowleft","[0.15,0.85,0.675,0.325]","","",""
"sailing-trial","126","1521052","0.0-11.0-91.0","","","","false","","","","","","","","","","null","","1056","","3","0","null","null","arrowup","[0.15,0.85,0.675,0.325]","","",""
"sailing-trial","127","1525545","0.0-11.0-92.0","","","","false","","","","","","","","","","514","","384","","1","1","arrowleft","0","arrowright","[0.325,0.675,0.85,0.15]","","",""
"sailing-trial","128","1529078","0.0-11.0-93.0","","","","false","","","","","","","","","","null","","1374","","2","1","null","null","arrowup","[0.325,0.675,0.85,0.15]","","",""
"sailing-trial","129","1533308","0.0-11.0-94.0","","","","false","","","","","","","","","","721","","43.00000000023283","","1","1","arrowleft","0","arrowright","[0.325,0.675,0.85,0.15]","","",""
"sailing-trial","130","1535912","0.0-11.0-95.0","","","","false","","","","","","","","","","null","","905.9999999997672","","0","0","null","null","arrowup","[0.325,0.675,0.85,0.15]","","",""
"sailing-trial","131","1539078","0.0-11.0-96.0","","","","false","","","","","","","","","","520.0000000002328","","9","","1","0","arrowleft","0","arrowright","[0.325,0.675,0.85,0.15]","","",""
"sailing-trial","132","1542098","0.0-11.0-97.0","","","","false","","","","","","","","","","null","","861","","0","0","null","null","arrowup","[0.325,0.675,0.85,0.15]","","",""
"sailing-trial","133","1545799","0.0-11.0-98.0","","","","false","","","","","","","","","","581","","82.00000000023283","","1","1","arrowleft","0","arrowright","[0.325,0.675,0.85,0.15]","","",""
"sailing-trial","134","1547770","0.0-11.0-99.0","","","","false","","","","","","","","","","null","","782","","0","0","null","null","arrowup","[0.325,0.675,0.85,0.15]","","",""
"sailing-trial","135","1551977","0.0-11.0-100.0","","","","false","","","","","","","","","","448","","390.99999999976717","","1","1","arrowleft","0","arrowright","[0.325,0.675,0.85,0.15]","","",""
"sailing-trial","136","1558606","0.0-11.0-101.0","","","","false","","","","","","","","","","null","","1256","","2","1","null","null","arrowup","[0.325,0.675,0.85,0.15]","","",""
"sailing-trial","137","1562552","0.0-11.0-102.0","","","","false","","","","","","","","","","305","","290","","1","1","arrowleft","0","arrowright","[0.325,0.675,0.85,0.15]","","",""
"sailing-trial","138","1565184","0.0-11.0-103.0","","","","false","","","","","","","","","","null","","788","","1","1","null","null","arrowup","[0.325,0.675,0.85,0.15]","","",""
"sailing-trial","139","1569597","0.0-11.0-104.0","","","","false","","","","","","","","","","448.00000000023283","","223","","1","1","arrowleft","0","arrowright","[0.325,0.675,0.85,0.15]","","",""
"sailing-trial","140","1572468","0.0-11.0-105.0","","","","false","","","","","","","","","","null","","1131","","2","0","null","null","arrowup","[0.325,0.675,0.85,0.15]","","",""
"sailing-trial","141","1577326","0.0-11.0-106.0","","","","false","","","","","","","","","","656","","681","","1","1","arrowleft","0","arrowright","[0.325,0.675,0.85,0.15]","","",""
"sailing-trial","142","1582060","0.0-11.0-107.0","","","","false","","","","","","","","","","null","","1685","","0","0","null","null","arrowup","[0.325,0.675,0.85,0.15]","","",""
"sailing-trial","143","1587503","0.0-11.0-108.0","","","","false","","","","","","","","","","579","","1079","","1","1","arrowleft","0","arrowright","[0.15,0.85,0.675,0.325]","","",""
"sailing-trial","144","1590551","0.0-11.0-109.0","","","","false","","","","","","","","","","null","","1566","","2","0","null","null","arrowup","[0.15,0.85,0.675,0.325]","","",""
"sailing-trial","145","1595297","0.0-11.0-110.0","","","","false","","","","","","","","","","750","","303","","1","1","arrowleft","0","arrowright","[0.15,0.85,0.675,0.325]","","",""
"sailing-trial","146","1599307","0.0-11.0-111.0","","","","false","","","","","","","","","","null","","2384","","0","0","null","null","arrowup","[0.15,0.85,0.675,0.325]","","",""
"sailing-trial","147","1605051","0.0-11.0-112.0","","","","false","","","","","","","","","","450.00000000023283","","2262","","3","0","arrowright","1","arrowright","[0.15,0.85,0.675,0.325]","","",""
"sailing-trial","148","1608320","0.0-11.0-113.0","","","","false","","","","","","","","","","null","","992","","3","1","null","null","arrowup","[0.15,0.85,0.675,0.325]","","",""
"sailing-trial","149","1612148","0.0-11.0-114.0","","","","false","","","","","","","","","","1284","","27.00000000023283","","1","0","arrowleft","0","arrowright","[0.15,0.85,0.675,0.325]","","",""
"sailing-trial","150","1614933","0.0-11.0-115.0","","","","false","","","","","","","","","","null","","888","","3","1","null","null","arrowup","[0.15,0.85,0.675,0.325]","","",""
"sailing-trial","151","1620744","0.0-11.0-116.0","","","","false","","","","","","","","","","424","","1274.0000000002328","","3","1","arrowright","1","arrowright","[0.15,0.85,0.675,0.325]","","",""
"sailing-trial","152","1624543","0.0-11.0-117.0","","","","false","","","","","","","","","","null","","1422","","1","1","null","null","arrowup","[0.15,0.85,0.675,0.325]","","",""
"sailing-trial","153","1628088","0.0-11.0-118.0","","","","false","","","","","","","","","","631","","98","","3","0","arrowright","1","arrowright","[0.15,0.85,0.675,0.325]","","",""
"sailing-trial","154","1631737","0.0-11.0-119.0","","","","false","","","","","","","","","","null","","1118","","2","1","null","null","arrowup","[0.15,0.85,0.675,0.325]","","",""
"sailing-trial","155","1637367","0.0-11.0-120.0","","","","false","","","","","","","","","","1250","","187","","3","0","arrowright","1","arrowright","[0.15,0.85,0.675,0.325]","","",""
"sailing-trial","156","1641665","0.0-11.0-121.0","","","","false","","","","","","","","","","null","","2354","","1","1","null","null","arrowup","[0.15,0.85,0.675,0.325]","","",""
"sailing-trial","157","1646077","0.0-11.0-122.0","","","","false","","","","","","","","","","596","","298","","1","1","arrowleft","0","arrowright","[0.15,0.85,0.675,0.325]","","",""
"sailing-trial","158","1649010","0.0-11.0-123.0","","","","false","","","","","","","","","","null","","1261","","0","0","null","null","arrowup","[0.15,0.85,0.675,0.325]","","",""
"sailing-trial","159","1652973","0.0-11.0-124.0","","","","false","","","","","","","","","","318","","469","","3","1","arrowright","1","arrowright","[0.15,0.85,0.675,0.325]","","",""
"sailing-trial","160","1656354","0.0-11.0-125.0","","","","false","","","","","","","","","","null","","1411","","1","1","null","null","arrowup","[0.15,0.85,0.675,0.325]","","",""
"sailing-trial","161","1661982","0.0-11.0-126.0","","","","false","","","","","","","","","","1557","","239","","1","1","arrowleft","0","arrowright","[0.325,0.675,0.85,0.15]","","",""
"sailing-trial","162","1665913","0.0-11.0-127.0","","","","false","","","","","","","","","","null","","1432","","2","1","null","null","arrowup","[0.325,0.675,0.85,0.15]","","",""
"sailing-trial","163","1670283","0.0-11.0-128.0","","","","false","","","","","","","","","","1130","","140","","1","0","arrowleft","0","arrowright","[0.325,0.675,0.85,0.15]","","",""
"sailing-trial","164","1673358","0.0-11.0-129.0","","","","false","","","","","","","","","","null","","1254","","1","1","null","null","arrowup","[0.325,0.675,0.85,0.15]","","",""
"sailing-trial","165","1679269","0.0-11.0-130.0","","","","false","","","","","","","","","","714","","107","","2","1","arrowright","1","arrowleft","[0.325,0.675,0.85,0.15]","","",""
"sailing-trial","166","1682031","0.0-11.0-131.0","","","","false","","","","","","","","","","null","","1288","","2","0","null","null","arrowup","[0.325,0.675,0.85,0.15]","","",""
"sailing-trial","167","1686165","0.0-11.0-132.0","","","","false","","","","","","","","","","879.9999999997672","","68","","2","1","arrowright","1","arrowleft","[0.325,0.675,0.85,0.15]","","",""
"sailing-trial","168","1690811","0.0-11.0-133.0","","","","false","","","","","","","","","","null","","2284","","0","1","null","null","arrowup","[0.325,0.675,0.85,0.15]","","",""
"sailing-trial","169","1696425","0.0-11.0-134.0","","","","false","","","","","","","","","","1008.0000000002328","","957","","1","1","arrowleft","0","arrowright","[0.325,0.675,0.85,0.15]","","",""
"sailing-trial","170","1699155","0.0-11.0-135.0","","","","false","","","","","","","","","","null","","1068.0000000002328","","1","1","null","null","arrowup","[0.325,0.675,0.85,0.15]","","",""
"sailing-trial","171","1703306","0.0-11.0-136.0","","","","false","","","","","","","","","","1028.0000000002328","","107","","1","0","arrowleft","0","arrowright","[0.325,0.675,0.85,0.15]","","",""
"sailing-trial","172","1706683","0.0-11.0-137.0","","","","false","","","","","","","","","","null","","1252","","0","1","null","null","arrowup","[0.325,0.675,0.85,0.15]","","",""
"sailing-trial","173","1711297","0.0-11.0-138.0","","","","false","","","","","","","","","","1236","","148.99999999976717","","1","1","arrowleft","0","arrowright","[0.325,0.675,0.85,0.15]","","",""
"sailing-trial","174","1715006","0.0-11.0-139.0","","","","false","","","","","","","","","","null","","1844","","3","0","null","null","arrowup","[0.325,0.675,0.85,0.15]","","",""
"sailing-trial","175","1718402","0.0-11.0-140.0","","","","false","","","","","","","","","","919","","220","","1","0","arrowleft","0","arrowright","[0.325,0.675,0.85,0.15]","","",""
"sailing-trial","176","1720553","0.0-11.0-141.0","","","","false","","","","","","","","","","null","","1094","","0","0","null","null","arrowup","[0.325,0.675,0.85,0.15]","","",""
"sailing-trial","177","1724873","0.0-11.0-142.0","","","","false","","","","","","","","","","1574.0000000002328","","147","","3","0","arrowright","1","arrowright","[0.325,0.675,0.85,0.15]","","",""
"sailing-trial","178","1727535","0.0-11.0-143.0","","","","false","","","","","","","","","","null","","916.0000000002328","","3","1","null","null","arrowup","[0.325,0.675,0.85,0.15]","","",""
"sailing-trial","179","1732833","0.0-11.0-144.0","","","","false","","","","","","","","","","1035","","416.99999999976717","","3","0","arrowright","1","arrowright","[0.325,0.675,0.85,0.15]","","",""
"sailing-trial","180","1736180","0.0-11.0-145.0","","","","false","","","","","","","","","","null","","1265","","3","1","null","null","arrowup","[0.325,0.675,0.85,0.15]","","",""
"sailing-trial","181","1740273","0.0-11.0-146.0","","","","false","","","","","","","","","","1476","","236","","3","0","arrowright","1","arrowright","[0.15,0.85,0.675,0.325]","","",""
"sailing-trial","182","1743295","0.0-11.0-147.0","","","","false","","","","","","","","","","null","","1107","","2","0","null","null","arrowup","[0.15,0.85,0.675,0.325]","","",""
"sailing-trial","183","1746539","0.0-11.0-148.0","","","","false","","","","","","","","","","585","","89.00000000023283","","0","0","arrowleft","0","arrowleft","[0.15,0.85,0.675,0.325]","","",""
"sailing-trial","184","1749461","0.0-11.0-149.0","","","","false","","","","","","","","","","null","","1268","","2","0","null","null","arrowup","[0.15,0.85,0.675,0.325]","","",""
"sailing-trial","185","1753451","0.0-11.0-150.0","","","","false","","","","","","","","","","615","","269","","1","1","arrowleft","0","arrowright","[0.15,0.85,0.675,0.325]","","",""
"sailing-trial","186","1755585","0.0-11.0-151.0","","","","false","","","","","","","","","","null","","994.9999999997672","","0","0","null","null","arrowup","[0.15,0.85,0.675,0.325]","","",""
"sailing-trial","187","1759346","0.0-11.0-152.0","","","","false","","","","","","","","","","734","","71.00000000023283","","1","1","arrowleft","0","arrowright","[0.15,0.85,0.675,0.325]","","",""
"sailing-trial","188","1762626","0.0-11.0-153.0","","","","false","","","","","","","","","","null","","1240","","1","1","null","null","arrowup","[0.15,0.85,0.675,0.325]","","",""
"sailing-trial","189","1766890","0.0-11.0-154.0","","","","false","","","","","","","","","","543","","207","","1","1","arrowleft","0","arrowright","[0.15,0.85,0.675,0.325]","","",""
"sailing-trial","190","1769971","0.0-11.0-155.0","","","","false","","","","","","","","","","null","","848","","2","1","null","null","arrowup","[0.15,0.85,0.675,0.325]","","",""
"sailing-trial","191","1773946","0.0-11.0-156.0","","","","false","","","","","","","","","","872","","221","","1","0","arrowleft","0","arrowright","[0.15,0.85,0.675,0.325]","","",""
"sailing-trial","192","1777284","0.0-11.0-157.0","","","","false","","","","","","","","","","null","","1197","","1","1","null","null","arrowup","[0.15,0.85,0.675,0.325]","","",""
"sailing-trial","193","1780865","0.0-11.0-158.0","","","","false","","","","","","","","","","257","","301","","1","1","arrowleft","0","arrowright","[0.15,0.85,0.675,0.325]","","",""
"sailing-trial","194","1785145","0.0-11.0-159.0","","","","false","","","","","","","","","","null","","2505","","2","1","null","null","arrowup","[0.15,0.85,0.675,0.325]","","",""
"sailing-trial","195","1789141","0.0-11.0-160.0","","","","false","","","","","","","","","","749","","167.99999999976717","","1","1","arrowleft","0","arrowright","[0.15,0.85,0.675,0.325]","","",""
"sailing-trial","196","1791923","0.0-11.0-161.0","","","","false","","","","","","","","","","null","","987","","2","1","null","null","arrowup","[0.15,0.85,0.675,0.325]","","",""
"sailing-trial","197","1795421","0.0-11.0-162.0","","","","false","","","","","","","","","","521","","112.99999999976717","","1","1","arrowleft","0","arrowright","[0.675,0.325,0.15,0.85]","","",""
"sailing-trial","198","1798584","0.0-11.0-163.0","","","","false","","","","","","","","","","null","","1130","","2","1","null","null","arrowup","[0.675,0.325,0.15,0.85]","","",""
"sailing-trial","199","1801900","0.0-11.0-164.0","","","","false","","","","","","","","","","639.9999999997672","","104","","1","0","arrowleft","0","arrowright","[0.675,0.325,0.15,0.85]","","",""
"sailing-trial","200","1806146","0.0-11.0-165.0","","","","false","","","","","","","","","","null","","1283","","1","1","null","null","arrowup","[0.675,0.325,0.15,0.85]","","",""
"sailing-trial","201","1810328","0.0-11.0-166.0","","","","false","","","","","","","","","","861.0000000002328","","49.99999999976717","","1","0","arrowleft","0","arrowright","[0.675,0.325,0.15,0.85]","","",""
"sailing-trial","202","1812821","0.0-11.0-167.0","","","","false","","","","","","","","","","null","","1078","","2","0","null","null","arrowup","[0.675,0.325,0.15,0.85]","","",""
"sailing-trial","203","1817138","0.0-11.0-168.0","","","","false","","","","","","","","","","802","","163","","1","1","arrowleft","0","arrowright","[0.675,0.325,0.15,0.85]","","",""
"sailing-trial","204","1821152","0.0-11.0-169.0","","","","false","","","","","","","","","","null","","2105","","3","1","null","null","arrowup","[0.675,0.325,0.15,0.85]","","",""
"sailing-trial","205","1824593","0.0-11.0-170.0","","","","false","","","","","","","","","","586","","321.99999999976717","","1","0","arrowleft","0","arrowright","[0.675,0.325,0.15,0.85]","","",""
"sailing-trial","206","1827531","0.0-11.0-171.0","","","","false","","","","","","","","","","null","","1274.9999999997672","","1","1","null","null","arrowup","[0.675,0.325,0.15,0.85]","","",""
"sailing-trial","207","1831512","0.0-11.0-172.0","","","","false","","","","","","","","","","493","","280","","1","0","arrowleft","0","arrowright","[0.675,0.325,0.15,0.85]","","",""
"sailing-trial","208","1833980","0.0-11.0-173.0","","","","false","","","","","","","","","","null","","1066","","2","0","null","null","arrowup","[0.675,0.325,0.15,0.85]","","",""
"sailing-trial","209","1837474","0.0-11.0-174.0","","","","false","","","","","","","","","","518","","46","","3","1","arrowright","1","arrowright","[0.675,0.325,0.15,0.85]","","",""
"sailing-trial","210","1840922","0.0-11.0-175.0","","","","false","","","","","","","","","","null","","957","","2","1","null","null","arrowup","[0.675,0.325,0.15,0.85]","","",""
"sailing-trial","211","1844452","0.0-11.0-176.0","","","","false","","","","","","","","","","449","","193","","3","1","arrowright","1","arrowright","[0.675,0.325,0.15,0.85]","","",""
"sailing-trial","212","1847591","0.0-11.0-177.0","","","","false","","","","","","","","","","null","","1304","","0","0","null","null","arrowup","[0.675,0.325,0.15,0.85]","","",""
"sailing-trial","213","1851165","0.0-11.0-178.0","","","","false","","","","","","","","","","301.99999999976717","","13","","3","0","arrowright","1","arrowright","[0.675,0.325,0.15,0.85]","","",""
"sailing-trial","214","1854018","0.0-11.0-179.0","","","","false","","","","","","","","","","null","","829.0000000002328","","1","0","null","null","arrowup","[0.675,0.325,0.15,0.85]","","",""
"sailing-trial","215","1857726","0.0-11.0-180.0","","","","false","","","","","","","","","","196.00000000023283","","152","","3","1","arrowright","1","arrowright","[0.675,0.325,0.15,0.85]","","",""
"sailing-trial","216","1860629","0.0-11.0-181.0","","","","false","","","","","","","","","","null","","1406.9999999997672","","2","0","null","null","arrowup","[0.675,0.325,0.15,0.85]","","",""
"sailing-trial","217","1863622","0.0-11.0-182.0","","","","false","","","","","","","","","","3","","171","","3","1","arrowright","1","arrowright","[0.675,0.325,0.15,0.85]","","",""
"sailing-trial","218","1865955","0.0-11.0-183.0","","","","false","","","","","","","","","","null","","1114","","2","0","null","null","arrowup","[0.675,0.325,0.15,0.85]","","",""
"sailing-trial","219","1869269","0.0-11.0-184.0","","","","false","","","","","","","","","","318","","126","","3","1","arrowright","1","arrowright","[0.85,0.15,0.325,0.675]","","",""
"sailing-trial","220","1872283","0.0-11.0-185.0","","","","false","","","","","","","","","","null","","779","","1","0","null","null","arrowup","[0.85,0.15,0.325,0.675]","","",""
"sailing-trial","221","1876663","0.0-11.0-186.0","","","","false","","","","","","","","","","676","","216","","3","1","arrowright","1","arrowright","[0.85,0.15,0.325,0.675]","","",""
"sailing-trial","222","1879363","0.0-11.0-187.0","","","","false","","","","","","","","","","null","","1555","","1","0","null","null","arrowup","[0.85,0.15,0.325,0.675]","","",""
"sailing-trial","223","1883407","0.0-11.0-188.0","","","","false","","","","","","","","","","411","","84","","3","1","arrowright","1","arrowright","[0.85,0.15,0.325,0.675]","","",""
"sailing-trial","224","1886788","0.0-11.0-189.0","","","","false","","","","","","","","","","null","","1807","","3","1","null","null","arrowup","[0.85,0.15,0.325,0.675]","","",""
"sailing-trial","225","1889533","0.0-11.0-190.0","","","","false","","","","","","","","","","32","","194","","3","0","arrowright","1","arrowright","[0.85,0.15,0.325,0.675]","","",""
"sailing-trial","226","1892625","0.0-11.0-191.0","","","","false","","","","","","","","","","null","","1901.0000000002328","","2","0","null","null","arrowup","[0.85,0.15,0.325,0.675]","","",""
"sailing-trial","227","1896182","0.0-11.0-192.0","","","","false","","","","","","","","","","365","","68","","3","1","arrowright","1","arrowright","[0.85,0.15,0.325,0.675]","","",""
"sailing-trial","228","1899246","0.0-11.0-193.0","","","","false","","","","","","","","","","null","","1114","","3","1","null","null","arrowup","[0.85,0.15,0.325,0.675]","","",""
"sailing-trial","229","1903160","0.0-11.0-194.0","","","","false","","","","","","","","","","60","","91.00000000023283","","3","0","arrowright","1","arrowright","[0.85,0.15,0.325,0.675]","","",""
"sailing-trial","230","1906024","0.0-11.0-195.0","","","","false","","","","","","","","","","null","","865","","3","1","null","null","arrowup","[0.85,0.15,0.325,0.675]","","",""
"sailing-trial","231","1909506","0.0-11.0-196.0","","","","false","","","","","","","","","","255","","20","","3","1","arrowright","1","arrowright","[0.85,0.15,0.325,0.675]","","",""
"sailing-trial","232","1912167","0.0-11.0-197.0","","","","false","","","","","","","","","","null","","1117","","3","0","null","null","arrowup","[0.85,0.15,0.325,0.675]","","",""
"sailing-trial","233","1914700","0.0-11.0-198.0","","","","false","","","","","","","","","","0","","178.99999999976717","","3","0","arrowright","1","arrowright","[0.85,0.15,0.325,0.675]","","",""
"sailing-trial","234","1917404","0.0-11.0-199.0","","","","false","","","","","","","","","","null","","1321","","1","0","null","null","arrowup","[0.85,0.15,0.325,0.675]","","",""
"sailing-trial","235","1921030","0.0-11.0-200.0","","","","false","","","","","","","","","","542","","126.99999999976717","","3","1","arrowright","1","arrowright","[0.85,0.15,0.325,0.675]","","",""
"sailing-trial","236","1926793","0.0-11.0-201.0","","","","false","","","","","","","","","","null","","2209.000000000233","","1","1","null","null","arrowup","[0.85,0.15,0.325,0.675]","","",""
"sailing-trial","237","1929733","0.0-11.0-202.0","","","","false","","","","","","","","","","472","","57","","1","0","arrowleft","0","arrowright","[0.85,0.15,0.325,0.675]","","",""
"sailing-trial","238","1933188","0.0-11.0-203.0","","","","false","","","","","","","","","","null","","1648","","0","1","null","null","arrowup","[0.85,0.15,0.325,0.675]","","",""
"sailing-trial","239","1937711","0.0-11.0-204.0","","","","false","","","","","","","","","","1169","","108","","1","0","arrowleft","0","arrowright","[0.85,0.15,0.325,0.675]","","",""
"sailing-trial","240","1940584","0.0-11.0-205.0","","","","false","","","","","","","","","","null","","1058.9999999997672","","0","1","null","null","arrowup","[0.85,0.15,0.325,0.675]","","",""
"sailing-trial","241","1945064","0.0-11.0-206.0","","","","false","","","","","","","","","","291","","36.00000000023283","","0","1","arrowleft","0","arrowleft","[0.85,0.15,0.325,0.675]","","",""
"sailing-trial","242","1948394","0.0-11.0-207.0","","","","false","","","","","","","","","","null","","1459","","1","1","null","null","arrowup","[0.85,0.15,0.325,0.675]","","",""
"sailing-trial","243","1951528","0.0-11.0-208.0","","","","false","","","","","","","","","","103","","250","","0","0","arrowleft","0","arrowleft","[0.675,0.325,0.15,0.85]","","",""
"sailing-trial","244","1954323","0.0-11.0-209.0","","","","false","","","","","","","","","","null","","833.9999999997672","","3","1","null","null","arrowup","[0.675,0.325,0.15,0.85]","","",""
"sailing-trial","245","1956974","0.0-11.0-210.0","","","","false","","","","","","","","","","233","","88.99999999976717","","0","0","arrowleft","0","arrowleft","[0.675,0.325,0.15,0.85]","","",""
"sailing-trial","246","1959870","0.0-11.0-211.0","","","","false","","","","","","","","","","null","","1215","","0","1","null","null","arrowup","[0.675,0.325,0.15,0.85]","","",""
"sailing-trial","247","1964233","0.0-11.0-212.0","","","","false","","","","","","","","","","800.0000000002328","","208","","1","1","arrowleft","0","arrowright","[0.675,0.325,0.15,0.85]","","",""
"sailing-trial","248","1967019","0.0-11.0-213.0","","","","false","","","","","","","","","","null","","1292.0000000002328","","0","0","null","null","arrowup","[0.675,0.325,0.15,0.85]","","",""
"sailing-trial","249","1971795","0.0-11.0-214.0","","","","false","","","","","","","","","","1149.0000000002328","","333","","1","1","arrowleft","0","arrowright","[0.675,0.325,0.15,0.85]","","",""
"sailing-trial","250","1974259","0.0-11.0-215.0","","","","false","","","","","","","","","","null","","1317","","1","0","null","null","arrowup","[0.675,0.325,0.15,0.85]","","",""
"sailing-trial","251","1978559","0.0-11.0-216.0","","","","false","","","","","","","","","","576","","185","","3","1","arrowright","1","arrowright","[0.675,0.325,0.15,0.85]","","",""
"sailing-trial","252","1981533","0.0-11.0-217.0","","","","false","","","","","","","","","","null","","1636","","1","0","null","null","arrowup","[0.675,0.325,0.15,0.85]","","",""
"sailing-trial","253","1985868","0.0-11.0-218.0","","","","false","","","","","","","","","","328","","138","","3","1","arrowright","1","arrowright","[0.675,0.325,0.15,0.85]","","",""
"sailing-trial","254","1988188","0.0-11.0-219.0","","","","false","","","","","","","","","","null","","920","","0","0","null","null","arrowup","[0.675,0.325,0.15,0.85]","","",""
"sailing-trial","255","1994395","0.0-11.0-220.0","","","","false","","","","","","","","","","275.99999999976717","","698","","3","1","arrowright","1","arrowright","[0.675,0.325,0.15,0.85]","","",""
"sailing-trial","256","1997025","0.0-11.0-221.0","","","","false","","","","","","","","","","null","","933","","0","1","null","null","arrowup","[0.675,0.325,0.15,0.85]","","",""
"sailing-trial","257","2000894","0.0-11.0-222.0","","","","false","","","","","","","","","","319.99999999976717","","356","","3","1","arrowright","1","arrowright","[0.675,0.325,0.15,0.85]","","",""
"sailing-trial","258","2003991","0.0-11.0-223.0","","","","false","","","","","","","","","","null","","900.9999999997672","","3","1","null","null","arrowup","[0.675,0.325,0.15,0.85]","","",""
"sailing-trial","259","2011252","0.0-11.0-224.0","","","","false","","","","","","","","","","805","","3325.000000000233","","3","1","arrowright","1","arrowright","[0.85,0.15,0.325,0.675]","","",""
"sailing-trial","260","2014717","0.0-11.0-225.0","","","","false","","","","","","","","","","null","","1592.9999999997672","","2","1","null","null","arrowup","[0.85,0.15,0.325,0.675]","","",""
"sailing-trial","261","2019563","0.0-11.0-226.0","","","","false","","","","","","","","","","1426","","45.00000000023283","","3","1","arrowright","1","arrowright","[0.85,0.15,0.325,0.675]","","",""
"sailing-trial","262","2022494","0.0-11.0-227.0","","","","false","","","","","","","","","","null","","1272","","3","1","null","null","arrowup","[0.85,0.15,0.325,0.675]","","",""
"sailing-trial","263","2026299","0.0-11.0-228.0","","","","false","","","","","","","","","","1020","","242","","3","0","arrowright","1","arrowright","[0.85,0.15,0.325,0.675]","","",""
"sailing-trial","264","2028823","0.0-11.0-229.0","","","","false","","","","","","","","","","null","","808","","0","1","null","null","arrowup","[0.85,0.15,0.325,0.675]","","",""
"sailing-trial","265","2032820","0.0-11.0-230.0","","","","false","","","","","","","","","","539.9999999997672","","76","","3","1","arrowright","1","arrowright","[0.85,0.15,0.325,0.675]","","",""
"sailing-trial","266","2037801","0.0-11.0-231.0","","","","false","","","","","","","","","","null","","2716","","0","1","null","null","arrowup","[0.85,0.15,0.325,0.675]","","",""
"sailing-trial","267","2041931","0.0-11.0-232.0","","","","false","","","","","","","","","","627","","85","","3","1","arrowright","1","arrowright","[0.85,0.15,0.325,0.675]","","",""
"sailing-trial","268","2044777","0.0-11.0-233.0","","","","false","","","","","","","","","","null","","1469.9999999997672","","2","0","null","null","arrowup","[0.85,0.15,0.325,0.675]","","",""
"sailing-trial","269","2048509","0.0-11.0-234.0","","","","false","","","","","","","","","","548.9999999997672","","275.99999999976717","","3","1","arrowright","1","arrowright","[0.85,0.15,0.325,0.675]","","",""
"sailing-trial","270","2050698","0.0-11.0-235.0","","","","false","","","","","","","","","","null","","1036.0000000002328","","1","0","null","null","arrowup","[0.85,0.15,0.325,0.675]","","",""
"sailing-trial","271","2054493","0.0-11.0-236.0","","","","false","","","","","","","","","","386.99999999976717","","123","","3","1","arrowright","1","arrowright","[0.85,0.15,0.325,0.675]","","",""
"sailing-trial","272","2057296","0.0-11.0-237.0","","","","false","","","","","","","","","","null","","1146.0000000002328","","1","0","null","null","arrowup","[0.85,0.15,0.325,0.675]","","",""
"sailing-trial","273","2063348","0.0-11.0-238.0","","","","false","","","","","","","","","","440","","2424","","3","1","arrowright","1","arrowright","[0.85,0.15,0.325,0.675]","","",""
"sailing-trial","274","2067396","0.0-11.0-239.0","","","","false","","","","","","","","","","null","","1435","","2","0","null","null","arrowup","[0.85,0.15,0.325,0.675]","","",""
"sailing-trial","275","2071609","0.0-11.0-240.0","","","","false","","","","","","","","","","217.00000000023283","","250.99999999976717","","3","1","arrowright","1","arrowright","[0.85,0.15,0.325,0.675]","","",""
"sailing-trial","276","2075206","0.0-11.0-241.0","","","","false","","","","","","","","","","null","","1237.9999999997672","","0","1","null","null","arrowup","[0.85,0.15,0.325,0.675]","","",""
"sailing-trial","277","2079873","0.0-11.0-242.0","","","","false","","","","","","","","","","119","","307.00000000023283","","2","0","arrowright","1","arrowleft","[0.675,0.325,0.15,0.85]","","",""
"sailing-trial","278","2082039","0.0-11.0-243.0","","","","false","","","","","","","","","","null","","1036.0000000002328","","1","0","null","null","arrowup","[0.675,0.325,0.15,0.85]","","",""
"sailing-trial","279","2085816","0.0-11.0-244.0","","","","false","","","","","","","","","","282.00000000023283","","169","","3","1","arrowright","1","arrowright","[0.675,0.325,0.15,0.85]","","",""
"sailing-trial","280","2093362","0.0-11.0-245.0","","","","false","","","","","","","","","","null","","5270","","0","1","null","null","arrowup","[0.675,0.325,0.15,0.85]","","",""
"sailing-trial","281","2097233","0.0-11.0-246.0","","","","false","","","","","","","","","","643.9999999995343","","106.00000000046566","","3","0","arrowright","1","arrowright","[0.675,0.325,0.15,0.85]","","",""
"sailing-trial","282","2099699","0.0-11.0-247.0","","","","false","","","","","","","","","","null","","1408","","1","0","null","null","arrowup","[0.675,0.325,0.15,0.85]","","",""
"sailing-trial","283","2103687","0.0-11.0-248.0","","","","false","","","","","","","","","","531","","176","","0","1","arrowleft","0","arrowleft","[0.675,0.325,0.15,0.85]","","",""
"sailing-trial","284","2106503","0.0-11.0-249.0","","","","false","","","","","","","","","","null","","1084","","1","1","null","null","arrowup","[0.675,0.325,0.15,0.85]","","",""
"sailing-trial","285","2109092","0.0-11.0-250.0","","","","false","","","","","","","","","","88.99999999953434","","259","","0","0","arrowleft","0","arrowleft","[0.675,0.325,0.15,0.85]","","",""
"sailing-trial","286","2118222","0.0-11.0-251.0","","","","false","","","","","","","","","","null","","7190","","1","0","null","null","arrowup","[0.675,0.325,0.15,0.85]","","",""
"sailing-trial","287","2122224","0.0-11.0-252.0","","","","false","","","","","","","","","","408","","171","","3","1","arrowright","1","arrowright","[0.675,0.325,0.15,0.85]","","",""
"sailing-trial","288","2125272","0.0-11.0-253.0","","","","false","","","","","","","","","","null","","931","","3","1","null","null","arrowup","[0.675,0.325,0.15,0.85]","","",""
"sailing-trial","289","2128802","0.0-11.0-254.0","","","","false","","","","","","","","","","406","","143","","3","1","arrowright","1","arrowright","[0.675,0.325,0.15,0.85]","","",""
"sailing-trial","290","2131999","0.0-11.0-255.0","","","","false","","","","","","","","","","null","","1017","","1","1","null","null","arrowup","[0.675,0.325,0.15,0.85]","","",""
"sailing-trial","291","2139146","0.0-11.0-256.0","","","","false","","","","","","","","","","326.99999999953434","","1037","","3","1","arrowright","1","arrowright","[0.675,0.325,0.15,0.85]","","",""
"sailing-trial","292","2147605","0.0-11.0-257.0","","","","false","","","","","","","","","","null","","4081","","3","1","null","null","arrowup","[0.675,0.325,0.15,0.85]","","",""
"sailing-trial","293","2151786","0.0-11.0-258.0","","","","false","","","","","","","","","","758","","46","","3","1","arrowright","1","arrowright","[0.675,0.325,0.15,0.85]","","",""
"sailing-trial","294","2154870","0.0-11.0-259.0","","","","false","","","","","","","","","","null","","884","","0","1","null","null","arrowup","[0.675,0.325,0.15,0.85]","","",""
"sailing-trial","295","2161963","0.0-11.0-260.0","","","","false","","","","","","","","","","880","","393","","3","1","arrowright","1","arrowright","[0.675,0.325,0.15,0.85]","","",""
"sailing-trial","296","2165077","0.0-11.0-261.0","","","","false","","","","","","","","","","null","","840","","3","1","null","null","arrowup","[0.675,0.325,0.15,0.85]","","",""
"sailing-trial","297","2169439","0.0-11.0-262.0","","","","false","","","","","","","","","","633","","228","","3","1","arrowright","1","arrowright","[0.85,0.15,0.325,0.675]","","",""
"sailing-trial","298","2172394","0.0-11.0-263.0","","","","false","","","","","","","","","","null","","833","","2","0","null","null","arrowup","[0.85,0.15,0.325,0.675]","","",""
"sailing-trial","299","2175716","0.0-11.0-264.0","","","","false","","","","","","","","","","408","","300","","3","0","arrowright","1","arrowright","[0.85,0.15,0.325,0.675]","","",""
"sailing-trial","300","2179031","0.0-11.0-265.0","","","","false","","","","","","","","","","null","","1893","","1","0","null","null","arrowup","[0.85,0.15,0.325,0.675]","","",""
"sailing-trial","301","2182092","0.0-11.0-266.0","","","","false","","","","","","","","","","649","","16","","3","0","arrowright","1","arrowright","[0.85,0.15,0.325,0.675]","","",""
"sailing-trial","302","2185179","0.0-11.0-267.0","","","","false","","","","","","","","","","null","","1509","","0","1","null","null","arrowup","[0.85,0.15,0.325,0.675]","","",""
"sailing-trial","303","2188227","0.0-11.0-268.0","","","","false","","","","","","","","","","234","","71","","0","1","arrowleft","0","arrowleft","[0.85,0.15,0.325,0.675]","","",""
"sailing-trial","304","2193175","0.0-11.0-269.0","","","","false","","","","","","","","","","null","","2846","","0","1","null","null","arrowup","[0.85,0.15,0.325,0.675]","","",""
"sailing-trial","305","2201368","0.0-11.0-270.0","","","","false","","","","","","","","","","3265","","1587","","0","1","arrowleft","0","arrowleft","[0.85,0.15,0.325,0.675]","","",""
"sailing-trial","306","2208130","0.0-11.0-271.0","","","","false","","","","","","","","","","null","","4927","","3","1","null","null","arrowup","[0.85,0.15,0.325,0.675]","","",""
"sailing-trial","307","2211927","0.0-11.0-272.0","","","","false","","","","","","","","","","657","","223","","0","1","arrowleft","0","arrowleft","[0.85,0.15,0.325,0.675]","","",""
"sailing-trial","308","2215339","0.0-11.0-273.0","","","","false","","","","","","","","","","null","","941","","2","0","null","null","arrowup","[0.85,0.15,0.325,0.675]","","",""
"sailing-trial","309","2218721","0.0-11.0-274.0","","","","false","","","","","","","","","","297","","154","","0","1","arrowleft","0","arrowleft","[0.85,0.15,0.325,0.675]","","",""
"sailing-trial","310","2222863","0.0-11.0-275.0","","","","false","","","","","","","","","","null","","2633","","0","0","null","null","arrowup","[0.85,0.15,0.325,0.675]","","",""
"sailing-trial","311","2226465","0.0-11.0-276.0","","","","false","","","","","","","","","","242","","157","","0","1","arrowleft","0","arrowleft","[0.85,0.15,0.325,0.675]","","",""
"sailing-trial","312","2229181","0.0-11.0-277.0","","","","false","","","","","","","","","","null","","1018","","2","1","null","null","arrowup","[0.85,0.15,0.325,0.675]","","",""
"sailing-trial","313","2232078","0.0-11.0-278.0","","","","false","","","","","","","","","","0","","70","","0","0","arrowleft","0","arrowleft","[0.325,0.675,0.85,0.15]","","",""
"sailing-trial","314","2235629","0.0-11.0-279.0","","","","false","","","","","","","","","","null","","2102","","3","0","null","null","arrowup","[0.325,0.675,0.85,0.15]","","",""
"sailing-trial","315","2242202","0.0-11.0-280.0","","","","false","","","","","","","","","","658","","3456","","0","0","arrowleft","0","arrowleft","[0.325,0.675,0.85,0.15]","","",""
"sailing-trial","316","2245336","0.0-11.0-281.0","","","","false","","","","","","","","","","null","","1222","","1","1","null","null","arrowup","[0.325,0.675,0.85,0.15]","","",""
"sailing-trial","317","2248817","0.0-11.0-282.0","","","","false","","","","","","","","","","439","","22.99999999953434","","1","1","arrowleft","0","arrowright","[0.325,0.675,0.85,0.15]","","",""
"sailing-trial","318","2252198","0.0-11.0-283.0","","","","false","","","","","","","","","","null","","1528","","3","0","null","null","arrowup","[0.325,0.675,0.85,0.15]","","",""
"sailing-trial","319","2261425","0.0-11.0-284.0","","","","false","","","","","","","","","","378","","82.99999999953434","","1","1","arrowleft","0","arrowright","[0.325,0.675,0.85,0.15]","","",""
"sailing-trial","320","2263711","0.0-11.0-285.0","","","","false","","","","","","","","","","null","","818","","3","0","null","null","arrowup","[0.325,0.675,0.85,0.15]","","",""
"sailing-trial","321","2267966","0.0-11.0-286.0","","","","false","","","","","","","","","","535","","121","","1","0","arrowleft","0","arrowright","[0.325,0.675,0.85,0.15]","","",""
"sailing-trial","322","2271235","0.0-11.0-287.0","","","","false","","","","","","","","","","null","","964","","2","1","null","null","arrowup","[0.325,0.675,0.85,0.15]","","",""
"sailing-trial","323","2274148","0.0-11.0-288.0","","","","false","","","","","","","","","","379","","191","","2","0","arrowright","1","arrowleft","[0.325,0.675,0.85,0.15]","","",""
"sailing-trial","324","2278247","0.0-11.0-289.0","","","","false","","","","","","","","","","null","","1036","","3","0","null","null","arrowup","[0.325,0.675,0.85,0.15]","","",""
"sailing-trial","325","2282535","0.0-11.0-290.0","","","","false","","","","","","","","","","587","","161","","0","0","arrowleft","0","arrowleft","[0.325,0.675,0.85,0.15]","","",""
"sailing-trial","326","2284964","0.0-11.0-291.0","","","","false","","","","","","","","","","null","","902","","1","0","null","null","arrowup","[0.325,0.675,0.85,0.15]","","",""
"sailing-trial","327","2289163","0.0-11.0-292.0","","","","false","","","","","","","","","","585.9999999995343","","704","","3","0","arrowright","1","arrowright","[0.325,0.675,0.85,0.15]","","",""
"sailing-trial","328","2294250","0.0-11.0-293.0","","","","false","","","","","","","","","","null","","948","","1","1","null","null","arrowup","[0.325,0.675,0.85,0.15]","","",""
"sailing-trial","329","2298033","0.0-11.0-294.0","","","","false","","","","","","","","","","437","","211","","1","1","arrowleft","0","arrowright","[0.325,0.675,0.85,0.15]","","",""
"sailing-trial","330","2300914","0.0-11.0-295.0","","","","false","","","","","","","","","","null","","998","","3","0","null","null","arrowup","[0.325,0.675,0.85,0.15]","","",""
"sailing-trial","331","2304576","0.0-11.0-296.0","","","","false","","","","","","","","","","352.99999999953434","","206","","1","1","arrowleft","0","arrowright","[0.15,0.85,0.675,0.325]","","",""
"sailing-trial","332","2308404","0.0-11.0-297.0","","","","false","","","","","","","","","","null","","1171","","3","0","null","null","arrowup","[0.15,0.85,0.675,0.325]","","",""
"sailing-trial","333","2312604","0.0-11.0-298.0","","","","false","","","","","","","","","","408","","414.99999999953434","","1","1","arrowleft","0","arrowright","[0.15,0.85,0.675,0.325]","","",""
"sailing-trial","334","2315453","0.0-11.0-299.0","","","","false","","","","","","","","","","null","","918","","1","1","null","null","arrowup","[0.15,0.85,0.675,0.325]","","",""
"sailing-trial","335","2318967","0.0-11.0-300.0","","","","false","","","","","","","","","","241","","229","","1","1","arrowleft","0","arrowright","[0.15,0.85,0.675,0.325]","","",""
"sailing-trial","336","2322916","0.0-11.0-301.0","","","","false","","","","","","","","","","null","","1418","","0","0","null","null","arrowup","[0.15,0.85,0.675,0.325]","","",""
"sailing-trial","337","2328343","0.0-11.0-302.0","","","","false","","","","","","","","","","2238.0000000004657","","230","","1","1","arrowleft","0","arrowright","[0.15,0.85,0.675,0.325]","","",""
"sailing-trial","338","2335337","0.0-11.0-303.0","","","","false","","","","","","","","","","null","","4663","","2","1","null","null","arrowup","[0.15,0.85,0.675,0.325]","","",""
"sailing-trial","339","2339753","0.0-11.0-304.0","","","","false","","","","","","","","","","820.9999999995343","","11","","1","1","arrowleft","0","arrowright","[0.15,0.85,0.675,0.325]","","",""
"sailing-trial","340","2342388","0.0-11.0-305.0","","","","false","","","","","","","","","","null","","1182","","3","0","null","null","arrowup","[0.15,0.85,0.675,0.325]","","",""
"sailing-trial","341","2345653","0.0-11.0-306.0","","","","false","","","","","","","","","","334","","101","","0","0","arrowleft","0","arrowleft","[0.15,0.85,0.675,0.325]","","",""
"sailing-trial","342","2348080","0.0-11.0-307.0","","","","false","","","","","","","","","","null","","721","","1","1","null","null","arrowup","[0.15,0.85,0.675,0.325]","","",""
"sailing-trial","343","2352277","0.0-11.0-308.0","","","","false","","","","","","","","","","461","","7","","2","1","arrowright","1","arrowleft","[0.15,0.85,0.675,0.325]","","",""
"sailing-trial","344","2358440","0.0-11.0-309.0","","","","false","","","","","","","","","","null","","4475.999999999534","","3","1","null","null","arrowup","[0.15,0.85,0.675,0.325]","","",""
"sailing-trial","345","2363718","0.0-11.0-310.0","","","","false","","","","","","","","","","592","","435","","2","1","arrowright","1","arrowleft","[0.15,0.85,0.675,0.325]","","",""
"sailing-trial","346","2366585","0.0-11.0-311.0","","","","false","","","","","","","","","","null","","1459","","3","0","null","null","arrowup","[0.15,0.85,0.675,0.325]","","",""
"sailing-trial","347","2371646","0.0-11.0-312.0","","","","false","","","","","","","","","","710.9999999995343","","218","","1","1","arrowleft","0","arrowright","[0.15,0.85,0.675,0.325]","","",""
"sailing-trial","348","2376059","0.0-11.0-313.0","","","","false","","","","","","","","","","null","","1227","","1","1","null","null","arrowup","[0.15,0.85,0.675,0.325]","","",""
"sailing-trial","349","2380040","0.0-11.0-314.0","","","","false","","","","","","","","","","621","","97","","1","1","arrowleft","0","arrowright","[0.15,0.85,0.675,0.325]","","",""
"sailing-trial","350","2383021","0.0-11.0-315.0","","","","false","","","","","","","","","","null","","1037","","3","1","null","null","arrowup","[0.15,0.85,0.675,0.325]","","",""
"sailing-trial","351","2390432","0.0-11.0-316.0","","","","false","","","","","","","","","","3745","","1205","","1","0","arrowleft","0","arrowright","[0.325,0.675,0.85,0.15]","","",""
"sailing-trial","352","2394863","0.0-11.0-317.0","","","","false","","","","","","","","","","null","","2256","","1","1","null","null","arrowup","[0.325,0.675,0.85,0.15]","","",""
"sailing-trial","353","2398378","0.0-11.0-318.0","","","","false","","","","","","","","","","514","","150.99999999953434","","2","1","arrowright","1","arrowleft","[0.325,0.675,0.85,0.15]","","",""
"sailing-trial","354","2403742","0.0-11.0-319.0","","","","false","","","","","","","","","","null","","2302.0000000004657","","3","0","null","null","arrowup","[0.325,0.675,0.85,0.15]","","",""
"sailing-trial","355","2411468","0.0-11.0-320.0","","","","false","","","","","","","","","","122","","4601.000000000466","","0","1","arrowleft","0","arrowleft","[0.325,0.675,0.85,0.15]","","",""
"sailing-trial","356","2414499","0.0-11.0-321.0","","","","false","","","","","","","","","","null","","1033","","2","1","null","null","arrowup","[0.325,0.675,0.85,0.15]","","",""
"sailing-trial","357","2418679","0.0-11.0-322.0","","","","false","","","","","","","","","","1059","","123","","1","1","arrowleft","0","arrowright","[0.325,0.675,0.85,0.15]","","",""
"sailing-trial","358","2420813","0.0-11.0-323.0","","","","false","","","","","","","","","","null","","1000.9999999995343","","3","0","null","null","arrowup","[0.325,0.675,0.85,0.15]","","",""
"sailing-trial","359","2424274","0.0-11.0-324.0","","","","false","","","","","","","","","","588","","36","","1","1","arrowleft","0","arrowright","[0.325,0.675,0.85,0.15]","","",""
"sailing-trial","360","2434774","0.0-11.0-325.0","","","","false","","","","","","","","","","null","","9239","","0","0","null","null","arrowup","[0.325,0.675,0.85,0.15]","","",""
"sailing-trial","361","2438350","0.0-11.0-326.0","","","","false","","","","","","","","","","683","","536.0000000004657","","3","0","arrowright","1","arrowright","[0.325,0.675,0.85,0.15]","","",""
"sailing-trial","362","2441247","0.0-11.0-327.0","","","","false","","","","","","","","","","null","","1226","","0","0","null","null","arrowup","[0.325,0.675,0.85,0.15]","","",""
"sailing-trial","363","2444926","0.0-11.0-328.0","","","","false","","","","","","","","","","343.00000000046566","","70.99999999953434","","1","1","arrowleft","0","arrowright","[0.325,0.675,0.85,0.15]","","",""
"sailing-trial","364","2447390","0.0-11.0-329.0","","","","false","","","","","","","","","","null","","1076","","1","0","null","null","arrowup","[0.325,0.675,0.85,0.15]","","",""
"sailing-trial","365","2451123","0.0-11.0-330.0","","","","false","","","","","","","","","","492","","131","","1","1","arrowleft","0","arrowright","[0.325,0.675,0.85,0.15]","","",""
"sailing-trial","366","2454486","0.0-11.0-331.0","","","","false","","","","","","","","","","null","","997","","1","1","null","null","arrowup","[0.325,0.675,0.85,0.15]","","",""
"sailing-trial","367","2457533","0.0-11.0-332.0","","","","false","","","","","","","","","","459","","231","","1","0","arrowleft","0","arrowright","[0.85,0.15,0.325,0.675]","","",""
"sailing-trial","368","2460197","0.0-11.0-333.0","","","","false","","","","","","","","","","null","","1255","","2","0","null","null","arrowup","[0.85,0.15,0.325,0.675]","","",""
"sailing-trial","369","2463907","0.0-11.0-334.0","","","","false","","","","","","","","","","486.00000000046566","","816","","3","0","arrowright","1","arrowright","[0.85,0.15,0.325,0.675]","","",""
"sailing-trial","370","2473057","0.0-11.0-335.0","","","","false","","","","","","","","","","null","","7459","","2","1","null","null","arrowup","[0.85,0.15,0.325,0.675]","","",""
"sailing-trial","371","2490584","0.0-11.0-336.0","","","","true","","","","","","","","","","1077","","244","","3","1","arrowright","1","arrowright","[0.85,0.15,0.325,0.675]","","",""
"sailing-trial","372","2496683","0.0-11.0-337.0","","","","false","","","","","","","","","","null","","3994","","1","0","null","null","arrowup","[0.85,0.15,0.325,0.675]","","",""
"sailing-trial","373","2500086","0.0-11.0-338.0","","","","false","","","","","","","","","","448","","57","","1","0","arrowleft","0","arrowright","[0.85,0.15,0.325,0.675]","","",""
"sailing-trial","374","2502621","0.0-11.0-339.0","","","","false","","","","","","","","","","null","","679.9999999995343","","3","0","null","null","arrowup","[0.85,0.15,0.325,0.675]","","",""
"sailing-trial","375","2508599","0.0-11.0-340.0","","","","false","","","","","","","","","","815.9999999995343","","180","","0","1","arrowleft","0","arrowleft","[0.85,0.15,0.325,0.675]","","",""
"sailing-trial","376","2511479","0.0-11.0-341.0","","","","false","","","","","","","","","","null","","1054","","0","1","null","null","arrowup","[0.85,0.15,0.325,0.675]","","",""
"sailing-trial","377","2514327","0.0-11.0-342.0","","","","false","","","","","","","","","","271","","242","","0","0","arrowleft","0","arrowleft","[0.85,0.15,0.325,0.675]","","",""
"sailing-trial","378","2516992","0.0-11.0-343.0","","","","false","","","","","","","","","","null","","1020","","0","1","null","null","arrowup","[0.85,0.15,0.325,0.675]","","",""
"sailing-trial","379","2520790","0.0-11.0-344.0","","","","false","","","","","","","","","","424","","128","","0","1","arrowleft","0","arrowleft","[0.85,0.15,0.325,0.675]","","",""
"sailing-trial","380","2525253","0.0-11.0-345.0","","","","false","","","","","","","","","","null","","1029","","3","1","null","null","arrowup","[0.85,0.15,0.325,0.675]","","",""
"sailing-trial","381","2530134","0.0-11.0-346.0","","","","false","","","","","","","","","","160","","296","","0","1","arrowleft","0","arrowleft","[0.85,0.15,0.325,0.675]","","",""
"sailing-trial","382","2539325","0.0-11.0-347.0","","","","false","","","","","","","","","","null","","5358","","3","1","null","null","arrowup","[0.85,0.15,0.325,0.675]","","",""
"sailing-trial","383","2544409","0.0-11.0-348.0","","","","false","","","","","","","","","","1830","","441","","0","0","arrowleft","0","arrowleft","[0.15,0.85,0.675,0.325]","","",""
"sailing-trial","384","2551484","0.0-11.0-349.0","","","","false","","","","","","","","","","null","","3991","","2","1","null","null","arrowup","[0.15,0.85,0.675,0.325]","","",""
"sailing-trial","385","2558310","0.0-11.0-350.0","","","","false","","","","","","","","","","3086","","494","","0","0","arrowleft","0","arrowleft","[0.15,0.85,0.675,0.325]","","",""
"sailing-trial","386","2561394","0.0-11.0-351.0","","","","false","","","","","","","","","","null","","1242","","2","1","null","null","arrowup","[0.15,0.85,0.675,0.325]","","",""
"sailing-trial","387","2564510","0.0-11.0-352.0","","","","false","","","","","","","","","","321.00000000046566","","351","","0","0","arrowleft","0","arrowleft","[0.15,0.85,0.675,0.325]","","",""
"sailing-trial","388","2567573","0.0-11.0-353.0","","","","false","","","","","","","","","","null","","1248","","0","1","null","null","arrowup","[0.15,0.85,0.675,0.325]","","",""
"sailing-trial","389","2575253","0.0-11.0-354.0","","","","false","","","","","","","","","","2098.0000000004657","","1318.0000000004657","","0","0","arrowleft","0","arrowleft","[0.15,0.85,0.675,0.325]","","",""
"sailing-trial","390","2578749","0.0-11.0-355.0","","","","false","","","","","","","","","","null","","1839.0000000004657","","1","1","null","null","arrowup","[0.15,0.85,0.675,0.325]","","",""
"sailing-trial","391","2582795","0.0-11.0-356.0","","","","false","","","","","","","","","","1059","","111","","3","1","arrowright","1","arrowright","[0.15,0.85,0.675,0.325]","","",""
"sailing-trial","392","2586392","0.0-11.0-357.0","","","","false","","","","","","","","","","null","","1005.9999999995343","","2","1","null","null","arrowup","[0.15,0.85,0.675,0.325]","","",""
"sailing-trial","393","2601416","0.0-11.0-358.0","","","","true","","","","","","","","","","null","","null","","null","null","null","null","null","[0.15,0.85,0.675,0.325]","","",""
"sailing-trial","394","2604414","0.0-11.0-359.0","","","","false","","","","","","","","","","null","","1243.0000000004657","","1","1","null","null","arrowup","[0.15,0.85,0.675,0.325]","","",""
"sailing-trial","395","2609011","0.0-11.0-360.0","","","","false","","","","","","","","","","1148.9999999995343","","278","","3","0","arrowright","1","arrowright","[0.15,0.85,0.675,0.325]","","",""
"sailing-trial","396","2612786","0.0-11.0-361.0","","","","false","","","","","","","","","","null","","1959","","3","0","null","null","arrowup","[0.15,0.85,0.675,0.325]","","",""
"sailing-trial","397","2617651","0.0-11.0-362.0","","","","false","","","","","","","","","","1911","","207","","0","0","arrowleft","0","arrowleft","[0.15,0.85,0.675,0.325]","","",""
"sailing-trial","398","2620358","0.0-11.0-363.0","","","","false","","","","","","","","","","null","","958","","1","0","null","null","arrowup","[0.15,0.85,0.675,0.325]","","",""
"sailing-trial","399","2624538","0.0-11.0-364.0","","","","false","","","","","","","","","","1042","","116","","2","0","arrowright","1","arrowleft","[0.15,0.85,0.675,0.325]","","",""
"sailing-trial","400","2627569","0.0-11.0-365.0","","","","false","","","","","","","","","","null","","1426","","0","0","null","null","arrowup","[0.15,0.85,0.675,0.325]","","",""
"sailing-trial","401","2632810","0.0-11.0-366.0","","","","false","","","","","","","","","","6","","2800","","1","0","arrowleft","0","arrowright","[0.325,0.675,0.85,0.15]","","",""
"sailing-trial","402","2635941","0.0-11.0-367.0","","","","false","","","","","","","","","","null","","1358","","2","1","null","null","arrowup","[0.325,0.675,0.85,0.15]","","",""
"sailing-trial","403","2640992","0.0-11.0-368.0","","","","false","","","","","","","","","","904","","357","","2","0","arrowright","1","arrowleft","[0.325,0.675,0.85,0.15]","","",""
"sailing-trial","404","2643157","0.0-11.0-369.0","","","","false","","","","","","","","","","null","","1027","","1","0","null","null","arrowup","[0.325,0.675,0.85,0.15]","","",""
"sailing-trial","405","2646153","0.0-11.0-370.0","","","","false","","","","","","","","","","557","","137","","3","0","arrowright","1","arrowright","[0.325,0.675,0.85,0.15]","","",""
"sailing-trial","406","2648831","0.0-11.0-371.0","","","","false","","","","","","","","","","null","","992","","2","1","null","null","arrowup","[0.325,0.675,0.85,0.15]","","",""
"sailing-trial","407","2656078","0.0-11.0-372.0","","","","false","","","","","","","","","","305.00000000046566","","626","","0","1","arrowleft","0","arrowleft","[0.325,0.675,0.85,0.15]","","",""
"sailing-trial","408","2659440","0.0-11.0-373.0","","","","false","","","","","","","","","","null","","912","","2","1","null","null","arrowup","[0.325,0.675,0.85,0.15]","","",""
"sailing-trial","409","2663382","0.0-11.0-374.0","","","","false","","","","","","","","","","786","","627.9999999995343","","1","0","arrowleft","0","arrowright","[0.325,0.675,0.85,0.15]","","",""
"sailing-trial","410","2665562","0.0-11.0-375.0","","","","false","","","","","","","","","","null","","913","","3","0","null","null","arrowup","[0.325,0.675,0.85,0.15]","","",""
"sailing-trial","411","2669283","0.0-11.0-376.0","","","","false","","","","","","","","","","520","","190.99999999953434","","2","1","arrowright","1","arrowleft","[0.325,0.675,0.85,0.15]","","",""
"sailing-trial","412","2671948","0.0-11.0-377.0","","","","false","","","","","","","","","","null","","833","","2","1","null","null","arrowup","[0.325,0.675,0.85,0.15]","","",""
"sailing-trial","413","2676361","0.0-11.0-378.0","","","","false","","","","","","","","","","614","","570","","1","1","arrowleft","0","arrowright","[0.325,0.675,0.85,0.15]","","",""
"sailing-trial","414","2679243","0.0-11.0-379.0","","","","false","","","","","","","","","","null","","1118","","3","1","null","null","arrowup","[0.325,0.675,0.85,0.15]","","",""
"sailing-trial","415","2686837","0.0-11.0-380.0","","","","false","","","","","","","","","","4336","","221","","2","1","arrowright","1","arrowleft","[0.325,0.675,0.85,0.15]","","",""
"sailing-trial","416","2689335","0.0-11.0-381.0","","","","false","","","","","","","","","","null","","770","","2","1","null","null","arrowup","[0.325,0.675,0.85,0.15]","","",""
"sailing-trial","417","2692951","0.0-11.0-382.0","","","","false","","","","","","","","","","373.99999999953434","","76","","2","1","arrowright","1","arrowleft","[0.675,0.325,0.15,0.85]","","",""
"sailing-trial","418","2695134","0.0-11.0-383.0","","","","false","","","","","","","","","","null","","973.9999999995343","","1","0","null","null","arrowup","[0.675,0.325,0.15,0.85]","","",""
"sailing-trial","419","2699443","0.0-11.0-384.0","","","","false","","","","","","","","","","599","","1327","","2","0","arrowright","1","arrowleft","[0.675,0.325,0.15,0.85]","","",""
"sailing-trial","420","2702058","0.0-11.0-385.0","","","","false","","","","","","","","","","null","","1077.9999999995343","","2","0","null","null","arrowup","[0.675,0.325,0.15,0.85]","","",""
"sailing-trial","421","2705178","0.0-11.0-386.0","","","","false","","","","","","","","","","756","","44","","3","0","arrowright","1","arrowright","[0.675,0.325,0.15,0.85]","","",""
"sailing-trial","422","2709041","0.0-11.0-387.0","","","","false","","","","","","","","","","null","","816","","1","0","null","null","arrowup","[0.675,0.325,0.15,0.85]","","",""
"sailing-trial","423","2713813","0.0-11.0-388.0","","","","false","","","","","","","","","","1875","","31","","1","0","arrowleft","0","arrowright","[0.675,0.325,0.15,0.85]","","",""
"sailing-trial","424","2716203","0.0-11.0-389.0","","","","false","","","","","","","","","","null","","1109","","2","0","null","null","arrowup","[0.675,0.325,0.15,0.85]","","",""
"sailing-trial","425","2719848","0.0-11.0-390.0","","","","false","","","","","","","","","","350","","488","","3","1","arrowright","1","arrowright","[0.675,0.325,0.15,0.85]","","",""
"sailing-trial","426","2722480","0.0-11.0-391.0","","","","false","","","","","","","","","","null","","812","","0","1","null","null","arrowup","[0.675,0.325,0.15,0.85]","","",""
"sailing-trial","427","2726691","0.0-11.0-392.0","","","","false","","","","","","","","","","339.99999999953434","","986","","3","1","arrowright","1","arrowright","[0.675,0.325,0.15,0.85]","","",""
"sailing-trial","428","2730691","0.0-11.0-393.0","","","","false","","","","","","","","","","null","","944.9999999995343","","2","0","null","null","arrowup","[0.675,0.325,0.15,0.85]","","",""
"sailing-trial","429","2737732","0.0-11.0-394.0","","","","false","","","","","","","","","","4268","","284.00000000046566","","2","0","arrowright","1","arrowleft","[0.675,0.325,0.15,0.85]","","",""
"sailing-trial","430","2740116","0.0-11.0-395.0","","","","false","","","","","","","","","","null","","1215","","2","0","null","null","arrowup","[0.675,0.325,0.15,0.85]","","",""
"sailing-trial","431","2743547","0.0-11.0-396.0","","","","false","","","","","","","","","","452","","29","","3","1","arrowright","1","arrowright","[0.675,0.325,0.15,0.85]","","",""
"sailing-trial","432","2746113","0.0-11.0-397.0","","","","false","","","","","","","","","","null","","783","","0","1","null","null","arrowup","[0.675,0.325,0.15,0.85]","","",""
"sailing-trial","433","2749227","0.0-11.0-398.0","","","","false","","","","","","","","","","94","","173","","3","1","arrowright","1","arrowright","[0.675,0.325,0.15,0.85]","","",""
"sailing-trial","434","2752331","0.0-11.0-399.0","","","","false","","","","","","","","","","null","","884","","1","0","null","null","arrowup","[0.675,0.325,0.15,0.85]","","",""
"instructions","435","2756295","0.0-12.0","","","","","","","","","","3964.0000000004657","","","","","","","","","","","","","","","","[{""page_index"":0,""viewing_time"":3964.0000000004657}]"
"survey-debrief","436","2870154","0.0-13.0","","","","","","","","","","113863","","","","","","","","","","","","","","{""difficulty"":""4"",""fun"":""3"",""clarity"":""5"",""strategy"":""I used the fog making me only able to choice one shop to determine the likelihood of shops having gold"",""feedback"":""Thank, you""}","",""
