"trial_type","trial_index","time_elapsed","internal_node_id","value","metadata","success","timeout","failed_images","failed_audio","failed_video","browser_interaction","low_quality","rt","stimulus","response","button_pressed","island_rt","island_response","boat_rt","boat_response","boat","reward","island_key","island","boat_key","reward_probabilities","responses","num_errors","view_history"
"pavlovia","0","5","0.0-0.0","","","","","","","","","","","","","","","","","","","","","","","","","",""
"call-function","1","6","0.0-1.0","","{""task_version"":""sailing_part1_v1"",""task_condition"":""good"",""boats"":[""A"",""B"",""D"",""C""],""boats_demo"":[""E"",""H"",""G"",""F""],""islands"":[""B"",""A""],""subject_id"":""13890"",""age"":""14"",""gender"":""Female""}","","","","","","","","","","","","","","","","","","","","","","","",""
"preload","2","4176","0.0-2.0","","","true","false","[]","[]","[]","[{""event"":""fullscreenenter"",""trial"":3,""time"":7877}]","false","","","","","","","","","","","","","","","","",""
"fullscreen","3","8819","0.0-3.0","","","true","","","","","","","","","","","","","","","","","","","","","","",""
"audio-keyboard-response","4","11502","0.0-4.0-0.0","","","","","","","","","","2679.9999999999995","audio/beep_loop.wav"," ","","","","","","","","","","","","","",""
"audio-test","5","13801","0.0-4.0-1.0","","","","","","","","","","null","audio/turtle.mp3","","3","","","","","","","","","","","","",""
"audio-test","6","16248","0.0-4.0-2.0","","","","","","","","","","null","audio/shark.mp3","","2","","","","","","","","","","","","",""
"sailing-instructions","7","58210","0.0-5.0-0.0-0.0","","","","","","","","","","","","","","null","null","null","null","null","null","","","","","","",""
"sailing-trial","8","61690","0.0-5.0-0.0-1.0-0.0","","","","false","","","","","","","","","","2350.1999999284744","","null","","null","null","arrowleft","0","null","null","","",""
"sailing-trial","9","63956","0.0-5.0-0.0-1.0-1.0","","","","false","","","","","","","","","","1137.1000000238419","","null","","null","null","arrowright","1","null","null","","",""
"sailing-trial","10","66739","0.0-5.0-0.0-1.0-2.0","","","","false","","","","","","","","","","1663.5","","null","","null","null","arrowright","1","null","null","","",""
"sailing-instructions","11","124916","0.0-5.0-0.0-2.0","","","","","","","","","","","","","","null","null","null","null","0","null","","","","","","",""
"sailing-trial","12","133425","0.0-5.0-0.0-3.0-0.0","","","","false","","","","","","","","","","null","","3862","","2","1","null","null","arrowleft","[1,1,1,1]","","",""
"sailing-trial","13","137572","0.0-5.0-0.0-3.0-1.0","","","","false","","","","","","","","","","null","","1345.2999999523163","","3","1","null","null","arrowright","[1,1,1,1]","","",""
"sailing-trial","14","142604","0.0-5.0-0.0-3.0-2.0","","","","false","","","","","","","","","","null","","2085.1999999284744","","3","0","null","null","arrowright","[0,0,0,0]","","",""
"sailing-instructions","15","149802","0.0-5.0-0.0-4.0","","","","","","","","","","","","","","null","null","null","null","null","null","","","","","","",""
"sailing-comprehension","16","189945","0.0-5.0-0.0-5.0","","","","","","","","","","35394.60000002384","","","","","","","","","","","","","","[""true"",""false"",""false"",""true""]","1",""
"sailing-instructions","17","219616","0.0-5.0-0.1-0.1","","","","","","","","","","","","","","null","null","null","null","null","null","","","","","","",""
"sailing-trial","18","224318","0.0-5.0-0.1-1.1-0.1","","","","false","","","","","","","","","","3581.100000023842","","null","","null","null","arrowleft","0","null","null","","",""
"sailing-trial","19","226202","0.0-5.0-0.1-1.1-1.1","","","","false","","","","","","","","","","770.7000000476837","","null","","null","null","arrowright","1","null","null","","",""
"sailing-trial","20","229199","0.0-5.0-0.1-1.1-2.1","","","","false","","","","","","","","","","1882.0999999046326","","null","","null","null","arrowleft","0","null","null","","",""
"sailing-instructions","21","269174","0.0-5.0-0.1-2.1","","","","","","","","","","","","","","null","null","null","null","0","null","","","","","","",""
"sailing-trial","22","274475","0.0-5.0-0.1-3.1-0.1","","","","false","","","","","","","","","","null","","2099.2000000476837","","2","1","null","null","arrowleft","[1,1,1,1]","","",""
"sailing-trial","23","276942","0.0-5.0-0.1-3.1-1.1","","","","false","","","","","","","","","","null","","205.70000004768372","","3","1","null","null","arrowright","[1,1,1,1]","","",""
"sailing-trial","24","280189","0.0-5.0-0.1-3.1-2.1","","","","false","","","","","","","","","","null","","470.39999997615814","","2","0","null","null","arrowleft","[0,0,0,0]","","",""
"sailing-instructions","25","291338","0.0-5.0-0.1-4.1","","","","","","","","","","","","","","null","null","null","null","null","null","","","","","","",""
"sailing-comprehension","26","333775","0.0-5.0-0.1-5.1","","","","","","","","","","32810.200000047684","","","","","","","","","","","","","","[""true"",""true"",""false"",""true""]","0",""
"sailing-instructions","27","416120","0.0-6.0-0.0-0.0","","","","","","","","[{""event"":""fullscreenenter"",""trial"":3,""time"":7877},{""event"":""blur"",""trial"":28,""time"":428641},{""event"":""focus"",""trial"":28,""time"":428941}]","false","","","","","null","null","null","null","null","null","","","","","","",""
"sailing-comprehension","28","445670","0.0-6.0-0.0-1.0","","","","","","","","","","26862","","","","","","","","","","","","","","[""true"",""false"",""true""]","0",""
"sailing-instructions","29","460105","0.0-7.0-0.0-0.0","","","","","","","","","","","","","","null","null","null","null","null","null","","","","","","",""
"sailing-trial","30","466143","0.0-7.0-0.0-1.0-0.0","","","","false","","","","","","","","","","null","","3007.600000023842","","0","0","null","null","arrowup","[0.2,0.8,0.2,0.8]","","",""
"sailing-trial","31","470093","0.0-7.0-0.0-1.0-1.0","","","","false","","","","","","","","","","null","","1841.8999999761581","","1","1","null","null","arrowup","[0.2,0.8,0.2,0.8]","","",""
"sailing-trial","32","473956","0.0-7.0-0.0-1.0-2.0","","","","false","","","","","","","","","","null","","1494.2999999523163","","2","0","null","null","arrowup","[0.2,0.8,0.2,0.8]","","",""
"sailing-trial","33","476908","0.0-7.0-0.0-1.0-3.0","","","","false","","","","","","","","","","null","","1194.7000000476837","","3","1","null","null","arrowup","[0.2,0.8,0.2,0.8]","","",""
"sailing-comprehension","34","490223","0.0-7.0-0.0-2.0","","","","","","","","","","10757.5","","","","","","","","","","","","","","[""false""]","0",""
"sailing-instructions","35","501703","0.0-8.0-0.0-0.0","","","","","","","","","","","","","","null","null","null","null","null","null","","","","","","",""
"sailing-comprehension","36","508287","0.0-8.0-0.0-1.0","","","","","","","","","","4878","","","","","","","","","","","","","","[""true""]","0",""
"sailing-instructions","37","534968","0.0-9.0-0.0-0.0","","","","","","","","","","","","","","null","null","null","null","null","null","","","","","","",""
"sailing-trial","38","541445","0.0-9.0-0.0-1.0-0.0","","","","false","","","","","","","","","","1354.6999999284744","","1179.1999999284744","","1","1","arrowleft","0","arrowright","[0.2,0.8,0.2,0.8]","","",""
"sailing-trial","39","545458","0.0-9.0-0.0-1.0-1.0","","","","false","","","","","","","","","","845.7999999523163","","97.5","","2","1","arrowright","1","arrowleft","[0.2,0.8,0.2,0.8]","","",""
"sailing-trial","40","548407","0.0-9.0-0.0-1.0-2.0","","","","false","","","","","","","","","","null","","866.6000000238419","","0","0","null","null","arrowup","[0.2,0.8,0.2,0.8]","","",""
"sailing-trial","41","553806","0.0-9.0-0.0-1.0-3.0","","","","false","","","","","","","","","","1089.6000000238419","","1099.8999999761581","","3","1","arrowright","1","arrowright","[0.2,0.8,0.2,0.8]","","",""
"sailing-trial","42","557156","0.0-9.0-0.0-1.0-4.0","","","","false","","","","","","","","","","null","","1391.5999999046326","","3","1","null","null","arrowup","[0.2,0.8,0.2,0.8]","","",""
"sailing-trial","43","561604","0.0-9.0-0.0-1.0-5.0","","","","false","","","","","","","","","","575.1000000238419","","858.3000000715256","","1","0","arrowleft","0","arrowright","[0.2,0.8,0.2,0.8]","","",""
"sailing-instructions","44","586263","0.0-10.0","","","","","","","","","","","","","","null","null","null","null","null","null","","","","","","",""
"sailing-trial","45","591200","0.0-11.0-0.0","","","","false","","","","","","","","","","1485.1999999284744","","361.3000000715256","","3","1","arrowright","1","arrowright","[0.675,0.325,0.85,0.15]","","",""
"sailing-trial","46","593982","0.0-11.0-1.0","","","","false","","","","","","","","","","null","","925.3999999761581","","2","1","null","null","arrowup","[0.675,0.325,0.85,0.15]","","",""
"sailing-trial","47","598030","0.0-11.0-2.0","","","","false","","","","","","","","","","614.5","","393.5","","0","1","arrowleft","0","arrowleft","[0.675,0.325,0.85,0.15]","","",""
"sailing-trial","48","601561","0.0-11.0-3.0","","","","false","","","","","","","","","","null","","1097.1999999284744","","3","0","null","null","arrowup","[0.675,0.325,0.85,0.15]","","",""
"sailing-trial","49","606744","0.0-11.0-4.0","","","","false","","","","","","","","","","590.2999999523163","","575.8999999761581","","3","0","arrowright","1","arrowright","[0.675,0.325,0.85,0.15]","","",""
"sailing-trial","50","611008","0.0-11.0-5.0","","","","false","","","","","","","","","","null","","1221.1999999284744","","3","0","null","null","arrowup","[0.675,0.325,0.85,0.15]","","",""
"sailing-trial","51","616123","0.0-11.0-6.0","","","","false","","","","","","","","","","512.6000000238419","","452.10000002384186","","1","0","arrowleft","0","arrowright","[0.675,0.325,0.85,0.15]","","",""
"sailing-trial","52","620057","0.0-11.0-7.0","","","","false","","","","","","","","","","null","","906.7000000476837","","0","0","null","null","arrowup","[0.675,0.325,0.85,0.15]","","",""
"sailing-trial","53","624575","0.0-11.0-8.0","","","","false","","","","","","","","","","1161.5","","125.29999995231628","","2","1","arrowright","1","arrowleft","[0.675,0.325,0.85,0.15]","","",""
"sailing-trial","54","627722","0.0-11.0-9.0","","","","false","","","","","","","","","","null","","979.6000000238419","","1","0","null","null","arrowup","[0.675,0.325,0.85,0.15]","","",""
"sailing-trial","55","631589","0.0-11.0-10.0","","","","false","","","","","","","","","","573.8999999761581","","409.10000002384186","","0","1","arrowleft","0","arrowleft","[0.675,0.325,0.85,0.15]","","",""
"sailing-trial","56","634270","0.0-11.0-11.0","","","","false","","","","","","","","","","null","","983.1000000238419","","3","0","null","null","arrowup","[0.675,0.325,0.85,0.15]","","",""
"sailing-trial","57","638342","0.0-11.0-12.0","","","","false","","","","","","","","","","663.8999999761581","","49.39999997615814","","2","1","arrowright","1","arrowleft","[0.675,0.325,0.85,0.15]","","",""
"sailing-trial","58","640914","0.0-11.0-13.0","","","","false","","","","","","","","","","null","","1024","","3","0","null","null","arrowup","[0.675,0.325,0.85,0.15]","","",""
"sailing-trial","59","644968","0.0-11.0-14.0","","","","false","","","","","","","","","","496.40000009536743","","530.6000000238419","","0","0","arrowleft","0","arrowleft","[0.675,0.325,0.85,0.15]","","",""
"sailing-trial","60","648002","0.0-11.0-15.0","","","","false","","","","","","","","","","null","","1045.2000000476837","","1","1","null","null","arrowup","[0.675,0.325,0.85,0.15]","","",""
"sailing-trial","61","651366","0.0-11.0-16.0","","","","false","","","","","","","","","","531.6000000238419","","352.89999997615814","","1","0","arrowleft","0","arrowright","[0.675,0.325,0.85,0.15]","","",""
"sailing-trial","62","654352","0.0-11.0-17.0","","","","false","","","","","","","","","","null","","1058.7000000476837","","1","1","null","null","arrowup","[0.675,0.325,0.85,0.15]","","",""
"sailing-trial","63","657015","0.0-11.0-18.0","","","","false","","","","","","","","","","587.0999999046326","","27.399999976158142","","3","0","arrowright","1","arrowright","[0.675,0.325,0.85,0.15]","","",""
"sailing-trial","64","659917","0.0-11.0-19.0","","","","false","","","","","","","","","","null","","942.8999999761581","","0","1","null","null","arrowup","[0.675,0.325,0.85,0.15]","","",""
"sailing-trial","65","663931","0.0-11.0-20.0","","","","false","","","","","","","","","","900.1000000238419","","446.1999999284744","","1","0","arrowleft","0","arrowright","[0.85,0.15,0.675,0.325]","","",""
"sailing-trial","66","667597","0.0-11.0-21.0","","","","false","","","","","","","","","","null","","1783.8000000715256","","0","1","null","null","arrowup","[0.85,0.15,0.675,0.325]","","",""
"sailing-trial","67","671659","0.0-11.0-22.0","","","","false","","","","","","","","","","636.7000000476837","","310.2999999523163","","2","0","arrowright","1","arrowleft","[0.85,0.15,0.675,0.325]","","",""
"sailing-trial","68","674049","0.0-11.0-23.0","","","","false","","","","","","","","","","null","","962.7999999523163","","0","0","null","null","arrowup","[0.85,0.15,0.675,0.325]","","",""
"sailing-trial","69","679457","0.0-11.0-24.0","","","","false","","","","","","","","","","1507.1999999284744","","907","","2","1","arrowright","1","arrowleft","[0.85,0.15,0.675,0.325]","","",""
"sailing-trial","70","682497","0.0-11.0-25.0","","","","false","","","","","","","","","","null","","1198.1999999284744","","3","1","null","null","arrowup","[0.85,0.15,0.675,0.325]","","",""
"sailing-trial","71","685946","0.0-11.0-26.0","","","","false","","","","","","","","","","562.5999999046326","","373.10000002384186","","3","0","arrowright","1","arrowright","[0.85,0.15,0.675,0.325]","","",""
"sailing-trial","72","688675","0.0-11.0-27.0","","","","false","","","","","","","","","","null","","949.6999999284744","","3","1","null","null","arrowup","[0.85,0.15,0.675,0.325]","","",""
"sailing-trial","73","692018","0.0-11.0-28.0","","","","false","","","","","","","","","","541.1000000238419","","334.60000002384186","","3","0","arrowright","1","arrowright","[0.85,0.15,0.675,0.325]","","",""
"sailing-trial","74","694206","0.0-11.0-29.0","","","","false","","","","","","","","","","null","","856.1000000238419","","2","0","null","null","arrowup","[0.85,0.15,0.675,0.325]","","",""
"sailing-trial","75","698028","0.0-11.0-30.0","","","","false","","","","","","","","","","638.6000000238419","","158.90000009536743","","0","1","arrowleft","0","arrowleft","[0.85,0.15,0.675,0.325]","","",""
"sailing-trial","76","700906","0.0-11.0-31.0","","","","false","","","","","","","","","","null","","881.4000000953674","","2","1","null","null","arrowup","[0.85,0.15,0.675,0.325]","","",""
"sailing-trial","77","705374","0.0-11.0-32.0","","","","false","","","","","","","","","","637.2999999523163","","965.8999999761581","","0","1","arrowleft","0","arrowleft","[0.85,0.15,0.675,0.325]","","",""
"sailing-trial","78","707721","0.0-11.0-33.0","","","","false","","","","","","","","","","null","","903.6999999284744","","1","0","null","null","arrowup","[0.85,0.15,0.675,0.325]","","",""
"sailing-trial","79","711604","0.0-11.0-34.0","","","","false","","","","","","","","","","764.3999999761581","","338.60000002384186","","0","1","arrowleft","0","arrowleft","[0.85,0.15,0.675,0.325]","","",""
"sailing-trial","80","714448","0.0-11.0-35.0","","","","false","","","","","","","","","","null","","932","","0","1","null","null","arrowup","[0.85,0.15,0.675,0.325]","","",""
"sailing-trial","81","718286","0.0-11.0-36.0","","","","false","","","","","","","","","","444.3000000715256","","533.3999999761581","","0","1","arrowleft","0","arrowleft","[0.85,0.15,0.675,0.325]","","",""
"sailing-trial","82","721805","0.0-11.0-37.0","","","","false","","","","","","","","","","null","","1564.5","","0","1","null","null","arrowup","[0.85,0.15,0.675,0.325]","","",""
"sailing-trial","83","726944","0.0-11.0-38.0","","","","false","","","","","","","","","","1566.5999999046326","","137.89999997615814","","0","1","arrowleft","0","arrowleft","[0.675,0.325,0.85,0.15]","","",""
"sailing-trial","84","729214","0.0-11.0-39.0","","","","false","","","","","","","","","","null","","857.6000000238419","","3","0","null","null","arrowup","[0.675,0.325,0.85,0.15]","","",""
"sailing-trial","85","732881","0.0-11.0-40.0","","","","false","","","","","","","","","","785.2999999523163","","2.5","","0","1","arrowleft","0","arrowleft","[0.675,0.325,0.85,0.15]","","",""
"sailing-trial","86","735259","0.0-11.0-41.0","","","","false","","","","","","","","","","null","","1021.3999999761581","","1","0","null","null","arrowup","[0.675,0.325,0.85,0.15]","","",""
"sailing-trial","87","738796","0.0-11.0-42.0","","","","false","","","","","","","","","","600.8999999761581","","7.899999976158142","","0","1","arrowleft","0","arrowleft","[0.675,0.325,0.85,0.15]","","",""
"sailing-trial","88","740941","0.0-11.0-43.0","","","","false","","","","","","","","","","null","","757","","3","0","null","null","arrowup","[0.675,0.325,0.85,0.15]","","",""
"sailing-trial","89","745395","0.0-11.0-44.0","","","","false","","","","","","","","","","768","","816.8000000715256","","0","1","arrowleft","0","arrowleft","[0.675,0.325,0.85,0.15]","","",""
"sailing-trial","90","748380","0.0-11.0-45.0","","","","false","","","","","","","","","","null","","924.6000000238419","","1","1","null","null","arrowup","[0.675,0.325,0.85,0.15]","","",""
"sailing-trial","91","752379","0.0-11.0-46.0","","","","false","","","","","","","","","","650.8999999761581","","353.89999997615814","","0","1","arrowleft","0","arrowleft","[0.675,0.325,0.85,0.15]","","",""
"sailing-trial","92","756208","0.0-11.0-47.0","","","","false","","","","","","","","","","null","","786.2999999523163","","1","0","null","null","arrowup","[0.675,0.325,0.85,0.15]","","",""
"sailing-trial","93","760742","0.0-11.0-48.0","","","","false","","","","","","","","","","1215.5","","414.39999997615814","","0","1","arrowleft","0","arrowleft","[0.675,0.325,0.85,0.15]","","",""
"sailing-trial","94","764736","0.0-11.0-49.0","","","","false","","","","","","","","","","null","","980.3000000715256","","2","0","null","null","arrowup","[0.675,0.325,0.85,0.15]","","",""
"sailing-trial","95","769458","0.0-11.0-50.0","","","","false","","","","","","","","","","571.5","","1174.2000000476837","","0","1","arrowleft","0","arrowleft","[0.675,0.325,0.85,0.15]","","",""
"sailing-trial","96","771892","0.0-11.0-51.0","","","","false","","","","","","","","","","null","","820.8000000715256","","0","1","null","null","arrowup","[0.675,0.325,0.85,0.15]","","",""
"sailing-trial","97","776549","0.0-11.0-52.0","","","","false","","","","","","","","","","662.7999999523163","","29.5","","0","0","arrowleft","0","arrowleft","[0.675,0.325,0.85,0.15]","","",""
"sailing-trial","98","779447","0.0-11.0-53.0","","","","false","","","","","","","","","","null","","883.5","","0","1","null","null","arrowup","[0.675,0.325,0.85,0.15]","","",""
"sailing-trial","99","783253","0.0-11.0-54.0","","","","false","","","","","","","","","","514.1999999284744","","280","","1","1","arrowleft","0","arrowright","[0.675,0.325,0.85,0.15]","","",""
"sailing-trial","100","785935","0.0-11.0-55.0","","","","false","","","","","","","","","","null","","801.9000000953674","","3","1","null","null","arrowup","[0.675,0.325,0.85,0.15]","","",""
"sailing-trial","101","790990","0.0-11.0-56.0","","","","false","","","","","","","","","","615.1999999284744","","394.39999997615814","","1","0","arrowleft","0","arrowright","[0.85,0.15,0.675,0.325]","","",""
"sailing-trial","102","793621","0.0-11.0-57.0","","","","false","","","","","","","","","","null","","670.3999999761581","","3","1","null","null","arrowup","[0.85,0.15,0.675,0.325]","","",""
"sailing-trial","103","797316","0.0-11.0-58.0","","","","false","","","","","","","","","","472.5","","437.60000002384186","","3","0","arrowright","1","arrowright","[0.85,0.15,0.675,0.325]","","",""
"sailing-trial","104","799695","0.0-11.0-59.0","","","","false","","","","","","","","","","null","","1017.7000000476837","","1","0","null","null","arrowup","[0.85,0.15,0.675,0.325]","","",""
"sailing-trial","105","803915","0.0-11.0-60.0","","","","false","","","","","","","","","","923.3999999761581","","361.5","","2","1","arrowright","1","arrowleft","[0.85,0.15,0.675,0.325]","","",""
"sailing-trial","106","806010","0.0-11.0-61.0","","","","false","","","","","","","","","","null","","829.2000000476837","","1","0","null","null","arrowup","[0.85,0.15,0.675,0.325]","","",""
"sailing-trial","107","809126","0.0-11.0-62.0","","","","false","","","","","","","","","","488.2999999523163","","362","","2","0","arrowright","1","arrowleft","[0.85,0.15,0.675,0.325]","","",""
"sailing-trial","108","811597","0.0-11.0-63.0","","","","false","","","","","","","","","","null","","1154.1999999284744","","3","0","null","null","arrowup","[0.85,0.15,0.675,0.325]","","",""
"sailing-trial","109","815181","0.0-11.0-64.0","","","","false","","","","","","","","","","374.8000000715256","","324.2999999523163","","0","1","arrowleft","0","arrowleft","[0.85,0.15,0.675,0.325]","","",""
"sailing-trial","110","817865","0.0-11.0-65.0","","","","false","","","","","","","","","","null","","854.8000000715256","","0","1","null","null","arrowup","[0.85,0.15,0.675,0.325]","","",""
"sailing-trial","111","821661","0.0-11.0-66.0","","","","false","","","","","","","","","","501.39999997615814","","386.89999997615814","","0","1","arrowleft","0","arrowleft","[0.85,0.15,0.675,0.325]","","",""
"sailing-trial","112","824677","0.0-11.0-67.0","","","","false","","","","","","","","","","null","","1209.8000000715256","","2","1","null","null","arrowup","[0.85,0.15,0.675,0.325]","","",""
"sailing-trial","113","827960","0.0-11.0-68.0","","","","false","","","","","","","","","","429.5","","12.300000071525574","","0","1","arrowleft","0","arrowleft","[0.85,0.15,0.675,0.325]","","",""
"sailing-trial","114","830307","0.0-11.0-69.0","","","","false","","","","","","","","","","null","","924.1000000238419","","1","0","null","null","arrowup","[0.85,0.15,0.675,0.325]","","",""
"sailing-trial","115","834642","0.0-11.0-70.0","","","","false","","","","","","","","","","479.39999997615814","","842.8999999761581","","0","1","arrowleft","0","arrowleft","[0.85,0.15,0.675,0.325]","","",""
"sailing-trial","116","837005","0.0-11.0-71.0","","","","false","","","","","","","","","","null","","904.2999999523163","","3","0","null","null","arrowup","[0.85,0.15,0.675,0.325]","","",""
"sailing-trial","117","840973","0.0-11.0-72.0","","","","false","","","","","","","","","","747.7999999523163","","347.2999999523163","","0","1","arrowleft","0","arrowleft","[0.85,0.15,0.675,0.325]","","",""
"sailing-trial","118","843401","0.0-11.0-73.0","","","","false","","","","","","","","","","null","","879.7000000476837","","2","0","null","null","arrowup","[0.85,0.15,0.675,0.325]","","",""
"sailing-trial","119","847038","0.0-11.0-74.0","","","","false","","","","","","","","","","492.39999997615814","","473.09999990463257","","0","1","arrowleft","0","arrowleft","[0.85,0.15,0.675,0.325]","","",""
"sailing-trial","120","849623","0.0-11.0-75.0","","","","false","","","","","","","","","","null","","714.5","","3","1","null","null","arrowup","[0.85,0.15,0.675,0.325]","","",""
"sailing-trial","121","852267","0.0-11.0-76.0","","","","false","","","","","","","","","","99","","264.39999997615814","","0","0","arrowleft","0","arrowleft","[0.675,0.325,0.85,0.15]","","",""
"sailing-trial","122","855364","0.0-11.0-77.0","","","","false","","","","","","","","","","null","","1176","","0","1","null","null","arrowup","[0.675,0.325,0.85,0.15]","","",""
"sailing-trial","123","858869","0.0-11.0-78.0","","","","false","","","","","","","","","","485.7999999523163","","22.5","","0","1","arrowleft","0","arrowleft","[0.675,0.325,0.85,0.15]","","",""
"sailing-trial","124","861297","0.0-11.0-79.0","","","","false","","","","","","","","","","null","","633.6000000238419","","2","1","null","null","arrowup","[0.675,0.325,0.85,0.15]","","",""
"sailing-trial","125","864630","0.0-11.0-80.0","","","","false","","","","","","","","","","541.8999999761581","","49.39999997615814","","0","0","arrowleft","0","arrowleft","[0.675,0.325,0.85,0.15]","","",""
"sailing-trial","126","866774","0.0-11.0-81.0","","","","false","","","","","","","","","","null","","820","","3","0","null","null","arrowup","[0.675,0.325,0.85,0.15]","","",""
"sailing-trial","127","869996","0.0-11.0-82.0","","","","false","","","","","","","","","","583.8999999761581","","76.39999997615814","","0","0","arrowleft","0","arrowleft","[0.675,0.325,0.85,0.15]","","",""
"sailing-trial","128","872499","0.0-11.0-83.0","","","","false","","","","","","","","","","null","","687.3999999761581","","1","1","null","null","arrowup","[0.675,0.325,0.85,0.15]","","",""
"sailing-trial","129","876282","0.0-11.0-84.0","","","","false","","","","","","","","","","842.6999999284744","","160.80000007152557","","1","1","arrowleft","0","arrowright","[0.675,0.325,0.85,0.15]","","",""
"sailing-trial","130","879517","0.0-11.0-85.0","","","","false","","","","","","","","","","null","","984.3000000715256","","2","1","null","null","arrowup","[0.675,0.325,0.85,0.15]","","",""
"sailing-trial","131","883463","0.0-11.0-86.0","","","","false","","","","","","","","","","819.7999999523163","","320.39999997615814","","1","1","arrowleft","0","arrowright","[0.675,0.325,0.85,0.15]","","",""
"sailing-trial","132","885694","0.0-11.0-87.0","","","","false","","","","","","","","","","null","","996.2999999523163","","1","0","null","null","arrowup","[0.675,0.325,0.85,0.15]","","",""
"sailing-trial","133","889229","0.0-11.0-88.0","","","","false","","","","","","","","","","509.89999997615814","","84.20000004768372","","1","1","arrowleft","0","arrowright","[0.675,0.325,0.85,0.15]","","",""
"sailing-trial","134","891528","0.0-11.0-89.0","","","","false","","","","","","","","","","null","","504.2999999523163","","2","1","null","null","arrowup","[0.675,0.325,0.85,0.15]","","",""
"sailing-trial","135","894827","0.0-11.0-90.0","","","","false","","","","","","","","","","568.7999999523163","","62.700000047683716","","1","1","arrowleft","0","arrowright","[0.675,0.325,0.85,0.15]","","",""
"sailing-trial","136","897392","0.0-11.0-91.0","","","","false","","","","","","","","","","null","","1207.8999999761581","","1","0","null","null","arrowup","[0.675,0.325,0.85,0.15]","","",""
"sailing-trial","137","900295","0.0-11.0-92.0","","","","false","","","","","","","","","","614","","29.600000023841858","","1","0","arrowleft","0","arrowright","[0.85,0.15,0.675,0.325]","","",""
"sailing-trial","138","903806","0.0-11.0-93.0","","","","false","","","","","","","","","","null","","2269.9000000953674","","3","0","null","null","arrowup","[0.85,0.15,0.675,0.325]","","",""
"sailing-trial","139","907751","0.0-11.0-94.0","","","","false","","","","","","","","","","1337.6000000238419","","36.60000002384186","","0","0","arrowleft","0","arrowleft","[0.85,0.15,0.675,0.325]","","",""
"sailing-trial","140","910576","0.0-11.0-95.0","","","","false","","","","","","","","","","null","","1012.6000000238419","","3","1","null","null","arrowup","[0.85,0.15,0.675,0.325]","","",""
"sailing-trial","141","914551","0.0-11.0-96.0","","","","false","","","","","","","","","","463.7999999523163","","416.60000002384186","","2","0","arrowright","1","arrowleft","[0.85,0.15,0.675,0.325]","","",""
"sailing-trial","142","916583","0.0-11.0-97.0","","","","false","","","","","","","","","","null","","674.2000000476837","","3","0","null","null","arrowup","[0.85,0.15,0.675,0.325]","","",""
"sailing-trial","143","920315","0.0-11.0-98.0","","","","false","","","","","","","","","","653.5","","445.2999999523163","","3","0","arrowright","1","arrowright","[0.85,0.15,0.675,0.325]","","",""
"sailing-trial","144","922754","0.0-11.0-99.0","","","","false","","","","","","","","","","null","","780.8000000715256","","1","1","null","null","arrowup","[0.85,0.15,0.675,0.325]","","",""
"sailing-trial","145","925975","0.0-11.0-100.0","","","","false","","","","","","","","","","378.2999999523163","","290.7999999523163","","1","0","arrowleft","0","arrowright","[0.85,0.15,0.675,0.325]","","",""
"sailing-trial","146","927997","0.0-11.0-101.0","","","","false","","","","","","","","","","null","","659","","1","0","null","null","arrowup","[0.85,0.15,0.675,0.325]","","",""
"sailing-trial","147","932427","0.0-11.0-102.0","","","","false","","","","","","","","","","460.60000002384186","","44.799999952316284","","0","1","arrowleft","0","arrowleft","[0.85,0.15,0.675,0.325]","","",""
"sailing-trial","148","935384","0.0-11.0-103.0","","","","false","","","","","","","","","","null","","1180.7000000476837","","2","1","null","null","arrowup","[0.85,0.15,0.675,0.325]","","",""
"sailing-trial","149","939299","0.0-11.0-104.0","","","","false","","","","","","","","","","423.60000002384186","","369.60000002384186","","0","1","arrowleft","0","arrowleft","[0.85,0.15,0.675,0.325]","","",""
"sailing-trial","150","941713","0.0-11.0-105.0","","","","false","","","","","","","","","","null","","1212.3000000715256","","3","0","null","null","arrowup","[0.85,0.15,0.675,0.325]","","",""
"sailing-trial","151","947330","0.0-11.0-106.0","","","","false","","","","","","","","","","550.5","","40.89999997615814","","0","1","arrowleft","0","arrowleft","[0.85,0.15,0.675,0.325]","","",""
"sailing-trial","152","950114","0.0-11.0-107.0","","","","false","","","","","","","","","","null","","1008.3999999761581","","1","1","null","null","arrowup","[0.85,0.15,0.675,0.325]","","",""
"sailing-trial","153","953916","0.0-11.0-108.0","","","","false","","","","","","","","","","518.5","","505.39999997615814","","0","1","arrowleft","0","arrowleft","[0.85,0.15,0.675,0.325]","","",""
"sailing-trial","154","957811","0.0-11.0-109.0","","","","false","","","","","","","","","","null","","868.5","","1","0","null","null","arrowup","[0.85,0.15,0.675,0.325]","","",""
"sailing-trial","155","961611","0.0-11.0-110.0","","","","false","","","","","","","","","","608","","11.899999976158142","","0","1","arrowleft","0","arrowleft","[0.85,0.15,0.675,0.325]","","",""
"sailing-trial","156","964427","0.0-11.0-111.0","","","","false","","","","","","","","","","null","","1012.3999999761581","","0","1","null","null","arrowup","[0.85,0.15,0.675,0.325]","","",""
"sailing-trial","157","968226","0.0-11.0-112.0","","","","false","","","","","","","","","","439.2999999523163","","377.39999997615814","","0","1","arrowleft","0","arrowleft","[0.85,0.15,0.675,0.325]","","",""
"sailing-trial","158","970737","0.0-11.0-113.0","","","","false","","","","","","","","","","null","","769","","1","0","null","null","arrowup","[0.85,0.15,0.675,0.325]","","",""
"sailing-trial","159","973636","0.0-11.0-114.0","","","","false","","","","","","","","","","432","","309.89999997615814","","0","0","arrowleft","0","arrowleft","[0.675,0.325,0.85,0.15]","","",""
"sailing-trial","160","976307","0.0-11.0-115.0","","","","false","","","","","","","","","","null","","926.3999999761581","","2","1","null","null","arrowup","[0.675,0.325,0.85,0.15]","","",""
"sailing-trial","161","980340","0.0-11.0-116.0","","","","false","","","","","","","","","","712.2999999523163","","388","","0","1","arrowleft","0","arrowleft","[0.675,0.325,0.85,0.15]","","",""
"sailing-trial","162","982370","0.0-11.0-117.0","","","","false","","","","","","","","","","null","","880.1000000238419","","3","0","null","null","arrowup","[0.675,0.325,0.85,0.15]","","",""
"sailing-trial","163","986222","0.0-11.0-118.0","","","","false","","","","","","","","","","605.7000000476837","","364.60000002384186","","0","1","arrowleft","0","arrowleft","[0.675,0.325,0.85,0.15]","","",""
"sailing-trial","164","989554","0.0-11.0-119.0","","","","false","","","","","","","","","","null","","1389.1000000238419","","0","1","null","null","arrowup","[0.675,0.325,0.85,0.15]","","",""
"sailing-trial","165","994572","0.0-11.0-120.0","","","","false","","","","","","","","","","643.7999999523163","","314.10000002384186","","0","0","arrowleft","0","arrowleft","[0.675,0.325,0.85,0.15]","","",""
"sailing-trial","166","996968","0.0-11.0-121.0","","","","false","","","","","","","","","","null","","1090.3999999761581","","1","0","null","null","arrowup","[0.675,0.325,0.85,0.15]","","",""
"sailing-trial","167","1000802","0.0-11.0-122.0","","","","false","","","","","","","","","","530.7000000476837","","386","","0","1","arrowleft","0","arrowleft","[0.675,0.325,0.85,0.15]","","",""
"sailing-trial","168","1003754","0.0-11.0-123.0","","","","false","","","","","","","","","","null","","843.3999999761581","","2","1","null","null","arrowup","[0.675,0.325,0.85,0.15]","","",""
"sailing-trial","169","1007367","0.0-11.0-124.0","","","","false","","","","","","","","","","605","","93.20000004768372","","0","1","arrowleft","0","arrowleft","[0.675,0.325,0.85,0.15]","","",""
"sailing-trial","170","1010550","0.0-11.0-125.0","","","","false","","","","","","","","","","null","","639.7000000476837","","3","1","null","null","arrowup","[0.675,0.325,0.85,0.15]","","",""
"sailing-trial","171","1014349","0.0-11.0-126.0","","","","false","","","","","","","","","","689.2000000476837","","227.10000002384186","","0","1","arrowleft","0","arrowleft","[0.675,0.325,0.85,0.15]","","",""
"sailing-trial","172","1016362","0.0-11.0-127.0","","","","false","","","","","","","","","","null","","696.2000000476837","","3","0","null","null","arrowup","[0.675,0.325,0.85,0.15]","","",""
"sailing-trial","173","1020769","0.0-11.0-128.0","","","","false","","","","","","","","","","846.5999999046326","","721.1999999284744","","0","1","arrowleft","0","arrowleft","[0.675,0.325,0.85,0.15]","","",""
"sailing-trial","174","1022979","0.0-11.0-129.0","","","","false","","","","","","","","","","null","","820.1999999284744","","3","0","null","null","arrowup","[0.675,0.325,0.85,0.15]","","",""
"sailing-trial","175","1025686","0.0-11.0-130.0","","","","false","","","","","","","","","","561.7999999523163","","50.39999997615814","","0","0","arrowleft","0","arrowleft","[0.325,0.675,0.15,0.85]","","",""
"sailing-trial","176","1027526","0.0-11.0-131.0","","","","false","","","","","","","","","","null","","473.39999997615814","","1","0","null","null","arrowup","[0.325,0.675,0.15,0.85]","","",""
"sailing-trial","177","1031577","0.0-11.0-132.0","","","","false","","","","","","","","","","701.2000000476837","","397.2000000476837","","0","1","arrowleft","0","arrowleft","[0.325,0.675,0.15,0.85]","","",""
"sailing-trial","178","1033961","0.0-11.0-133.0","","","","false","","","","","","","","","","null","","582.7999999523163","","0","1","null","null","arrowup","[0.325,0.675,0.15,0.85]","","",""
"sailing-trial","179","1037627","0.0-11.0-134.0","","","","false","","","","","","","","","","551.3000000715256","","429.39999997615814","","0","1","arrowleft","0","arrowleft","[0.325,0.675,0.15,0.85]","","",""
"sailing-trial","180","1039810","0.0-11.0-135.0","","","","false","","","","","","","","","","null","","225.5","","1","1","null","null","arrowup","[0.325,0.675,0.15,0.85]","","",""
"sailing-trial","181","1042990","0.0-11.0-136.0","","","","false","","","","","","","","","","678","","100.29999995231628","","0","0","arrowleft","0","arrowleft","[0.325,0.675,0.15,0.85]","","",""
"sailing-trial","182","1045497","0.0-11.0-137.0","","","","false","","","","","","","","","","null","","637.1999999284744","","1","1","null","null","arrowup","[0.325,0.675,0.15,0.85]","","",""
"sailing-trial","183","1048991","0.0-11.0-138.0","","","","false","","","","","","","","","","265.89999997615814","","439.89999997615814","","0","1","arrowleft","0","arrowleft","[0.325,0.675,0.15,0.85]","","",""
"sailing-trial","184","1052406","0.0-11.0-139.0","","","","false","","","","","","","","","","null","","1518.2999999523163","","0","1","null","null","arrowup","[0.325,0.675,0.15,0.85]","","",""
"sailing-trial","185","1056139","0.0-11.0-140.0","","","","false","","","","","","","","","","916.3000000715256","","38.799999952316284","","0","1","arrowleft","0","arrowleft","[0.325,0.675,0.15,0.85]","","",""
"sailing-trial","186","1058521","0.0-11.0-141.0","","","","false","","","","","","","","","","null","","663.1000000238419","","1","1","null","null","arrowup","[0.325,0.675,0.15,0.85]","","",""
"sailing-trial","187","1061263","0.0-11.0-142.0","","","","false","","","","","","","","","","413.5","","78.20000004768372","","0","0","arrowleft","0","arrowleft","[0.325,0.675,0.15,0.85]","","",""
"sailing-trial","188","1063468","0.0-11.0-143.0","","","","false","","","","","","","","","","null","","940.2999999523163","","2","0","null","null","arrowup","[0.325,0.675,0.15,0.85]","","",""
"sailing-trial","189","1066870","0.0-11.0-144.0","","","","false","","","","","","","","","","478.60000002384186","","80.5","","1","1","arrowleft","0","arrowright","[0.325,0.675,0.15,0.85]","","",""
"sailing-trial","190","1068931","0.0-11.0-145.0","","","","false","","","","","","","","","","null","","711.2000000476837","","2","0","null","null","arrowup","[0.325,0.675,0.15,0.85]","","",""
"sailing-trial","191","1071468","0.0-11.0-146.0","","","","false","","","","","","","","","","351.2000000476837","","28.899999976158142","","1","0","arrowleft","0","arrowright","[0.85,0.15,0.675,0.325]","","",""
"sailing-trial","192","1073786","0.0-11.0-147.0","","","","false","","","","","","","","","","null","","1029","","1","0","null","null","arrowup","[0.85,0.15,0.675,0.325]","","",""
"sailing-trial","193","1077066","0.0-11.0-148.0","","","","false","","","","","","","","","","431.39999997615814","","383.7999999523163","","0","0","arrowleft","0","arrowleft","[0.85,0.15,0.675,0.325]","","",""
"sailing-trial","194","1079034","0.0-11.0-149.0","","","","false","","","","","","","","","","null","","781.7999999523163","","0","0","null","null","arrowup","[0.85,0.15,0.675,0.325]","","",""
"sailing-trial","195","1081498","0.0-11.0-150.0","","","","false","","","","","","","","","","281.7999999523163","","55.200000047683716","","2","0","arrowright","1","arrowleft","[0.85,0.15,0.675,0.325]","","",""
"sailing-trial","196","1084067","0.0-11.0-151.0","","","","false","","","","","","","","","","null","","794.1000000238419","","1","1","null","null","arrowup","[0.85,0.15,0.675,0.325]","","",""
"sailing-trial","197","1086660","0.0-11.0-152.0","","","","false","","","","","","","","","","183.29999995231628","","113","","3","0","arrowright","1","arrowright","[0.85,0.15,0.675,0.325]","","",""
"sailing-trial","198","1089859","0.0-11.0-153.0","","","","false","","","","","","","","","","null","","1093.5","","2","1","null","null","arrowup","[0.85,0.15,0.675,0.325]","","",""
"sailing-trial","199","1093480","0.0-11.0-154.0","","","","false","","","","","","","","","","353.5","","416.1999999284744","","2","1","arrowright","1","arrowleft","[0.85,0.15,0.675,0.325]","","",""
"sailing-trial","200","1096245","0.0-11.0-155.0","","","","false","","","","","","","","","","null","","981.6000000238419","","2","1","null","null","arrowup","[0.85,0.15,0.675,0.325]","","",""
"sailing-trial","201","1101145","0.0-11.0-156.0","","","","false","","","","","","","","","","495.40000009536743","","369","","2","0","arrowright","1","arrowleft","[0.85,0.15,0.675,0.325]","","",""
"sailing-trial","202","1104254","0.0-11.0-157.0","","","","false","","","","","","","","","","null","","1775.3999999761581","","3","0","null","null","arrowup","[0.85,0.15,0.675,0.325]","","",""
"sailing-trial","203","1109009","0.0-11.0-158.0","","","","false","","","","","","","","","","1448.8999999761581","","372.1999999284744","","2","1","arrowright","1","arrowleft","[0.85,0.15,0.675,0.325]","","",""
"sailing-trial","204","1111558","0.0-11.0-159.0","","","","false","","","","","","","","","","null","","846.6000000238419","","3","1","null","null","arrowup","[0.85,0.15,0.675,0.325]","","",""
"sailing-trial","205","1115295","0.0-11.0-160.0","","","","false","","","","","","","","","","497.59999990463257","","179.19999992847443","","2","1","arrowright","1","arrowleft","[0.85,0.15,0.675,0.325]","","",""
"sailing-trial","206","1117473","0.0-11.0-161.0","","","","false","","","","","","","","","","null","","1105.8999999761581","","0","0","null","null","arrowup","[0.85,0.15,0.675,0.325]","","",""
"sailing-trial","207","1123905","0.0-11.0-162.0","","","","false","","","","","","","","","","1126.0999999046326","","1424.2999999523163","","2","1","arrowright","1","arrowleft","[0.85,0.15,0.675,0.325]","","",""
"sailing-trial","208","1127288","0.0-11.0-163.0","","","","false","","","","","","","","","","null","","1576.8000000715256","","0","1","null","null","arrowup","[0.85,0.15,0.675,0.325]","","",""
"sailing-trial","209","1130750","0.0-11.0-164.0","","","","false","","","","","","","","","","701.6000000238419","","131","","2","0","arrowright","1","arrowleft","[0.675,0.325,0.85,0.15]","","",""
"sailing-trial","210","1133786","0.0-11.0-165.0","","","","false","","","","","","","","","","null","","1141.7999999523163","","2","1","null","null","arrowup","[0.675,0.325,0.85,0.15]","","",""
"sailing-trial","211","1137536","0.0-11.0-166.0","","","","false","","","","","","","","","","394.89999997615814","","422.2000000476837","","0","1","arrowleft","0","arrowleft","[0.675,0.325,0.85,0.15]","","",""
"sailing-trial","212","1140105","0.0-11.0-167.0","","","","false","","","","","","","","","","null","","798.1000000238419","","2","1","null","null","arrowup","[0.675,0.325,0.85,0.15]","","",""
"sailing-trial","213","1143835","0.0-11.0-168.0","","","","false","","","","","","","","","","680.5","","219.5","","1","1","arrowleft","0","arrowright","[0.675,0.325,0.85,0.15]","","",""
"sailing-trial","214","1145848","0.0-11.0-169.0","","","","false","","","","","","","","","","null","","950.6999999284744","","1","0","null","null","arrowup","[0.675,0.325,0.85,0.15]","","",""
"sailing-trial","215","1149767","0.0-11.0-170.0","","","","false","","","","","","","","","","843.2999999523163","","217","","1","1","arrowleft","0","arrowright","[0.675,0.325,0.85,0.15]","","",""
"sailing-trial","216","1152766","0.0-11.0-171.0","","","","false","","","","","","","","","","null","","1069.1999999284744","","2","1","null","null","arrowup","[0.675,0.325,0.85,0.15]","","",""
"sailing-trial","217","1156701","0.0-11.0-172.0","","","","false","","","","","","","","","","571","","531","","0","1","arrowleft","0","arrowleft","[0.675,0.325,0.85,0.15]","","",""
"sailing-trial","218","1158929","0.0-11.0-173.0","","","","false","","","","","","","","","","null","","965.2999999523163","","0","0","null","null","arrowup","[0.675,0.325,0.85,0.15]","","",""
"sailing-trial","219","1162604","0.0-11.0-174.0","","","","false","","","","","","","","","","1148.3999999761581","","83.29999995231628","","1","0","arrowleft","0","arrowright","[0.675,0.325,0.85,0.15]","","",""
"sailing-trial","220","1165679","0.0-11.0-175.0","","","","false","","","","","","","","","","null","","1190.7000000476837","","2","1","null","null","arrowup","[0.675,0.325,0.85,0.15]","","",""
"sailing-trial","221","1170045","0.0-11.0-176.0","","","","false","","","","","","","","","","428.5","","987","","0","1","arrowleft","0","arrowleft","[0.675,0.325,0.85,0.15]","","",""
"sailing-trial","222","1173494","0.0-11.0-177.0","","","","false","","","","","","","","","","null","","1223.1999999284744","","0","1","null","null","arrowup","[0.675,0.325,0.85,0.15]","","",""
"sailing-trial","223","1179742","0.0-11.0-178.0","","","","false","","","","","","","","","","917.5","","969.6000000238419","","0","1","arrowleft","0","arrowleft","[0.675,0.325,0.85,0.15]","","",""
"sailing-trial","224","1183503","0.0-11.0-179.0","","","","false","","","","","","","","","","null","","744.3999999761581","","0","0","null","null","arrowup","[0.675,0.325,0.85,0.15]","","",""
"sailing-trial","225","1187691","0.0-11.0-180.0","","","","false","","","","","","","","","","940.3000000715256","","221.89999997615814","","0","1","arrowleft","0","arrowleft","[0.85,0.15,0.675,0.325]","","",""
"sailing-trial","226","1191988","0.0-11.0-181.0","","","","false","","","","","","","","","","null","","2846.9000000953674","","1","0","null","null","arrowup","[0.85,0.15,0.675,0.325]","","",""
"sailing-trial","227","1196072","0.0-11.0-182.0","","","","false","","","","","","","","","","1110.3999999761581","","27.600000023841858","","0","1","arrowleft","0","arrowleft","[0.85,0.15,0.675,0.325]","","",""
"sailing-trial","228","1199330","0.0-11.0-183.0","","","","false","","","","","","","","","","null","","1027.8999999761581","","2","0","null","null","arrowup","[0.85,0.15,0.675,0.325]","","",""
"sailing-trial","229","1205099","0.0-11.0-184.0","","","","false","","","","","","","","","","803.6000000238419","","940.5999999046326","","0","0","arrowleft","0","arrowleft","[0.85,0.15,0.675,0.325]","","",""
"sailing-trial","230","1209784","0.0-11.0-185.0","","","","false","","","","","","","","","","null","","1666.8000000715256","","1","0","null","null","arrowup","[0.85,0.15,0.675,0.325]","","",""
"sailing-trial","231","1216867","0.0-11.0-186.0","","","","false","","","","","","","","","","751.7000000476837","","270.6999999284744","","2","1","arrowright","1","arrowleft","[0.85,0.15,0.675,0.325]","","",""
"sailing-trial","232","1219114","0.0-11.0-187.0","","","","false","","","","","","","","","","null","","985","","1","0","null","null","arrowup","[0.85,0.15,0.675,0.325]","","",""
"sailing-trial","233","1223161","0.0-11.0-188.0","","","","false","","","","","","","","","","740.2999999523163","","367.7000000476837","","2","0","arrowright","1","arrowleft","[0.85,0.15,0.675,0.325]","","",""
"sailing-trial","234","1225462","0.0-11.0-189.0","","","","false","","","","","","","","","","null","","1021.8000000715256","","3","0","null","null","arrowup","[0.85,0.15,0.675,0.325]","","",""
"sailing-trial","235","1229614","0.0-11.0-190.0","","","","false","","","","","","","","","","696.1999999284744","","440.89999997615814","","3","0","arrowright","1","arrowright","[0.85,0.15,0.675,0.325]","","",""
"sailing-trial","236","1234763","0.0-11.0-191.0","","","","false","","","","","","","","","","null","","3294.5","","3","1","null","null","arrowup","[0.85,0.15,0.675,0.325]","","",""
"sailing-trial","237","1238783","0.0-11.0-192.0","","","","false","","","","","","","","","","828.1000000238419","","281","","3","1","arrowright","1","arrowright","[0.85,0.15,0.675,0.325]","","",""
"sailing-trial","238","1241598","0.0-11.0-193.0","","","","false","","","","","","","","","","null","","1069.3999999761581","","3","0","null","null","arrowup","[0.85,0.15,0.675,0.325]","","",""
"sailing-trial","239","1256613","0.0-11.0-194.0","","","","true","","","","","","","","","","null","","null","","null","null","null","null","null","[0.85,0.15,0.675,0.325]","","",""
"sailing-trial","240","1259789","0.0-11.0-195.0","","","","false","","","","","","","","","","null","","1254.5","","3","1","null","null","arrowup","[0.85,0.15,0.675,0.325]","","",""
"sailing-trial","241","1263234","0.0-11.0-196.0","","","","false","","","","","","","","","","596.1000000238419","","362.2000000476837","","3","0","arrowright","1","arrowright","[0.675,0.325,0.85,0.15]","","",""
"sailing-trial","242","1265371","0.0-11.0-197.0","","","","false","","","","","","","","","","null","","908.7999999523163","","0","0","null","null","arrowup","[0.675,0.325,0.85,0.15]","","",""
"sailing-trial","243","1268888","0.0-11.0-198.0","","","","false","","","","","","","","","","636.7999999523163","","87.30000007152557","","2","1","arrowright","1","arrowleft","[0.675,0.325,0.85,0.15]","","",""
"sailing-trial","244","1271154","0.0-11.0-199.0","","","","false","","","","","","","","","","null","","934.1000000238419","","0","0","null","null","arrowup","[0.675,0.325,0.85,0.15]","","",""
"sailing-trial","245","1274886","0.0-11.0-200.0","","","","false","","","","","","","","","","560.2000000476837","","373.7999999523163","","2","1","arrowright","1","arrowleft","[0.675,0.325,0.85,0.15]","","",""
"sailing-trial","246","1277117","0.0-11.0-201.0","","","","false","","","","","","","","","","null","","1021.2999999523163","","2","0","null","null","arrowup","[0.675,0.325,0.85,0.15]","","",""
"sailing-trial","247","1280364","0.0-11.0-202.0","","","","false","","","","","","","","","","504.60000002384186","","339.2999999523163","","2","0","arrowright","1","arrowleft","[0.675,0.325,0.85,0.15]","","",""
"sailing-trial","248","1282684","0.0-11.0-203.0","","","","false","","","","","","","","","","null","","727","","2","1","null","null","arrowup","[0.675,0.325,0.85,0.15]","","",""
"sailing-trial","249","1286134","0.0-11.0-204.0","","","","false","","","","","","","","","","325","","219.70000004768372","","2","1","arrowright","1","arrowleft","[0.675,0.325,0.85,0.15]","","",""
"sailing-trial","250","1288450","0.0-11.0-205.0","","","","false","","","","","","","","","","null","","548.7999999523163","","0","1","null","null","arrowup","[0.675,0.325,0.85,0.15]","","",""
"sailing-trial","251","1291097","0.0-11.0-206.0","","","","false","","","","","","","","","","134.89999997615814","","16.300000071525574","","2","0","arrowright","1","arrowleft","[0.675,0.325,0.85,0.15]","","",""
"sailing-trial","252","1293060","0.0-11.0-207.0","","","","false","","","","","","","","","","null","","663","","3","0","null","null","arrowup","[0.675,0.325,0.85,0.15]","","",""
"sailing-trial","253","1297714","0.0-11.0-208.0","","","","false","","","","","","","","","","698.6999999284744","","840.3999999761581","","1","1","arrowleft","0","arrowright","[0.675,0.325,0.85,0.15]","","",""
"sailing-trial","254","1300598","0.0-11.0-209.0","","","","false","","","","","","","","","","null","","1086.6999999284744","","3","1","null","null","arrowup","[0.675,0.325,0.85,0.15]","","",""
"sailing-trial","255","1304297","0.0-11.0-210.0","","","","false","","","","","","","","","","434.89999997615814","","346.89999997615814","","0","1","arrowleft","0","arrowleft","[0.675,0.325,0.85,0.15]","","",""
"sailing-trial","256","1308245","0.0-11.0-211.0","","","","false","","","","","","","","","","null","","2108.5","","1","1","null","null","arrowup","[0.675,0.325,0.85,0.15]","","",""
"sailing-trial","257","1313227","0.0-11.0-212.0","","","","false","","","","","","","","","","1587.8999999761581","","427","","1","1","arrowleft","0","arrowright","[0.675,0.325,0.85,0.15]","","",""
"sailing-trial","258","1315726","0.0-11.0-213.0","","","","false","","","","","","","","","","null","","784.6999999284744","","1","1","null","null","arrowup","[0.675,0.325,0.85,0.15]","","",""
"sailing-trial","259","1319514","0.0-11.0-214.0","","","","false","","","","","","","","","","371.5","","594.8999999761581","","1","1","arrowleft","0","arrowright","[0.325,0.675,0.15,0.85]","","",""
"sailing-trial","260","1321917","0.0-11.0-215.0","","","","false","","","","","","","","","","null","","1104.1000000238419","","0","0","null","null","arrowup","[0.325,0.675,0.15,0.85]","","",""
"sailing-trial","261","1326707","0.0-11.0-216.0","","","","false","","","","","","","","","","1109.6999999284744","","127.89999997615814","","1","1","arrowleft","0","arrowright","[0.325,0.675,0.15,0.85]","","",""
"sailing-trial","262","1329104","0.0-11.0-217.0","","","","false","","","","","","","","","","null","","987.2000000476837","","0","0","null","null","arrowup","[0.325,0.675,0.15,0.85]","","",""
"sailing-trial","263","1332909","0.0-11.0-218.0","","","","false","","","","","","","","","","909","","297.5","","0","0","arrowleft","0","arrowleft","[0.325,0.675,0.15,0.85]","","",""
"sailing-trial","264","1335420","0.0-11.0-219.0","","","","false","","","","","","","","","","null","","791","","1","1","null","null","arrowup","[0.325,0.675,0.15,0.85]","","",""
"sailing-trial","265","1338702","0.0-11.0-220.0","","","","false","","","","","","","","","","863","","83.79999995231628","","1","0","arrowleft","0","arrowright","[0.325,0.675,0.15,0.85]","","",""
"sailing-trial","266","1340936","0.0-11.0-221.0","","","","false","","","","","","","","","","null","","1137.7000000476837","","2","0","null","null","arrowup","[0.325,0.675,0.15,0.85]","","",""
"sailing-trial","267","1344686","0.0-11.0-222.0","","","","false","","","","","","","","","","577.7000000476837","","297.7999999523163","","3","1","arrowright","1","arrowright","[0.325,0.675,0.15,0.85]","","",""
"sailing-trial","268","1346967","0.0-11.0-223.0","","","","false","","","","","","","","","","null","","955.3999999761581","","0","0","null","null","arrowup","[0.325,0.675,0.15,0.85]","","",""
"sailing-trial","269","1350475","0.0-11.0-224.0","","","","false","","","","","","","","","","475","","233.19999992847443","","3","1","arrowright","1","arrowright","[0.325,0.675,0.15,0.85]","","",""
"sailing-trial","270","1352884","0.0-11.0-225.0","","","","false","","","","","","","","","","null","","641.5","","3","1","null","null","arrowup","[0.325,0.675,0.15,0.85]","","",""
"sailing-trial","271","1356350","0.0-11.0-226.0","","","","false","","","","","","","","","","371","","240.30000007152557","","3","1","arrowright","1","arrowright","[0.325,0.675,0.15,0.85]","","",""
"sailing-trial","272","1359219","0.0-11.0-227.0","","","","false","","","","","","","","","","null","","655.1999999284744","","1","1","null","null","arrowup","[0.325,0.675,0.15,0.85]","","",""
"sailing-trial","273","1363515","0.0-11.0-228.0","","","","false","","","","","","","","","","453.10000002384186","","291.8000000715256","","3","1","arrowright","1","arrowright","[0.325,0.675,0.15,0.85]","","",""
"sailing-trial","274","1365745","0.0-11.0-229.0","","","","false","","","","","","","","","","null","","937.3999999761581","","1","0","null","null","arrowup","[0.325,0.675,0.15,0.85]","","",""
"sailing-trial","275","1369881","0.0-11.0-230.0","","","","false","","","","","","","","","","551.5","","496.89999997615814","","3","1","arrowright","1","arrowright","[0.15,0.85,0.325,0.675]","","",""
"sailing-trial","276","1373669","0.0-11.0-231.0","","","","false","","","","","","","","","","null","","2189.100000023842","","3","1","null","null","arrowup","[0.15,0.85,0.325,0.675]","","",""
"sailing-trial","277","1377506","0.0-11.0-232.0","","","","false","","","","","","","","","","606.7999999523163","","607.2000000476837","","3","0","arrowright","1","arrowright","[0.15,0.85,0.325,0.675]","","",""
"sailing-trial","278","1381277","0.0-11.0-233.0","","","","false","","","","","","","","","","null","","744.3999999761581","","3","0","null","null","arrowup","[0.15,0.85,0.325,0.675]","","",""
"sailing-trial","279","1385191","0.0-11.0-234.0","","","","false","","","","","","","","","","658.5","","718.3999999761581","","0","0","arrowleft","0","arrowleft","[0.15,0.85,0.325,0.675]","","",""
"sailing-trial","280","1388112","0.0-11.0-235.0","","","","false","","","","","","","","","","null","","867.2000000476837","","2","1","null","null","arrowup","[0.15,0.85,0.325,0.675]","","",""
"sailing-trial","281","1391756","0.0-11.0-236.0","","","","false","","","","","","","","","","549.2000000476837","","401.5","","2","0","arrowright","1","arrowleft","[0.15,0.85,0.325,0.675]","","",""
"sailing-trial","282","1394934","0.0-11.0-237.0","","","","false","","","","","","","","","","null","","891.7999999523163","","0","0","null","null","arrowup","[0.15,0.85,0.325,0.675]","","",""
"sailing-trial","283","1401174","0.0-11.0-238.0","","","","false","","","","","","","","","","853.2000000476837","","1581.3000000715256","","1","1","arrowleft","0","arrowright","[0.15,0.85,0.325,0.675]","","",""
"sailing-trial","284","1405005","0.0-11.0-239.0","","","","false","","","","","","","","","","null","","1669.1000000238419","","1","1","null","null","arrowup","[0.15,0.85,0.325,0.675]","","",""
"sailing-trial","285","1410421","0.0-11.0-240.0","","","","false","","","","","","","","","","1336.3999999761581","","334.10000002384186","","1","1","arrowleft","0","arrowright","[0.15,0.85,0.325,0.675]","","",""
"sailing-trial","286","1413472","0.0-11.0-241.0","","","","false","","","","","","","","","","null","","1194.6000000238419","","2","1","null","null","arrowup","[0.15,0.85,0.325,0.675]","","",""
"sailing-trial","287","1418402","0.0-11.0-242.0","","","","false","","","","","","","","","","898.7999999523163","","53.800000071525574","","1","1","arrowleft","0","arrowright","[0.15,0.85,0.325,0.675]","","",""
"sailing-trial","288","1420855","0.0-11.0-243.0","","","","false","","","","","","","","","","null","","893.7000000476837","","2","0","null","null","arrowup","[0.15,0.85,0.325,0.675]","","",""
"sailing-trial","289","1425202","0.0-11.0-244.0","","","","false","","","","","","","","","","1000.3000000715256","","209","","1","1","arrowleft","0","arrowright","[0.15,0.85,0.325,0.675]","","",""
"sailing-trial","290","1427733","0.0-11.0-245.0","","","","false","","","","","","","","","","null","","732.9000000953674","","3","1","null","null","arrowup","[0.15,0.85,0.325,0.675]","","",""
"sailing-trial","291","1430794","0.0-11.0-246.0","","","","false","","","","","","","","","","549.7999999523163","","223.5","","1","0","arrowleft","0","arrowright","[0.325,0.675,0.15,0.85]","","",""
"sailing-trial","292","1433382","0.0-11.0-247.0","","","","false","","","","","","","","","","null","","900.0999999046326","","3","1","null","null","arrowup","[0.325,0.675,0.15,0.85]","","",""
"sailing-trial","293","1437114","0.0-11.0-248.0","","","","false","","","","","","","","","","605.2000000476837","","133.5","","1","1","arrowleft","0","arrowright","[0.325,0.675,0.15,0.85]","","",""
"sailing-trial","294","1439733","0.0-11.0-249.0","","","","false","","","","","","","","","","null","","686.8000000715256","","3","1","null","null","arrowup","[0.325,0.675,0.15,0.85]","","",""
"sailing-trial","295","1443846","0.0-11.0-250.0","","","","false","","","","","","","","","","616.3000000715256","","384.90000009536743","","1","1","arrowleft","0","arrowright","[0.325,0.675,0.15,0.85]","","",""
"sailing-trial","296","1446611","0.0-11.0-251.0","","","","false","","","","","","","","","","null","","906.8000000715256","","1","1","null","null","arrowup","[0.325,0.675,0.15,0.85]","","",""
"sailing-trial","297","1449634","0.0-11.0-252.0","","","","false","","","","","","","","","","593.2000000476837","","120.30000007152557","","1","0","arrowleft","0","arrowright","[0.325,0.675,0.15,0.85]","","",""
"sailing-trial","298","1454357","0.0-11.0-253.0","","","","false","","","","","","","","","","null","","2888.6999999284744","","0","0","null","null","arrowup","[0.325,0.675,0.15,0.85]","","",""
"sailing-trial","299","1459155","0.0-11.0-254.0","","","","false","","","","","","","","","","1187.1999999284744","","861.3999999761581","","1","0","arrowleft","0","arrowright","[0.325,0.675,0.15,0.85]","","",""
"sailing-trial","300","1461680","0.0-11.0-255.0","","","","false","","","","","","","","","","null","","927.5","","2","0","null","null","arrowup","[0.325,0.675,0.15,0.85]","","",""
"sailing-trial","301","1466007","0.0-11.0-256.0","","","","false","","","","","","","","","","638","","242.20000004768372","","0","1","arrowleft","0","arrowleft","[0.325,0.675,0.15,0.85]","","",""
"sailing-trial","302","1477400","0.0-11.0-257.0","","","","false","","","","","","","","","","null","","9284.899999976158","","0","0","null","null","arrowup","[0.325,0.675,0.15,0.85]","","",""
"sailing-trial","303","1481129","0.0-11.0-258.0","","","","false","","","","","","","","","","888.8000000715256","","400.7999999523163","","1","0","arrowleft","0","arrowright","[0.325,0.675,0.15,0.85]","","",""
"sailing-trial","304","1488319","0.0-11.0-259.0","","","","false","","","","","","","","","","null","","5321.299999952316","","1","1","null","null","arrowup","[0.325,0.675,0.15,0.85]","","",""
"sailing-trial","305","1492054","0.0-11.0-260.0","","","","false","","","","","","","","","","650.8999999761581","","106.70000004768372","","3","1","arrowright","1","arrowright","[0.325,0.675,0.15,0.85]","","",""
"sailing-trial","306","1495053","0.0-11.0-261.0","","","","false","","","","","","","","","","null","","1657.5","","2","0","null","null","arrowup","[0.325,0.675,0.15,0.85]","","",""
"sailing-trial","307","1498816","0.0-11.0-262.0","","","","false","","","","","","","","","","527.3000000715256","","366.5","","3","1","arrowright","1","arrowright","[0.325,0.675,0.15,0.85]","","",""
"sailing-trial","308","1500679","0.0-11.0-263.0","","","","false","","","","","","","","","","null","","585.6999999284744","","2","0","null","null","arrowup","[0.325,0.675,0.15,0.85]","","",""
"sailing-trial","309","1504151","0.0-11.0-264.0","","","","false","","","","","","","","","","389.89999997615814","","265.1999999284744","","3","1","arrowright","1","arrowright","[0.325,0.675,0.15,0.85]","","",""
"sailing-trial","310","1505991","0.0-11.0-265.0","","","","false","","","","","","","","","","null","","586.1999999284744","","3","0","null","null","arrowup","[0.325,0.675,0.15,0.85]","","",""
"sailing-trial","311","1509913","0.0-11.0-266.0","","","","false","","","","","","","","","","831.5","","261.10000002384186","","3","1","arrowright","1","arrowright","[0.15,0.85,0.325,0.675]","","",""
"sailing-trial","312","1512527","0.0-11.0-267.0","","","","false","","","","","","","","","","null","","1350.1000000238419","","2","0","null","null","arrowup","[0.15,0.85,0.325,0.675]","","",""
"sailing-trial","313","1515822","0.0-11.0-268.0","","","","false","","","","","","","","","","508.5","","155.60000002384186","","3","1","arrowright","1","arrowright","[0.15,0.85,0.325,0.675]","","",""
"sailing-trial","314","1517576","0.0-11.0-269.0","","","","false","","","","","","","","","","null","","531.8999999761581","","2","0","null","null","arrowup","[0.15,0.85,0.325,0.675]","","",""
"sailing-trial","315","1521946","0.0-11.0-270.0","","","","false","","","","","","","","","","527.3999999761581","","567.6000000238419","","3","0","arrowright","1","arrowright","[0.15,0.85,0.325,0.675]","","",""
"sailing-trial","316","1525393","0.0-11.0-271.0","","","","false","","","","","","","","","","null","","2077.100000023842","","0","0","null","null","arrowup","[0.15,0.85,0.325,0.675]","","",""
"sailing-trial","317","1528770","0.0-11.0-272.0","","","","false","","","","","","","","","","593.6000000238419","","323.2000000476837","","3","0","arrowright","1","arrowright","[0.15,0.85,0.325,0.675]","","",""
"sailing-trial","318","1531842","0.0-11.0-273.0","","","","false","","","","","","","","","","null","","1257.5","","0","1","null","null","arrowup","[0.15,0.85,0.325,0.675]","","",""
"sailing-trial","319","1536729","0.0-11.0-274.0","","","","false","","","","","","","","","","725.2000000476837","","427.7999999523163","","3","1","arrowright","1","arrowright","[0.15,0.85,0.325,0.675]","","",""
"sailing-trial","320","1539687","0.0-11.0-275.0","","","","false","","","","","","","","","","null","","614.7999999523163","","2","0","null","null","arrowup","[0.15,0.85,0.325,0.675]","","",""
"sailing-trial","321","1542989","0.0-11.0-276.0","","","","false","","","","","","","","","","529.1000000238419","","295.5","","0","0","arrowleft","0","arrowleft","[0.15,0.85,0.325,0.675]","","",""
"sailing-trial","322","1545533","0.0-11.0-277.0","","","","false","","","","","","","","","","null","","1232.0999999046326","","3","0","null","null","arrowup","[0.15,0.85,0.325,0.675]","","",""
"sailing-trial","323","1549003","0.0-11.0-278.0","","","","false","","","","","","","","","","743","","275.90000009536743","","3","0","arrowright","1","arrowright","[0.15,0.85,0.325,0.675]","","",""
"sailing-trial","324","1551487","0.0-11.0-279.0","","","","false","","","","","","","","","","null","","948.1000000238419","","1","1","null","null","arrowup","[0.15,0.85,0.325,0.675]","","",""
"sailing-trial","325","1554399","0.0-11.0-280.0","","","","false","","","","","","","","","","224","","375.1999999284744","","1","0","arrowleft","0","arrowright","[0.15,0.85,0.325,0.675]","","",""
"sailing-trial","326","1557072","0.0-11.0-281.0","","","","false","","","","","","","","","","null","","937.1999999284744","","3","1","null","null","arrowup","[0.15,0.85,0.325,0.675]","","",""
"sailing-trial","327","1560685","0.0-11.0-282.0","","","","false","","","","","","","","","","493","","192.70000004768372","","1","1","arrowleft","0","arrowright","[0.15,0.85,0.325,0.675]","","",""
"sailing-trial","328","1563932","0.0-11.0-283.0","","","","false","","","","","","","","","","null","","928.6000000238419","","2","0","null","null","arrowup","[0.15,0.85,0.325,0.675]","","",""
"sailing-trial","329","1567415","0.0-11.0-284.0","","","","false","","","","","","","","","","714.2000000476837","","402.60000002384186","","1","0","arrowleft","0","arrowright","[0.325,0.675,0.15,0.85]","","",""
"sailing-trial","330","1570716","0.0-11.0-285.0","","","","false","","","","","","","","","","null","","1532","","3","1","null","null","arrowup","[0.325,0.675,0.15,0.85]","","",""
"sailing-trial","331","1575464","0.0-11.0-286.0","","","","false","","","","","","","","","","2117.7000000476837","","308.2000000476837","","1","0","arrowleft","0","arrowright","[0.325,0.675,0.15,0.85]","","",""
"sailing-trial","332","1580313","0.0-11.0-287.0","","","","false","","","","","","","","","","null","","3088.7999999523163","","1","1","null","null","arrowup","[0.325,0.675,0.15,0.85]","","",""
"sailing-trial","333","1584177","0.0-11.0-288.0","","","","false","","","","","","","","","","660.7999999523163","","765.2999999523163","","2","0","arrowright","1","arrowleft","[0.325,0.675,0.15,0.85]","","",""
"sailing-trial","334","1587106","0.0-11.0-289.0","","","","false","","","","","","","","","","null","","1071.7999999523163","","3","1","null","null","arrowup","[0.325,0.675,0.15,0.85]","","",""
"sailing-trial","335","1590711","0.0-11.0-290.0","","","","false","","","","","","","","","","415.5","","220.20000004768372","","3","1","arrowright","1","arrowright","[0.325,0.675,0.15,0.85]","","",""
"sailing-trial","336","1592822","0.0-11.0-291.0","","","","false","","","","","","","","","","null","","922.8999999761581","","0","0","null","null","arrowup","[0.325,0.675,0.15,0.85]","","",""
"sailing-trial","337","1596476","0.0-11.0-292.0","","","","false","","","","","","","","","","326.7000000476837","","110.29999995231628","","3","1","arrowright","1","arrowright","[0.325,0.675,0.15,0.85]","","",""
"sailing-trial","338","1598237","0.0-11.0-293.0","","","","false","","","","","","","","","","null","","426.09999990463257","","0","0","null","null","arrowup","[0.325,0.675,0.15,0.85]","","",""
"sailing-trial","339","1601073","0.0-11.0-294.0","","","","false","","","","","","","","","","548.5","","73.79999995231628","","1","0","arrowleft","0","arrowright","[0.325,0.675,0.15,0.85]","","",""
"sailing-trial","340","1603208","0.0-11.0-295.0","","","","false","","","","","","","","","","null","","254.39999997615814","","0","1","null","null","arrowup","[0.325,0.675,0.15,0.85]","","",""
"sailing-trial","341","1606208","0.0-11.0-296.0","","","","false","","","","","","","","","","177.19999992847443","","171.5","","3","1","arrowright","1","arrowright","[0.325,0.675,0.15,0.85]","","",""
"sailing-trial","342","1608006","0.0-11.0-297.0","","","","false","","","","","","","","","","null","","72","","0","1","null","null","arrowup","[0.325,0.675,0.15,0.85]","","",""
"sailing-trial","343","1611706","0.0-11.0-298.0","","","","false","","","","","","","","","","689.7999999523163","","209","","3","1","arrowright","1","arrowright","[0.325,0.675,0.15,0.85]","","",""
"sailing-trial","344","1613001","0.0-11.0-299.0","","","","false","","","","","","","","","","null","","47.39999997615814","","2","0","null","null","arrowup","[0.325,0.675,0.15,0.85]","","",""
"sailing-trial","345","1615738","0.0-11.0-300.0","","","","false","","","","","","","","","","112.90000009536743","","65","","3","1","arrowright","1","arrowright","[0.325,0.675,0.15,0.85]","","",""
"sailing-trial","346","1617454","0.0-11.0-301.0","","","","false","","","","","","","","","","null","","123.89999997615814","","2","1","null","null","arrowup","[0.325,0.675,0.15,0.85]","","",""
"sailing-trial","347","1620260","0.0-11.0-302.0","","","","false","","","","","","","","","","109.5","","565.2000000476837","","3","0","arrowright","1","arrowright","[0.15,0.85,0.325,0.675]","","",""
"sailing-trial","348","1622055","0.0-11.0-303.0","","","","false","","","","","","","","","","null","","270.89999997615814","","1","1","null","null","arrowup","[0.15,0.85,0.325,0.675]","","",""
"sailing-trial","349","1624886","0.0-11.0-304.0","","","","false","","","","","","","","","","12.100000023841858","","234.20000004768372","","3","1","arrowright","1","arrowright","[0.15,0.85,0.325,0.675]","","",""
"sailing-trial","350","1626685","0.0-11.0-305.0","","","","false","","","","","","","","","","null","","64.39999997615814","","3","1","null","null","arrowup","[0.15,0.85,0.325,0.675]","","",""
"sailing-trial","351","1629601","0.0-11.0-306.0","","","","false","","","","","","","","","","74.80000007152557","","165.29999995231628","","3","1","arrowright","1","arrowright","[0.15,0.85,0.325,0.675]","","",""
"sailing-trial","352","1631145","0.0-11.0-307.0","","","","false","","","","","","","","","","null","","382.6999999284744","","0","0","null","null","arrowup","[0.15,0.85,0.325,0.675]","","",""
"sailing-trial","353","1635235","0.0-11.0-308.0","","","","false","","","","","","","","","","1233.6000000238419","","96.69999992847443","","1","1","arrowleft","0","arrowright","[0.15,0.85,0.325,0.675]","","",""
"sailing-trial","354","1637116","0.0-11.0-309.0","","","","false","","","","","","","","","","null","","596.1999999284744","","0","0","null","null","arrowup","[0.15,0.85,0.325,0.675]","","",""
"sailing-trial","355","1640418","0.0-11.0-310.0","","","","false","","","","","","","","","","179.5","","267.40000009536743","","3","1","arrowright","1","arrowright","[0.15,0.85,0.325,0.675]","","",""
"sailing-trial","356","1641778","0.0-11.0-311.0","","","","false","","","","","","","","","","null","","125.89999997615814","","3","0","null","null","arrowup","[0.15,0.85,0.325,0.675]","","",""
"sailing-trial","357","1644551","0.0-11.0-312.0","","","","false","","","","","","","","","","620","","53.700000047683716","","1","0","arrowleft","0","arrowright","[0.15,0.85,0.325,0.675]","","",""
"sailing-trial","358","1645964","0.0-11.0-313.0","","","","false","","","","","","","","","","null","","17","","2","0","null","null","arrowup","[0.15,0.85,0.325,0.675]","","",""
"sailing-trial","359","1648909","0.0-11.0-314.0","","","","false","","","","","","","","","","579.2999999523163","","192.10000002384186","","1","0","arrowleft","0","arrowright","[0.15,0.85,0.325,0.675]","","",""
"sailing-trial","360","1651041","0.0-11.0-315.0","","","","false","","","","","","","","","","null","","186","","1","1","null","null","arrowup","[0.15,0.85,0.325,0.675]","","",""
"sailing-trial","361","1655629","0.0-11.0-316.0","","","","false","","","","","","","","","","356.2999999523163","","108.20000004768372","","3","1","arrowright","1","arrowright","[0.15,0.85,0.325,0.675]","","",""
"sailing-trial","362","1658065","0.0-11.0-317.0","","","","false","","","","","","","","","","null","","893.8999999761581","","0","0","null","null","arrowup","[0.15,0.85,0.325,0.675]","","",""
"sailing-trial","363","1661411","0.0-11.0-318.0","","","","false","","","","","","","","","","403.89999997615814","","128","","3","1","arrowright","1","arrowright","[0.15,0.85,0.325,0.675]","","",""
"sailing-trial","364","1663293","0.0-11.0-319.0","","","","false","","","","","","","","","","null","","705","","0","0","null","null","arrowup","[0.15,0.85,0.325,0.675]","","",""
"sailing-trial","365","1667757","0.0-11.0-320.0","","","","false","","","","","","","","","","528.8000000715256","","1767.3000000715256","","3","0","arrowright","1","arrowright","[0.15,0.85,0.325,0.675]","","",""
"sailing-trial","366","1670157","0.0-11.0-321.0","","","","false","","","","","","","","","","null","","1026.6000000238419","","0","0","null","null","arrowup","[0.15,0.85,0.325,0.675]","","",""
"sailing-trial","367","1673439","0.0-11.0-322.0","","","","false","","","","","","","","","","757.7000000476837","","219.39999997615814","","0","0","arrowleft","0","arrowleft","[0.15,0.85,0.325,0.675]","","",""
"sailing-trial","368","1675524","0.0-11.0-323.0","","","","false","","","","","","","","","","null","","884.8000000715256","","2","0","null","null","arrowup","[0.15,0.85,0.325,0.675]","","",""
"sailing-trial","369","1678438","0.0-11.0-324.0","","","","false","","","","","","","","","","600.1000000238419","","115.79999995231628","","1","0","arrowleft","0","arrowright","[0.15,0.85,0.325,0.675]","","",""
"sailing-trial","370","1680452","0.0-11.0-325.0","","","","false","","","","","","","","","","null","","893.5","","2","0","null","null","arrowup","[0.15,0.85,0.325,0.675]","","",""
"sailing-trial","371","1685150","0.0-11.0-326.0","","","","false","","","","","","","","","","386.59999990463257","","511.5","","2","0","arrowright","1","arrowleft","[0.675,0.325,0.85,0.15]","","",""
"sailing-trial","372","1686607","0.0-11.0-327.0","","","","false","","","","","","","","","","null","","214.79999995231628","","3","0","null","null","arrowup","[0.675,0.325,0.85,0.15]","","",""
"sailing-trial","373","1689286","0.0-11.0-328.0","","","","false","","","","","","","","","","422.90000009536743","","83.39999997615814","","3","0","arrowright","1","arrowright","[0.675,0.325,0.85,0.15]","","",""
"sailing-trial","374","1691285","0.0-11.0-329.0","","","","false","","","","","","","","","","null","","721.7999999523163","","0","0","null","null","arrowup","[0.675,0.325,0.85,0.15]","","",""
"sailing-trial","375","1695751","0.0-11.0-330.0","","","","false","","","","","","","","","","155.89999997615814","","281.89999997615814","","0","0","arrowleft","0","arrowleft","[0.675,0.325,0.85,0.15]","","",""
"sailing-trial","376","1701727","0.0-11.0-331.0","","","","false","","","","","","","","","","null","","4172.400000095367","","1","0","null","null","arrowup","[0.675,0.325,0.85,0.15]","","",""
"sailing-trial","377","1706950","0.0-11.0-332.0","","","","false","","","","","","","","","","1624.3999999761581","","311.39999997615814","","2","1","arrowright","1","arrowleft","[0.675,0.325,0.85,0.15]","","",""
"sailing-trial","378","1708966","0.0-11.0-333.0","","","","false","","","","","","","","","","null","","902.2000000476837","","2","0","null","null","arrowup","[0.675,0.325,0.85,0.15]","","",""
"sailing-trial","379","1712165","0.0-11.0-334.0","","","","false","","","","","","","","","","453.10000002384186","","209.39999997615814","","2","1","arrowright","1","arrowleft","[0.675,0.325,0.85,0.15]","","",""
"sailing-trial","380","1714461","0.0-11.0-335.0","","","","false","","","","","","","","","","null","","584.7999999523163","","3","0","null","null","arrowup","[0.675,0.325,0.85,0.15]","","",""
"sailing-trial","381","1718980","0.0-11.0-336.0","","","","false","","","","","","","","","","1205.5","","371.10000002384186","","2","1","arrowright","1","arrowleft","[0.675,0.325,0.85,0.15]","","",""
"sailing-trial","382","1722462","0.0-11.0-337.0","","","","false","","","","","","","","","","null","","1654.5","","0","1","null","null","arrowup","[0.675,0.325,0.85,0.15]","","",""
"sailing-trial","383","1725740","0.0-11.0-338.0","","","","false","","","","","","","","","","25.800000071525574","","161.60000002384186","","2","0","arrowright","1","arrowleft","[0.675,0.325,0.85,0.15]","","",""
"sailing-trial","384","1728227","0.0-11.0-339.0","","","","false","","","","","","","","","","null","","957.7999999523163","","1","0","null","null","arrowup","[0.675,0.325,0.85,0.15]","","",""
"sailing-trial","385","1732293","0.0-11.0-340.0","","","","false","","","","","","","","","","625.2000000476837","","294.2000000476837","","1","1","arrowleft","0","arrowright","[0.675,0.325,0.85,0.15]","","",""
"sailing-trial","386","1734276","0.0-11.0-341.0","","","","false","","","","","","","","","","null","","273.2999999523163","","1","0","null","null","arrowup","[0.675,0.325,0.85,0.15]","","",""
"sailing-trial","387","1737676","0.0-11.0-342.0","","","","false","","","","","","","","","","830.6000000238419","","8.799999952316284","","1","1","arrowleft","0","arrowright","[0.15,0.85,0.325,0.675]","","",""
"sailing-trial","388","1739209","0.0-11.0-343.0","","","","false","","","","","","","","","","null","","384.39999997615814","","2","0","null","null","arrowup","[0.15,0.85,0.325,0.675]","","",""
"sailing-trial","389","1742874","0.0-11.0-344.0","","","","false","","","","","","","","","","607.2999999523163","","305.60000002384186","","1","1","arrowleft","0","arrowright","[0.15,0.85,0.325,0.675]","","",""
"sailing-trial","390","1748521","0.0-11.0-345.0","","","","false","","","","","","","","","","null","","2728.899999976158","","0","0","null","null","arrowup","[0.15,0.85,0.325,0.675]","","",""
"sailing-trial","391","1752555","0.0-11.0-346.0","","","","false","","","","","","","","","","810.5","","321.7999999523163","","1","1","arrowleft","0","arrowright","[0.15,0.85,0.325,0.675]","","",""
"sailing-trial","392","1755238","0.0-11.0-347.0","","","","false","","","","","","","","","","null","","886.3000000715256","","2","1","null","null","arrowup","[0.15,0.85,0.325,0.675]","","",""
"sailing-trial","393","1759000","0.0-11.0-348.0","","","","false","","","","","","","","","","603.2000000476837","","225.60000002384186","","1","1","arrowleft","0","arrowright","[0.15,0.85,0.325,0.675]","","",""
"sailing-trial","394","1761620","0.0-11.0-349.0","","","","false","","","","","","","","","","null","","846.2000000476837","","1","1","null","null","arrowup","[0.15,0.85,0.325,0.675]","","",""
"sailing-trial","395","1767652","0.0-11.0-350.0","","","","false","","","","","","","","","","594.5","","456.6999999284744","","1","1","arrowleft","0","arrowright","[0.15,0.85,0.325,0.675]","","",""
"sailing-trial","396","1771297","0.0-11.0-351.0","","","","false","","","","","","","","","","null","","1852.1000000238419","","3","1","null","null","arrowup","[0.15,0.85,0.325,0.675]","","",""
"sailing-trial","397","1774867","0.0-11.0-352.0","","","","false","","","","","","","","","","528.3000000715256","","177.39999997615814","","1","1","arrowleft","0","arrowright","[0.15,0.85,0.325,0.675]","","",""
"sailing-trial","398","1776899","0.0-11.0-353.0","","","","false","","","","","","","","","","null","","670","","0","0","null","null","arrowup","[0.15,0.85,0.325,0.675]","","",""
"sailing-trial","399","1785209","0.0-11.0-354.0","","","","false","","","","","","","","","","1200.5","","4760.300000071526","","0","0","arrowleft","0","arrowleft","[0.15,0.85,0.325,0.675]","","",""
"sailing-trial","400","1787467","0.0-11.0-355.0","","","","false","","","","","","","","","","null","","473.5","","2","1","null","null","arrowup","[0.15,0.85,0.325,0.675]","","",""
"sailing-trial","401","1791124","0.0-11.0-356.0","","","","false","","","","","","","","","","1076.8000000715256","","281.39999997615814","","2","0","arrowright","1","arrowleft","[0.15,0.85,0.325,0.675]","","",""
"sailing-trial","402","1793390","0.0-11.0-357.0","","","","false","","","","","","","","","","null","","690.7999999523163","","2","1","null","null","arrowup","[0.15,0.85,0.325,0.675]","","",""
"sailing-trial","403","1795942","0.0-11.0-358.0","","","","false","","","","","","","","","","141.5","","92.39999997615814","","1","0","arrowleft","0","arrowright","[0.85,0.15,0.675,0.325]","","",""
"sailing-trial","404","1798077","0.0-11.0-359.0","","","","false","","","","","","","","","","null","","128","","0","1","null","null","arrowup","[0.85,0.15,0.675,0.325]","","",""
"sailing-trial","405","1801426","0.0-11.0-360.0","","","","false","","","","","","","","","","461.5","","123.60000002384186","","0","1","arrowleft","0","arrowleft","[0.85,0.15,0.675,0.325]","","",""
"sailing-trial","406","1806074","0.0-11.0-361.0","","","","false","","","","","","","","","","null","","2783.100000023842","","0","1","null","null","arrowup","[0.85,0.15,0.675,0.325]","","",""
"sailing-trial","407","1810440","0.0-11.0-362.0","","","","false","","","","","","","","","","713.3000000715256","","444.5","","0","1","arrowleft","0","arrowleft","[0.85,0.15,0.675,0.325]","","",""
"sailing-trial","408","1812322","0.0-11.0-363.0","","","","false","","","","","","","","","","null","","313.2999999523163","","3","0","null","null","arrowup","[0.85,0.15,0.675,0.325]","","",""
"sailing-trial","409","1816084","0.0-11.0-364.0","","","","false","","","","","","","","","","1031.6000000238419","","209.5","","0","0","arrowleft","0","arrowleft","[0.85,0.15,0.675,0.325]","","",""
"sailing-trial","410","1817721","0.0-11.0-365.0","","","","false","","","","","","","","","","null","","482.7999999523163","","1","0","null","null","arrowup","[0.85,0.15,0.675,0.325]","","",""
"sailing-trial","411","1821238","0.0-11.0-366.0","","","","false","","","","","","","","","","99.29999995231628","","438.7999999523163","","3","1","arrowright","1","arrowright","[0.85,0.15,0.675,0.325]","","",""
"sailing-trial","412","1823389","0.0-11.0-367.0","","","","false","","","","","","","","","","null","","405.5","","0","1","null","null","arrowup","[0.85,0.15,0.675,0.325]","","",""
"sailing-trial","413","1828016","0.0-11.0-368.0","","","","false","","","","","","","","","","799.6999999284744","","1645.5999999046326","","3","0","arrowright","1","arrowright","[0.85,0.15,0.675,0.325]","","",""
"sailing-trial","414","1830419","0.0-11.0-369.0","","","","false","","","","","","","","","","null","","1100.3999999761581","","1","0","null","null","arrowup","[0.85,0.15,0.675,0.325]","","",""
"sailing-trial","415","1832818","0.0-11.0-370.0","","","","false","","","","","","","","","","263.3000000715256","","76.39999997615814","","3","0","arrowright","1","arrowright","[0.85,0.15,0.675,0.325]","","",""
"sailing-trial","416","1834259","0.0-11.0-371.0","","","","false","","","","","","","","","","null","","194.39999997615814","","1","0","null","null","arrowup","[0.85,0.15,0.675,0.325]","","",""
"sailing-trial","417","1837371","0.0-11.0-372.0","","","","false","","","","","","","","","","147","","55","","0","1","arrowleft","0","arrowleft","[0.85,0.15,0.675,0.325]","","",""
"sailing-trial","418","1839567","0.0-11.0-373.0","","","","false","","","","","","","","","","null","","426.2999999523163","","2","1","null","null","arrowup","[0.85,0.15,0.675,0.325]","","",""
"sailing-trial","419","1842350","0.0-11.0-374.0","","","","false","","","","","","","","","","54.5","","141.69999992847443","","0","1","arrowleft","0","arrowleft","[0.85,0.15,0.675,0.325]","","",""
"sailing-trial","420","1844233","0.0-11.0-375.0","","","","false","","","","","","","","","","null","","104.60000002384186","","2","1","null","null","arrowup","[0.85,0.15,0.675,0.325]","","",""
"sailing-trial","421","1847732","0.0-11.0-376.0","","","","false","","","","","","","","","","278.2000000476837","","197.30000007152557","","0","1","arrowleft","0","arrowleft","[0.85,0.15,0.675,0.325]","","",""
"sailing-trial","422","1849334","0.0-11.0-377.0","","","","false","","","","","","","","","","null","","221.70000004768372","","3","0","null","null","arrowup","[0.85,0.15,0.675,0.325]","","",""
"sailing-trial","423","1852431","0.0-11.0-378.0","","","","false","","","","","","","","","","356.39999997615814","","159.89999997615814","","0","1","arrowleft","0","arrowleft","[0.85,0.15,0.675,0.325]","","",""
"sailing-trial","424","1855721","0.0-11.0-379.0","","","","false","","","","","","","","","","null","","251.39999997615814","","2","0","null","null","arrowup","[0.85,0.15,0.675,0.325]","","",""
"sailing-trial","425","1861217","0.0-11.0-380.0","","","","false","","","","","","","","","","2749.399999976158","","414.7000000476837","","0","0","arrowleft","0","arrowleft","[0.675,0.325,0.85,0.15]","","",""
"sailing-trial","426","1864478","0.0-11.0-381.0","","","","false","","","","","","","","","","null","","1398","","1","1","null","null","arrowup","[0.675,0.325,0.85,0.15]","","",""
"sailing-trial","427","1869442","0.0-11.0-382.0","","","","false","","","","","","","","","","934","","1696.7999999523163","","0","0","arrowleft","0","arrowleft","[0.675,0.325,0.85,0.15]","","",""
"sailing-trial","428","1871776","0.0-11.0-383.0","","","","false","","","","","","","","","","null","","741.2000000476837","","2","1","null","null","arrowup","[0.675,0.325,0.85,0.15]","","",""
"sailing-trial","429","1875042","0.0-11.0-384.0","","","","false","","","","","","","","","","116.5","","177.10000002384186","","2","1","arrowright","1","arrowleft","[0.675,0.325,0.85,0.15]","","",""
"sailing-trial","430","1877675","0.0-11.0-385.0","","","","false","","","","","","","","","","null","","1087.8000000715256","","1","1","null","null","arrowup","[0.675,0.325,0.85,0.15]","","",""
"sailing-trial","431","1881071","0.0-11.0-386.0","","","","false","","","","","","","","","","1044.8000000715256","","55.39999997615814","","3","0","arrowright","1","arrowright","[0.675,0.325,0.85,0.15]","","",""
"sailing-trial","432","1883187","0.0-11.0-387.0","","","","false","","","","","","","","","","null","","814.5","","2","0","null","null","arrowup","[0.675,0.325,0.85,0.15]","","",""
"sailing-trial","433","1886297","0.0-11.0-388.0","","","","false","","","","","","","","","","433.60000002384186","","136.89999997615814","","2","1","arrowright","1","arrowleft","[0.675,0.325,0.85,0.15]","","",""
"sailing-trial","434","1889022","0.0-11.0-389.0","","","","false","","","","","","","","","","null","","190.39999997615814","","2","1","null","null","arrowup","[0.675,0.325,0.85,0.15]","","",""
"sailing-trial","435","1892954","0.0-11.0-390.0","","","","false","","","","","","","","","","625.7000000476837","","187.70000004768372","","2","1","arrowright","1","arrowleft","[0.675,0.325,0.85,0.15]","","",""
"sailing-trial","436","1897770","0.0-11.0-391.0","","","","false","","","","","","","","","","null","","3039.2999999523163","","0","1","null","null","arrowup","[0.675,0.325,0.85,0.15]","","",""
"sailing-trial","437","1901516","0.0-11.0-392.0","","","","false","","","","","","","","","","483.2999999523163","","262.7000000476837","","0","0","arrowleft","0","arrowleft","[0.675,0.325,0.85,0.15]","","",""
"sailing-trial","438","1904352","0.0-11.0-393.0","","","","false","","","","","","","","","","null","","1017.3000000715256","","0","1","null","null","arrowup","[0.675,0.325,0.85,0.15]","","",""
"sailing-trial","439","1908068","0.0-11.0-394.0","","","","false","","","","","","","","","","216.89999997615814","","178.10000002384186","","2","1","arrowright","1","arrowleft","[0.675,0.325,0.85,0.15]","","",""
"sailing-trial","440","1910034","0.0-11.0-395.0","","","","false","","","","","","","","","","null","","69.80000007152557","","0","1","null","null","arrowup","[0.675,0.325,0.85,0.15]","","",""
"sailing-trial","441","1915049","0.0-11.0-396.0","","","","false","","","","","","","","","","349","","1822.1999999284744","","2","1","arrowright","1","arrowleft","[0.675,0.325,0.85,0.15]","","",""
"sailing-trial","442","1916865","0.0-11.0-397.0","","","","false","","","","","","","","","","null","","789.6000000238419","","3","0","null","null","arrowup","[0.675,0.325,0.85,0.15]","","",""
"sailing-trial","443","1920955","0.0-11.0-398.0","","","","false","","","","","","","","","","1036","","10.899999976158142","","2","1","arrowright","1","arrowleft","[0.675,0.325,0.85,0.15]","","",""
"sailing-trial","444","1923213","0.0-11.0-399.0","","","","false","","","","","","","","","","null","","1050.1000000238419","","3","0","null","null","arrowup","[0.675,0.325,0.85,0.15]","","",""
"instructions","445","1927165","0.0-12.0","","","","","","","","","","3951.2000000476837","","","","","","","","","","","","","","","","[{""page_index"":0,""viewing_time"":3949.899999976158}]"
"survey-debrief","446","1980443","0.0-13.0","","","","","","","","","","53275.39999997616","","","","","","","","","","","","","","{""difficulty"":""5"",""fun"":""1"",""clarity"":""5"",""strategy"":""no"",""feedback"":""no but it made me very very sleepy after awhile""}","",""
