"trial_type","trial_index","time_elapsed","internal_node_id","value","metadata","success","timeout","failed_images","failed_audio","failed_video","browser_interaction","low_quality","rt","stimulus","response","button_pressed","island_rt","island_response","boat_rt","boat_response","boat","reward","island_key","island","boat_key","reward_probabilities","responses","num_errors","view_history"
"pavlovia","0","3","0.0-0.0","","","","","","","","","","","","","","","","","","","","","","","","","",""
"call-function","1","3","0.0-1.0","","{""task_version"":""sailing_part1_v1"",""task_condition"":""good"",""boats"":[""B"",""C"",""D"",""A""],""boats_demo"":[""E"",""H"",""G"",""F""],""islands"":[""B"",""A""],""subject_id"":""13864"",""age"":""12"",""gender"":""Female""}","","","","","","","","","","","","","","","","","","","","","","","",""
"preload","2","2760","0.0-2.0","","","true","false","[]","[]","[]","[{""event"":""fullscreenenter"",""trial"":3,""time"":5777}]","false","","","","","","","","","","","","","","","","",""
"fullscreen","3","6767","0.0-3.0","","","true","","","","","","","","","","","","","","","","","","","","","","",""
"audio-keyboard-response","4","9357","0.0-4.0-0.0","","","","","","","","","","1365.3333333333333","audio/beep_loop.wav"," ","","","","","","","","","","","","","",""
"audio-test","5","11058","0.0-4.0-1.0","","","","","","","","","","null","audio/turtle.mp3","","3","","","","","","","","","","","","",""
"audio-test","6","13329","0.0-4.0-2.0","","","","","","","","","","null","audio/shark.mp3","","2","","","","","","","","","","","","",""
"sailing-instructions","7","54652","0.0-5.0-0.0-0.0","","","","","","","","","","","","","","null","null","null","null","null","null","","","","","","",""
"sailing-trial","8","60732","0.0-5.0-0.0-1.0-0.0","","","","false","","","","","","","","","","4695.100000023842","","null","","null","null","arrowleft","0","null","null","","",""
"sailing-trial","9","63077","0.0-5.0-0.0-1.0-1.0","","","","false","","","","","","","","","","1127.2999999523163","","null","","null","null","arrowright","1","null","null","","",""
"sailing-trial","10","65842","0.0-5.0-0.0-1.0-2.0","","","","false","","","","","","","","","","1631.3000000715256","","null","","null","null","arrowleft","0","null","null","","",""
"sailing-instructions","11","116745","0.0-5.0-0.0-2.0","","","","","","","","","","","","","","null","null","null","null","0","null","","","","","","",""
"sailing-trial","12","127086","0.0-5.0-0.0-3.0-0.0","","","","false","","","","","","","","","","null","","6380","","2","1","null","null","arrowleft","[1,1,1,1]","","",""
"sailing-trial","13","130919","0.0-5.0-0.0-3.0-1.0","","","","false","","","","","","","","","","null","","1090","","3","1","null","null","arrowright","[1,1,1,1]","","",""
"sailing-trial","14","134418","0.0-5.0-0.0-3.0-2.0","","","","false","","","","","","","","","","null","","730.8999999761581","","3","0","null","null","arrowright","[0,0,0,0]","","",""
"sailing-instructions","15","142275","0.0-5.0-0.0-4.0","","","","","","","","","","","","","","null","null","null","null","null","null","","","","","","",""
"sailing-comprehension","16","158721","0.0-5.0-0.0-5.0","","","","","","","","","","14753.899999976158","","","","","","","","","","","","","","[""true"",""true"",""false"",""true""]","0",""
"sailing-instructions","17","221454","0.0-6.0-0.0-0.0","","","","","","","","","","","","","","null","null","null","null","null","null","","","","","","",""
"sailing-comprehension","18","235289","0.0-6.0-0.0-1.0","","","","","","","","","","11579","","","","","","","","","","","","","","[""true"",""false"",""true""]","0",""
"sailing-instructions","19","248988","0.0-7.0-0.0-0.0","","","","","","","","","","","","","","null","null","null","null","null","null","","","","","","",""
"sailing-trial","20","256171","0.0-7.0-0.0-1.0-0.0","","","","false","","","","","","","","","","null","","3648.399999976158","","0","1","null","null","arrowup","[0.2,0.8,0.2,0.8]","","",""
"sailing-trial","21","259729","0.0-7.0-0.0-1.0-1.0","","","","false","","","","","","","","","","null","","1477.6000000238419","","1","1","null","null","arrowup","[0.2,0.8,0.2,0.8]","","",""
"sailing-trial","22","263725","0.0-7.0-0.0-1.0-2.0","","","","false","","","","","","","","","","null","","1644.2999999523163","","2","0","null","null","arrowup","[0.2,0.8,0.2,0.8]","","",""
"sailing-trial","23","268757","0.0-7.0-0.0-1.0-3.0","","","","false","","","","","","","","","","null","","1058","","3","1","null","null","arrowup","[0.2,0.8,0.2,0.8]","","",""
"sailing-comprehension","24","277763","0.0-7.0-0.0-2.0","","","","","","","","","","7807.899999976158","","","","","","","","","","","","","","[""false""]","0",""
"sailing-instructions","25","288438","0.0-8.0-0.0-0.0","","","","","","","","","","","","","","null","null","null","null","null","null","","","","","","",""
"sailing-comprehension","26","294232","0.0-8.0-0.0-1.0","","","","","","","","","","4875","","","","","","","","","","","","","","[""true""]","0",""
"sailing-instructions","27","319462","0.0-9.0-0.0-0.0","","","","","","","","","","","","","","null","null","null","null","null","null","","","","","","",""
"sailing-trial","28","326092","0.0-9.0-0.0-1.0-0.0","","","","false","","","","","","","","","","1112.2000000476837","","641.3000000715256","","1","1","arrowleft","0","arrowright","[0.2,0.8,0.2,0.8]","","",""
"sailing-trial","29","330170","0.0-9.0-0.0-1.0-1.0","","","","false","","","","","","","","","","479.60000002384186","","215","","3","1","arrowright","1","arrowright","[0.2,0.8,0.2,0.8]","","",""
"sailing-trial","30","333734","0.0-9.0-0.0-1.0-2.0","","","","false","","","","","","","","","","null","","1669.5","","0","0","null","null","arrowup","[0.2,0.8,0.2,0.8]","","",""
"sailing-trial","31","338429","0.0-9.0-0.0-1.0-3.0","","","","false","","","","","","","","","","740.7999999523163","","704.7000000476837","","1","1","arrowleft","0","arrowright","[0.2,0.8,0.2,0.8]","","",""
"sailing-trial","32","342942","0.0-9.0-0.0-1.0-4.0","","","","false","","","","","","","","","","null","","1748.7000000476837","","3","1","null","null","arrowup","[0.2,0.8,0.2,0.8]","","",""
"sailing-trial","33","347303","0.0-9.0-0.0-1.0-5.0","","","","false","","","","","","","","","","716.1000000238419","","514.2999999523163","","3","1","arrowright","1","arrowright","[0.2,0.8,0.2,0.8]","","",""
"sailing-instructions","34","373412","0.0-10.0","","","","","","","","","","","","","","null","null","null","null","null","null","","","","","","",""
"sailing-trial","35","378612","0.0-11.0-0.0","","","","false","","","","","","","","","","1593.3000000715256","","81.80000007152557","","2","1","arrowright","1","arrowleft","[0.325,0.675,0.15,0.85]","","",""
"sailing-trial","36","382607","0.0-11.0-1.0","","","","false","","","","","","","","","","null","","1353.8999999761581","","0","0","null","null","arrowup","[0.325,0.675,0.15,0.85]","","",""
"sailing-trial","37","386317","0.0-11.0-2.0","","","","false","","","","","","","","","","665.1000000238419","","18.5","","2","0","arrowright","1","arrowleft","[0.325,0.675,0.15,0.85]","","",""
"sailing-trial","38","391080","0.0-11.0-3.0","","","","false","","","","","","","","","","null","","2389.5","","0","0","null","null","arrowup","[0.325,0.675,0.15,0.85]","","",""
"sailing-trial","39","396213","0.0-11.0-4.0","","","","false","","","","","","","","","","783.6999999284744","","180","","0","0","arrowleft","0","arrowleft","[0.325,0.675,0.15,0.85]","","",""
"sailing-trial","40","399909","0.0-11.0-5.0","","","","false","","","","","","","","","","null","","651.6000000238419","","0","0","null","null","arrowup","[0.325,0.675,0.15,0.85]","","",""
"sailing-trial","41","406323","0.0-11.0-6.0","","","","false","","","","","","","","","","955.5999999046326","","1592.2000000476837","","1","1","arrowleft","0","arrowright","[0.325,0.675,0.15,0.85]","","",""
"sailing-trial","42","410795","0.0-11.0-7.0","","","","false","","","","","","","","","","null","","1436","","0","0","null","null","arrowup","[0.325,0.675,0.15,0.85]","","",""
"sailing-trial","43","416333","0.0-11.0-8.0","","","","false","","","","","","","","","","626.5999999046326","","1396.2999999523163","","1","1","arrowleft","0","arrowright","[0.325,0.675,0.15,0.85]","","",""
"sailing-trial","44","420342","0.0-11.0-9.0","","","","false","","","","","","","","","","null","","970.8000000715256","","0","0","null","null","arrowup","[0.325,0.675,0.15,0.85]","","",""
"sailing-trial","45","424674","0.0-11.0-10.0","","","","false","","","","","","","","","","637.7999999523163","","451.3000000715256","","1","1","arrowleft","0","arrowright","[0.325,0.675,0.15,0.85]","","",""
"sailing-trial","46","428519","0.0-11.0-11.0","","","","false","","","","","","","","","","null","","1216.1999999284744","","0","0","null","null","arrowup","[0.325,0.675,0.15,0.85]","","",""
"sailing-trial","47","433831","0.0-11.0-12.0","","","","false","","","","","","","","","","518.9000000953674","","731.5","","1","0","arrowleft","0","arrowright","[0.325,0.675,0.15,0.85]","","",""
"sailing-trial","48","437989","0.0-11.0-13.0","","","","false","","","","","","","","","","null","","1136.6000000238419","","1","0","null","null","arrowup","[0.325,0.675,0.15,0.85]","","",""
"sailing-trial","49","443623","0.0-11.0-14.0","","","","false","","","","","","","","","","580.1000000238419","","925.8999999761581","","2","0","arrowright","1","arrowleft","[0.325,0.675,0.15,0.85]","","",""
"sailing-trial","50","449111","0.0-11.0-15.0","","","","false","","","","","","","","","","null","","786.2999999523163","","0","1","null","null","arrowup","[0.325,0.675,0.15,0.85]","","",""
"sailing-trial","51","453349","0.0-11.0-16.0","","","","false","","","","","","","","","","535.8999999761581","","411.09999990463257","","3","1","arrowright","1","arrowright","[0.325,0.675,0.15,0.85]","","",""
"sailing-trial","52","456219","0.0-11.0-17.0","","","","false","","","","","","","","","","null","","631.8000000715256","","3","1","null","null","arrowup","[0.325,0.675,0.15,0.85]","","",""
"sailing-trial","53","460331","0.0-11.0-18.0","","","","false","","","","","","","","","","554.3000000715256","","526.7000000476837","","3","1","arrowright","1","arrowright","[0.85,0.15,0.675,0.325]","","",""
"sailing-trial","54","463021","0.0-11.0-19.0","","","","false","","","","","","","","","","null","","1043","","3","0","null","null","arrowup","[0.85,0.15,0.675,0.325]","","",""
"sailing-trial","55","466943","0.0-11.0-20.0","","","","false","","","","","","","","","","662.6000000238419","","30.5","","3","1","arrowright","1","arrowright","[0.85,0.15,0.675,0.325]","","",""
"sailing-trial","56","472455","0.0-11.0-21.0","","","","false","","","","","","","","","","null","","2761.899999976158","","2","1","null","null","arrowup","[0.85,0.15,0.675,0.325]","","",""
"sailing-trial","57","478376","0.0-11.0-22.0","","","","false","","","","","","","","","","796","","37.60000002384186","","3","0","arrowright","1","arrowright","[0.85,0.15,0.675,0.325]","","",""
"sailing-trial","58","482863","0.0-11.0-23.0","","","","false","","","","","","","","","","null","","1449.0999999046326","","1","0","null","null","arrowup","[0.85,0.15,0.675,0.325]","","",""
"sailing-trial","59","488184","0.0-11.0-24.0","","","","false","","","","","","","","","","806.7000000476837","","444.60000002384186","","1","0","arrowleft","0","arrowright","[0.85,0.15,0.675,0.325]","","",""
"sailing-trial","60","492426","0.0-11.0-25.0","","","","false","","","","","","","","","","null","","1202.8999999761581","","3","0","null","null","arrowup","[0.85,0.15,0.675,0.325]","","",""
"sailing-trial","61","497627","0.0-11.0-26.0","","","","false","","","","","","","","","","700.3000000715256","","455.7000000476837","","1","0","arrowleft","0","arrowright","[0.85,0.15,0.675,0.325]","","",""
"sailing-trial","62","502371","0.0-11.0-27.0","","","","false","","","","","","","","","","null","","1712.5","","3","0","null","null","arrowup","[0.85,0.15,0.675,0.325]","","",""
"sailing-trial","63","507502","0.0-11.0-28.0","","","","false","","","","","","","","","","556.1000000238419","","511","","3","0","arrowright","1","arrowright","[0.85,0.15,0.675,0.325]","","",""
"sailing-trial","64","512713","0.0-11.0-29.0","","","","false","","","","","","","","","","null","","2163.5","","1","0","null","null","arrowup","[0.85,0.15,0.675,0.325]","","",""
"sailing-trial","65","517817","0.0-11.0-30.0","","","","false","","","","","","","","","","1433.1000000238419","","176.69999992847443","","3","1","arrowright","1","arrowright","[0.85,0.15,0.675,0.325]","","",""
"sailing-trial","66","522057","0.0-11.0-31.0","","","","false","","","","","","","","","","null","","1059.8999999761581","","3","1","null","null","arrowup","[0.85,0.15,0.675,0.325]","","",""
"sailing-trial","67","528900","0.0-11.0-32.0","","","","false","","","","","","","","","","922.1000000238419","","1866.7999999523163","","3","0","arrowright","1","arrowright","[0.85,0.15,0.675,0.325]","","",""
"sailing-trial","68","532879","0.0-11.0-33.0","","","","false","","","","","","","","","","null","","1629.7999999523163","","3","0","null","null","arrowup","[0.85,0.15,0.675,0.325]","","",""
"sailing-trial","69","539092","0.0-11.0-34.0","","","","false","","","","","","","","","","871.2999999523163","","1294.3999999761581","","3","0","arrowright","1","arrowright","[0.675,0.325,0.85,0.15]","","",""
"sailing-trial","70","543234","0.0-11.0-35.0","","","","false","","","","","","","","","","null","","1098.0999999046326","","3","0","null","null","arrowup","[0.675,0.325,0.85,0.15]","","",""
"sailing-trial","71","547918","0.0-11.0-36.0","","","","false","","","","","","","","","","601.7000000476837","","26","","1","0","arrowleft","0","arrowright","[0.675,0.325,0.85,0.15]","","",""
"sailing-trial","72","551815","0.0-11.0-37.0","","","","false","","","","","","","","","","null","","875","","3","0","null","null","arrowup","[0.675,0.325,0.85,0.15]","","",""
"sailing-trial","73","558198","0.0-11.0-38.0","","","","false","","","","","","","","","","916.7000000476837","","1426.5","","1","0","arrowleft","0","arrowright","[0.675,0.325,0.85,0.15]","","",""
"sailing-trial","74","562535","0.0-11.0-39.0","","","","false","","","","","","","","","","null","","1292","","3","0","null","null","arrowup","[0.675,0.325,0.85,0.15]","","",""
"sailing-trial","75","567389","0.0-11.0-40.0","","","","false","","","","","","","","","","763.8000000715256","","116.39999997615814","","2","1","arrowright","1","arrowleft","[0.675,0.325,0.85,0.15]","","",""
"sailing-trial","76","570501","0.0-11.0-41.0","","","","false","","","","","","","","","","null","","1148","","2","1","null","null","arrowup","[0.675,0.325,0.85,0.15]","","",""
"sailing-trial","77","574445","0.0-11.0-42.0","","","","false","","","","","","","","","","871.6999999284744","","31.399999976158142","","2","1","arrowright","1","arrowleft","[0.675,0.325,0.85,0.15]","","",""
"sailing-trial","78","576829","0.0-11.0-43.0","","","","false","","","","","","","","","","null","","552.1999999284744","","0","1","null","null","arrowup","[0.675,0.325,0.85,0.15]","","",""
"sailing-trial","79","580889","0.0-11.0-44.0","","","","false","","","","","","","","","","599.8999999761581","","488.2999999523163","","2","1","arrowright","1","arrowleft","[0.675,0.325,0.85,0.15]","","",""
"sailing-trial","80","583495","0.0-11.0-45.0","","","","false","","","","","","","","","","null","","598.7999999523163","","2","1","null","null","arrowup","[0.675,0.325,0.85,0.15]","","",""
"sailing-trial","81","587798","0.0-11.0-46.0","","","","false","","","","","","","","","","555.6000000238419","","543.5","","2","0","arrowright","1","arrowleft","[0.675,0.325,0.85,0.15]","","",""
"sailing-trial","82","591208","0.0-11.0-47.0","","","","false","","","","","","","","","","null","","1121.0999999046326","","1","0","null","null","arrowup","[0.675,0.325,0.85,0.15]","","",""
"sailing-trial","83","596807","0.0-11.0-48.0","","","","false","","","","","","","","","","1977.6000000238419","","33.799999952316284","","2","0","arrowright","1","arrowleft","[0.675,0.325,0.85,0.15]","","",""
"sailing-trial","84","600006","0.0-11.0-49.0","","","","false","","","","","","","","","","null","","1191.5","","0","1","null","null","arrowup","[0.675,0.325,0.85,0.15]","","",""
"sailing-trial","85","606093","0.0-11.0-50.0","","","","false","","","","","","","","","","2707.899999976158","","601.2000000476837","","2","0","arrowright","1","arrowleft","[0.675,0.325,0.85,0.15]","","",""
"sailing-trial","86","609813","0.0-11.0-51.0","","","","false","","","","","","","","","","null","","697.6000000238419","","1","0","null","null","arrowup","[0.675,0.325,0.85,0.15]","","",""
"sailing-trial","87","614652","0.0-11.0-52.0","","","","false","","","","","","","","","","691.3999999761581","","128.79999995231628","","1","0","arrowleft","0","arrowright","[0.85,0.15,0.675,0.325]","","",""
"sailing-trial","88","619240","0.0-11.0-53.0","","","","false","","","","","","","","","","null","","1538.1999999284744","","1","0","null","null","arrowup","[0.85,0.15,0.675,0.325]","","",""
"sailing-trial","89","623441","0.0-11.0-54.0","","","","false","","","","","","","","","","728.7999999523163","","57.200000047683716","","0","1","arrowleft","0","arrowleft","[0.85,0.15,0.675,0.325]","","",""
"sailing-trial","90","627550","0.0-11.0-55.0","","","","false","","","","","","","","","","null","","1075.6999999284744","","3","0","null","null","arrowup","[0.85,0.15,0.675,0.325]","","",""
"sailing-trial","91","631199","0.0-11.0-56.0","","","","false","","","","","","","","","","611.8999999761581","","13.399999976158142","","0","1","arrowleft","0","arrowleft","[0.85,0.15,0.675,0.325]","","",""
"sailing-trial","92","635586","0.0-11.0-57.0","","","","false","","","","","","","","","","null","","1355.4000000953674","","1","0","null","null","arrowup","[0.85,0.15,0.675,0.325]","","",""
"sailing-trial","93","639347","0.0-11.0-58.0","","","","false","","","","","","","","","","618.3000000715256","","142.60000002384186","","0","1","arrowleft","0","arrowleft","[0.85,0.15,0.675,0.325]","","",""
"sailing-trial","94","643639","0.0-11.0-59.0","","","","false","","","","","","","","","","null","","2117.5999999046326","","0","1","null","null","arrowup","[0.85,0.15,0.675,0.325]","","",""
"sailing-trial","95","647343","0.0-11.0-60.0","","","","false","","","","","","","","","","647.6000000238419","","115.39999997615814","","0","1","arrowleft","0","arrowleft","[0.85,0.15,0.675,0.325]","","",""
"sailing-trial","96","650389","0.0-11.0-61.0","","","","false","","","","","","","","","","null","","965.5","","0","1","null","null","arrowup","[0.85,0.15,0.675,0.325]","","",""
"sailing-trial","97","654101","0.0-11.0-62.0","","","","false","","","","","","","","","","403.1999999284744","","393.7999999523163","","0","1","arrowleft","0","arrowleft","[0.85,0.15,0.675,0.325]","","",""
"sailing-trial","98","656760","0.0-11.0-63.0","","","","false","","","","","","","","","","null","","865.1000000238419","","0","1","null","null","arrowup","[0.85,0.15,0.675,0.325]","","",""
"sailing-trial","99","661125","0.0-11.0-64.0","","","","false","","","","","","","","","","506.5","","616.7999999523163","","0","1","arrowleft","0","arrowleft","[0.85,0.15,0.675,0.325]","","",""
"sailing-trial","100","664059","0.0-11.0-65.0","","","","false","","","","","","","","","","null","","1003.6000000238419","","0","1","null","null","arrowup","[0.85,0.15,0.675,0.325]","","",""
"sailing-trial","101","668824","0.0-11.0-66.0","","","","false","","","","","","","","","","1282.2999999523163","","458.7999999523163","","0","1","arrowleft","0","arrowleft","[0.85,0.15,0.675,0.325]","","",""
"sailing-trial","102","671897","0.0-11.0-67.0","","","","false","","","","","","","","","","null","","1153.5","","3","1","null","null","arrowup","[0.85,0.15,0.675,0.325]","","",""
"sailing-trial","103","675785","0.0-11.0-68.0","","","","false","","","","","","","","","","457.89999997615814","","434.3000000715256","","0","1","arrowleft","0","arrowleft","[0.85,0.15,0.675,0.325]","","",""
"sailing-trial","104","678741","0.0-11.0-69.0","","","","false","","","","","","","","","","null","","965.1000000238419","","0","1","null","null","arrowup","[0.85,0.15,0.675,0.325]","","",""
"sailing-trial","105","683194","0.0-11.0-70.0","","","","false","","","","","","","","","","697","","179.5","","0","1","arrowleft","0","arrowleft","[0.675,0.325,0.85,0.15]","","",""
"sailing-trial","106","686833","0.0-11.0-71.0","","","","false","","","","","","","","","","null","","1396.1000000238419","","1","0","null","null","arrowup","[0.675,0.325,0.85,0.15]","","",""
"sailing-trial","107","691405","0.0-11.0-72.0","","","","false","","","","","","","","","","582.5","","132.19999992847443","","0","1","arrowleft","0","arrowleft","[0.675,0.325,0.85,0.15]","","",""
"sailing-trial","108","696116","0.0-11.0-73.0","","","","false","","","","","","","","","","null","","2567.8000000715256","","2","1","null","null","arrowup","[0.675,0.325,0.85,0.15]","","",""
"sailing-trial","109","701571","0.0-11.0-74.0","","","","false","","","","","","","","","","1089.8000000715256","","325.2999999523163","","0","0","arrowleft","0","arrowleft","[0.675,0.325,0.85,0.15]","","",""
"sailing-trial","110","707289","0.0-11.0-75.0","","","","false","","","","","","","","","","null","","1721.0999999046326","","1","1","null","null","arrowup","[0.675,0.325,0.85,0.15]","","",""
"sailing-trial","111","713087","0.0-11.0-76.0","","","","false","","","","","","","","","","1749","","788.7999999523163","","3","1","arrowright","1","arrowright","[0.675,0.325,0.85,0.15]","","",""
"sailing-trial","112","717325","0.0-11.0-77.0","","","","false","","","","","","","","","","null","","1218.8999999761581","","1","0","null","null","arrowup","[0.675,0.325,0.85,0.15]","","",""
"sailing-trial","113","723636","0.0-11.0-78.0","","","","false","","","","","","","","","","1739.3000000715256","","524.3999999761581","","3","0","arrowright","1","arrowright","[0.675,0.325,0.85,0.15]","","",""
"sailing-trial","114","726356","0.0-11.0-79.0","","","","false","","","","","","","","","","null","","769.5","","3","1","null","null","arrowup","[0.675,0.325,0.85,0.15]","","",""
"sailing-trial","115","730020","0.0-11.0-80.0","","","","false","","","","","","","","","","551.6999999284744","","778.1000000238419","","3","0","arrowright","1","arrowright","[0.675,0.325,0.85,0.15]","","",""
"sailing-trial","116","733195","0.0-11.0-81.0","","","","false","","","","","","","","","","null","","1299.6000000238419","","2","1","null","null","arrowup","[0.675,0.325,0.85,0.15]","","",""
"sailing-trial","117","738118","0.0-11.0-82.0","","","","false","","","","","","","","","","594.1000000238419","","231.20000004768372","","2","0","arrowright","1","arrowleft","[0.675,0.325,0.85,0.15]","","",""
"sailing-trial","118","740590","0.0-11.0-83.0","","","","false","","","","","","","","","","null","","636.5","","1","1","null","null","arrowup","[0.675,0.325,0.85,0.15]","","",""
"sailing-trial","119","746764","0.0-11.0-84.0","","","","false","","","","","","","","","","718","","1408.2000000476837","","3","0","arrowright","1","arrowright","[0.675,0.325,0.85,0.15]","","",""
"sailing-trial","120","750294","0.0-11.0-85.0","","","","false","","","","","","","","","","null","","676.1999999284744","","1","0","null","null","arrowup","[0.675,0.325,0.85,0.15]","","",""
"sailing-trial","121","755025","0.0-11.0-86.0","","","","false","","","","","","","","","","956.2999999523163","","309.2000000476837","","0","1","arrowleft","0","arrowleft","[0.675,0.325,0.85,0.15]","","",""
"sailing-trial","122","758273","0.0-11.0-87.0","","","","false","","","","","","","","","","null","","1047","","1","1","null","null","arrowup","[0.675,0.325,0.85,0.15]","","",""
"sailing-trial","123","762625","0.0-11.0-88.0","","","","false","","","","","","","","","","522.1000000238419","","541","","0","1","arrowleft","0","arrowleft","[0.85,0.15,0.675,0.325]","","",""
"sailing-trial","124","766813","0.0-11.0-89.0","","","","false","","","","","","","","","","null","","1164.6000000238419","","1","0","null","null","arrowup","[0.85,0.15,0.675,0.325]","","",""
"sailing-trial","125","770629","0.0-11.0-90.0","","","","false","","","","","","","","","","682","","43.5","","0","1","arrowleft","0","arrowleft","[0.85,0.15,0.675,0.325]","","",""
"sailing-trial","126","773254","0.0-11.0-91.0","","","","false","","","","","","","","","","null","","573.9000000953674","","1","1","null","null","arrowup","[0.85,0.15,0.675,0.325]","","",""
"sailing-trial","127","777191","0.0-11.0-92.0","","","","false","","","","","","","","","","594.8999999761581","","443","","0","1","arrowleft","0","arrowleft","[0.85,0.15,0.675,0.325]","","",""
"sailing-trial","128","780159","0.0-11.0-93.0","","","","false","","","","","","","","","","null","","1047.5999999046326","","3","1","null","null","arrowup","[0.85,0.15,0.675,0.325]","","",""
"sailing-trial","129","783956","0.0-11.0-94.0","","","","false","","","","","","","","","","601.1000000238419","","194.79999995231628","","0","1","arrowleft","0","arrowleft","[0.85,0.15,0.675,0.325]","","",""
"sailing-trial","130","788229","0.0-11.0-95.0","","","","false","","","","","","","","","","null","","1222.2999999523163","","2","0","null","null","arrowup","[0.85,0.15,0.675,0.325]","","",""
"sailing-trial","131","793066","0.0-11.0-96.0","","","","false","","","","","","","","","","872.6000000238419","","419.7999999523163","","0","1","arrowleft","0","arrowleft","[0.85,0.15,0.675,0.325]","","",""
"sailing-trial","132","796338","0.0-11.0-97.0","","","","false","","","","","","","","","","null","","918.6000000238419","","2","1","null","null","arrowup","[0.85,0.15,0.675,0.325]","","",""
"sailing-trial","133","801087","0.0-11.0-98.0","","","","false","","","","","","","","","","901.7000000476837","","1.2000000476837158","","0","1","arrowleft","0","arrowleft","[0.85,0.15,0.675,0.325]","","",""
"sailing-trial","134","804086","0.0-11.0-99.0","","","","false","","","","","","","","","","null","","1057.3999999761581","","0","1","null","null","arrowup","[0.85,0.15,0.675,0.325]","","",""
"sailing-trial","135","807728","0.0-11.0-100.0","","","","false","","","","","","","","","","589.1999999284744","","33.39999997615814","","0","1","arrowleft","0","arrowleft","[0.85,0.15,0.675,0.325]","","",""
"sailing-trial","136","811340","0.0-11.0-101.0","","","","false","","","","","","","","","","null","","1126.7000000476837","","1","0","null","null","arrowup","[0.85,0.15,0.675,0.325]","","",""
"sailing-trial","137","815872","0.0-11.0-102.0","","","","false","","","","","","","","","","663.2999999523163","","257.2999999523163","","0","1","arrowleft","0","arrowleft","[0.85,0.15,0.675,0.325]","","",""
"sailing-trial","138","820400","0.0-11.0-103.0","","","","false","","","","","","","","","","null","","1503.7999999523163","","3","0","null","null","arrowup","[0.85,0.15,0.675,0.325]","","",""
"sailing-trial","139","825446","0.0-11.0-104.0","","","","false","","","","","","","","","","1167.7000000476837","","244.5","","0","1","arrowleft","0","arrowleft","[0.85,0.15,0.675,0.325]","","",""
"sailing-trial","140","831857","0.0-11.0-105.0","","","","false","","","","","","","","","","null","","3384.5","","1","0","null","null","arrowup","[0.85,0.15,0.675,0.325]","","",""
"sailing-trial","141","836989","0.0-11.0-106.0","","","","false","","","","","","","","","","521.6000000238419","","983.2999999523163","","0","1","arrowleft","0","arrowleft","[0.85,0.15,0.675,0.325]","","",""
"sailing-trial","142","842194","0.0-11.0-107.0","","","","false","","","","","","","","","","null","","2162.899999976158","","0","0","null","null","arrowup","[0.85,0.15,0.675,0.325]","","",""
"sailing-trial","143","846732","0.0-11.0-108.0","","","","false","","","","","","","","","","590.2999999523163","","571.3999999761581","","0","1","arrowleft","0","arrowleft","[0.675,0.325,0.85,0.15]","","",""
"sailing-trial","144","853139","0.0-11.0-109.0","","","","false","","","","","","","","","","null","","3371.4000000953674","","3","0","null","null","arrowup","[0.675,0.325,0.85,0.15]","","",""
"sailing-trial","145","858403","0.0-11.0-110.0","","","","false","","","","","","","","","","822.3000000715256","","580.3999999761581","","0","1","arrowleft","0","arrowleft","[0.675,0.325,0.85,0.15]","","",""
"sailing-trial","146","861398","0.0-11.0-111.0","","","","false","","","","","","","","","","null","","1102.6000000238419","","2","1","null","null","arrowup","[0.675,0.325,0.85,0.15]","","",""
"sailing-trial","147","865188","0.0-11.0-112.0","","","","false","","","","","","","","","","526.3999999761581","","119.10000002384186","","0","1","arrowleft","0","arrowleft","[0.675,0.325,0.85,0.15]","","",""
"sailing-trial","148","869133","0.0-11.0-113.0","","","","false","","","","","","","","","","null","","908.5","","3","0","null","null","arrowup","[0.675,0.325,0.85,0.15]","","",""
"sailing-trial","149","874437","0.0-11.0-114.0","","","","false","","","","","","","","","","520.5","","731.2999999523163","","0","0","arrowleft","0","arrowleft","[0.675,0.325,0.85,0.15]","","",""
"sailing-trial","150","878934","0.0-11.0-115.0","","","","false","","","","","","","","","","null","","1472.1999999284744","","1","0","null","null","arrowup","[0.675,0.325,0.85,0.15]","","",""
"sailing-trial","151","884769","0.0-11.0-116.0","","","","false","","","","","","","","","","532.6000000238419","","438.2999999523163","","0","1","arrowleft","0","arrowleft","[0.675,0.325,0.85,0.15]","","",""
"sailing-trial","152","899779","0.0-11.0-117.0","","","","true","","","","","","","","","","null","","null","","null","null","null","null","null","[0.675,0.325,0.85,0.15]","","",""
"sailing-trial","153","904453","0.0-11.0-118.0","","","","false","","","","","","","","","","815.2999999523163","","161","","0","1","arrowleft","0","arrowleft","[0.675,0.325,0.85,0.15]","","",""
"sailing-trial","154","908932","0.0-11.0-119.0","","","","false","","","","","","","","","","null","","2434.399999976158","","2","1","null","null","arrowup","[0.675,0.325,0.85,0.15]","","",""
"sailing-trial","155","912548","0.0-11.0-120.0","","","","false","","","","","","","","","","551.1000000238419","","12","","0","1","arrowleft","0","arrowleft","[0.675,0.325,0.85,0.15]","","",""
"sailing-trial","156","915712","0.0-11.0-121.0","","","","false","","","","","","","","","","null","","1048.6000000238419","","0","1","null","null","arrowup","[0.675,0.325,0.85,0.15]","","",""
"sailing-trial","157","920410","0.0-11.0-122.0","","","","false","","","","","","","","","","630.6000000238419","","11.5","","0","0","arrowleft","0","arrowleft","[0.675,0.325,0.85,0.15]","","",""
"sailing-trial","158","923667","0.0-11.0-123.0","","","","false","","","","","","","","","","null","","1242","","0","1","null","null","arrowup","[0.675,0.325,0.85,0.15]","","",""
"sailing-trial","159","929451","0.0-11.0-124.0","","","","false","","","","","","","","","","2275.100000023842","","474.2000000476837","","0","1","arrowleft","0","arrowleft","[0.675,0.325,0.85,0.15]","","",""
"sailing-trial","160","933175","0.0-11.0-125.0","","","","false","","","","","","","","","","null","","674.1999999284744","","3","0","null","null","arrowup","[0.675,0.325,0.85,0.15]","","",""
"sailing-trial","161","937012","0.0-11.0-126.0","","","","false","","","","","","","","","","592.1999999284744","","202.5","","0","1","arrowleft","0","arrowleft","[0.675,0.325,0.85,0.15]","","",""
"sailing-trial","162","940187","0.0-11.0-127.0","","","","false","","","","","","","","","","null","","999.7999999523163","","1","1","null","null","arrowup","[0.675,0.325,0.85,0.15]","","",""
"sailing-trial","163","944153","0.0-11.0-128.0","","","","false","","","","","","","","","","417.2000000476837","","554.2000000476837","","0","1","arrowleft","0","arrowleft","[0.325,0.675,0.15,0.85]","","",""
"sailing-trial","164","947040","0.0-11.0-129.0","","","","false","","","","","","","","","","null","","1032.3999999761581","","3","1","null","null","arrowup","[0.325,0.675,0.15,0.85]","","",""
"sailing-trial","165","951854","0.0-11.0-130.0","","","","false","","","","","","","","","","668.1000000238419","","88.19999992847443","","0","0","arrowleft","0","arrowleft","[0.325,0.675,0.15,0.85]","","",""
"sailing-trial","166","954865","0.0-11.0-131.0","","","","false","","","","","","","","","","null","","1105.2999999523163","","3","1","null","null","arrowup","[0.325,0.675,0.15,0.85]","","",""
"sailing-trial","167","959826","0.0-11.0-132.0","","","","false","","","","","","","","","","649.2999999523163","","246.40000009536743","","0","0","arrowleft","0","arrowleft","[0.325,0.675,0.15,0.85]","","",""
"sailing-trial","168","963915","0.0-11.0-133.0","","","","false","","","","","","","","","","null","","1065.8999999761581","","3","0","null","null","arrowup","[0.325,0.675,0.15,0.85]","","",""
"sailing-trial","169","969394","0.0-11.0-134.0","","","","false","","","","","","","","","","756.8999999761581","","691.8000000715256","","0","0","arrowleft","0","arrowleft","[0.325,0.675,0.15,0.85]","","",""
"sailing-trial","170","972359","0.0-11.0-135.0","","","","false","","","","","","","","","","null","","995.7999999523163","","1","1","null","null","arrowup","[0.325,0.675,0.15,0.85]","","",""
"sailing-trial","171","976156","0.0-11.0-136.0","","","","false","","","","","","","","","","573.8999999761581","","196","","0","1","arrowleft","0","arrowleft","[0.325,0.675,0.15,0.85]","","",""
"sailing-trial","172","981114","0.0-11.0-137.0","","","","false","","","","","","","","","","null","","1911.6000000238419","","2","0","null","null","arrowup","[0.325,0.675,0.15,0.85]","","",""
"sailing-trial","173","989117","0.0-11.0-138.0","","","","false","","","","","","","","","","2351","","1582.6999999284744","","0","0","arrowleft","0","arrowleft","[0.325,0.675,0.15,0.85]","","",""
"sailing-trial","174","993341","0.0-11.0-139.0","","","","false","","","","","","","","","","null","","1199.1999999284744","","3","0","null","null","arrowup","[0.325,0.675,0.15,0.85]","","",""
"sailing-trial","175","999284","0.0-11.0-140.0","","","","false","","","","","","","","","","784.2000000476837","","1112.3999999761581","","0","0","arrowleft","0","arrowleft","[0.325,0.675,0.15,0.85]","","",""
"sailing-trial","176","1004374","0.0-11.0-141.0","","","","false","","","","","","","","","","null","","2051.100000023842","","0","0","null","null","arrowup","[0.325,0.675,0.15,0.85]","","",""
"sailing-trial","177","1011209","0.0-11.0-142.0","","","","false","","","","","","","","","","2229.7999999523163","","549.7999999523163","","0","0","arrowleft","0","arrowleft","[0.325,0.675,0.15,0.85]","","",""
"sailing-trial","178","1015507","0.0-11.0-143.0","","","","false","","","","","","","","","","null","","1400.1000000238419","","3","1","null","null","arrowup","[0.325,0.675,0.15,0.85]","","",""
"sailing-trial","179","1019993","0.0-11.0-144.0","","","","false","","","","","","","","","","883","","367.10000002384186","","0","1","arrowleft","0","arrowleft","[0.325,0.675,0.15,0.85]","","",""
"sailing-trial","180","1024261","0.0-11.0-145.0","","","","false","","","","","","","","","","null","","1250.5","","2","0","null","null","arrowup","[0.325,0.675,0.15,0.85]","","",""
"sailing-trial","181","1030217","0.0-11.0-146.0","","","","false","","","","","","","","","","1532.6999999284744","","1036.2000000476837","","0","1","arrowleft","0","arrowleft","[0.325,0.675,0.15,0.85]","","",""
"sailing-trial","182","1033608","0.0-11.0-147.0","","","","false","","","","","","","","","","null","","1324.5","","1","1","null","null","arrowup","[0.325,0.675,0.15,0.85]","","",""
"sailing-trial","183","1038293","0.0-11.0-148.0","","","","false","","","","","","","","","","527.5","","91.80000007152557","","0","0","arrowleft","0","arrowleft","[0.325,0.675,0.15,0.85]","","",""
"sailing-trial","184","1041765","0.0-11.0-149.0","","","","false","","","","","","","","","","null","","1147.6000000238419","","1","1","null","null","arrowup","[0.325,0.675,0.15,0.85]","","",""
"sailing-trial","185","1047175","0.0-11.0-150.0","","","","false","","","","","","","","","","579.7000000476837","","748.3999999761581","","0","0","arrowleft","0","arrowleft","[0.325,0.675,0.15,0.85]","","",""
"sailing-trial","186","1050247","0.0-11.0-151.0","","","","false","","","","","","","","","","null","","1098.7999999523163","","3","1","null","null","arrowup","[0.325,0.675,0.15,0.85]","","",""
"sailing-trial","187","1056017","0.0-11.0-152.0","","","","false","","","","","","","","","","1581.3000000715256","","131","","0","0","arrowleft","0","arrowleft","[0.15,0.85,0.325,0.675]","","",""
"sailing-trial","188","1059946","0.0-11.0-153.0","","","","false","","","","","","","","","","null","","904.9000000953674","","2","0","null","null","arrowup","[0.15,0.85,0.325,0.675]","","",""
"sailing-trial","189","1065827","0.0-11.0-154.0","","","","false","","","","","","","","","","996.3999999761581","","838.1000000238419","","0","0","arrowleft","0","arrowleft","[0.15,0.85,0.325,0.675]","","",""
"sailing-trial","190","1069025","0.0-11.0-155.0","","","","false","","","","","","","","","","null","","644.6000000238419","","1","1","null","null","arrowup","[0.15,0.85,0.325,0.675]","","",""
"sailing-trial","191","1074736","0.0-11.0-156.0","","","","false","","","","","","","","","","542.7999999523163","","1116.2999999523163","","2","0","arrowright","1","arrowleft","[0.15,0.85,0.325,0.675]","","",""
"sailing-trial","192","1078497","0.0-11.0-157.0","","","","false","","","","","","","","","","null","","732.1000000238419","","3","0","null","null","arrowup","[0.15,0.85,0.325,0.675]","","",""
"sailing-trial","193","1084869","0.0-11.0-158.0","","","","false","","","","","","","","","","2308","","12.100000023841858","","3","0","arrowright","1","arrowright","[0.15,0.85,0.325,0.675]","","",""
"sailing-trial","194","1087667","0.0-11.0-159.0","","","","false","","","","","","","","","","null","","830.9000000953674","","2","1","null","null","arrowup","[0.15,0.85,0.325,0.675]","","",""
"sailing-trial","195","1092395","0.0-11.0-160.0","","","","false","","","","","","","","","","631.2000000476837","","1102.6999999284744","","1","1","arrowleft","0","arrowright","[0.15,0.85,0.325,0.675]","","",""
"sailing-trial","196","1096464","0.0-11.0-161.0","","","","false","","","","","","","","","","null","","1043.5999999046326","","0","0","null","null","arrowup","[0.15,0.85,0.325,0.675]","","",""
"sailing-trial","197","1101252","0.0-11.0-162.0","","","","false","","","","","","","","","","669.4000000953674","","49.89999997615814","","1","0","arrowleft","0","arrowright","[0.15,0.85,0.325,0.675]","","",""
"sailing-trial","198","1104828","0.0-11.0-163.0","","","","false","","","","","","","","","","null","","537.6000000238419","","0","0","null","null","arrowup","[0.15,0.85,0.325,0.675]","","",""
"sailing-trial","199","1109684","0.0-11.0-164.0","","","","false","","","","","","","","","","546.8999999761581","","225.5","","0","0","arrowleft","0","arrowleft","[0.15,0.85,0.325,0.675]","","",""
"sailing-trial","200","1112812","0.0-11.0-165.0","","","","false","","","","","","","","","","null","","780.2000000476837","","1","1","null","null","arrowup","[0.15,0.85,0.325,0.675]","","",""
"sailing-trial","201","1117391","0.0-11.0-166.0","","","","false","","","","","","","","","","570.3999999761581","","665.1999999284744","","0","1","arrowleft","0","arrowleft","[0.15,0.85,0.325,0.675]","","",""
"sailing-trial","202","1120201","0.0-11.0-167.0","","","","false","","","","","","","","","","null","","957.1000000238419","","3","1","null","null","arrowup","[0.15,0.85,0.325,0.675]","","",""
"sailing-trial","203","1124085","0.0-11.0-168.0","","","","false","","","","","","","","","","540.3000000715256","","339.3000000715256","","0","1","arrowleft","0","arrowleft","[0.675,0.325,0.85,0.15]","","",""
"sailing-trial","204","1126978","0.0-11.0-169.0","","","","false","","","","","","","","","","null","","1015.2000000476837","","0","1","null","null","arrowup","[0.675,0.325,0.85,0.15]","","",""
"sailing-trial","205","1131773","0.0-11.0-170.0","","","","false","","","","","","","","","","531.7000000476837","","225.39999997615814","","0","0","arrowleft","0","arrowleft","[0.675,0.325,0.85,0.15]","","",""
"sailing-trial","206","1135737","0.0-11.0-171.0","","","","false","","","","","","","","","","null","","933.2000000476837","","1","0","null","null","arrowup","[0.675,0.325,0.85,0.15]","","",""
"sailing-trial","207","1140448","0.0-11.0-172.0","","","","false","","","","","","","","","","592.3999999761581","","107.10000002384186","","0","0","arrowleft","0","arrowleft","[0.675,0.325,0.85,0.15]","","",""
"sailing-trial","208","1144463","0.0-11.0-173.0","","","","false","","","","","","","","","","null","","963.6000000238419","","1","0","null","null","arrowup","[0.675,0.325,0.85,0.15]","","",""
"sailing-trial","209","1149341","0.0-11.0-174.0","","","","false","","","","","","","","","","638.2000000476837","","190.19999992847443","","0","0","arrowleft","0","arrowleft","[0.675,0.325,0.85,0.15]","","",""
"sailing-trial","210","1153323","0.0-11.0-175.0","","","","false","","","","","","","","","","null","","929.8000000715256","","0","0","null","null","arrowup","[0.675,0.325,0.85,0.15]","","",""
"sailing-trial","211","1160832","0.0-11.0-176.0","","","","false","","","","","","","","","","750.1999999284744","","2680.399999976158","","0","0","arrowleft","0","arrowleft","[0.675,0.325,0.85,0.15]","","",""
"sailing-trial","212","1166292","0.0-11.0-177.0","","","","false","","","","","","","","","","null","","2438.5","","3","0","null","null","arrowup","[0.675,0.325,0.85,0.15]","","",""
"sailing-trial","213","1173346","0.0-11.0-178.0","","","","false","","","","","","","","","","605.2000000476837","","349.2999999523163","","0","1","arrowleft","0","arrowleft","[0.675,0.325,0.85,0.15]","","",""
"sailing-trial","214","1177074","0.0-11.0-179.0","","","","false","","","","","","","","","","null","","1694.7999999523163","","0","1","null","null","arrowup","[0.675,0.325,0.85,0.15]","","",""
"sailing-trial","215","1181034","0.0-11.0-180.0","","","","false","","","","","","","","","","606.7999999523163","","411.7999999523163","","0","1","arrowleft","0","arrowleft","[0.675,0.325,0.85,0.15]","","",""
"sailing-trial","216","1188407","0.0-11.0-181.0","","","","false","","","","","","","","","","null","","4350.699999928474","","0","0","null","null","arrowup","[0.675,0.325,0.85,0.15]","","",""
"sailing-trial","217","1193528","0.0-11.0-182.0","","","","false","","","","","","","","","","563.7999999523163","","1055.1000000238419","","0","1","arrowleft","0","arrowleft","[0.675,0.325,0.85,0.15]","","",""
"sailing-trial","218","1197235","0.0-11.0-183.0","","","","false","","","","","","","","","","null","","669.6999999284744","","3","0","null","null","arrowup","[0.675,0.325,0.85,0.15]","","",""
"sailing-trial","219","1201288","0.0-11.0-184.0","","","","false","","","","","","","","","","690.2999999523163","","289.1999999284744","","0","1","arrowleft","0","arrowleft","[0.85,0.15,0.675,0.325]","","",""
"sailing-trial","220","1207867","0.0-11.0-185.0","","","","false","","","","","","","","","","null","","3565.600000023842","","1","0","null","null","arrowup","[0.85,0.15,0.675,0.325]","","",""
"sailing-trial","221","1212807","0.0-11.0-186.0","","","","false","","","","","","","","","","1162.2000000476837","","166.89999997615814","","0","1","arrowleft","0","arrowleft","[0.85,0.15,0.675,0.325]","","",""
"sailing-trial","222","1215908","0.0-11.0-187.0","","","","false","","","","","","","","","","null","","1077.6000000238419","","0","1","null","null","arrowup","[0.85,0.15,0.675,0.325]","","",""
"sailing-trial","223","1219445","0.0-11.0-188.0","","","","false","","","","","","","","","","664.6999999284744","","1.600000023841858","","0","1","arrowleft","0","arrowleft","[0.85,0.15,0.675,0.325]","","",""
"sailing-trial","224","1225322","0.0-11.0-189.0","","","","false","","","","","","","","","","null","","2841.7999999523163","","0","0","null","null","arrowup","[0.85,0.15,0.675,0.325]","","",""
"sailing-trial","225","1229511","0.0-11.0-190.0","","","","false","","","","","","","","","","690.9000000953674","","234.89999997615814","","0","1","arrowleft","0","arrowleft","[0.85,0.15,0.675,0.325]","","",""
"sailing-trial","226","1232441","0.0-11.0-191.0","","","","false","","","","","","","","","","null","","1092.3999999761581","","2","1","null","null","arrowup","[0.85,0.15,0.675,0.325]","","",""
"sailing-trial","227","1237678","0.0-11.0-192.0","","","","false","","","","","","","","","","667.0999999046326","","529.1000000238419","","0","0","arrowleft","0","arrowleft","[0.85,0.15,0.675,0.325]","","",""
"sailing-trial","228","1241492","0.0-11.0-193.0","","","","false","","","","","","","","","","null","","781.7999999523163","","1","0","null","null","arrowup","[0.85,0.15,0.675,0.325]","","",""
"sailing-trial","229","1247676","0.0-11.0-194.0","","","","false","","","","","","","","","","1009.7999999523163","","1383.6000000238419","","0","1","arrowleft","0","arrowleft","[0.85,0.15,0.675,0.325]","","",""
"sailing-trial","230","1252083","0.0-11.0-195.0","","","","false","","","","","","","","","","null","","1379.1000000238419","","3","0","null","null","arrowup","[0.85,0.15,0.675,0.325]","","",""
"sailing-trial","231","1257146","0.0-11.0-196.0","","","","false","","","","","","","","","","665","","683.7999999523163","","0","1","arrowleft","0","arrowleft","[0.85,0.15,0.675,0.325]","","",""
"sailing-trial","232","1263391","0.0-11.0-197.0","","","","false","","","","","","","","","","null","","3217.7000000476837","","0","0","null","null","arrowup","[0.85,0.15,0.675,0.325]","","",""
"sailing-trial","233","1267272","0.0-11.0-198.0","","","","false","","","","","","","","","","998.5","","41","","0","1","arrowleft","0","arrowleft","[0.85,0.15,0.675,0.325]","","",""
"sailing-trial","234","1271300","0.0-11.0-199.0","","","","false","","","","","","","","","","null","","1008.1000000238419","","1","0","null","null","arrowup","[0.85,0.15,0.675,0.325]","","",""
"sailing-trial","235","1278304","0.0-11.0-200.0","","","","false","","","","","","","","","","2036.8999999761581","","919.8999999761581","","0","0","arrowleft","0","arrowleft","[0.675,0.325,0.85,0.15]","","",""
"sailing-trial","236","1283123","0.0-11.0-201.0","","","","false","","","","","","","","","","null","","1797.1999999284744","","1","0","null","null","arrowup","[0.675,0.325,0.85,0.15]","","",""
"sailing-trial","237","1288273","0.0-11.0-202.0","","","","false","","","","","","","","","","565.5999999046326","","955.1000000238419","","0","1","arrowleft","0","arrowleft","[0.675,0.325,0.85,0.15]","","",""
"sailing-trial","238","1291421","0.0-11.0-203.0","","","","false","","","","","","","","","","null","","628.8999999761581","","0","1","null","null","arrowup","[0.675,0.325,0.85,0.15]","","",""
"sailing-trial","239","1295634","0.0-11.0-204.0","","","","false","","","","","","","","","","500.3000000715256","","603.8000000715256","","0","1","arrowleft","0","arrowleft","[0.675,0.325,0.85,0.15]","","",""
"sailing-trial","240","1298919","0.0-11.0-205.0","","","","false","","","","","","","","","","null","","954.1000000238419","","2","1","null","null","arrowup","[0.675,0.325,0.85,0.15]","","",""
"sailing-trial","241","1303853","0.0-11.0-206.0","","","","false","","","","","","","","","","471.39999997615814","","434.60000002384186","","0","0","arrowleft","0","arrowleft","[0.675,0.325,0.85,0.15]","","",""
"sailing-trial","242","1306875","0.0-11.0-207.0","","","","false","","","","","","","","","","null","","640.2000000476837","","2","1","null","null","arrowup","[0.675,0.325,0.85,0.15]","","",""
"sailing-trial","243","1311737","0.0-11.0-208.0","","","","false","","","","","","","","","","857","","655.2000000476837","","0","1","arrowleft","0","arrowleft","[0.675,0.325,0.85,0.15]","","",""
"sailing-trial","244","1315472","0.0-11.0-209.0","","","","false","","","","","","","","","","null","","1734.6000000238419","","1","1","null","null","arrowup","[0.675,0.325,0.85,0.15]","","",""
"sailing-trial","245","1322961","0.0-11.0-210.0","","","","false","","","","","","","","","","2489.3000000715256","","924.2999999523163","","0","0","arrowleft","0","arrowleft","[0.675,0.325,0.85,0.15]","","",""
"sailing-trial","246","1326458","0.0-11.0-211.0","","","","false","","","","","","","","","","null","","1203.5999999046326","","2","1","null","null","arrowup","[0.675,0.325,0.85,0.15]","","",""
"sailing-trial","247","1332026","0.0-11.0-212.0","","","","false","","","","","","","","","","669.8999999761581","","2037.3000000715256","","0","1","arrowleft","0","arrowleft","[0.675,0.325,0.85,0.15]","","",""
"sailing-trial","248","1336466","0.0-11.0-213.0","","","","false","","","","","","","","","","null","","1866.5","","3","1","null","null","arrowup","[0.675,0.325,0.85,0.15]","","",""
"sailing-trial","249","1341831","0.0-11.0-214.0","","","","false","","","","","","","","","","1611","","422.7000000476837","","0","1","arrowleft","0","arrowleft","[0.675,0.325,0.85,0.15]","","",""
"sailing-trial","250","1346228","0.0-11.0-215.0","","","","false","","","","","","","","","","null","","1340.3999999761581","","1","0","null","null","arrowup","[0.675,0.325,0.85,0.15]","","",""
"sailing-trial","251","1350505","0.0-11.0-216.0","","","","false","","","","","","","","","","538.8999999761581","","179.19999992847443","","0","1","arrowleft","0","arrowleft","[0.85,0.15,0.675,0.325]","","",""
"sailing-trial","252","1353471","0.0-11.0-217.0","","","","false","","","","","","","","","","null","","1129.5","","1","1","null","null","arrowup","[0.85,0.15,0.675,0.325]","","",""
"sailing-trial","253","1357664","0.0-11.0-218.0","","","","false","","","","","","","","","","728.5","","136","","0","1","arrowleft","0","arrowleft","[0.85,0.15,0.675,0.325]","","",""
"sailing-trial","254","1361859","0.0-11.0-219.0","","","","false","","","","","","","","","","null","","1162.7999999523163","","3","0","null","null","arrowup","[0.85,0.15,0.675,0.325]","","",""
"sailing-trial","255","1366297","0.0-11.0-220.0","","","","false","","","","","","","","","","695.5","","794.6000000238419","","0","1","arrowleft","0","arrowleft","[0.85,0.15,0.675,0.325]","","",""
"sailing-trial","256","1369322","0.0-11.0-221.0","","","","false","","","","","","","","","","null","","1132.5999999046326","","3","1","null","null","arrowup","[0.85,0.15,0.675,0.325]","","",""
"sailing-trial","257","1373601","0.0-11.0-222.0","","","","false","","","","","","","","","","669.5","","708.7000000476837","","0","1","arrowleft","0","arrowleft","[0.85,0.15,0.675,0.325]","","",""
"sailing-trial","258","1377203","0.0-11.0-223.0","","","","false","","","","","","","","","","null","","1403.1000000238419","","0","1","null","null","arrowup","[0.85,0.15,0.675,0.325]","","",""
"sailing-trial","259","1382527","0.0-11.0-224.0","","","","false","","","","","","","","","","1901.3999999761581","","530.1000000238419","","0","1","arrowleft","0","arrowleft","[0.85,0.15,0.675,0.325]","","",""
"sailing-trial","260","1386439","0.0-11.0-225.0","","","","false","","","","","","","","","","null","","878.7999999523163","","3","0","null","null","arrowup","[0.85,0.15,0.675,0.325]","","",""
"sailing-trial","261","1390636","0.0-11.0-226.0","","","","false","","","","","","","","","","677.9000000953674","","307.89999997615814","","0","1","arrowleft","0","arrowleft","[0.85,0.15,0.675,0.325]","","",""
"sailing-trial","262","1395666","0.0-11.0-227.0","","","","false","","","","","","","","","","null","","3051.899999976158","","0","1","null","null","arrowup","[0.85,0.15,0.675,0.325]","","",""
"sailing-trial","263","1400859","0.0-11.0-228.0","","","","false","","","","","","","","","","582.0999999046326","","550.5","","0","0","arrowleft","0","arrowleft","[0.85,0.15,0.675,0.325]","","",""
"sailing-trial","264","1404278","0.0-11.0-229.0","","","","false","","","","","","","","","","null","","1389.8999999761581","","2","1","null","null","arrowup","[0.85,0.15,0.675,0.325]","","",""
"sailing-trial","265","1413316","0.0-11.0-230.0","","","","false","","","","","","","","","","5377.600000023842","","377.5","","0","1","arrowleft","0","arrowleft","[0.85,0.15,0.675,0.325]","","",""
"sailing-trial","266","1418050","0.0-11.0-231.0","","","","false","","","","","","","","","","null","","2885.399999976158","","2","1","null","null","arrowup","[0.85,0.15,0.675,0.325]","","",""
"sailing-trial","267","1421677","0.0-11.0-232.0","","","","false","","","","","","","","","","488.39999997615814","","165.69999992847443","","0","1","arrowleft","0","arrowleft","[0.85,0.15,0.675,0.325]","","",""
"sailing-trial","268","1425606","0.0-11.0-233.0","","","","false","","","","","","","","","","null","","905.2000000476837","","1","0","null","null","arrowup","[0.85,0.15,0.675,0.325]","","",""
"sailing-trial","269","1430796","0.0-11.0-234.0","","","","false","","","","","","","","","","576","","572.0999999046326","","0","0","arrowleft","0","arrowleft","[0.675,0.325,0.85,0.15]","","",""
"sailing-trial","270","1435382","0.0-11.0-235.0","","","","false","","","","","","","","","","null","","2122.1999999284744","","2","1","null","null","arrowup","[0.675,0.325,0.85,0.15]","","",""
"sailing-trial","271","1441740","0.0-11.0-236.0","","","","false","","","","","","","","","","1931.2999999523163","","365.5","","0","0","arrowleft","0","arrowleft","[0.675,0.325,0.85,0.15]","","",""
"sailing-trial","272","1447122","0.0-11.0-237.0","","","","false","","","","","","","","","","null","","2350.399999976158","","3","0","null","null","arrowup","[0.675,0.325,0.85,0.15]","","",""
"sailing-trial","273","1455763","0.0-11.0-238.0","","","","false","","","","","","","","","","3680.600000023842","","908.5999999046326","","0","0","arrowleft","0","arrowleft","[0.675,0.325,0.85,0.15]","","",""
"sailing-trial","274","1462602","0.0-11.0-239.0","","","","false","","","","","","","","","","null","","3309.600000023842","","1","1","null","null","arrowup","[0.675,0.325,0.85,0.15]","","",""
"sailing-trial","275","1469711","0.0-11.0-240.0","","","","false","","","","","","","","","","1415.6999999284744","","2228.399999976158","","0","1","arrowleft","0","arrowleft","[0.675,0.325,0.85,0.15]","","",""
"sailing-trial","276","1478414","0.0-11.0-241.0","","","","false","","","","","","","","","","null","","6775.5","","0","1","null","null","arrowup","[0.675,0.325,0.85,0.15]","","",""
"sailing-trial","277","1482914","0.0-11.0-242.0","","","","false","","","","","","","","","","729.8999999761581","","800.1999999284744","","0","1","arrowleft","0","arrowleft","[0.675,0.325,0.85,0.15]","","",""
"sailing-trial","278","1487292","0.0-11.0-243.0","","","","false","","","","","","","","","","null","","2531.2999999523163","","2","1","null","null","arrowup","[0.675,0.325,0.85,0.15]","","",""
"sailing-trial","279","1492564","0.0-11.0-244.0","","","","false","","","","","","","","","","628.5","","594.6000000238419","","0","0","arrowleft","0","arrowleft","[0.675,0.325,0.85,0.15]","","",""
"sailing-trial","280","1496056","0.0-11.0-245.0","","","","false","","","","","","","","","","null","","1628.6000000238419","","2","1","null","null","arrowup","[0.675,0.325,0.85,0.15]","","",""
"sailing-trial","281","1500874","0.0-11.0-246.0","","","","false","","","","","","","","","","670.5999999046326","","96.69999992847443","","0","0","arrowleft","0","arrowleft","[0.675,0.325,0.85,0.15]","","",""
"sailing-trial","282","1503926","0.0-11.0-247.0","","","","false","","","","","","","","","","null","","1134.8000000715256","","2","1","null","null","arrowup","[0.675,0.325,0.85,0.15]","","",""
"sailing-trial","283","1507757","0.0-11.0-248.0","","","","false","","","","","","","","","","595","","302.2999999523163","","0","1","arrowleft","0","arrowleft","[0.675,0.325,0.85,0.15]","","",""
"sailing-trial","284","1513331","0.0-11.0-249.0","","","","false","","","","","","","","","","null","","2537.7000000476837","","3","0","null","null","arrowup","[0.675,0.325,0.85,0.15]","","",""
"sailing-trial","285","1519111","0.0-11.0-250.0","","","","false","","","","","","","","","","797.2000000476837","","913.8999999761581","","0","0","arrowleft","0","arrowleft","[0.85,0.15,0.675,0.325]","","",""
"sailing-trial","286","1523473","0.0-11.0-251.0","","","","false","","","","","","","","","","null","","1312.3999999761581","","3","0","null","null","arrowup","[0.85,0.15,0.675,0.325]","","",""
"sailing-trial","287","1527976","0.0-11.0-252.0","","","","false","","","","","","","","","","657.1000000238419","","874.8999999761581","","0","1","arrowleft","0","arrowleft","[0.85,0.15,0.675,0.325]","","",""
"sailing-trial","288","1537334","0.0-11.0-253.0","","","","false","","","","","","","","","","null","","6352.799999952316","","3","0","null","null","arrowup","[0.85,0.15,0.675,0.325]","","",""
"sailing-trial","289","1542428","0.0-11.0-254.0","","","","false","","","","","","","","","","2027.7000000476837","","97.10000002384186","","0","1","arrowleft","0","arrowleft","[0.85,0.15,0.675,0.325]","","",""
"sailing-trial","290","1548841","0.0-11.0-255.0","","","","false","","","","","","","","","","null","","3356.2999999523163","","3","0","null","null","arrowup","[0.85,0.15,0.675,0.325]","","",""
"sailing-trial","291","1552723","0.0-11.0-256.0","","","","false","","","","","","","","","","809.3000000715256","","159.70000004768372","","0","1","arrowleft","0","arrowleft","[0.85,0.15,0.675,0.325]","","",""
"sailing-trial","292","1557586","0.0-11.0-257.0","","","","false","","","","","","","","","","null","","1835.8999999761581","","3","0","null","null","arrowup","[0.85,0.15,0.675,0.325]","","",""
"sailing-trial","293","1562244","0.0-11.0-258.0","","","","false","","","","","","","","","","879","","384.8000000715256","","0","1","arrowleft","0","arrowleft","[0.85,0.15,0.675,0.325]","","",""
"sailing-trial","294","1566819","0.0-11.0-259.0","","","","false","","","","","","","","","","null","","1529.5","","1","0","null","null","arrowup","[0.85,0.15,0.675,0.325]","","",""
"sailing-trial","295","1573464","0.0-11.0-260.0","","","","false","","","","","","","","","","2454.5","","132.5","","0","0","arrowleft","0","arrowleft","[0.85,0.15,0.675,0.325]","","",""
"sailing-trial","296","1576632","0.0-11.0-261.0","","","","false","","","","","","","","","","null","","914.6000000238419","","0","1","null","null","arrowup","[0.85,0.15,0.675,0.325]","","",""
"sailing-trial","297","1583047","0.0-11.0-262.0","","","","false","","","","","","","","","","2586.399999976158","","135.90000009536743","","0","1","arrowleft","0","arrowleft","[0.85,0.15,0.675,0.325]","","",""
"sailing-trial","298","1586667","0.0-11.0-263.0","","","","false","","","","","","","","","","null","","597.3999999761581","","0","0","null","null","arrowup","[0.85,0.15,0.675,0.325]","","",""
"sailing-trial","299","1590006","0.0-11.0-264.0","","","","false","","","","","","","","","","420.90000009536743","","10.299999952316284","","0","1","arrowleft","0","arrowleft","[0.85,0.15,0.675,0.325]","","",""
"sailing-trial","300","1594483","0.0-11.0-265.0","","","","false","","","","","","","","","","null","","2290","","2","1","null","null","arrowup","[0.85,0.15,0.675,0.325]","","",""
"sailing-trial","301","1599975","0.0-11.0-266.0","","","","false","","","","","","","","","","826.3000000715256","","1587.5","","0","1","arrowleft","0","arrowleft","[0.85,0.15,0.675,0.325]","","",""
"sailing-trial","302","1606142","0.0-11.0-267.0","","","","false","","","","","","","","","","null","","4330.5","","0","1","null","null","arrowup","[0.85,0.15,0.675,0.325]","","",""
"sailing-trial","303","1610202","0.0-11.0-268.0","","","","false","","","","","","","","","","428.2999999523163","","233.89999997615814","","0","1","arrowleft","0","arrowleft","[0.85,0.15,0.675,0.325]","","",""
"sailing-trial","304","1613913","0.0-11.0-269.0","","","","false","","","","","","","","","","null","","1812.8000000715256","","0","1","null","null","arrowup","[0.85,0.15,0.675,0.325]","","",""
"sailing-trial","305","1619155","0.0-11.0-270.0","","","","false","","","","","","","","","","1081.7999999523163","","118.89999997615814","","0","0","arrowleft","0","arrowleft","[0.15,0.85,0.325,0.675]","","",""
"sailing-trial","306","1622798","0.0-11.0-271.0","","","","false","","","","","","","","","","null","","619.5999999046326","","2","0","null","null","arrowup","[0.15,0.85,0.325,0.675]","","",""
"sailing-trial","307","1628394","0.0-11.0-272.0","","","","false","","","","","","","","","","1082.6999999284744","","467.10000002384186","","0","0","arrowleft","0","arrowleft","[0.15,0.85,0.325,0.675]","","",""
"sailing-trial","308","1635359","0.0-11.0-273.0","","","","false","","","","","","","","","","null","","3923.5999999046326","","0","0","null","null","arrowup","[0.15,0.85,0.325,0.675]","","",""
"sailing-trial","309","1640369","0.0-11.0-274.0","","","","false","","","","","","","","","","839.8999999761581","","132.89999997615814","","0","0","arrowleft","0","arrowleft","[0.15,0.85,0.325,0.675]","","",""
"sailing-trial","310","1645050","0.0-11.0-275.0","","","","false","","","","","","","","","","null","","1633.8999999761581","","2","0","null","null","arrowup","[0.15,0.85,0.325,0.675]","","",""
"sailing-trial","311","1660070","0.0-11.0-276.0","","","","true","","","","","","","","","","null","","null","","null","null","null","null","null","[0.15,0.85,0.325,0.675]","","",""
"sailing-trial","312","1664981","0.0-11.0-277.0","","","","false","","","","","","","","","","null","","1889.3999999761581","","1","0","null","null","arrowup","[0.15,0.85,0.325,0.675]","","",""
"sailing-trial","313","1669799","0.0-11.0-278.0","","","","false","","","","","","","","","","398.89999997615814","","378.09999990463257","","0","0","arrowleft","0","arrowleft","[0.15,0.85,0.325,0.675]","","",""
"sailing-trial","314","1673806","0.0-11.0-279.0","","","","false","","","","","","","","","","null","","984.2999999523163","","2","0","null","null","arrowup","[0.15,0.85,0.325,0.675]","","",""
"sailing-trial","315","1677876","0.0-11.0-280.0","","","","false","","","","","","","","","","459.89999997615814","","321.2000000476837","","0","1","arrowleft","0","arrowleft","[0.15,0.85,0.325,0.675]","","",""
"sailing-trial","316","1681889","0.0-11.0-281.0","","","","false","","","","","","","","","","null","","980.5","","0","0","null","null","arrowup","[0.15,0.85,0.325,0.675]","","",""
"sailing-trial","317","1686817","0.0-11.0-282.0","","","","false","","","","","","","","","","505.60000002384186","","383.1999999284744","","0","0","arrowleft","0","arrowleft","[0.15,0.85,0.325,0.675]","","",""
"sailing-trial","318","1689566","0.0-11.0-283.0","","","","false","","","","","","","","","","null","","527.3000000715256","","1","1","null","null","arrowup","[0.15,0.85,0.325,0.675]","","",""
"sailing-trial","319","1693463","0.0-11.0-284.0","","","","false","","","","","","","","","","519.6000000238419","","353.10000002384186","","0","1","arrowleft","0","arrowleft","[0.15,0.85,0.325,0.675]","","",""
"sailing-trial","320","1700705","0.0-11.0-285.0","","","","false","","","","","","","","","","null","","4221.800000071526","","2","0","null","null","arrowup","[0.15,0.85,0.325,0.675]","","",""
"sailing-trial","321","1706436","0.0-11.0-286.0","","","","false","","","","","","","","","","1316.3999999761581","","339.1999999284744","","0","0","arrowleft","0","arrowleft","[0.675,0.325,0.85,0.15]","","",""
"sailing-trial","322","1709907","0.0-11.0-287.0","","","","false","","","","","","","","","","null","","1040","","2","1","null","null","arrowup","[0.675,0.325,0.85,0.15]","","",""
"sailing-trial","323","1714122","0.0-11.0-288.0","","","","false","","","","","","","","","","589.6000000238419","","236.90000009536743","","0","1","arrowleft","0","arrowleft","[0.675,0.325,0.85,0.15]","","",""
"sailing-trial","324","1718221","0.0-11.0-289.0","","","","false","","","","","","","","","","null","","1065.3000000715256","","3","0","null","null","arrowup","[0.675,0.325,0.85,0.15]","","",""
"sailing-trial","325","1722875","0.0-11.0-290.0","","","","false","","","","","","","","","","689.6000000238419","","284","","0","1","arrowleft","0","arrowleft","[0.675,0.325,0.85,0.15]","","",""
"sailing-trial","326","1725754","0.0-11.0-291.0","","","","false","","","","","","","","","","null","","828.8999999761581","","2","1","null","null","arrowup","[0.675,0.325,0.85,0.15]","","",""
"sailing-trial","327","1730899","0.0-11.0-292.0","","","","false","","","","","","","","","","711.6000000238419","","348.89999997615814","","0","0","arrowleft","0","arrowleft","[0.675,0.325,0.85,0.15]","","",""
"sailing-trial","328","1735385","0.0-11.0-293.0","","","","false","","","","","","","","","","null","","1460.1000000238419","","0","0","null","null","arrowup","[0.675,0.325,0.85,0.15]","","",""
"sailing-trial","329","1740093","0.0-11.0-294.0","","","","false","","","","","","","","","","982.7000000476837","","67.39999997615814","","0","1","arrowleft","0","arrowleft","[0.675,0.325,0.85,0.15]","","",""
"sailing-trial","330","1745773","0.0-11.0-295.0","","","","false","","","","","","","","","","null","","3408","","0","1","null","null","arrowup","[0.675,0.325,0.85,0.15]","","",""
"sailing-trial","331","1749576","0.0-11.0-296.0","","","","false","","","","","","","","","","688.5","","81.40000009536743","","0","1","arrowleft","0","arrowleft","[0.675,0.325,0.85,0.15]","","",""
"sailing-trial","332","1753233","0.0-11.0-297.0","","","","false","","","","","","","","","","null","","1231","","3","1","null","null","arrowup","[0.675,0.325,0.85,0.15]","","",""
"sailing-trial","333","1758702","0.0-11.0-298.0","","","","false","","","","","","","","","","1421.1999999284744","","1175","","0","1","arrowleft","0","arrowleft","[0.675,0.325,0.85,0.15]","","",""
"sailing-trial","334","1763439","0.0-11.0-299.0","","","","false","","","","","","","","","","null","","1704.2999999523163","","3","0","null","null","arrowup","[0.675,0.325,0.85,0.15]","","",""
"sailing-trial","335","1767770","0.0-11.0-300.0","","","","false","","","","","","","","","","816.3999999761581","","218.19999992847443","","0","1","arrowleft","0","arrowleft","[0.675,0.325,0.85,0.15]","","",""
"sailing-trial","336","1773681","0.0-11.0-301.0","","","","false","","","","","","","","","","null","","3366.600000023842","","2","1","null","null","arrowup","[0.675,0.325,0.85,0.15]","","",""
"sailing-trial","337","1778265","0.0-11.0-302.0","","","","false","","","","","","","","","","1402.1000000238419","","30.899999976158142","","0","1","arrowleft","0","arrowleft","[0.85,0.15,0.675,0.325]","","",""
"sailing-trial","338","1782173","0.0-11.0-303.0","","","","false","","","","","","","","","","null","","887.1999999284744","","0","0","null","null","arrowup","[0.85,0.15,0.675,0.325]","","",""
"sailing-trial","339","1787025","0.0-11.0-304.0","","","","false","","","","","","","","","","670.6000000238419","","153.70000004768372","","0","0","arrowleft","0","arrowleft","[0.85,0.15,0.675,0.325]","","",""
"sailing-trial","340","1791824","0.0-11.0-305.0","","","","false","","","","","","","","","","null","","2893.2999999523163","","0","1","null","null","arrowup","[0.85,0.15,0.675,0.325]","","",""
"sailing-trial","341","1795603","0.0-11.0-306.0","","","","false","","","","","","","","","","650.2999999523163","","68.39999997615814","","0","1","arrowleft","0","arrowleft","[0.85,0.15,0.675,0.325]","","",""
"sailing-trial","342","1800249","0.0-11.0-307.0","","","","false","","","","","","","","","","null","","2454.100000023842","","2","1","null","null","arrowup","[0.85,0.15,0.675,0.325]","","",""
"sailing-trial","343","1804839","0.0-11.0-308.0","","","","false","","","","","","","","","","825.3999999761581","","485.10000002384186","","0","1","arrowleft","0","arrowleft","[0.85,0.15,0.675,0.325]","","",""
"sailing-trial","344","1811049","0.0-11.0-309.0","","","","false","","","","","","","","","","null","","3158.899999976158","","1","0","null","null","arrowup","[0.85,0.15,0.675,0.325]","","",""
"sailing-trial","345","1815145","0.0-11.0-310.0","","","","false","","","","","","","","","","1172.4000000953674","","76.89999997615814","","0","1","arrowleft","0","arrowleft","[0.85,0.15,0.675,0.325]","","",""
"sailing-trial","346","1818466","0.0-11.0-311.0","","","","false","","","","","","","","","","null","","1434.2999999523163","","2","1","null","null","arrowup","[0.85,0.15,0.675,0.325]","","",""
"sailing-trial","347","1822412","0.0-11.0-312.0","","","","false","","","","","","","","","","458.5","","193.29999995231628","","0","1","arrowleft","0","arrowleft","[0.85,0.15,0.675,0.325]","","",""
"sailing-trial","348","1826464","0.0-11.0-313.0","","","","false","","","","","","","","","","null","","1897.6000000238419","","3","1","null","null","arrowup","[0.85,0.15,0.675,0.325]","","",""
"sailing-trial","349","1830435","0.0-11.0-314.0","","","","false","","","","","","","","","","544.8000000715256","","129.29999995231628","","0","1","arrowleft","0","arrowleft","[0.85,0.15,0.675,0.325]","","",""
"sailing-trial","350","1834045","0.0-11.0-315.0","","","","false","","","","","","","","","","null","","1563.7999999523163","","0","1","null","null","arrowup","[0.85,0.15,0.675,0.325]","","",""
"sailing-trial","351","1839202","0.0-11.0-316.0","","","","false","","","","","","","","","","657","","129.19999992847443","","0","1","arrowleft","0","arrowleft","[0.85,0.15,0.675,0.325]","","",""
"sailing-trial","352","1842185","0.0-11.0-317.0","","","","false","","","","","","","","","","null","","1142.8999999761581","","2","1","null","null","arrowup","[0.85,0.15,0.675,0.325]","","",""
"sailing-trial","353","1845666","0.0-11.0-318.0","","","","false","","","","","","","","","","506","","126.70000004768372","","0","1","arrowleft","0","arrowleft","[0.85,0.15,0.675,0.325]","","",""
"sailing-trial","354","1848746","0.0-11.0-319.0","","","","false","","","","","","","","","","null","","1267.1000000238419","","0","1","null","null","arrowup","[0.85,0.15,0.675,0.325]","","",""
"sailing-trial","355","1853658","0.0-11.0-320.0","","","","false","","","","","","","","","","481.6999999284744","","368.60000002384186","","0","0","arrowleft","0","arrowleft","[0.85,0.15,0.675,0.325]","","",""
"sailing-trial","356","1857078","0.0-11.0-321.0","","","","false","","","","","","","","","","null","","1143.2999999523163","","2","1","null","null","arrowup","[0.85,0.15,0.675,0.325]","","",""
"sailing-trial","357","1861723","0.0-11.0-322.0","","","","false","","","","","","","","","","430.60000002384186","","249.5","","0","1","arrowleft","0","arrowleft","[0.85,0.15,0.675,0.325]","","",""
"sailing-trial","358","1866102","0.0-11.0-323.0","","","","false","","","","","","","","","","null","","1348.1000000238419","","1","0","null","null","arrowup","[0.85,0.15,0.675,0.325]","","",""
"sailing-trial","359","1871048","0.0-11.0-324.0","","","","false","","","","","","","","","","522.1000000238419","","341.89999997615814","","0","0","arrowleft","0","arrowleft","[0.675,0.325,0.85,0.15]","","",""
"sailing-trial","360","1874872","0.0-11.0-325.0","","","","false","","","","","","","","","","null","","792.1000000238419","","3","0","null","null","arrowup","[0.675,0.325,0.85,0.15]","","",""
"sailing-trial","361","1884033","0.0-11.0-326.0","","","","false","","","","","","","","","","4558","","727.3000000715256","","0","1","arrowleft","0","arrowleft","[0.675,0.325,0.85,0.15]","","",""
"sailing-trial","362","1890549","0.0-11.0-327.0","","","","false","","","","","","","","","","null","","4675.200000047684","","0","1","null","null","arrowup","[0.675,0.325,0.85,0.15]","","",""
"sailing-trial","363","1896381","0.0-11.0-328.0","","","","false","","","","","","","","","","2254.899999976158","","236.30000007152557","","0","1","arrowleft","0","arrowleft","[0.675,0.325,0.85,0.15]","","",""
"sailing-trial","364","1900402","0.0-11.0-329.0","","","","false","","","","","","","","","","null","","996.1000000238419","","3","0","null","null","arrowup","[0.675,0.325,0.85,0.15]","","",""
"sailing-trial","365","1904855","0.0-11.0-330.0","","","","false","","","","","","","","","","876.1000000238419","","134.30000007152557","","0","1","arrowleft","0","arrowleft","[0.675,0.325,0.85,0.15]","","",""
"sailing-trial","366","1908834","0.0-11.0-331.0","","","","false","","","","","","","","","","null","","2024.8999999761581","","2","1","null","null","arrowup","[0.675,0.325,0.85,0.15]","","",""
"sailing-trial","367","1914601","0.0-11.0-332.0","","","","false","","","","","","","","","","1003.2999999523163","","200.29999995231628","","0","1","arrowleft","0","arrowleft","[0.675,0.325,0.85,0.15]","","",""
"sailing-trial","368","1920023","0.0-11.0-333.0","","","","false","","","","","","","","","","null","","3468.7000000476837","","1","1","null","null","arrowup","[0.675,0.325,0.85,0.15]","","",""
"sailing-trial","369","1924487","0.0-11.0-334.0","","","","false","","","","","","","","","","1525.2999999523163","","62.699999928474426","","0","1","arrowleft","0","arrowleft","[0.675,0.325,0.85,0.15]","","",""
"sailing-trial","370","1928515","0.0-11.0-335.0","","","","false","","","","","","","","","","null","","996.1999999284744","","1","0","null","null","arrowup","[0.675,0.325,0.85,0.15]","","",""
"sailing-trial","371","1932952","0.0-11.0-336.0","","","","false","","","","","","","","","","1090.6999999284744","","281.89999997615814","","0","1","arrowleft","0","arrowleft","[0.675,0.325,0.85,0.15]","","",""
"sailing-trial","372","1936081","0.0-11.0-337.0","","","","false","","","","","","","","","","null","","1266.5","","1","1","null","null","arrowup","[0.675,0.325,0.85,0.15]","","",""
"sailing-trial","373","1941135","0.0-11.0-338.0","","","","false","","","","","","","","","","577.8999999761581","","414.6999999284744","","0","0","arrowleft","0","arrowleft","[0.675,0.325,0.85,0.15]","","",""
"sailing-trial","374","1945484","0.0-11.0-339.0","","","","false","","","","","","","","","","null","","1315","","3","0","null","null","arrowup","[0.675,0.325,0.85,0.15]","","",""
"sailing-trial","375","1951311","0.0-11.0-340.0","","","","false","","","","","","","","","","1776","","0.8000000715255737","","0","0","arrowleft","0","arrowleft","[0.675,0.325,0.85,0.15]","","",""
"sailing-trial","376","1955461","0.0-11.0-341.0","","","","false","","","","","","","","","","null","","1633","","2","1","null","null","arrowup","[0.675,0.325,0.85,0.15]","","",""
"sailing-trial","377","1960786","0.0-11.0-342.0","","","","false","","","","","","","","","","1083.6000000238419","","193.10000002384186","","0","0","arrowleft","0","arrowleft","[0.675,0.325,0.85,0.15]","","",""
"sailing-trial","378","1963352","0.0-11.0-343.0","","","","false","","","","","","","","","","null","","776.2999999523163","","1","1","null","null","arrowup","[0.675,0.325,0.85,0.15]","","",""
"sailing-trial","379","1968154","0.0-11.0-344.0","","","","false","","","","","","","","","","653.3999999761581","","107.69999992847443","","0","0","arrowleft","0","arrowleft","[0.675,0.325,0.85,0.15]","","",""
"sailing-trial","380","1973876","0.0-11.0-345.0","","","","false","","","","","","","","","","null","","2701.399999976158","","2","0","null","null","arrowup","[0.675,0.325,0.85,0.15]","","",""
"sailing-trial","381","1978041","0.0-11.0-346.0","","","","false","","","","","","","","","","794.3000000715256","","132.10000002384186","","0","1","arrowleft","0","arrowleft","[0.85,0.15,0.675,0.325]","","",""
"sailing-trial","382","1981537","0.0-11.0-347.0","","","","false","","","","","","","","","","null","","1380.0999999046326","","3","1","null","null","arrowup","[0.85,0.15,0.675,0.325]","","",""
"sailing-trial","383","1985886","0.0-11.0-348.0","","","","false","","","","","","","","","","776.3999999761581","","626.8999999761581","","0","1","arrowleft","0","arrowleft","[0.85,0.15,0.675,0.325]","","",""
"sailing-trial","384","1989879","0.0-11.0-349.0","","","","false","","","","","","","","","","null","","968.7999999523163","","1","0","null","null","arrowup","[0.85,0.15,0.675,0.325]","","",""
"sailing-trial","385","1994428","0.0-11.0-350.0","","","","false","","","","","","","","","","702.8000000715256","","750.5","","0","1","arrowleft","0","arrowleft","[0.85,0.15,0.675,0.325]","","",""
"sailing-trial","386","1998604","0.0-11.0-351.0","","","","false","","","","","","","","","","null","","1142.5","","2","0","null","null","arrowup","[0.85,0.15,0.675,0.325]","","",""
"sailing-trial","387","2003957","0.0-11.0-352.0","","","","false","","","","","","","","","","1031.5999999046326","","1414.6000000238419","","0","1","arrowleft","0","arrowleft","[0.85,0.15,0.675,0.325]","","",""
"sailing-trial","388","2006750","0.0-11.0-353.0","","","","false","","","","","","","","","","null","","967.7000000476837","","2","1","null","null","arrowup","[0.85,0.15,0.675,0.325]","","",""
"sailing-trial","389","2011704","0.0-11.0-354.0","","","","false","","","","","","","","","","1867.2999999523163","","167","","0","1","arrowleft","0","arrowleft","[0.85,0.15,0.675,0.325]","","",""
"sailing-trial","390","2017074","0.0-11.0-355.0","","","","false","","","","","","","","","","null","","2325.100000023842","","1","0","null","null","arrowup","[0.85,0.15,0.675,0.325]","","",""
"sailing-trial","391","2022763","0.0-11.0-356.0","","","","false","","","","","","","","","","1051.8999999761581","","592","","0","0","arrowleft","0","arrowleft","[0.85,0.15,0.675,0.325]","","",""
"sailing-trial","392","2027131","0.0-11.0-357.0","","","","false","","","","","","","","","","null","","1317.6999999284744","","2","0","null","null","arrowup","[0.85,0.15,0.675,0.325]","","",""
"sailing-trial","393","2033150","0.0-11.0-358.0","","","","false","","","","","","","","","","1303.5","","390.7000000476837","","0","1","arrowleft","0","arrowleft","[0.85,0.15,0.675,0.325]","","",""
"sailing-trial","394","2040315","0.0-11.0-359.0","","","","false","","","","","","","","","","null","","4938.200000047684","","2","1","null","null","arrowup","[0.85,0.15,0.675,0.325]","","",""
"sailing-trial","395","2053536","0.0-11.0-360.0","","","","false","","","","","","","","","","675.7000000476837","","8832.5","","0","1","arrowleft","0","arrowleft","[0.85,0.15,0.675,0.325]","","",""
"sailing-trial","396","2057481","0.0-11.0-361.0","","","","false","","","","","","","","","","null","","908.6999999284744","","1","0","null","null","arrowup","[0.85,0.15,0.675,0.325]","","",""
"sailing-trial","397","2067592","0.0-11.0-362.0","","","","false","","","","","","","","","","1413.9000000953674","","4630.700000047684","","0","0","arrowleft","0","arrowleft","[0.15,0.85,0.325,0.675]","","",""
"sailing-trial","398","2074069","0.0-11.0-363.0","","","","false","","","","","","","","","","null","","3455.5","","0","0","null","null","arrowup","[0.15,0.85,0.325,0.675]","","",""
"sailing-trial","399","2079887","0.0-11.0-364.0","","","","false","","","","","","","","","","583.7999999523163","","1179","","0","0","arrowleft","0","arrowleft","[0.15,0.85,0.325,0.675]","","",""
"sailing-trial","400","2088414","0.0-11.0-365.0","","","","false","","","","","","","","","","null","","5184.200000047684","","1","1","null","null","arrowup","[0.15,0.85,0.325,0.675]","","",""
"sailing-trial","401","2094442","0.0-11.0-366.0","","","","false","","","","","","","","","","1355.2999999523163","","616.2999999523163","","0","0","arrowleft","0","arrowleft","[0.15,0.85,0.325,0.675]","","",""
"sailing-trial","402","2105149","0.0-11.0-367.0","","","","false","","","","","","","","","","null","","7682.799999952316","","2","0","null","null","arrowup","[0.15,0.85,0.325,0.675]","","",""
"sailing-trial","403","2111926","0.0-11.0-368.0","","","","false","","","","","","","","","","2658.5","","81.79999995231628","","0","0","arrowleft","0","arrowleft","[0.15,0.85,0.325,0.675]","","",""
"sailing-trial","404","2115812","0.0-11.0-369.0","","","","false","","","","","","","","","","null","","1673.6999999284744","","3","1","null","null","arrowup","[0.15,0.85,0.325,0.675]","","",""
"sailing-trial","405","2123484","0.0-11.0-370.0","","","","false","","","","","","","","","","3387.399999976158","","234.79999995231628","","0","0","arrowleft","0","arrowleft","[0.15,0.85,0.325,0.675]","","",""
"sailing-trial","406","2132077","0.0-11.0-371.0","","","","false","","","","","","","","","","null","","5571.199999928474","","2","0","null","null","arrowup","[0.15,0.85,0.325,0.675]","","",""
"sailing-trial","407","2136929","0.0-11.0-372.0","","","","false","","","","","","","","","","637.3999999761581","","147.60000002384186","","0","0","arrowleft","0","arrowleft","[0.15,0.85,0.325,0.675]","","",""
"sailing-trial","408","2141235","0.0-11.0-373.0","","","","false","","","","","","","","","","null","","1286.3000000715256","","2","0","null","null","arrowup","[0.15,0.85,0.325,0.675]","","",""
"sailing-trial","409","2146680","0.0-11.0-374.0","","","","false","","","","","","","","","","1200.6999999284744","","192.89999997615814","","0","0","arrowleft","0","arrowleft","[0.15,0.85,0.325,0.675]","","",""
"sailing-trial","410","2150944","0.0-11.0-375.0","","","","false","","","","","","","","","","null","","1230","","3","0","null","null","arrowup","[0.15,0.85,0.325,0.675]","","",""
"sailing-trial","411","2155624","0.0-11.0-376.0","","","","false","","","","","","","","","","556.1999999284744","","70.29999995231628","","0","0","arrowleft","0","arrowleft","[0.15,0.85,0.325,0.675]","","",""
"sailing-trial","412","2160309","0.0-11.0-377.0","","","","false","","","","","","","","","","null","","2157.899999976158","","3","1","null","null","arrowup","[0.15,0.85,0.325,0.675]","","",""
"sailing-trial","413","2165310","0.0-11.0-378.0","","","","false","","","","","","","","","","802.3999999761581","","162.60000002384186","","0","0","arrowleft","0","arrowleft","[0.15,0.85,0.325,0.675]","","",""
"sailing-trial","414","2169304","0.0-11.0-379.0","","","","false","","","","","","","","","","null","","968.6000000238419","","0","0","null","null","arrowup","[0.15,0.85,0.325,0.675]","","",""
"sailing-trial","415","2174324","0.0-11.0-380.0","","","","false","","","","","","","","","","1449.7999999523163","","168.39999997615814","","0","1","arrowleft","0","arrowleft","[0.325,0.675,0.15,0.85]","","",""
"sailing-trial","416","2177179","0.0-11.0-381.0","","","","false","","","","","","","","","","null","","929.4000000953674","","1","1","null","null","arrowup","[0.325,0.675,0.15,0.85]","","",""
"sailing-trial","417","2181885","0.0-11.0-382.0","","","","false","","","","","","","","","","609","","52.89999997615814","","0","0","arrowleft","0","arrowleft","[0.325,0.675,0.15,0.85]","","",""
"sailing-trial","418","2185882","0.0-11.0-383.0","","","","false","","","","","","","","","","null","","975.8999999761581","","1","0","null","null","arrowup","[0.325,0.675,0.15,0.85]","","",""
"sailing-trial","419","2189978","0.0-11.0-384.0","","","","false","","","","","","","","","","661.3000000715256","","86.29999995231628","","0","1","arrowleft","0","arrowleft","[0.325,0.675,0.15,0.85]","","",""
"sailing-trial","420","2193973","0.0-11.0-385.0","","","","false","","","","","","","","","","null","","971.7000000476837","","2","0","null","null","arrowup","[0.325,0.675,0.15,0.85]","","",""
"sailing-trial","421","2197054","0.0-11.0-386.0","","","","false","","","","","","","","","","606.8000000715256","","116.89999997615814","","0","0","arrowleft","0","arrowleft","[0.325,0.675,0.15,0.85]","","",""
"sailing-trial","422","2200569","0.0-11.0-387.0","","","","false","","","","","","","","","","null","","1625.7999999523163","","0","1","null","null","arrowup","[0.325,0.675,0.15,0.85]","","",""
"sailing-trial","423","2208172","0.0-11.0-388.0","","","","false","","","","","","","","","","2077.5","","1465.8999999761581","","0","0","arrowleft","0","arrowleft","[0.325,0.675,0.15,0.85]","","",""
"sailing-trial","424","2211894","0.0-11.0-389.0","","","","false","","","","","","","","","","null","","1472.6000000238419","","2","1","null","null","arrowup","[0.325,0.675,0.15,0.85]","","",""
"sailing-trial","425","2216691","0.0-11.0-390.0","","","","false","","","","","","","","","","1346.0999999046326","","477.10000002384186","","0","1","arrowleft","0","arrowleft","[0.325,0.675,0.15,0.85]","","",""
"sailing-trial","426","2221526","0.0-11.0-391.0","","","","false","","","","","","","","","","null","","1804.6000000238419","","0","0","null","null","arrowup","[0.325,0.675,0.15,0.85]","","",""
"sailing-trial","427","2226679","0.0-11.0-392.0","","","","false","","","","","","","","","","746","","346.5","","0","0","arrowleft","0","arrowleft","[0.325,0.675,0.15,0.85]","","",""
"sailing-trial","428","2233557","0.0-11.0-393.0","","","","false","","","","","","","","","","null","","3854.5","","2","0","null","null","arrowup","[0.325,0.675,0.15,0.85]","","",""
"sailing-trial","429","2241632","0.0-11.0-394.0","","","","false","","","","","","","","","","3715","","295.2999999523163","","0","0","arrowleft","0","arrowleft","[0.325,0.675,0.15,0.85]","","",""
"sailing-trial","430","2245305","0.0-11.0-395.0","","","","false","","","","","","","","","","null","","1121.3999999761581","","3","1","null","null","arrowup","[0.325,0.675,0.15,0.85]","","",""
"sailing-trial","431","2250033","0.0-11.0-396.0","","","","false","","","","","","","","","","652.2999999523163","","13.899999976158142","","0","0","arrowleft","0","arrowleft","[0.325,0.675,0.15,0.85]","","",""
"sailing-trial","432","2259133","0.0-11.0-397.0","","","","false","","","","","","","","","","null","","6074.099999904633","","2","0","null","null","arrowup","[0.325,0.675,0.15,0.85]","","",""
"sailing-trial","433","2264660","0.0-11.0-398.0","","","","false","","","","","","","","","","1144.7999999523163","","346.10000002384186","","0","0","arrowleft","0","arrowleft","[0.325,0.675,0.15,0.85]","","",""
"sailing-trial","434","2269449","0.0-11.0-399.0","","","","false","","","","","","","","","","null","","2538.7000000476837","","0","1","null","null","arrowup","[0.325,0.675,0.15,0.85]","","",""
"instructions","435","2274845","0.0-12.0","","","","","","","","","","5395.5","","","","","","","","","","","","","","","","[{""page_index"":0,""viewing_time"":5395.100000023842}]"
"survey-debrief","436","2326791","0.0-13.0","","","","","","","","","","51944.800000071526","","","","","","","","","","","","","","{""difficulty"":""3"",""fun"":""2"",""clarity"":""5"",""strategy"":""I mostly picked the same shops that mostly gave me gold."",""feedback"":""""}","",""
