"trial_type","trial_index","time_elapsed","internal_node_id","value","metadata","success","timeout","failed_images","failed_audio","failed_video","browser_interaction","low_quality","rt","stimulus","response","button_pressed","island_rt","island_response","boat_rt","boat_response","boat","reward","island_key","island","boat_key","reward_probabilities","responses","num_errors","view_history"
"pavlovia","0","6","0.0-0.0","","","","","","","","","","","","","","","","","","","","","","","","","",""
"call-function","1","7","0.0-1.0","","{""task_version"":""sailing_part1_v1"",""task_condition"":""good"",""boats"":[""D"",""C"",""A"",""B""],""boats_demo"":[""E"",""H"",""F"",""G""],""islands"":[""B"",""A""],""subject_id"":""14769"",""age"":""21"",""gender"":""Female""}","","","","","","","","","","","","","","","","","","","","","","","",""
"preload","2","1683","0.0-2.0","","","true","false","[]","[]","[]","[{""event"":""fullscreenenter"",""trial"":3,""time"":3339}]","false","","","","","","","","","","","","","","","","",""
"fullscreen","3","4300","0.0-3.0","","","true","","","","","","","","","","","","","","","","","","","","","","",""
"audio-keyboard-response","4","6123","0.0-4.0-0.0","","","","","","","","","","864","audio/beep_loop.wav"," ","","","","","","","","","","","","","",""
"audio-test","5","7919","0.0-4.0-1.0","","","","","","","","","","null","audio/turtle.mp3","","3","","","","","","","","","","","","",""
"audio-test","6","10300","0.0-4.0-2.0","","","","","","","","","","null","audio/shark.mp3","","2","","","","","","","","","","","","",""
"sailing-instructions","7","40649","0.0-5.0-0.0-0.0","","","","","","","","","","","","","","null","null","null","null","null","null","","","","","","",""
"sailing-trial","8","44748","0.0-5.0-0.0-1.0-0.0","","","","false","","","","","","","","","","2937.2999999821186","","null","","null","null","arrowleft","0","null","null","","",""
"sailing-trial","9","47053","0.0-5.0-0.0-1.0-1.0","","","","false","","","","","","","","","","1140.5999999940395","","null","","null","null","arrowright","1","null","null","","",""
"sailing-trial","10","49778","0.0-5.0-0.0-1.0-2.0","","","","false","","","","","","","","","","1546","","null","","null","null","arrowright","1","null","null","","",""
"sailing-instructions","11","92181","0.0-5.0-0.0-2.0","","","","","","","","","","","","","","null","null","null","null","0","null","","","","","","",""
"sailing-trial","12","99848","0.0-5.0-0.0-3.0-0.0","","","","false","","","","","","","","","","null","","3315.0999999940395","","2","1","null","null","arrowleft","[1,1,1,1]","","",""
"sailing-trial","13","103787","0.0-5.0-0.0-3.0-1.0","","","","false","","","","","","","","","","null","","966.3000000119209","","3","1","null","null","arrowright","[1,1,1,1]","","",""
"sailing-trial","14","108021","0.0-5.0-0.0-3.0-2.0","","","","false","","","","","","","","","","null","","1322.9000000059605","","2","0","null","null","arrowleft","[0,0,0,0]","","",""
"sailing-instructions","15","115377","0.0-5.0-0.0-4.0","","","","","","","","","","","","","","null","null","null","null","null","null","","","","","","",""
"sailing-comprehension","16","135068","0.0-5.0-0.0-5.0","","","","","","","","","","14783.799999982119","","","","","","","","","","","","","","[""true"",""true"",""false"",""false""]","1",""
"sailing-instructions","17","163228","0.0-5.0-0.1-0.1","","","","","","","","","","","","","","null","null","null","null","null","null","","","","","","",""
"sailing-trial","18","166592","0.0-5.0-0.1-1.1-0.1","","","","false","","","","","","","","","","2225.5999999940395","","null","","null","null","arrowleft","0","null","null","","",""
"sailing-trial","19","168616","0.0-5.0-0.1-1.1-1.1","","","","false","","","","","","","","","","823.8999999761581","","null","","null","null","arrowright","1","null","null","","",""
"sailing-trial","20","170560","0.0-5.0-0.1-1.1-2.1","","","","false","","","","","","","","","","785.0999999940395","","null","","null","null","arrowright","1","null","null","","",""
"sailing-instructions","21","216359","0.0-5.0-0.1-2.1","","","","","","","","","","","","","","null","null","null","null","0","null","","","","","","",""
"sailing-trial","22","224420","0.0-5.0-0.1-3.1-0.1","","","","false","","","","","","","","","","null","","3478.0999999940395","","2","1","null","null","arrowleft","[1,1,1,1]","","",""
"sailing-trial","23","227641","0.0-5.0-0.1-3.1-1.1","","","","false","","","","","","","","","","null","","579.4000000059605","","3","1","null","null","arrowright","[1,1,1,1]","","",""
"sailing-trial","24","231151","0.0-5.0-0.1-3.1-2.1","","","","false","","","","","","","","","","null","","748.5999999940395","","3","0","null","null","arrowright","[0,0,0,0]","","",""
"sailing-instructions","25","238859","0.0-5.0-0.1-4.1","","","","","","","","","","","","","","null","null","null","null","null","null","","","","","","",""
"sailing-comprehension","26","248290","0.0-5.0-0.1-5.1","","","","","","","","","","7691.0999999940395","","","","","","","","","","","","","","[""true"",""true"",""false"",""true""]","0",""
"sailing-instructions","27","311188","0.0-6.0-0.0-0.0","","","","","","","","","","","","","","null","null","null","null","null","null","","","","","","",""
"sailing-comprehension","28","322500","0.0-6.0-0.0-1.0","","","","","","","","","","9927.59999999404","","","","","","","","","","","","","","[""true"",""false"",""true""]","0",""
"sailing-instructions","29","338912","0.0-7.0-0.0-0.0","","","","","","","","","","","","","","null","null","null","null","null","null","","","","","","",""
"sailing-trial","30","344534","0.0-7.0-0.0-1.0-0.0","","","","false","","","","","","","","","","null","","2570.9000000059605","","0","0","null","null","arrowup","[0.2,0.8,0.2,0.8]","","",""
"sailing-trial","31","349028","0.0-7.0-0.0-1.0-1.0","","","","false","","","","","","","","","","null","","2209","","1","1","null","null","arrowup","[0.2,0.8,0.2,0.8]","","",""
"sailing-trial","32","352268","0.0-7.0-0.0-1.0-2.0","","","","false","","","","","","","","","","null","","1135.7999999821186","","2","0","null","null","arrowup","[0.2,0.8,0.2,0.8]","","",""
"sailing-trial","33","355805","0.0-7.0-0.0-1.0-3.0","","","","false","","","","","","","","","","null","","1324","","3","1","null","null","arrowup","[0.2,0.8,0.2,0.8]","","",""
"sailing-comprehension","34","361950","0.0-7.0-0.0-2.0","","","","","","","","","","4645.300000011921","","","","","","","","","","","","","","[""true""]","1",""
"sailing-instructions","35","378072","0.0-7.0-0.1-0.1","","","","","","","","","","","","","","null","null","null","null","null","null","","","","","","",""
"sailing-trial","36","382584","0.0-7.0-0.1-1.1-0.1","","","","false","","","","","","","","","","null","","2569.800000011921","","0","0","null","null","arrowup","[0.2,0.8,0.2,0.8]","","",""
"sailing-trial","37","385641","0.0-7.0-0.1-1.1-1.1","","","","false","","","","","","","","","","null","","934","","1","1","null","null","arrowup","[0.2,0.8,0.2,0.8]","","",""
"sailing-trial","38","387954","0.0-7.0-0.1-1.1-2.1","","","","false","","","","","","","","","","null","","923.5999999940395","","2","0","null","null","arrowup","[0.2,0.8,0.2,0.8]","","",""
"sailing-trial","39","390769","0.0-7.0-0.1-1.1-3.1","","","","false","","","","","","","","","","null","","846.2000000178814","","3","1","null","null","arrowup","[0.2,0.8,0.2,0.8]","","",""
"sailing-comprehension","40","403528","0.0-7.0-0.1-2.1","","","","","","","","","","8670.800000011921","","","","","","","","","","","","","","[""true""]","1",""
"sailing-instructions","41","414600","0.0-8.0-0.0-0.0","","","","","","","","","","","","","","null","null","null","null","null","null","","","","","","",""
"sailing-comprehension","42","419326","0.0-8.0-0.0-1.0","","","","","","","","","","3474.600000023842","","","","","","","","","","","","","","[""true""]","0",""
"sailing-instructions","43","448468","0.0-9.0-0.0-0.0","","","","","","","","","","","","","","null","null","null","null","null","null","","","","","","",""
"sailing-trial","44","455057","0.0-9.0-0.0-1.0-0.0","","","","false","","","","","","","","","","1641.0999999940395","","1326.199999988079","","1","1","arrowleft","0","arrowright","[0.2,0.8,0.2,0.8]","","",""
"sailing-trial","45","461287","0.0-9.0-0.0-1.0-1.0","","","","false","","","","","","","","","","2980.7000000178814","","237.40000000596046","","2","0","arrowright","1","arrowleft","[0.2,0.8,0.2,0.8]","","",""
"sailing-trial","46","464938","0.0-9.0-0.0-1.0-2.0","","","","false","","","","","","","","","","null","","1733.9000000059605","","0","0","null","null","arrowup","[0.2,0.8,0.2,0.8]","","",""
"sailing-trial","47","470089","0.0-9.0-0.0-1.0-3.0","","","","false","","","","","","","","","","1458.5999999940395","","186.30000001192093","","1","1","arrowleft","0","arrowright","[0.2,0.8,0.2,0.8]","","",""
"sailing-trial","48","473523","0.0-9.0-0.0-1.0-4.0","","","","false","","","","","","","","","","null","","1270.6000000238419","","3","1","null","null","arrowup","[0.2,0.8,0.2,0.8]","","",""
"sailing-trial","49","479166","0.0-9.0-0.0-1.0-5.0","","","","false","","","","","","","","","","1243","","1137.4000000059605","","1","1","arrowleft","0","arrowright","[0.2,0.8,0.2,0.8]","","",""
"sailing-instructions","50","504751","0.0-10.0","","","","","","","","","","","","","","null","null","null","null","null","null","","","","","","",""
"sailing-trial","51","512286","0.0-11.0-0.0","","","","false","","","","","","","","","","3329.100000023842","","799","","1","1","arrowleft","0","arrowright","[0.675,0.325,0.85,0.15]","","",""
"sailing-trial","52","515429","0.0-11.0-1.0","","","","false","","","","","","","","","","null","","1176.2999999821186","","3","1","null","null","arrowup","[0.675,0.325,0.85,0.15]","","",""
"sailing-trial","53","519781","0.0-11.0-2.0","","","","false","","","","","","","","","","757.5999999940395","","234.59999999403954","","2","1","arrowright","1","arrowleft","[0.675,0.325,0.85,0.15]","","",""
"sailing-trial","54","523079","0.0-11.0-3.0","","","","false","","","","","","","","","","null","","1131.5999999940395","","1","0","null","null","arrowup","[0.675,0.325,0.85,0.15]","","",""
"sailing-trial","55","527816","0.0-11.0-4.0","","","","false","","","","","","","","","","1284","","234.59999999403954","","1","1","arrowleft","0","arrowright","[0.675,0.325,0.85,0.15]","","",""
"sailing-trial","56","530560","0.0-11.0-5.0","","","","false","","","","","","","","","","null","","975.6000000238419","","1","0","null","null","arrowup","[0.675,0.325,0.85,0.15]","","",""
"sailing-trial","57","535110","0.0-11.0-6.0","","","","false","","","","","","","","","","1217.7999999821186","","272.59999999403954","","2","1","arrowright","1","arrowleft","[0.675,0.325,0.85,0.15]","","",""
"sailing-trial","58","537768","0.0-11.0-7.0","","","","false","","","","","","","","","","null","","1005.9000000059605","","3","0","null","null","arrowup","[0.675,0.325,0.85,0.15]","","",""
"sailing-trial","59","542035","0.0-11.0-8.0","","","","false","","","","","","","","","","784.6999999880791","","351","","1","0","arrowleft","0","arrowright","[0.675,0.325,0.85,0.15]","","",""
"sailing-trial","60","545137","0.0-11.0-9.0","","","","false","","","","","","","","","","null","","1030.5","","3","1","null","null","arrowup","[0.675,0.325,0.85,0.15]","","",""
"sailing-trial","61","549143","0.0-11.0-10.0","","","","false","","","","","","","","","","774.6999999880791","","187","","3","1","arrowright","1","arrowright","[0.675,0.325,0.85,0.15]","","",""
"sailing-trial","62","551620","0.0-11.0-11.0","","","","false","","","","","","","","","","null","","891.5999999940395","","3","0","null","null","arrowup","[0.675,0.325,0.85,0.15]","","",""
"sailing-trial","63","556069","0.0-11.0-12.0","","","","false","","","","","","","","","","1548.0999999940395","","285.40000000596046","","1","0","arrowleft","0","arrowright","[0.675,0.325,0.85,0.15]","","",""
"sailing-trial","64","558891","0.0-11.0-13.0","","","","false","","","","","","","","","","null","","1116.5","","0","0","null","null","arrowup","[0.675,0.325,0.85,0.15]","","",""
"sailing-trial","65","564202","0.0-11.0-14.0","","","","false","","","","","","","","","","1937.699999988079","","352.59999999403954","","3","1","arrowright","1","arrowright","[0.675,0.325,0.85,0.15]","","",""
"sailing-trial","66","566779","0.0-11.0-15.0","","","","false","","","","","","","","","","null","","997.1999999880791","","1","0","null","null","arrowup","[0.675,0.325,0.85,0.15]","","",""
"sailing-trial","67","570606","0.0-11.0-16.0","","","","false","","","","","","","","","","672","","81.69999998807907","","0","1","arrowleft","0","arrowleft","[0.675,0.325,0.85,0.15]","","",""
"sailing-trial","68","573170","0.0-11.0-17.0","","","","false","","","","","","","","","","null","","986.1999999880791","","3","0","null","null","arrowup","[0.675,0.325,0.85,0.15]","","",""
"sailing-trial","69","578011","0.0-11.0-18.0","","","","false","","","","","","","","","","1301.5999999940395","","664.7999999821186","","3","0","arrowright","1","arrowright","[0.85,0.15,0.675,0.325]","","",""
"sailing-trial","70","580887","0.0-11.0-19.0","","","","false","","","","","","","","","","null","","881.0999999940395","","2","1","null","null","arrowup","[0.85,0.15,0.675,0.325]","","",""
"sailing-trial","71","584848","0.0-11.0-20.0","","","","false","","","","","","","","","","786.2999999821186","","38.099999994039536","","0","1","arrowleft","0","arrowleft","[0.85,0.15,0.675,0.325]","","",""
"sailing-trial","72","587592","0.0-11.0-21.0","","","","false","","","","","","","","","","null","","1065.5","","3","0","null","null","arrowup","[0.85,0.15,0.675,0.325]","","",""
"sailing-trial","73","593162","0.0-11.0-22.0","","","","false","","","","","","","","","","2271.699999988079","","188.80000001192093","","0","1","arrowleft","0","arrowleft","[0.85,0.15,0.675,0.325]","","",""
"sailing-trial","74","597004","0.0-11.0-23.0","","","","false","","","","","","","","","","null","","1790.7000000178814","","1","1","null","null","arrowup","[0.85,0.15,0.675,0.325]","","",""
"sailing-trial","75","601108","0.0-11.0-24.0","","","","false","","","","","","","","","","755.7000000178814","","156","","0","1","arrowleft","0","arrowleft","[0.85,0.15,0.675,0.325]","","",""
"sailing-trial","76","603481","0.0-11.0-25.0","","","","false","","","","","","","","","","null","","854.2999999821186","","0","0","null","null","arrowup","[0.85,0.15,0.675,0.325]","","",""
"sailing-trial","77","607090","0.0-11.0-26.0","","","","false","","","","","","","","","","633.2999999821186","","197.90000000596046","","0","0","arrowleft","0","arrowleft","[0.85,0.15,0.675,0.325]","","",""
"sailing-trial","78","609872","0.0-11.0-27.0","","","","false","","","","","","","","","","null","","1167.6000000238419","","0","0","null","null","arrowup","[0.85,0.15,0.675,0.325]","","",""
"sailing-trial","79","613953","0.0-11.0-28.0","","","","false","","","","","","","","","","733.5999999940395","","253.7999999821186","","2","1","arrowright","1","arrowleft","[0.85,0.15,0.675,0.325]","","",""
"sailing-trial","80","616820","0.0-11.0-29.0","","","","false","","","","","","","","","","null","","911.9000000059605","","1","1","null","null","arrowup","[0.85,0.15,0.675,0.325]","","",""
"sailing-trial","81","620500","0.0-11.0-30.0","","","","false","","","","","","","","","","977.5999999940395","","63.69999998807907","","1","0","arrowleft","0","arrowright","[0.85,0.15,0.675,0.325]","","",""
"sailing-trial","82","623662","0.0-11.0-31.0","","","","false","","","","","","","","","","null","","1279.199999988079","","0","1","null","null","arrowup","[0.85,0.15,0.675,0.325]","","",""
"sailing-trial","83","627071","0.0-11.0-32.0","","","","false","","","","","","","","","","573.0999999940395","","49","","2","0","arrowright","1","arrowleft","[0.85,0.15,0.675,0.325]","","",""
"sailing-trial","84","629855","0.0-11.0-33.0","","","","false","","","","","","","","","","null","","812.5999999940395","","0","1","null","null","arrowup","[0.85,0.15,0.675,0.325]","","",""
"sailing-trial","85","633943","0.0-11.0-34.0","","","","false","","","","","","","","","","764.3000000119209","","256.09999999403954","","3","1","arrowright","1","arrowright","[0.85,0.15,0.675,0.325]","","",""
"sailing-trial","86","636839","0.0-11.0-35.0","","","","false","","","","","","","","","","null","","972.9000000059605","","3","1","null","null","arrowup","[0.85,0.15,0.675,0.325]","","",""
"sailing-trial","87","640749","0.0-11.0-36.0","","","","false","","","","","","","","","","716.1999999880791","","545","","3","0","arrowright","1","arrowright","[0.675,0.325,0.85,0.15]","","",""
"sailing-trial","88","644506","0.0-11.0-37.0","","","","false","","","","","","","","","","null","","1871.300000011921","","0","1","null","null","arrowup","[0.675,0.325,0.85,0.15]","","",""
"sailing-trial","89","648475","0.0-11.0-38.0","","","","false","","","","","","","","","","1051.2000000178814","","98.09999999403954","","1","0","arrowleft","0","arrowright","[0.675,0.325,0.85,0.15]","","",""
"sailing-trial","90","651190","0.0-11.0-39.0","","","","false","","","","","","","","","","null","","820.7999999821186","","0","1","null","null","arrowup","[0.675,0.325,0.85,0.15]","","",""
"sailing-trial","91","655077","0.0-11.0-40.0","","","","false","","","","","","","","","","693","","89.69999998807907","","2","1","arrowright","1","arrowleft","[0.675,0.325,0.85,0.15]","","",""
"sailing-trial","92","657484","0.0-11.0-41.0","","","","false","","","","","","","","","","null","","984.3999999761581","","3","0","null","null","arrowup","[0.675,0.325,0.85,0.15]","","",""
"sailing-trial","93","661550","0.0-11.0-42.0","","","","false","","","","","","","","","","791.3999999761581","","110.59999999403954","","0","1","arrowleft","0","arrowleft","[0.675,0.325,0.85,0.15]","","",""
"sailing-trial","94","663897","0.0-11.0-43.0","","","","false","","","","","","","","","","null","","741.7000000178814","","3","0","null","null","arrowup","[0.675,0.325,0.85,0.15]","","",""
"sailing-trial","95","667978","0.0-11.0-44.0","","","","false","","","","","","","","","","804.7000000178814","","269.7000000178814","","0","1","arrowleft","0","arrowleft","[0.675,0.325,0.85,0.15]","","",""
"sailing-trial","96","670941","0.0-11.0-45.0","","","","false","","","","","","","","","","null","","1090.7000000178814","","2","1","null","null","arrowup","[0.675,0.325,0.85,0.15]","","",""
"sailing-trial","97","674390","0.0-11.0-46.0","","","","false","","","","","","","","","","607.7000000178814","","187.10000002384186","","2","0","arrowright","1","arrowleft","[0.675,0.325,0.85,0.15]","","",""
"sailing-trial","98","676919","0.0-11.0-47.0","","","","false","","","","","","","","","","null","","1054.300000011921","","1","0","null","null","arrowup","[0.675,0.325,0.85,0.15]","","",""
"sailing-trial","99","680593","0.0-11.0-48.0","","","","false","","","","","","","","","","792.2999999821186","","210.39999997615814","","3","0","arrowright","1","arrowright","[0.675,0.325,0.85,0.15]","","",""
"sailing-trial","100","684586","0.0-11.0-49.0","","","","false","","","","","","","","","","null","","2595.5","","3","0","null","null","arrowup","[0.675,0.325,0.85,0.15]","","",""
"sailing-trial","101","689911","0.0-11.0-50.0","","","","false","","","","","","","","","","1244.2999999821186","","294.2999999821186","","0","1","arrowleft","0","arrowleft","[0.675,0.325,0.85,0.15]","","",""
"sailing-trial","102","693524","0.0-11.0-51.0","","","","false","","","","","","","","","","null","","1651.5999999940395","","3","1","null","null","arrowup","[0.675,0.325,0.85,0.15]","","",""
"sailing-trial","103","697524","0.0-11.0-52.0","","","","false","","","","","","","","","","837.4000000059605","","189.09999999403954","","1","0","arrowleft","0","arrowright","[0.675,0.325,0.85,0.15]","","",""
"sailing-trial","104","700758","0.0-11.0-53.0","","","","false","","","","","","","","","","null","","1323.9000000059605","","2","1","null","null","arrowup","[0.675,0.325,0.85,0.15]","","",""
"sailing-trial","105","705422","0.0-11.0-54.0","","","","false","","","","","","","","","","1329","","29.799999982118607","","0","1","arrowleft","0","arrowleft","[0.85,0.15,0.675,0.325]","","",""
"sailing-trial","106","708141","0.0-11.0-55.0","","","","false","","","","","","","","","","null","","856","","2","1","null","null","arrowup","[0.85,0.15,0.675,0.325]","","",""
"sailing-trial","107","712075","0.0-11.0-56.0","","","","false","","","","","","","","","","976.6999999880791","","338.69999998807907","","3","0","arrowright","1","arrowright","[0.85,0.15,0.675,0.325]","","",""
"sailing-trial","108","715010","0.0-11.0-57.0","","","","false","","","","","","","","","","null","","925","","0","1","null","null","arrowup","[0.85,0.15,0.675,0.325]","","",""
"sailing-trial","109","718643","0.0-11.0-58.0","","","","false","","","","","","","","","","892.1999999880791","","164.90000000596046","","1","0","arrowleft","0","arrowright","[0.85,0.15,0.675,0.325]","","",""
"sailing-trial","110","721049","0.0-11.0-59.0","","","","false","","","","","","","","","","null","","945.5","","3","0","null","null","arrowup","[0.85,0.15,0.675,0.325]","","",""
"sailing-trial","111","725929","0.0-11.0-60.0","","","","false","","","","","","","","","","868.3000000119209","","918.4000000059605","","0","1","arrowleft","0","arrowleft","[0.85,0.15,0.675,0.325]","","",""
"sailing-trial","112","730093","0.0-11.0-61.0","","","","false","","","","","","","","","","null","","2658.699999988079","","1","0","null","null","arrowup","[0.85,0.15,0.675,0.325]","","",""
"sailing-trial","113","734131","0.0-11.0-62.0","","","","false","","","","","","","","","","689","","77.59999999403954","","2","1","arrowright","1","arrowleft","[0.85,0.15,0.675,0.325]","","",""
"sailing-trial","114","736564","0.0-11.0-63.0","","","","false","","","","","","","","","","null","","953.4000000059605","","1","0","null","null","arrowup","[0.85,0.15,0.675,0.325]","","",""
"sailing-trial","115","741179","0.0-11.0-64.0","","","","false","","","","","","","","","","677.5","","871.7000000178814","","2","1","arrowright","1","arrowleft","[0.85,0.15,0.675,0.325]","","",""
"sailing-trial","116","744962","0.0-11.0-65.0","","","","false","","","","","","","","","","null","","1718.5","","2","1","null","null","arrowup","[0.85,0.15,0.675,0.325]","","",""
"sailing-trial","117","749266","0.0-11.0-66.0","","","","false","","","","","","","","","","792.1000000238419","","395.09999999403954","","2","1","arrowright","1","arrowleft","[0.85,0.15,0.675,0.325]","","",""
"sailing-trial","118","751820","0.0-11.0-67.0","","","","false","","","","","","","","","","null","","1061.4000000059605","","1","0","null","null","arrowup","[0.85,0.15,0.675,0.325]","","",""
"sailing-trial","119","755388","0.0-11.0-68.0","","","","false","","","","","","","","","","728.2999999821186","","78.19999998807907","","2","0","arrowright","1","arrowleft","[0.85,0.15,0.675,0.325]","","",""
"sailing-trial","120","758795","0.0-11.0-69.0","","","","false","","","","","","","","","","null","","1565.699999988079","","0","1","null","null","arrowup","[0.85,0.15,0.675,0.325]","","",""
"sailing-trial","121","762811","0.0-11.0-70.0","","","","false","","","","","","","","","","615.4000000059605","","293.19999998807907","","0","1","arrowleft","0","arrowleft","[0.85,0.15,0.675,0.325]","","",""
"sailing-trial","122","765169","0.0-11.0-71.0","","","","false","","","","","","","","","","null","","983.0999999940395","","0","0","null","null","arrowup","[0.85,0.15,0.675,0.325]","","",""
"sailing-trial","123","768722","0.0-11.0-72.0","","","","false","","","","","","","","","","834.8000000119209","","45.69999998807907","","0","0","arrowleft","0","arrowleft","[0.675,0.325,0.85,0.15]","","",""
"sailing-trial","124","771846","0.0-11.0-73.0","","","","false","","","","","","","","","","null","","1083.300000011921","","2","1","null","null","arrowup","[0.675,0.325,0.85,0.15]","","",""
"sailing-trial","125","775679","0.0-11.0-74.0","","","","false","","","","","","","","","","586.9000000059605","","192.40000000596046","","2","1","arrowright","1","arrowleft","[0.675,0.325,0.85,0.15]","","",""
"sailing-trial","126","778022","0.0-11.0-75.0","","","","false","","","","","","","","","","null","","834.1999999880791","","3","0","null","null","arrowup","[0.675,0.325,0.85,0.15]","","",""
"sailing-trial","127","783209","0.0-11.0-76.0","","","","false","","","","","","","","","","2070.300000011921","","68.40000000596046","","2","1","arrowright","1","arrowleft","[0.675,0.325,0.85,0.15]","","",""
"sailing-trial","128","786163","0.0-11.0-77.0","","","","false","","","","","","","","","","null","","893.5999999940395","","2","1","null","null","arrowup","[0.675,0.325,0.85,0.15]","","",""
"sailing-trial","129","790547","0.0-11.0-78.0","","","","false","","","","","","","","","","732.6999999880791","","566.7000000178814","","2","1","arrowright","1","arrowleft","[0.675,0.325,0.85,0.15]","","",""
"sailing-trial","130","793035","0.0-11.0-79.0","","","","false","","","","","","","","","","null","","996.8999999761581","","1","0","null","null","arrowup","[0.675,0.325,0.85,0.15]","","",""
"sailing-trial","131","796693","0.0-11.0-80.0","","","","false","","","","","","","","","","796.2999999821186","","120.30000001192093","","0","0","arrowleft","0","arrowleft","[0.675,0.325,0.85,0.15]","","",""
"sailing-trial","132","799649","0.0-11.0-81.0","","","","false","","","","","","","","","","null","","1018.6999999880791","","2","1","null","null","arrowup","[0.675,0.325,0.85,0.15]","","",""
"sailing-trial","133","803984","0.0-11.0-82.0","","","","false","","","","","","","","","","668.1999999880791","","502.7999999821186","","2","1","arrowright","1","arrowleft","[0.675,0.325,0.85,0.15]","","",""
"sailing-trial","134","807064","0.0-11.0-83.0","","","","false","","","","","","","","","","null","","872","","2","1","null","null","arrowup","[0.675,0.325,0.85,0.15]","","",""
"sailing-trial","135","810674","0.0-11.0-84.0","","","","false","","","","","","","","","","416.59999999403954","","78.5","","2","1","arrowright","1","arrowleft","[0.675,0.325,0.85,0.15]","","",""
"sailing-trial","136","813947","0.0-11.0-85.0","","","","false","","","","","","","","","","null","","1176.1000000238419","","2","1","null","null","arrowup","[0.675,0.325,0.85,0.15]","","",""
"sailing-trial","137","817671","0.0-11.0-86.0","","","","false","","","","","","","","","","540.8000000119209","","140.90000000596046","","2","1","arrowright","1","arrowleft","[0.675,0.325,0.85,0.15]","","",""
"sailing-trial","138","820293","0.0-11.0-87.0","","","","false","","","","","","","","","","null","","1062.5","","1","0","null","null","arrowup","[0.675,0.325,0.85,0.15]","","",""
"sailing-trial","139","826913","0.0-11.0-88.0","","","","false","","","","","","","","","","3045.2999999821186","","434","","1","1","arrowleft","0","arrowright","[0.85,0.15,0.675,0.325]","","",""
"sailing-trial","140","829297","0.0-11.0-89.0","","","","false","","","","","","","","","","null","","900","","2","0","null","null","arrowup","[0.85,0.15,0.675,0.325]","","",""
"sailing-trial","141","834076","0.0-11.0-90.0","","","","false","","","","","","","","","","1473.0999999940395","","674.7000000178814","","1","0","arrowleft","0","arrowright","[0.85,0.15,0.675,0.325]","","",""
"sailing-trial","142","839165","0.0-11.0-91.0","","","","false","","","","","","","","","","null","","3194.100000023842","","0","1","null","null","arrowup","[0.85,0.15,0.675,0.325]","","",""
"sailing-trial","143","843636","0.0-11.0-92.0","","","","false","","","","","","","","","","1182.2999999821186","","186.30000001192093","","0","1","arrowleft","0","arrowleft","[0.85,0.15,0.675,0.325]","","",""
"sailing-trial","144","846147","0.0-11.0-93.0","","","","false","","","","","","","","","","null","","966.9000000059605","","3","0","null","null","arrowup","[0.85,0.15,0.675,0.325]","","",""
"sailing-trial","145","850917","0.0-11.0-94.0","","","","false","","","","","","","","","","1356.2999999821186","","378.59999999403954","","0","1","arrowleft","0","arrowleft","[0.85,0.15,0.675,0.325]","","",""
"sailing-trial","146","853999","0.0-11.0-95.0","","","","false","","","","","","","","","","null","","992.5","","0","1","null","null","arrowup","[0.85,0.15,0.675,0.325]","","",""
"sailing-trial","147","857741","0.0-11.0-96.0","","","","false","","","","","","","","","","595.6999999880791","","74.5","","0","1","arrowleft","0","arrowleft","[0.85,0.15,0.675,0.325]","","",""
"sailing-trial","148","860302","0.0-11.0-97.0","","","","false","","","","","","","","","","null","","1060.5","","3","0","null","null","arrowup","[0.85,0.15,0.675,0.325]","","",""
"sailing-trial","149","867086","0.0-11.0-98.0","","","","false","","","","","","","","","","3590","","103.2999999821186","","0","1","arrowleft","0","arrowleft","[0.85,0.15,0.675,0.325]","","",""
"sailing-trial","150","869415","0.0-11.0-99.0","","","","false","","","","","","","","","","null","","916.4000000059605","","0","0","null","null","arrowup","[0.85,0.15,0.675,0.325]","","",""
"sailing-trial","151","873847","0.0-11.0-100.0","","","","false","","","","","","","","","","1689","","17.19999998807907","","3","0","arrowright","1","arrowright","[0.85,0.15,0.675,0.325]","","",""
"sailing-trial","152","876456","0.0-11.0-101.0","","","","false","","","","","","","","","","null","","1165.9000000059605","","1","0","null","null","arrowup","[0.85,0.15,0.675,0.325]","","",""
"sailing-trial","153","881964","0.0-11.0-102.0","","","","false","","","","","","","","","","2157.800000011921","","254.30000001192093","","2","1","arrowright","1","arrowleft","[0.85,0.15,0.675,0.325]","","",""
"sailing-trial","154","884096","0.0-11.0-103.0","","","","false","","","","","","","","","","null","","743.5","","1","0","null","null","arrowup","[0.85,0.15,0.675,0.325]","","",""
"sailing-trial","155","888983","0.0-11.0-104.0","","","","false","","","","","","","","","","1193.5","","616","","1","1","arrowleft","0","arrowright","[0.675,0.325,0.85,0.15]","","",""
"sailing-trial","156","891456","0.0-11.0-105.0","","","","false","","","","","","","","","","null","","1063.0999999940395","","1","0","null","null","arrowup","[0.675,0.325,0.85,0.15]","","",""
"sailing-trial","157","895396","0.0-11.0-106.0","","","","false","","","","","","","","","","856.3000000119209","","51.69999998807907","","2","1","arrowright","1","arrowleft","[0.675,0.325,0.85,0.15]","","",""
"sailing-trial","158","898185","0.0-11.0-107.0","","","","false","","","","","","","","","","null","","885.9000000059605","","2","1","null","null","arrowup","[0.675,0.325,0.85,0.15]","","",""
"sailing-trial","159","902430","0.0-11.0-108.0","","","","false","","","","","","","","","","699.4000000059605","","461.30000001192093","","2","1","arrowright","1","arrowleft","[0.675,0.325,0.85,0.15]","","",""
"sailing-trial","160","905600","0.0-11.0-109.0","","","","false","","","","","","","","","","null","","1705.800000011921","","3","0","null","null","arrowup","[0.675,0.325,0.85,0.15]","","",""
"sailing-trial","161","910842","0.0-11.0-110.0","","","","false","","","","","","","","","","591.3000000119209","","1272.5","","0","1","arrowleft","0","arrowleft","[0.675,0.325,0.85,0.15]","","",""
"sailing-trial","162","913304","0.0-11.0-111.0","","","","false","","","","","","","","","","null","","1014.9000000059605","","3","0","null","null","arrowup","[0.675,0.325,0.85,0.15]","","",""
"sailing-trial","163","916838","0.0-11.0-112.0","","","","false","","","","","","","","","","830.7999999821186","","78.90000000596046","","0","0","arrowleft","0","arrowleft","[0.675,0.325,0.85,0.15]","","",""
"sailing-trial","164","919102","0.0-11.0-113.0","","","","false","","","","","","","","","","null","","875.1999999880791","","1","0","null","null","arrowup","[0.675,0.325,0.85,0.15]","","",""
"sailing-trial","165","923449","0.0-11.0-114.0","","","","false","","","","","","","","","","680.8000000119209","","571.6000000238419","","2","1","arrowright","1","arrowleft","[0.675,0.325,0.85,0.15]","","",""
"sailing-trial","166","925496","0.0-11.0-115.0","","","","false","","","","","","","","","","null","","688","","3","0","null","null","arrowup","[0.675,0.325,0.85,0.15]","","",""
"sailing-trial","167","929587","0.0-11.0-116.0","","","","false","","","","","","","","","","619.9000000059605","","419.19999998807907","","2","1","arrowright","1","arrowleft","[0.675,0.325,0.85,0.15]","","",""
"sailing-trial","168","933285","0.0-11.0-117.0","","","","false","","","","","","","","","","null","","1793.9000000059605","","0","1","null","null","arrowup","[0.675,0.325,0.85,0.15]","","",""
"sailing-trial","169","937192","0.0-11.0-118.0","","","","false","","","","","","","","","","584.1000000238419","","232.5","","2","1","arrowright","1","arrowleft","[0.675,0.325,0.85,0.15]","","",""
"sailing-trial","170","940270","0.0-11.0-119.0","","","","false","","","","","","","","","","null","","1158.300000011921","","0","1","null","null","arrowup","[0.675,0.325,0.85,0.15]","","",""
"sailing-trial","171","944257","0.0-11.0-120.0","","","","false","","","","","","","","","","763","","645.5999999940395","","2","0","arrowright","1","arrowleft","[0.675,0.325,0.85,0.15]","","",""
"sailing-trial","172","947236","0.0-11.0-121.0","","","","false","","","","","","","","","","null","","1089","","2","1","null","null","arrowup","[0.675,0.325,0.85,0.15]","","",""
"sailing-trial","173","950576","0.0-11.0-122.0","","","","false","","","","","","","","","","736.2999999821186","","33.5","","0","0","arrowleft","0","arrowleft","[0.675,0.325,0.85,0.15]","","",""
"sailing-trial","174","952973","0.0-11.0-123.0","","","","false","","","","","","","","","","null","","981","","3","0","null","null","arrowup","[0.675,0.325,0.85,0.15]","","",""
"sailing-trial","175","956915","0.0-11.0-124.0","","","","false","","","","","","","","","","667.1999999880791","","567","","1","0","arrowleft","0","arrowright","[0.85,0.15,0.675,0.325]","","",""
"sailing-trial","176","959737","0.0-11.0-125.0","","","","false","","","","","","","","","","null","","943.0999999940395","","3","1","null","null","arrowup","[0.85,0.15,0.675,0.325]","","",""
"sailing-trial","177","963432","0.0-11.0-126.0","","","","false","","","","","","","","","","656.0999999940395","","56.60000002384186","","2","1","arrowright","1","arrowleft","[0.85,0.15,0.675,0.325]","","",""
"sailing-trial","178","966087","0.0-11.0-127.0","","","","false","","","","","","","","","","null","","724","","0","1","null","null","arrowup","[0.85,0.15,0.675,0.325]","","",""
"sailing-trial","179","969747","0.0-11.0-128.0","","","","false","","","","","","","","","","778","","80.09999999403954","","2","0","arrowright","1","arrowleft","[0.85,0.15,0.675,0.325]","","",""
"sailing-trial","180","972172","0.0-11.0-129.0","","","","false","","","","","","","","","","null","","1011.4000000059605","","1","0","null","null","arrowup","[0.85,0.15,0.675,0.325]","","",""
"sailing-trial","181","975810","0.0-11.0-130.0","","","","false","","","","","","","","","","661.7999999821186","","245.09999999403954","","3","0","arrowright","1","arrowright","[0.85,0.15,0.675,0.325]","","",""
"sailing-trial","182","978172","0.0-11.0-131.0","","","","false","","","","","","","","","","null","","760","","1","1","null","null","arrowup","[0.85,0.15,0.675,0.325]","","",""
"sailing-trial","183","982017","0.0-11.0-132.0","","","","false","","","","","","","","","","701","","33.29999998211861","","0","1","arrowleft","0","arrowleft","[0.85,0.15,0.675,0.325]","","",""
"sailing-trial","184","984667","0.0-11.0-133.0","","","","false","","","","","","","","","","null","","1301.800000011921","","2","0","null","null","arrowup","[0.85,0.15,0.675,0.325]","","",""
"sailing-trial","185","987986","0.0-11.0-134.0","","","","false","","","","","","","","","","710.0999999940395","","36.5","","1","0","arrowleft","0","arrowright","[0.85,0.15,0.675,0.325]","","",""
"sailing-trial","186","990266","0.0-11.0-135.0","","","","false","","","","","","","","","","null","","747.8000000119209","","2","0","null","null","arrowup","[0.85,0.15,0.675,0.325]","","",""
"sailing-trial","187","994378","0.0-11.0-136.0","","","","false","","","","","","","","","","630.7999999821186","","389.09999999403954","","2","1","arrowright","1","arrowleft","[0.85,0.15,0.675,0.325]","","",""
"sailing-trial","188","996384","0.0-11.0-137.0","","","","false","","","","","","","","","","null","","654.5","","2","0","null","null","arrowup","[0.85,0.15,0.675,0.325]","","",""
"sailing-trial","189","999939","0.0-11.0-138.0","","","","false","","","","","","","","","","864.3999999761581","","24.600000023841858","","2","0","arrowright","1","arrowleft","[0.85,0.15,0.675,0.325]","","",""
"sailing-trial","190","1002672","0.0-11.0-139.0","","","","false","","","","","","","","","","null","","828","","2","1","null","null","arrowup","[0.85,0.15,0.675,0.325]","","",""
"sailing-trial","191","1006047","0.0-11.0-140.0","","","","false","","","","","","","","","","659.5","","173","","1","0","arrowleft","0","arrowright","[0.85,0.15,0.675,0.325]","","",""
"sailing-trial","192","1008919","0.0-11.0-141.0","","","","false","","","","","","","","","","null","","1254.199999988079","","1","0","null","null","arrowup","[0.85,0.15,0.675,0.325]","","",""
"sailing-trial","193","1014663","0.0-11.0-142.0","","","","false","","","","","","","","","","1729.5999999940395","","781.7000000178814","","0","1","arrowleft","0","arrowleft","[0.85,0.15,0.675,0.325]","","",""
"sailing-trial","194","1017292","0.0-11.0-143.0","","","","false","","","","","","","","","","null","","1175.7000000178814","","1","0","null","null","arrowup","[0.85,0.15,0.675,0.325]","","",""
"sailing-trial","195","1021571","0.0-11.0-144.0","","","","false","","","","","","","","","","612.1999999880791","","583.2000000178814","","0","1","arrowleft","0","arrowleft","[0.675,0.325,0.85,0.15]","","",""
"sailing-trial","196","1024003","0.0-11.0-145.0","","","","false","","","","","","","","","","null","","1036.5","","1","0","null","null","arrowup","[0.675,0.325,0.85,0.15]","","",""
"sailing-trial","197","1028151","0.0-11.0-146.0","","","","false","","","","","","","","","","589.5","","472.69999998807907","","0","1","arrowleft","0","arrowleft","[0.675,0.325,0.85,0.15]","","",""
"sailing-trial","198","1030807","0.0-11.0-147.0","","","","false","","","","","","","","","","null","","668.8000000119209","","0","1","null","null","arrowup","[0.675,0.325,0.85,0.15]","","",""
"sailing-trial","199","1034842","0.0-11.0-148.0","","","","false","","","","","","","","","","1292.5","","50.60000002384186","","1","0","arrowleft","0","arrowright","[0.675,0.325,0.85,0.15]","","",""
"sailing-trial","200","1037058","0.0-11.0-149.0","","","","false","","","","","","","","","","null","","824.0999999940395","","2","0","null","null","arrowup","[0.675,0.325,0.85,0.15]","","",""
"sailing-trial","201","1041325","0.0-11.0-150.0","","","","false","","","","","","","","","","624.5","","593.7999999821186","","3","1","arrowright","1","arrowright","[0.675,0.325,0.85,0.15]","","",""
"sailing-trial","202","1043489","0.0-11.0-151.0","","","","false","","","","","","","","","","null","","794.1999999880791","","1","0","null","null","arrowup","[0.675,0.325,0.85,0.15]","","",""
"sailing-trial","203","1047330","0.0-11.0-152.0","","","","false","","","","","","","","","","575.2000000178814","","542.1000000238419","","3","0","arrowright","1","arrowright","[0.675,0.325,0.85,0.15]","","",""
"sailing-trial","204","1050292","0.0-11.0-153.0","","","","false","","","","","","","","","","null","","1592.0999999940395","","1","0","null","null","arrowup","[0.675,0.325,0.85,0.15]","","",""
"sailing-trial","205","1055309","0.0-11.0-154.0","","","","false","","","","","","","","","","1041.2000000178814","","617","","2","1","arrowright","1","arrowleft","[0.675,0.325,0.85,0.15]","","",""
"sailing-trial","206","1060295","0.0-11.0-155.0","","","","false","","","","","","","","","","null","","2379","","1","0","null","null","arrowup","[0.675,0.325,0.85,0.15]","","",""
"sailing-trial","207","1065642","0.0-11.0-156.0","","","","false","","","","","","","","","","1937.7999999821186","","499.40000000596046","","1","0","arrowleft","0","arrowright","[0.675,0.325,0.85,0.15]","","",""
"sailing-trial","208","1068208","0.0-11.0-157.0","","","","false","","","","","","","","","","null","","1119.800000011921","","3","0","null","null","arrowup","[0.675,0.325,0.85,0.15]","","",""
"sailing-trial","209","1072769","0.0-11.0-158.0","","","","false","","","","","","","","","","726","","705.0999999940395","","0","1","arrowleft","0","arrowleft","[0.675,0.325,0.85,0.15]","","",""
"sailing-trial","210","1076277","0.0-11.0-159.0","","","","false","","","","","","","","","","null","","1454.5","","2","1","null","null","arrowup","[0.675,0.325,0.85,0.15]","","",""
"sailing-trial","211","1079970","0.0-11.0-160.0","","","","false","","","","","","","","","","708.1999999880791","","305.90000000596046","","0","0","arrowleft","0","arrowleft","[0.675,0.325,0.85,0.15]","","",""
"sailing-trial","212","1082554","0.0-11.0-161.0","","","","false","","","","","","","","","","null","","1221.300000011921","","1","0","null","null","arrowup","[0.675,0.325,0.85,0.15]","","",""
"sailing-trial","213","1086092","0.0-11.0-162.0","","","","false","","","","","","","","","","659.7999999821186","","253","","2","0","arrowright","1","arrowleft","[0.675,0.325,0.85,0.15]","","",""
"sailing-trial","214","1089849","0.0-11.0-163.0","","","","false","","","","","","","","","","null","","1397.7000000178814","","2","1","null","null","arrowup","[0.675,0.325,0.85,0.15]","","",""
"sailing-trial","215","1094644","0.0-11.0-164.0","","","","false","","","","","","","","","","818.4000000059605","","873.3000000119209","","3","1","arrowright","1","arrowright","[0.675,0.325,0.85,0.15]","","",""
"sailing-trial","216","1097561","0.0-11.0-165.0","","","","false","","","","","","","","","","null","","926.9000000059605","","0","1","null","null","arrowup","[0.675,0.325,0.85,0.15]","","",""
"sailing-trial","217","1101250","0.0-11.0-166.0","","","","false","","","","","","","","","","745.0999999940395","","289.30000001192093","","0","0","arrowleft","0","arrowleft","[0.325,0.675,0.15,0.85]","","",""
"sailing-trial","218","1105444","0.0-11.0-167.0","","","","false","","","","","","","","","","null","","2308.7000000178814","","1","1","null","null","arrowup","[0.325,0.675,0.15,0.85]","","",""
"sailing-trial","219","1108686","0.0-11.0-168.0","","","","false","","","","","","","","","","584.0999999940395","","94.80000001192093","","2","0","arrowright","1","arrowleft","[0.325,0.675,0.15,0.85]","","",""
"sailing-trial","220","1111303","0.0-11.0-169.0","","","","false","","","","","","","","","","null","","1246.699999988079","","2","0","null","null","arrowup","[0.325,0.675,0.15,0.85]","","",""
"sailing-trial","221","1115379","0.0-11.0-170.0","","","","false","","","","","","","","","","653.3999999761581","","412.5","","3","1","arrowright","1","arrowright","[0.325,0.675,0.15,0.85]","","",""
"sailing-trial","222","1118161","0.0-11.0-171.0","","","","false","","","","","","","","","","null","","900.9000000059605","","1","1","null","null","arrowup","[0.325,0.675,0.15,0.85]","","",""
"sailing-trial","223","1122344","0.0-11.0-172.0","","","","false","","","","","","","","","","664","","407.10000002384186","","3","1","arrowright","1","arrowright","[0.325,0.675,0.15,0.85]","","",""
"sailing-trial","224","1125294","0.0-11.0-173.0","","","","false","","","","","","","","","","null","","1022.5999999940395","","2","1","null","null","arrowup","[0.325,0.675,0.15,0.85]","","",""
"sailing-trial","225","1128719","0.0-11.0-174.0","","","","false","","","","","","","","","","724.5999999940395","","110.80000001192093","","3","0","arrowright","1","arrowright","[0.325,0.675,0.15,0.85]","","",""
"sailing-trial","226","1131429","0.0-11.0-175.0","","","","false","","","","","","","","","","null","","831.6000000238419","","2","1","null","null","arrowup","[0.325,0.675,0.15,0.85]","","",""
"sailing-trial","227","1134614","0.0-11.0-176.0","","","","false","","","","","","","","","","609.7999999821186","","39.5","","0","0","arrowleft","0","arrowleft","[0.325,0.675,0.15,0.85]","","",""
"sailing-trial","228","1136993","0.0-11.0-177.0","","","","false","","","","","","","","","","null","","933.0999999940395","","2","0","null","null","arrowup","[0.325,0.675,0.15,0.85]","","",""
"sailing-trial","229","1141739","0.0-11.0-178.0","","","","false","","","","","","","","","","928.2000000178814","","702.9000000059605","","1","1","arrowleft","0","arrowright","[0.325,0.675,0.15,0.85]","","",""
"sailing-trial","230","1144845","0.0-11.0-179.0","","","","false","","","","","","","","","","null","","1225.6000000238419","","3","1","null","null","arrowup","[0.325,0.675,0.15,0.85]","","",""
"sailing-trial","231","1148515","0.0-11.0-180.0","","","","false","","","","","","","","","","620.6999999880791","","500.2000000178814","","1","0","arrowleft","0","arrowright","[0.325,0.675,0.15,0.85]","","",""
"sailing-trial","232","1150603","0.0-11.0-181.0","","","","false","","","","","","","","","","null","","831.9000000059605","","0","0","null","null","arrowup","[0.325,0.675,0.15,0.85]","","",""
"sailing-trial","233","1154572","0.0-11.0-182.0","","","","false","","","","","","","","","","1335","","164.7000000178814","","0","0","arrowleft","0","arrowleft","[0.15,0.85,0.325,0.675]","","",""
"sailing-trial","234","1157747","0.0-11.0-183.0","","","","false","","","","","","","","","","null","","1131.4000000059605","","1","1","null","null","arrowup","[0.15,0.85,0.325,0.675]","","",""
"sailing-trial","235","1161363","0.0-11.0-184.0","","","","false","","","","","","","","","","633","","272.19999998807907","","2","0","arrowright","1","arrowleft","[0.15,0.85,0.325,0.675]","","",""
"sailing-trial","236","1164196","0.0-11.0-185.0","","","","false","","","","","","","","","","null","","895.2999999821186","","1","1","null","null","arrowup","[0.15,0.85,0.325,0.675]","","",""
"sailing-trial","237","1168213","0.0-11.0-186.0","","","","false","","","","","","","","","","523.7999999821186","","99.19999998807907","","3","1","arrowright","1","arrowright","[0.15,0.85,0.325,0.675]","","",""
"sailing-trial","238","1170518","0.0-11.0-187.0","","","","false","","","","","","","","","","null","","878.5999999940395","","0","0","null","null","arrowup","[0.15,0.85,0.325,0.675]","","",""
"sailing-trial","239","1175083","0.0-11.0-188.0","","","","false","","","","","","","","","","612.6999999880791","","778.1999999880791","","3","1","arrowright","1","arrowright","[0.15,0.85,0.325,0.675]","","",""
"sailing-trial","240","1177764","0.0-11.0-189.0","","","","false","","","","","","","","","","null","","820.1999999880791","","1","1","null","null","arrowup","[0.15,0.85,0.325,0.675]","","",""
"sailing-trial","241","1181981","0.0-11.0-190.0","","","","false","","","","","","","","","","687.5","","498","","3","1","arrowright","1","arrowright","[0.15,0.85,0.325,0.675]","","",""
"sailing-trial","242","1184781","0.0-11.0-191.0","","","","false","","","","","","","","","","null","","960.6999999880791","","0","1","null","null","arrowup","[0.15,0.85,0.325,0.675]","","",""
"sailing-trial","243","1188530","0.0-11.0-192.0","","","","false","","","","","","","","","","611.5","","79.90000000596046","","1","1","arrowleft","0","arrowright","[0.15,0.85,0.325,0.675]","","",""
"sailing-trial","244","1190654","0.0-11.0-193.0","","","","false","","","","","","","","","","null","","786.3000000119209","","2","0","null","null","arrowup","[0.15,0.85,0.325,0.675]","","",""
"sailing-trial","245","1195026","0.0-11.0-194.0","","","","false","","","","","","","","","","1191.5","","537.4000000059605","","1","0","arrowleft","0","arrowright","[0.15,0.85,0.325,0.675]","","",""
"sailing-trial","246","1197703","0.0-11.0-195.0","","","","false","","","","","","","","","","null","","1199","","0","0","null","null","arrowup","[0.15,0.85,0.325,0.675]","","",""
"sailing-trial","247","1201326","0.0-11.0-196.0","","","","false","","","","","","","","","","816.8999999761581","","164.7000000178814","","0","0","arrowleft","0","arrowleft","[0.15,0.85,0.325,0.675]","","",""
"sailing-trial","248","1203541","0.0-11.0-197.0","","","","false","","","","","","","","","","null","","863.9000000059605","","2","0","null","null","arrowup","[0.15,0.85,0.325,0.675]","","",""
"sailing-trial","249","1207251","0.0-11.0-198.0","","","","false","","","","","","","","","","580.3000000119209","","31.899999976158142","","2","1","arrowright","1","arrowleft","[0.675,0.325,0.85,0.15]","","",""
"sailing-trial","250","1209422","0.0-11.0-199.0","","","","false","","","","","","","","","","null","","785.1000000238419","","0","0","null","null","arrowup","[0.675,0.325,0.85,0.15]","","",""
"sailing-trial","251","1213594","0.0-11.0-200.0","","","","false","","","","","","","","","","661.5999999940395","","381.40000000596046","","2","1","arrowright","1","arrowleft","[0.675,0.325,0.85,0.15]","","",""
"sailing-trial","252","1216117","0.0-11.0-201.0","","","","false","","","","","","","","","","null","","998.3999999761581","","0","0","null","null","arrowup","[0.675,0.325,0.85,0.15]","","",""
"sailing-trial","253","1219896","0.0-11.0-202.0","","","","false","","","","","","","","","","637.1000000238419","","82.2000000178814","","2","1","arrowright","1","arrowleft","[0.675,0.325,0.85,0.15]","","",""
"sailing-trial","254","1222455","0.0-11.0-203.0","","","","false","","","","","","","","","","null","","1204.699999988079","","3","0","null","null","arrowup","[0.675,0.325,0.85,0.15]","","",""
"sailing-trial","255","1226303","0.0-11.0-204.0","","","","false","","","","","","","","","","736.7000000178814","","65.40000000596046","","2","1","arrowright","1","arrowleft","[0.675,0.325,0.85,0.15]","","",""
"sailing-trial","256","1229266","0.0-11.0-205.0","","","","false","","","","","","","","","","null","","1020","","1","0","null","null","arrowup","[0.675,0.325,0.85,0.15]","","",""
"sailing-trial","257","1234170","0.0-11.0-206.0","","","","false","","","","","","","","","","646.5","","576.5999999940395","","2","1","arrowright","1","arrowleft","[0.675,0.325,0.85,0.15]","","",""
"sailing-trial","258","1236706","0.0-11.0-207.0","","","","false","","","","","","","","","","null","","1214.199999988079","","3","0","null","null","arrowup","[0.675,0.325,0.85,0.15]","","",""
"sailing-trial","259","1240631","0.0-11.0-208.0","","","","false","","","","","","","","","","665.4000000059605","","183.5","","0","1","arrowleft","0","arrowleft","[0.675,0.325,0.85,0.15]","","",""
"sailing-trial","260","1243458","0.0-11.0-209.0","","","","false","","","","","","","","","","null","","1302","","3","0","null","null","arrowup","[0.675,0.325,0.85,0.15]","","",""
"sailing-trial","261","1247359","0.0-11.0-210.0","","","","false","","","","","","","","","","641.5999999940395","","176.40000000596046","","0","1","arrowleft","0","arrowleft","[0.675,0.325,0.85,0.15]","","",""
"sailing-trial","262","1249528","0.0-11.0-211.0","","","","false","","","","","","","","","","null","","799.6999999880791","","3","0","null","null","arrowup","[0.675,0.325,0.85,0.15]","","",""
"sailing-trial","263","1253035","0.0-11.0-212.0","","","","false","","","","","","","","","","617.5999999940395","","190.5","","0","0","arrowleft","0","arrowleft","[0.675,0.325,0.85,0.15]","","",""
"sailing-trial","264","1255390","0.0-11.0-213.0","","","","false","","","","","","","","","","null","","1078","","3","0","null","null","arrowup","[0.675,0.325,0.85,0.15]","","",""
"sailing-trial","265","1259363","0.0-11.0-214.0","","","","false","","","","","","","","","","767.5","","630.4000000059605","","2","0","arrowright","1","arrowleft","[0.85,0.15,0.675,0.325]","","",""
"sailing-trial","266","1261604","0.0-11.0-215.0","","","","false","","","","","","","","","","null","","875.8000000119209","","3","0","null","null","arrowup","[0.85,0.15,0.675,0.325]","","",""
"sailing-trial","267","1264960","0.0-11.0-216.0","","","","false","","","","","","","","","","682.4000000059605","","31.900000005960464","","1","0","arrowleft","0","arrowright","[0.85,0.15,0.675,0.325]","","",""
"sailing-trial","268","1267668","0.0-11.0-217.0","","","","false","","","","","","","","","","null","","818.5","","0","1","null","null","arrowup","[0.85,0.15,0.675,0.325]","","",""
"sailing-trial","269","1271253","0.0-11.0-218.0","","","","false","","","","","","","","","","729","","257.09999999403954","","3","0","arrowright","1","arrowright","[0.85,0.15,0.675,0.325]","","",""
"sailing-trial","270","1273747","0.0-11.0-219.0","","","","false","","","","","","","","","","null","","1081.9000000059605","","2","0","null","null","arrowup","[0.85,0.15,0.675,0.325]","","",""
"sailing-trial","271","1277813","0.0-11.0-220.0","","","","false","","","","","","","","","","641.5999999940395","","338.10000002384186","","0","1","arrowleft","0","arrowleft","[0.85,0.15,0.675,0.325]","","",""
"sailing-trial","272","1280469","0.0-11.0-221.0","","","","false","","","","","","","","","","null","","746.7000000178814","","0","1","null","null","arrowup","[0.85,0.15,0.675,0.325]","","",""
"sailing-trial","273","1283814","0.0-11.0-222.0","","","","false","","","","","","","","","","559","","191.19999998807907","","0","0","arrowleft","0","arrowleft","[0.85,0.15,0.675,0.325]","","",""
"sailing-trial","274","1285949","0.0-11.0-223.0","","","","false","","","","","","","","","","null","","948.7000000178814","","3","0","null","null","arrowup","[0.85,0.15,0.675,0.325]","","",""
"sailing-trial","275","1289768","0.0-11.0-224.0","","","","false","","","","","","","","","","671.6999999880791","","26.899999976158142","","2","1","arrowright","1","arrowleft","[0.85,0.15,0.675,0.325]","","",""
"sailing-trial","276","1291924","0.0-11.0-225.0","","","","false","","","","","","","","","","null","","879.5","","0","0","null","null","arrowup","[0.85,0.15,0.675,0.325]","","",""
"sailing-trial","277","1295912","0.0-11.0-226.0","","","","false","","","","","","","","","","581","","204.09999999403954","","2","1","arrowright","1","arrowleft","[0.85,0.15,0.675,0.325]","","",""
"sailing-trial","278","1298835","0.0-11.0-227.0","","","","false","","","","","","","","","","null","","1078.7999999821186","","3","1","null","null","arrowup","[0.85,0.15,0.675,0.325]","","",""
"sailing-trial","279","1302874","0.0-11.0-228.0","","","","false","","","","","","","","","","969","","477.7999999821186","","2","0","arrowright","1","arrowleft","[0.85,0.15,0.675,0.325]","","",""
"sailing-trial","280","1305553","0.0-11.0-229.0","","","","false","","","","","","","","","","null","","899.3000000119209","","0","1","null","null","arrowup","[0.85,0.15,0.675,0.325]","","",""
"sailing-trial","281","1309019","0.0-11.0-230.0","","","","false","","","","","","","","","","642.5","","283.69999998807907","","3","0","arrowright","1","arrowright","[0.85,0.15,0.675,0.325]","","",""
"sailing-trial","282","1311819","0.0-11.0-231.0","","","","false","","","","","","","","","","null","","855.0999999940395","","2","1","null","null","arrowup","[0.85,0.15,0.675,0.325]","","",""
"sailing-trial","283","1315739","0.0-11.0-232.0","","","","false","","","","","","","","","","592.5","","224.2999999821186","","3","1","arrowright","1","arrowright","[0.85,0.15,0.675,0.325]","","",""
"sailing-trial","284","1318054","0.0-11.0-233.0","","","","false","","","","","","","","","","null","","915.2000000178814","","3","0","null","null","arrowup","[0.85,0.15,0.675,0.325]","","",""
"sailing-trial","285","1321499","0.0-11.0-234.0","","","","false","","","","","","","","","","752.6999999880791","","123.80000001192093","","3","0","arrowright","1","arrowright","[0.85,0.15,0.675,0.325]","","",""
"sailing-trial","286","1324404","0.0-11.0-235.0","","","","false","","","","","","","","","","null","","955","","0","1","null","null","arrowup","[0.85,0.15,0.675,0.325]","","",""
"sailing-trial","287","1327772","0.0-11.0-236.0","","","","false","","","","","","","","","","549.1999999880791","","171.69999998807907","","1","0","arrowleft","0","arrowright","[0.675,0.325,0.85,0.15]","","",""
"sailing-trial","288","1329882","0.0-11.0-237.0","","","","false","","","","","","","","","","null","","805","","2","0","null","null","arrowup","[0.675,0.325,0.85,0.15]","","",""
"sailing-trial","289","1333793","0.0-11.0-238.0","","","","false","","","","","","","","","","843","","21.30000001192093","","0","1","arrowleft","0","arrowleft","[0.675,0.325,0.85,0.15]","","",""
"sailing-trial","290","1335852","0.0-11.0-239.0","","","","false","","","","","","","","","","null","","774","","2","0","null","null","arrowup","[0.675,0.325,0.85,0.15]","","",""
"sailing-trial","291","1339538","0.0-11.0-240.0","","","","false","","","","","","","","","","642.4000000059605","","534.2000000178814","","0","0","arrowleft","0","arrowleft","[0.675,0.325,0.85,0.15]","","",""
"sailing-trial","292","1342389","0.0-11.0-241.0","","","","false","","","","","","","","","","null","","988.3000000119209","","2","1","null","null","arrowup","[0.675,0.325,0.85,0.15]","","",""
"sailing-trial","293","1347045","0.0-11.0-242.0","","","","false","","","","","","","","","","555.5","","57.79999998211861","","2","1","arrowright","1","arrowleft","[0.675,0.325,0.85,0.15]","","",""
"sailing-trial","294","1349203","0.0-11.0-243.0","","","","false","","","","","","","","","","null","","873.1999999880791","","1","0","null","null","arrowup","[0.675,0.325,0.85,0.15]","","",""
"sailing-trial","295","1353929","0.0-11.0-244.0","","","","false","","","","","","","","","","643.3000000119209","","1541.5999999940395","","2","0","arrowright","1","arrowleft","[0.675,0.325,0.85,0.15]","","",""
"sailing-trial","296","1356705","0.0-11.0-245.0","","","","false","","","","","","","","","","null","","950.3000000119209","","2","1","null","null","arrowup","[0.675,0.325,0.85,0.15]","","",""
"sailing-trial","297","1360032","0.0-11.0-246.0","","","","false","","","","","","","","","","700.7000000178814","","49.599999994039536","","3","0","arrowright","1","arrowright","[0.675,0.325,0.85,0.15]","","",""
"sailing-trial","298","1362167","0.0-11.0-247.0","","","","false","","","","","","","","","","null","","773.9000000059605","","3","0","null","null","arrowup","[0.675,0.325,0.85,0.15]","","",""
"sailing-trial","299","1365870","0.0-11.0-248.0","","","","false","","","","","","","","","","657.0999999940395","","335.7000000178814","","0","0","arrowleft","0","arrowleft","[0.675,0.325,0.85,0.15]","","",""
"sailing-trial","300","1368555","0.0-11.0-249.0","","","","false","","","","","","","","","","null","","826.2000000178814","","0","1","null","null","arrowup","[0.675,0.325,0.85,0.15]","","",""
"sailing-trial","301","1372270","0.0-11.0-250.0","","","","false","","","","","","","","","","1022.2000000178814","","198.10000002384186","","2","0","arrowright","1","arrowleft","[0.675,0.325,0.85,0.15]","","",""
"sailing-trial","302","1374923","0.0-11.0-251.0","","","","false","","","","","","","","","","null","","798.5999999940395","","1","1","null","null","arrowup","[0.675,0.325,0.85,0.15]","","",""
"sailing-trial","303","1378152","0.0-11.0-252.0","","","","false","","","","","","","","","","552.5","","216.09999999403954","","3","0","arrowright","1","arrowright","[0.85,0.15,0.675,0.325]","","",""
"sailing-trial","304","1380822","0.0-11.0-253.0","","","","false","","","","","","","","","","null","","742.7000000178814","","2","1","null","null","arrowup","[0.85,0.15,0.675,0.325]","","",""
"sailing-trial","305","1384294","0.0-11.0-254.0","","","","false","","","","","","","","","","598.6999999880791","","126.2999999821186","","0","1","arrowleft","0","arrowleft","[0.85,0.15,0.675,0.325]","","",""
"sailing-trial","306","1386318","0.0-11.0-255.0","","","","false","","","","","","","","","","null","","697.5","","2","0","null","null","arrowup","[0.85,0.15,0.675,0.325]","","",""
"sailing-trial","307","1389891","0.0-11.0-256.0","","","","false","","","","","","","","","","573.1999999880791","","35.30000001192093","","0","1","arrowleft","0","arrowleft","[0.85,0.15,0.675,0.325]","","",""
"sailing-trial","308","1392572","0.0-11.0-257.0","","","","false","","","","","","","","","","null","","770.7999999821186","","2","1","null","null","arrowup","[0.85,0.15,0.675,0.325]","","",""
"sailing-trial","309","1396868","0.0-11.0-258.0","","","","false","","","","","","","","","","622.1999999880791","","510.2000000178814","","0","1","arrowleft","0","arrowleft","[0.85,0.15,0.675,0.325]","","",""
"sailing-trial","310","1399623","0.0-11.0-259.0","","","","false","","","","","","","","","","null","","831.8000000119209","","0","1","null","null","arrowup","[0.85,0.15,0.675,0.325]","","",""
"sailing-trial","311","1403148","0.0-11.0-260.0","","","","false","","","","","","","","","","860","","145.19999998807907","","2","0","arrowright","1","arrowleft","[0.85,0.15,0.675,0.325]","","",""
"sailing-trial","312","1405923","0.0-11.0-261.0","","","","false","","","","","","","","","","null","","867.8000000119209","","0","1","null","null","arrowup","[0.85,0.15,0.675,0.325]","","",""
"sailing-trial","313","1410006","0.0-11.0-262.0","","","","false","","","","","","","","","","538.9000000059605","","191.7000000178814","","1","0","arrowleft","0","arrowright","[0.85,0.15,0.675,0.325]","","",""
"sailing-trial","314","1412847","0.0-11.0-263.0","","","","false","","","","","","","","","","null","","886.3000000119209","","0","0","null","null","arrowup","[0.85,0.15,0.675,0.325]","","",""
"sailing-trial","315","1416254","0.0-11.0-264.0","","","","false","","","","","","","","","","730.8999999761581","","91","","3","0","arrowright","1","arrowright","[0.85,0.15,0.675,0.325]","","",""
"sailing-trial","316","1419141","0.0-11.0-265.0","","","","false","","","","","","","","","","null","","992","","2","1","null","null","arrowup","[0.85,0.15,0.675,0.325]","","",""
"sailing-trial","317","1422481","0.0-11.0-266.0","","","","false","","","","","","","","","","628.7999999821186","","170","","2","0","arrowright","1","arrowleft","[0.85,0.15,0.675,0.325]","","",""
"sailing-trial","318","1425292","0.0-11.0-267.0","","","","false","","","","","","","","","","null","","907","","3","1","null","null","arrowup","[0.85,0.15,0.675,0.325]","","",""
"sailing-trial","319","1428804","0.0-11.0-268.0","","","","false","","","","","","","","","","727.2999999821186","","223.2000000178814","","0","0","arrowleft","0","arrowleft","[0.325,0.675,0.15,0.85]","","",""
"sailing-trial","320","1431798","0.0-11.0-269.0","","","","false","","","","","","","","","","null","","1574.7999999821186","","2","0","null","null","arrowup","[0.325,0.675,0.15,0.85]","","",""
"sailing-trial","321","1436010","0.0-11.0-270.0","","","","false","","","","","","","","","","675.7000000178814","","608","","3","1","arrowright","1","arrowright","[0.325,0.675,0.15,0.85]","","",""
"sailing-trial","322","1438609","0.0-11.0-271.0","","","","false","","","","","","","","","","null","","747.8000000119209","","3","1","null","null","arrowup","[0.325,0.675,0.15,0.85]","","",""
"sailing-trial","323","1442275","0.0-11.0-272.0","","","","false","","","","","","","","","","577.9000000059605","","121.5","","3","1","arrowright","1","arrowright","[0.325,0.675,0.15,0.85]","","",""
"sailing-trial","324","1444389","0.0-11.0-273.0","","","","false","","","","","","","","","","null","","765.6000000238419","","0","0","null","null","arrowup","[0.325,0.675,0.15,0.85]","","",""
"sailing-trial","325","1447991","0.0-11.0-274.0","","","","false","","","","","","","","","","664.9000000059605","","169.40000000596046","","3","0","arrowright","1","arrowright","[0.325,0.675,0.15,0.85]","","",""
"sailing-trial","326","1450228","0.0-11.0-275.0","","","","false","","","","","","","","","","null","","815.6999999880791","","2","0","null","null","arrowup","[0.325,0.675,0.15,0.85]","","",""
"sailing-trial","327","1454054","0.0-11.0-276.0","","","","false","","","","","","","","","","673","","105.5","","0","1","arrowleft","0","arrowleft","[0.325,0.675,0.15,0.85]","","",""
"sailing-trial","328","1456560","0.0-11.0-277.0","","","","false","","","","","","","","","","null","","594.6999999880791","","2","1","null","null","arrowup","[0.325,0.675,0.15,0.85]","","",""
"sailing-trial","329","1460460","0.0-11.0-278.0","","","","false","","","","","","","","","","488.09999999403954","","586","","0","0","arrowleft","0","arrowleft","[0.325,0.675,0.15,0.85]","","",""
"sailing-trial","330","1464426","0.0-11.0-279.0","","","","false","","","","","","","","","","null","","2044.9000000059605","","1","1","null","null","arrowup","[0.325,0.675,0.15,0.85]","","",""
"sailing-trial","331","1467881","0.0-11.0-280.0","","","","false","","","","","","","","","","704.8000000119209","","125","","1","0","arrowleft","0","arrowright","[0.325,0.675,0.15,0.85]","","",""
"sailing-trial","332","1470526","0.0-11.0-281.0","","","","false","","","","","","","","","","null","","777","","1","1","null","null","arrowup","[0.325,0.675,0.15,0.85]","","",""
"sailing-trial","333","1475546","0.0-11.0-282.0","","","","false","","","","","","","","","","867.5","","587.8000000119209","","1","1","arrowleft","0","arrowright","[0.325,0.675,0.15,0.85]","","",""
"sailing-trial","334","1477927","0.0-11.0-283.0","","","","false","","","","","","","","","","null","","906.4000000059605","","2","0","null","null","arrowup","[0.325,0.675,0.15,0.85]","","",""
"sailing-trial","335","1481854","0.0-11.0-284.0","","","","false","","","","","","","","","","599.2999999821186","","39.400000005960464","","0","1","arrowleft","0","arrowleft","[0.325,0.675,0.15,0.85]","","",""
"sailing-trial","336","1483946","0.0-11.0-285.0","","","","false","","","","","","","","","","null","","708.1999999880791","","0","0","null","null","arrowup","[0.325,0.675,0.15,0.85]","","",""
"sailing-trial","337","1487328","0.0-11.0-286.0","","","","false","","","","","","","","","","690.5999999940395","","52.400000005960464","","0","0","arrowleft","0","arrowleft","[0.325,0.675,0.15,0.85]","","",""
"sailing-trial","338","1490645","0.0-11.0-287.0","","","","false","","","","","","","","","","null","","1513.5","","1","1","null","null","arrowup","[0.325,0.675,0.15,0.85]","","",""
"sailing-trial","339","1494484","0.0-11.0-288.0","","","","false","","","","","","","","","","644.9000000059605","","172.19999998807907","","2","1","arrowright","1","arrowleft","[0.15,0.85,0.325,0.675]","","",""
"sailing-trial","340","1497028","0.0-11.0-289.0","","","","false","","","","","","","","","","null","","703.6000000238419","","1","1","null","null","arrowup","[0.15,0.85,0.325,0.675]","","",""
"sailing-trial","341","1502398","0.0-11.0-290.0","","","","false","","","","","","","","","","505.7000000178814","","2018.6000000238419","","2","0","arrowright","1","arrowleft","[0.15,0.85,0.325,0.675]","","",""
"sailing-trial","342","1505127","0.0-11.0-291.0","","","","false","","","","","","","","","","null","","867.4000000059605","","1","1","null","null","arrowup","[0.15,0.85,0.325,0.675]","","",""
"sailing-trial","343","1508538","0.0-11.0-292.0","","","","false","","","","","","","","","","597.0999999940395","","248.2999999821186","","2","0","arrowright","1","arrowleft","[0.15,0.85,0.325,0.675]","","",""
"sailing-trial","344","1511313","0.0-11.0-293.0","","","","false","","","","","","","","","","null","","923.2999999821186","","3","1","null","null","arrowup","[0.15,0.85,0.325,0.675]","","",""
"sailing-trial","345","1516903","0.0-11.0-294.0","","","","false","","","","","","","","","","2115.7999999821186","","129.59999999403954","","2","1","arrowright","1","arrowleft","[0.15,0.85,0.325,0.675]","","",""
"sailing-trial","346","1519177","0.0-11.0-295.0","","","","false","","","","","","","","","","null","","742.5","","3","0","null","null","arrowup","[0.15,0.85,0.325,0.675]","","",""
"sailing-trial","347","1523008","0.0-11.0-296.0","","","","false","","","","","","","","","","671.3000000119209","","467.89999997615814","","2","0","arrowright","1","arrowleft","[0.15,0.85,0.325,0.675]","","",""
"sailing-trial","348","1525637","0.0-11.0-297.0","","","","false","","","","","","","","","","null","","751.9000000059605","","1","1","null","null","arrowup","[0.15,0.85,0.325,0.675]","","",""
"sailing-trial","349","1528860","0.0-11.0-298.0","","","","false","","","","","","","","","","547.5","","220","","0","0","arrowleft","0","arrowleft","[0.15,0.85,0.325,0.675]","","",""
"sailing-trial","350","1530986","0.0-11.0-299.0","","","","false","","","","","","","","","","null","","818.7000000178814","","2","0","null","null","arrowup","[0.15,0.85,0.325,0.675]","","",""
"sailing-trial","351","1534150","0.0-11.0-300.0","","","","false","","","","","","","","","","601.5","","76.40000000596046","","3","0","arrowright","1","arrowright","[0.15,0.85,0.325,0.675]","","",""
"sailing-trial","352","1536199","0.0-11.0-301.0","","","","false","","","","","","","","","","null","","782.8000000119209","","3","0","null","null","arrowup","[0.15,0.85,0.325,0.675]","","",""
"sailing-trial","353","1539886","0.0-11.0-302.0","","","","false","","","","","","","","","","805.7000000178814","","170","","1","0","arrowleft","0","arrowright","[0.15,0.85,0.325,0.675]","","",""
"sailing-trial","354","1541949","0.0-11.0-303.0","","","","false","","","","","","","","","","null","","711.6999999880791","","2","0","null","null","arrowup","[0.15,0.85,0.325,0.675]","","",""
"sailing-trial","355","1545921","0.0-11.0-304.0","","","","false","","","","","","","","","","711","","681.4000000059605","","0","0","arrowleft","0","arrowleft","[0.15,0.85,0.325,0.675]","","",""
"sailing-trial","356","1548431","0.0-11.0-305.0","","","","false","","","","","","","","","","null","","679.2000000178814","","2","1","null","null","arrowup","[0.15,0.85,0.325,0.675]","","",""
"sailing-trial","357","1552673","0.0-11.0-306.0","","","","false","","","","","","","","","","647","","574.1999999880791","","2","1","arrowright","1","arrowleft","[0.15,0.85,0.325,0.675]","","",""
"sailing-trial","358","1555181","0.0-11.0-307.0","","","","false","","","","","","","","","","null","","696.2999999821186","","2","1","null","null","arrowup","[0.15,0.85,0.325,0.675]","","",""
"sailing-trial","359","1558857","0.0-11.0-308.0","","","","false","","","","","","","","","","508.30000001192093","","532.5999999940395","","2","0","arrowright","1","arrowleft","[0.325,0.675,0.15,0.85]","","",""
"sailing-trial","360","1560948","0.0-11.0-309.0","","","","false","","","","","","","","","","null","","773.5","","0","0","null","null","arrowup","[0.325,0.675,0.15,0.85]","","",""
"sailing-trial","361","1565423","0.0-11.0-310.0","","","","false","","","","","","","","","","1154.5999999940395","","31.700000017881393","","3","1","arrowright","1","arrowright","[0.325,0.675,0.15,0.85]","","",""
"sailing-trial","362","1568515","0.0-11.0-311.0","","","","false","","","","","","","","","","null","","722.9000000059605","","3","1","null","null","arrowup","[0.325,0.675,0.15,0.85]","","",""
"sailing-trial","363","1572147","0.0-11.0-312.0","","","","false","","","","","","","","","","554.8000000119209","","31.599999994039536","","3","1","arrowright","1","arrowright","[0.325,0.675,0.15,0.85]","","",""
"sailing-trial","364","1574361","0.0-11.0-313.0","","","","false","","","","","","","","","","null","","859.9000000059605","","1","0","null","null","arrowup","[0.325,0.675,0.15,0.85]","","",""
"sailing-trial","365","1578348","0.0-11.0-314.0","","","","false","","","","","","","","","","630.5999999940395","","310.19999998807907","","3","1","arrowright","1","arrowright","[0.325,0.675,0.15,0.85]","","",""
"sailing-trial","366","1580540","0.0-11.0-315.0","","","","false","","","","","","","","","","null","","781.0999999940395","","1","0","null","null","arrowup","[0.325,0.675,0.15,0.85]","","",""
"sailing-trial","367","1584694","0.0-11.0-316.0","","","","false","","","","","","","","","","815.6999999880791","","285.40000000596046","","3","1","arrowright","1","arrowright","[0.325,0.675,0.15,0.85]","","",""
"sailing-trial","368","1586936","0.0-11.0-317.0","","","","false","","","","","","","","","","null","","827.5999999940395","","3","0","null","null","arrowup","[0.325,0.675,0.15,0.85]","","",""
"sailing-trial","369","1591229","0.0-11.0-318.0","","","","false","","","","","","","","","","796.7000000178814","","462.30000001192093","","1","1","arrowleft","0","arrowright","[0.325,0.675,0.15,0.85]","","",""
"sailing-trial","370","1593799","0.0-11.0-319.0","","","","false","","","","","","","","","","null","","715.5","","3","1","null","null","arrowup","[0.325,0.675,0.15,0.85]","","",""
"sailing-trial","371","1597308","0.0-11.0-320.0","","","","false","","","","","","","","","","455.09999999403954","","24.099999994039536","","1","1","arrowleft","0","arrowright","[0.325,0.675,0.15,0.85]","","",""
"sailing-trial","372","1599658","0.0-11.0-321.0","","","","false","","","","","","","","","","null","","782.2999999821186","","1","0","null","null","arrowup","[0.325,0.675,0.15,0.85]","","",""
"sailing-trial","373","1603016","0.0-11.0-322.0","","","","false","","","","","","","","","","647.4000000059605","","100.69999998807907","","1","0","arrowleft","0","arrowright","[0.325,0.675,0.15,0.85]","","",""
"sailing-trial","374","1605527","0.0-11.0-323.0","","","","false","","","","","","","","","","null","","1111.9000000059605","","2","0","null","null","arrowup","[0.325,0.675,0.15,0.85]","","",""
"sailing-trial","375","1609994","0.0-11.0-324.0","","","","false","","","","","","","","","","1372.3999999761581","","96.80000001192093","","3","1","arrowright","1","arrowright","[0.675,0.325,0.85,0.15]","","",""
"sailing-trial","376","1612567","0.0-11.0-325.0","","","","false","","","","","","","","","","null","","676.3999999761581","","0","1","null","null","arrowup","[0.675,0.325,0.85,0.15]","","",""
"sailing-trial","377","1615813","0.0-11.0-326.0","","","","false","","","","","","","","","","598.5","","54.900000005960464","","3","0","arrowright","1","arrowright","[0.675,0.325,0.85,0.15]","","",""
"sailing-trial","378","1618466","0.0-11.0-327.0","","","","false","","","","","","","","","","null","","775.6999999880791","","0","1","null","null","arrowup","[0.675,0.325,0.85,0.15]","","",""
"sailing-trial","379","1621711","0.0-11.0-328.0","","","","false","","","","","","","","","","542.3999999761581","","151.2999999821186","","0","0","arrowleft","0","arrowleft","[0.675,0.325,0.85,0.15]","","",""
"sailing-trial","380","1624532","0.0-11.0-329.0","","","","false","","","","","","","","","","null","","891.7999999821186","","2","1","null","null","arrowup","[0.675,0.325,0.85,0.15]","","",""
"sailing-trial","381","1629162","0.0-11.0-330.0","","","","false","","","","","","","","","","559.8999999761581","","508.30000001192093","","2","1","arrowright","1","arrowleft","[0.675,0.325,0.85,0.15]","","",""
"sailing-trial","382","1631315","0.0-11.0-331.0","","","","false","","","","","","","","","","null","","728.8000000119209","","3","0","null","null","arrowup","[0.675,0.325,0.85,0.15]","","",""
"sailing-trial","383","1635006","0.0-11.0-332.0","","","","false","","","","","","","","","","734.9000000059605","","40.60000002384186","","2","1","arrowright","1","arrowleft","[0.675,0.325,0.85,0.15]","","",""
"sailing-trial","384","1637305","0.0-11.0-333.0","","","","false","","","","","","","","","","null","","891","","0","0","null","null","arrowup","[0.675,0.325,0.85,0.15]","","",""
"sailing-trial","385","1641816","0.0-11.0-334.0","","","","false","","","","","","","","","","683.3000000119209","","583.5","","2","1","arrowright","1","arrowleft","[0.675,0.325,0.85,0.15]","","",""
"sailing-trial","386","1644453","0.0-11.0-335.0","","","","false","","","","","","","","","","null","","812.5999999940395","","3","1","null","null","arrowup","[0.675,0.325,0.85,0.15]","","",""
"sailing-trial","387","1648513","0.0-11.0-336.0","","","","false","","","","","","","","","","667.9000000059605","","370","","2","1","arrowright","1","arrowleft","[0.675,0.325,0.85,0.15]","","",""
"sailing-trial","388","1650633","0.0-11.0-337.0","","","","false","","","","","","","","","","null","","751.3000000119209","","1","0","null","null","arrowup","[0.675,0.325,0.85,0.15]","","",""
"sailing-trial","389","1654360","0.0-11.0-338.0","","","","false","","","","","","","","","","811.2999999821186","","266.2999999821186","","2","0","arrowright","1","arrowleft","[0.675,0.325,0.85,0.15]","","",""
"sailing-trial","390","1656704","0.0-11.0-339.0","","","","false","","","","","","","","","","null","","943.4000000059605","","1","0","null","null","arrowup","[0.675,0.325,0.85,0.15]","","",""
"sailing-trial","391","1660724","0.0-11.0-340.0","","","","false","","","","","","","","","","649.9000000059605","","283.7999999821186","","0","1","arrowleft","0","arrowleft","[0.675,0.325,0.85,0.15]","","",""
"sailing-trial","392","1662705","0.0-11.0-341.0","","","","false","","","","","","","","","","null","","648.5999999940395","","2","0","null","null","arrowup","[0.675,0.325,0.85,0.15]","","",""
"sailing-trial","393","1666318","0.0-11.0-342.0","","","","false","","","","","","","","","","633.0999999940395","","390.40000000596046","","0","0","arrowleft","0","arrowleft","[0.85,0.15,0.675,0.325]","","",""
"sailing-trial","394","1668695","0.0-11.0-343.0","","","","false","","","","","","","","","","null","","992.4000000059605","","3","0","null","null","arrowup","[0.85,0.15,0.675,0.325]","","",""
"sailing-trial","395","1672052","0.0-11.0-344.0","","","","false","","","","","","","","","","824.1999999880791","","103.5","","1","0","arrowleft","0","arrowright","[0.85,0.15,0.675,0.325]","","",""
"sailing-trial","396","1674207","0.0-11.0-345.0","","","","false","","","","","","","","","","null","","772.2000000178814","","1","0","null","null","arrowup","[0.85,0.15,0.675,0.325]","","",""
"sailing-trial","397","1677648","0.0-11.0-346.0","","","","false","","","","","","","","","","705.6999999880791","","99","","3","0","arrowright","1","arrowright","[0.85,0.15,0.675,0.325]","","",""
"sailing-trial","398","1680353","0.0-11.0-347.0","","","","false","","","","","","","","","","null","","830.2000000178814","","0","1","null","null","arrowup","[0.85,0.15,0.675,0.325]","","",""
"sailing-trial","399","1684070","0.0-11.0-348.0","","","","false","","","","","","","","","","615.1999999880791","","15.400000005960464","","0","1","arrowleft","0","arrowleft","[0.85,0.15,0.675,0.325]","","",""
"sailing-trial","400","1687183","0.0-11.0-349.0","","","","false","","","","","","","","","","null","","1674.199999988079","","1","0","null","null","arrowup","[0.85,0.15,0.675,0.325]","","",""
"sailing-trial","401","1691152","0.0-11.0-350.0","","","","false","","","","","","","","","","657.5","","236.2000000178814","","0","1","arrowleft","0","arrowleft","[0.85,0.15,0.675,0.325]","","",""
"sailing-trial","402","1693688","0.0-11.0-351.0","","","","false","","","","","","","","","","null","","701.0999999940395","","3","1","null","null","arrowup","[0.85,0.15,0.675,0.325]","","",""
"sailing-trial","403","1697956","0.0-11.0-352.0","","","","false","","","","","","","","","","520.2999999821186","","597.1000000238419","","0","1","arrowleft","0","arrowleft","[0.85,0.15,0.675,0.325]","","",""
"sailing-trial","404","1701902","0.0-11.0-353.0","","","","false","","","","","","","","","","null","","749.9000000059605","","0","1","null","null","arrowup","[0.85,0.15,0.675,0.325]","","",""
"sailing-trial","405","1705514","0.0-11.0-354.0","","","","false","","","","","","","","","","601.5999999940395","","234.09999999403954","","3","0","arrowright","1","arrowright","[0.85,0.15,0.675,0.325]","","",""
"sailing-trial","406","1707756","0.0-11.0-355.0","","","","false","","","","","","","","","","null","","794.5999999940395","","1","0","null","null","arrowup","[0.85,0.15,0.675,0.325]","","",""
"sailing-trial","407","1712913","0.0-11.0-356.0","","","","false","","","","","","","","","","1252","","587.3000000119209","","2","1","arrowright","1","arrowleft","[0.85,0.15,0.675,0.325]","","",""
"sailing-trial","408","1715605","0.0-11.0-357.0","","","","false","","","","","","","","","","null","","790","","3","1","null","null","arrowup","[0.85,0.15,0.675,0.325]","","",""
"sailing-trial","409","1720413","0.0-11.0-358.0","","","","false","","","","","","","","","","525.5","","564.9000000059605","","2","1","arrowright","1","arrowleft","[0.85,0.15,0.675,0.325]","","",""
"sailing-trial","410","1723405","0.0-11.0-359.0","","","","false","","","","","","","","","","null","","885.5999999940395","","0","1","null","null","arrowup","[0.85,0.15,0.675,0.325]","","",""
"sailing-trial","411","1727781","0.0-11.0-360.0","","","","false","","","","","","","","","","477.80000001192093","","410.90000000596046","","2","0","arrowright","1","arrowleft","[0.325,0.675,0.15,0.85]","","",""
"sailing-trial","412","1730704","0.0-11.0-361.0","","","","false","","","","","","","","","","null","","1036","","0","1","null","null","arrowup","[0.325,0.675,0.15,0.85]","","",""
"sailing-trial","413","1734474","0.0-11.0-362.0","","","","false","","","","","","","","","","692.5999999940395","","54.5","","3","1","arrowright","1","arrowright","[0.325,0.675,0.15,0.85]","","",""
"sailing-trial","414","1737006","0.0-11.0-363.0","","","","false","","","","","","","","","","null","","733","","0","1","null","null","arrowup","[0.325,0.675,0.15,0.85]","","",""
"sailing-trial","415","1740674","0.0-11.0-364.0","","","","false","","","","","","","","","","508.7000000178814","","153.69999998807907","","3","1","arrowright","1","arrowright","[0.325,0.675,0.15,0.85]","","",""
"sailing-trial","416","1742705","0.0-11.0-365.0","","","","false","","","","","","","","","","null","","674.5999999940395","","0","0","null","null","arrowup","[0.325,0.675,0.15,0.85]","","",""
"sailing-trial","417","1747229","0.0-11.0-366.0","","","","false","","","","","","","","","","669","","552.5999999940395","","3","1","arrowright","1","arrowright","[0.325,0.675,0.15,0.85]","","",""
"sailing-trial","418","1749872","0.0-11.0-367.0","","","","false","","","","","","","","","","null","","782.2000000178814","","1","1","null","null","arrowup","[0.325,0.675,0.15,0.85]","","",""
"sailing-trial","419","1753847","0.0-11.0-368.0","","","","false","","","","","","","","","","610.9000000059605","","116.19999998807907","","0","1","arrowleft","0","arrowleft","[0.325,0.675,0.15,0.85]","","",""
"sailing-trial","420","1756473","0.0-11.0-369.0","","","","false","","","","","","","","","","null","","744.2000000178814","","3","1","null","null","arrowup","[0.325,0.675,0.15,0.85]","","",""
"sailing-trial","421","1759886","0.0-11.0-370.0","","","","false","","","","","","","","","","627.2000000178814","","128","","0","0","arrowleft","0","arrowleft","[0.325,0.675,0.15,0.85]","","",""
"sailing-trial","422","1762557","0.0-11.0-371.0","","","","false","","","","","","","","","","null","","819.2999999821186","","0","1","null","null","arrowup","[0.325,0.675,0.15,0.85]","","",""
"sailing-trial","423","1765698","0.0-11.0-372.0","","","","false","","","","","","","","","","567.4000000059605","","55.400000005960464","","3","0","arrowright","1","arrowright","[0.325,0.675,0.15,0.85]","","",""
"sailing-trial","424","1768290","0.0-11.0-373.0","","","","false","","","","","","","","","","null","","755.0999999940395","","1","1","null","null","arrowup","[0.325,0.675,0.15,0.85]","","",""
"sailing-trial","425","1771948","0.0-11.0-374.0","","","","false","","","","","","","","","","1026.7000000178814","","77.10000002384186","","2","0","arrowright","1","arrowleft","[0.325,0.675,0.15,0.85]","","",""
"sailing-trial","426","1774056","0.0-11.0-375.0","","","","false","","","","","","","","","","null","","785.0999999940395","","0","0","null","null","arrowup","[0.325,0.675,0.15,0.85]","","",""
"sailing-trial","427","1777705","0.0-11.0-376.0","","","","false","","","","","","","","","","618.9000000059605","","28.799999982118607","","1","1","arrowleft","0","arrowright","[0.675,0.325,0.85,0.15]","","",""
"sailing-trial","428","1779723","0.0-11.0-377.0","","","","false","","","","","","","","","","null","","729","","1","0","null","null","arrowup","[0.675,0.325,0.85,0.15]","","",""
"sailing-trial","429","1783676","0.0-11.0-378.0","","","","false","","","","","","","","","","955.2000000178814","","539.2000000178814","","1","0","arrowleft","0","arrowright","[0.675,0.325,0.85,0.15]","","",""
"sailing-trial","430","1785851","0.0-11.0-379.0","","","","false","","","","","","","","","","null","","823.5999999940395","","3","0","null","null","arrowup","[0.675,0.325,0.85,0.15]","","",""
"sailing-trial","431","1789694","0.0-11.0-380.0","","","","false","","","","","","","","","","824.8000000119209","","41.900000005960464","","2","1","arrowright","1","arrowleft","[0.675,0.325,0.85,0.15]","","",""
"sailing-trial","432","1792074","0.0-11.0-381.0","","","","false","","","","","","","","","","null","","511","","0","1","null","null","arrowup","[0.675,0.325,0.85,0.15]","","",""
"sailing-trial","433","1796726","0.0-11.0-382.0","","","","false","","","","","","","","","","587.3999999761581","","459.7000000178814","","2","1","arrowright","1","arrowleft","[0.675,0.325,0.85,0.15]","","",""
"sailing-trial","434","1800305","0.0-11.0-383.0","","","","false","","","","","","","","","","null","","1115.199999988079","","0","1","null","null","arrowup","[0.675,0.325,0.85,0.15]","","",""
"sailing-trial","435","1803743","0.0-11.0-384.0","","","","false","","","","","","","","","","311","","383.80000001192093","","2","0","arrowright","1","arrowleft","[0.675,0.325,0.85,0.15]","","",""
"sailing-trial","436","1805935","0.0-11.0-385.0","","","","false","","","","","","","","","","null","","802.4000000059605","","3","0","null","null","arrowup","[0.675,0.325,0.85,0.15]","","",""
"sailing-trial","437","1809733","0.0-11.0-386.0","","","","false","","","","","","","","","","777.8000000119209","","47.099999994039536","","0","1","arrowleft","0","arrowleft","[0.675,0.325,0.85,0.15]","","",""
"sailing-trial","438","1812201","0.0-11.0-387.0","","","","false","","","","","","","","","","null","","593.5999999940395","","2","1","null","null","arrowup","[0.675,0.325,0.85,0.15]","","",""
"sailing-trial","439","1816008","0.0-11.0-388.0","","","","false","","","","","","","","","","447.30000001192093","","289.69999998807907","","0","1","arrowleft","0","arrowleft","[0.675,0.325,0.85,0.15]","","",""
"sailing-trial","440","1818020","0.0-11.0-389.0","","","","false","","","","","","","","","","null","","585.1000000238419","","1","0","null","null","arrowup","[0.675,0.325,0.85,0.15]","","",""
"sailing-trial","441","1821954","0.0-11.0-390.0","","","","false","","","","","","","","","","565.3999999761581","","390.30000001192093","","0","1","arrowleft","0","arrowleft","[0.675,0.325,0.85,0.15]","","",""
"sailing-trial","442","1824482","0.0-11.0-391.0","","","","false","","","","","","","","","","null","","726.5","","0","1","null","null","arrowup","[0.675,0.325,0.85,0.15]","","",""
"sailing-trial","443","1827844","0.0-11.0-392.0","","","","false","","","","","","","","","","489.2999999821186","","391.19999998807907","","0","0","arrowleft","0","arrowleft","[0.675,0.325,0.85,0.15]","","",""
"sailing-trial","444","1830006","0.0-11.0-393.0","","","","false","","","","","","","","","","null","","832.5","","3","0","null","null","arrowup","[0.675,0.325,0.85,0.15]","","",""
"sailing-trial","445","1833563","0.0-11.0-394.0","","","","false","","","","","","","","","","567.8999999761581","","92.69999998807907","","2","1","arrowright","1","arrowleft","[0.675,0.325,0.85,0.15]","","",""
"sailing-trial","446","1836093","0.0-11.0-395.0","","","","false","","","","","","","","","","null","","704.6999999880791","","2","1","null","null","arrowup","[0.675,0.325,0.85,0.15]","","",""
"sailing-trial","447","1840036","0.0-11.0-396.0","","","","false","","","","","","","","","","509.90000000596046","","405.69999998807907","","2","1","arrowright","1","arrowleft","[0.675,0.325,0.85,0.15]","","",""
"sailing-trial","448","1842066","0.0-11.0-397.0","","","","false","","","","","","","","","","null","","708.3999999761581","","3","0","null","null","arrowup","[0.675,0.325,0.85,0.15]","","",""
"sailing-trial","449","1845812","0.0-11.0-398.0","","","","false","","","","","","","","","","655.0999999940395","","36.30000001192093","","2","1","arrowright","1","arrowleft","[0.675,0.325,0.85,0.15]","","",""
"sailing-trial","450","1847946","0.0-11.0-399.0","","","","false","","","","","","","","","","null","","756.2999999821186","","2","0","null","null","arrowup","[0.675,0.325,0.85,0.15]","","",""
"instructions","451","1853824","0.0-12.0","","","","","","","","","","5877","","","","","","","","","","","","","","","","[{""page_index"":0,""viewing_time"":5875.4000000059605}]"
"survey-debrief","452","1898349","0.0-13.0","","","","","","","","","","44522.60000002384","","","","","","","","","","","","","","{""difficulty"":""5"",""fun"":""2"",""clarity"":""4"",""strategy"":""after getting treasure from the same shop tree times, i tried to switch to a different shop"",""feedback"":""""}","",""
