"trial_type","trial_index","time_elapsed","internal_node_id","value","metadata","success","timeout","failed_images","failed_audio","failed_video","browser_interaction","low_quality","rt","stimulus","response","button_pressed","island_rt","island_response","boat_rt","boat_response","boat","reward","island_key","island","boat_key","reward_probabilities","responses","num_errors","view_history"
"pavlovia","0","3","0.0-0.0","","","","","","","","","","","","","","","","","","","","","","","","","",""
"call-function","1","3","0.0-1.0","","{""task_version"":""sailing_part1_v1"",""task_condition"":""good"",""boats"":[""D"",""A"",""C"",""B""],""boats_demo"":[""G"",""H"",""E"",""F""],""islands"":[""A"",""B""],""subject_id"":""13801"",""age"":""8"",""gender"":""Female""}","","","","","","","","","","","","","","","","","","","","","","","",""
"preload","2","1573","0.0-2.0","","","true","false","[]","[]","[]","[{""event"":""fullscreenenter"",""trial"":3,""time"":4132}]","false","","","","","","","","","","","","","","","","",""
"fullscreen","3","5110","0.0-3.0","","","true","","","","","","","","","","","","","","","","","","","","","","",""
"audio-keyboard-response","4","7950","0.0-4.0-0.0","","","","","","","","","","2815.419501133787","audio/beep_loop.wav"," ","","","","","","","","","","","","","",""
"audio-test","5","9739","0.0-4.0-1.0","","","","","","","","","","null","audio/turtle.mp3","","3","","","","","","","","","","","","",""
"audio-test","6","12421","0.0-4.0-2.0","","","","","","","","","","null","audio/shark.mp3","","2","","","","","","","","","","","","",""
"sailing-instructions","7","45437","0.0-5.0-0.0-0.0","","","","","","","","","","","","","","null","null","null","null","null","null","","","","","","",""
"sailing-trial","8","53766","0.0-5.0-0.0-1.0-0.0","","","","false","","","","","","","","","","7191.699999988079","","null","","null","null","arrowleft","0","null","null","","",""
"sailing-trial","9","57300","0.0-5.0-0.0-1.0-1.0","","","","false","","","","","","","","","","2394.199999988079","","null","","null","null","arrowright","1","null","null","","",""
"sailing-trial","10","61783","0.0-5.0-0.0-1.0-2.0","","","","false","","","","","","","","","","3334.7999999970198","","null","","null","null","arrowright","1","null","null","","",""
"sailing-instructions","11","106917","0.0-5.0-0.0-2.0","","","","","","","","","","","","","","null","null","null","null","0","null","","","","","","",""
"sailing-trial","12","116397","0.0-5.0-0.0-3.0-0.0","","","","false","","","","","","","","","","null","","4798.4000000059605","","2","1","null","null","arrowleft","[1,1,1,1]","","",""
"sailing-trial","13","122265","0.0-5.0-0.0-3.0-1.0","","","","false","","","","","","","","","","null","","2084.5","","3","1","null","null","arrowright","[1,1,1,1]","","",""
"sailing-trial","14","127673","0.0-5.0-0.0-3.0-2.0","","","","false","","","","","","","","","","null","","1944.1000000089407","","2","0","null","null","arrowleft","[0,0,0,0]","","",""
"sailing-instructions","15","137203","0.0-5.0-0.0-4.0","","","","","","","","","","","","","","null","null","null","null","null","null","","","","","","",""
"sailing-comprehension","16","155158","0.0-5.0-0.0-5.0","","","","","","","","","","15231.29999999702","","","","","","","","","","","","","","[""true"",""true"",""false"",""true""]","0",""
"sailing-instructions","17","223695","0.0-6.0-0.0-0.0","","","","","","","","","","","","","","null","null","null","null","null","null","","","","","","",""
"sailing-comprehension","18","237858","0.0-6.0-0.0-1.0","","","","","","","","","","11734.59999999404","","","","","","","","","","","","","","[""true"",""false"",""true""]","0",""
"sailing-instructions","19","252473","0.0-7.0-0.0-0.0","","","","","","","","","","","","","","null","null","null","null","null","null","","","","","","",""
"sailing-trial","20","259380","0.0-7.0-0.0-1.0-0.0","","","","false","","","","","","","","","","null","","3877.7999999970198","","0","0","null","null","arrowup","[0.2,0.8,0.2,0.8]","","",""
"sailing-trial","21","265644","0.0-7.0-0.0-1.0-1.0","","","","false","","","","","","","","","","null","","2890.2000000029802","","1","1","null","null","arrowup","[0.2,0.8,0.2,0.8]","","",""
"sailing-trial","22","270639","0.0-7.0-0.0-1.0-2.0","","","","false","","","","","","","","","","null","","2622.7000000029802","","2","0","null","null","arrowup","[0.2,0.8,0.2,0.8]","","",""
"sailing-trial","23","276111","0.0-7.0-0.0-1.0-3.0","","","","false","","","","","","","","","","null","","2845.2000000029802","","3","1","null","null","arrowup","[0.2,0.8,0.2,0.8]","","",""
"sailing-comprehension","24","287590","0.0-7.0-0.0-2.0","","","","","","","","","","9666.5","","","","","","","","","","","","","","[""false""]","0",""
"sailing-instructions","25","299353","0.0-8.0-0.0-0.0","","","","","","","","","","","","","","null","null","null","null","null","null","","","","","","",""
"sailing-comprehension","26","305681","0.0-8.0-0.0-1.0","","","","","","","","","","3674.4000000059605","","","","","","","","","","","","","","[""true""]","0",""
"sailing-instructions","27","343494","0.0-9.0-0.0-0.0","","","","","","","","","","","","","","null","null","null","null","null","null","","","","","","",""
"sailing-trial","28","354375","0.0-9.0-0.0-1.0-0.0","","","","false","","","","","","","","","","4077.2999999970198","","1649.7999999970198","","3","1","arrowright","1","arrowright","[0.2,0.8,0.2,0.8]","","",""
"sailing-trial","29","361759","0.0-9.0-0.0-1.0-1.0","","","","false","","","","","","","","","","2419.4000000059605","","1068.5999999940395","","0","1","arrowleft","0","arrowleft","[0.2,0.8,0.2,0.8]","","",""
"sailing-trial","30","366985","0.0-9.0-0.0-1.0-2.0","","","","false","","","","","","","","","","null","","2612.5999999940395","","0","0","null","null","arrowup","[0.2,0.8,0.2,0.8]","","",""
"sailing-trial","31","374459","0.0-9.0-0.0-1.0-3.0","","","","false","","","","","","","","","","2881.4000000059605","","718.3000000119209","","1","1","arrowleft","0","arrowright","[0.2,0.8,0.2,0.8]","","",""
"sailing-trial","32","379525","0.0-9.0-0.0-1.0-4.0","","","","false","","","","","","","","","","null","","2354.800000011921","","3","1","null","null","arrowup","[0.2,0.8,0.2,0.8]","","",""
"sailing-trial","33","386474","0.0-9.0-0.0-1.0-5.0","","","","false","","","","","","","","","","2264.7000000029802","","871.4000000059605","","2","1","arrowright","1","arrowleft","[0.2,0.8,0.2,0.8]","","",""
"sailing-instructions","34","415441","0.0-10.0","","","","","","","","","","","","","","null","null","null","null","null","null","","","","","","",""
"sailing-trial","35","424576","0.0-11.0-0.0","","","","false","","","","","","","","","","3567.800000011921","","1445.7000000029802","","2","0","arrowright","1","arrowleft","[0.675,0.325,0.85,0.15]","","",""
"sailing-trial","36","429123","0.0-11.0-1.0","","","","false","","","","","","","","","","null","","2049.3999999910593","","2","1","null","null","arrowup","[0.675,0.325,0.85,0.15]","","",""
"sailing-trial","37","434941","0.0-11.0-2.0","","","","false","","","","","","","","","","1629.7999999970198","","94.69999998807907","","3","0","arrowright","1","arrowright","[0.675,0.325,0.85,0.15]","","",""
"sailing-trial","38","439090","0.0-11.0-3.0","","","","false","","","","","","","","","","null","","1512.300000011921","","2","1","null","null","arrowup","[0.675,0.325,0.85,0.15]","","",""
"sailing-trial","39","444423","0.0-11.0-4.0","","","","false","","","","","","","","","","1387.3999999910593","","442.90000000596046","","0","1","arrowleft","0","arrowleft","[0.675,0.325,0.85,0.15]","","",""
"sailing-trial","40","448756","0.0-11.0-5.0","","","","false","","","","","","","","","","null","","1837.2999999970198","","2","1","null","null","arrowup","[0.675,0.325,0.85,0.15]","","",""
"sailing-trial","41","455390","0.0-11.0-6.0","","","","false","","","","","","","","","","1853","","880.4000000059605","","1","1","arrowleft","0","arrowright","[0.675,0.325,0.85,0.15]","","",""
"sailing-trial","42","459933","0.0-11.0-7.0","","","","false","","","","","","","","","","null","","1922.5999999940395","","0","0","null","null","arrowup","[0.675,0.325,0.85,0.15]","","",""
"sailing-trial","43","465989","0.0-11.0-8.0","","","","false","","","","","","","","","","1809.3999999910593","","715.5999999940395","","0","1","arrowleft","0","arrowleft","[0.675,0.325,0.85,0.15]","","",""
"sailing-trial","44","470456","0.0-11.0-9.0","","","","false","","","","","","","","","","null","","2104.2999999970198","","1","1","null","null","arrowup","[0.675,0.325,0.85,0.15]","","",""
"sailing-trial","45","481956","0.0-11.0-10.0","","","","false","","","","","","","","","","1394.7000000029802","","6020.9000000059605","","0","0","arrowleft","0","arrowleft","[0.675,0.325,0.85,0.15]","","",""
"sailing-trial","46","487391","0.0-11.0-11.0","","","","false","","","","","","","","","","null","","2412.9000000059605","","3","0","null","null","arrowup","[0.675,0.325,0.85,0.15]","","",""
"sailing-trial","47","493173","0.0-11.0-12.0","","","","false","","","","","","","","","","999.5999999940395","","688.7000000029802","","1","0","arrowleft","0","arrowright","[0.675,0.325,0.85,0.15]","","",""
"sailing-trial","48","497238","0.0-11.0-13.0","","","","false","","","","","","","","","","null","","1493.7000000029802","","1","1","null","null","arrowup","[0.675,0.325,0.85,0.15]","","",""
"sailing-trial","49","502390","0.0-11.0-14.0","","","","false","","","","","","","","","","892.8999999910593","","758.2000000029802","","2","1","arrowright","1","arrowleft","[0.675,0.325,0.85,0.15]","","",""
"sailing-trial","50","506155","0.0-11.0-15.0","","","","false","","","","","","","","","","null","","1581.2999999970198","","2","1","null","null","arrowup","[0.675,0.325,0.85,0.15]","","",""
"sailing-trial","51","511041","0.0-11.0-16.0","","","","false","","","","","","","","","","645","","123.6000000089407","","3","0","arrowright","1","arrowright","[0.85,0.15,0.675,0.325]","","",""
"sailing-trial","52","514689","0.0-11.0-17.0","","","","false","","","","","","","","","","null","","600.5999999940395","","2","0","null","null","arrowup","[0.85,0.15,0.675,0.325]","","",""
"sailing-trial","53","519389","0.0-11.0-18.0","","","","false","","","","","","","","","","1234.7000000029802","","4.799999997019768","","2","1","arrowright","1","arrowleft","[0.85,0.15,0.675,0.325]","","",""
"sailing-trial","54","523355","0.0-11.0-19.0","","","","false","","","","","","","","","","null","","1895.0999999940395","","2","1","null","null","arrowup","[0.85,0.15,0.675,0.325]","","",""
"sailing-trial","55","529906","0.0-11.0-20.0","","","","false","","","","","","","","","","1686.7000000029802","","748.8999999910593","","2","0","arrowright","1","arrowleft","[0.85,0.15,0.675,0.325]","","",""
"sailing-trial","56","533555","0.0-11.0-21.0","","","","false","","","","","","","","","","null","","885.4000000059605","","3","1","null","null","arrowup","[0.85,0.15,0.675,0.325]","","",""
"sailing-trial","57","540205","0.0-11.0-22.0","","","","false","","","","","","","","","","1629","","934.2000000029802","","1","0","arrowleft","0","arrowright","[0.85,0.15,0.675,0.325]","","",""
"sailing-trial","58","545489","0.0-11.0-23.0","","","","false","","","","","","","","","","null","","2257.5","","3","0","null","null","arrowup","[0.85,0.15,0.675,0.325]","","",""
"sailing-trial","59","550971","0.0-11.0-24.0","","","","false","","","","","","","","","","1058.800000011921","","112.5","","0","1","arrowleft","0","arrowleft","[0.85,0.15,0.675,0.325]","","",""
"sailing-trial","60","555422","0.0-11.0-25.0","","","","false","","","","","","","","","","null","","1855.0999999940395","","0","1","null","null","arrowup","[0.85,0.15,0.675,0.325]","","",""
"sailing-trial","61","559804","0.0-11.0-26.0","","","","false","","","","","","","","","","790.7999999970198","","158.29999999701977","","0","1","arrowleft","0","arrowleft","[0.85,0.15,0.675,0.325]","","",""
"sailing-trial","62","563388","0.0-11.0-27.0","","","","false","","","","","","","","","","null","","1290","","0","1","null","null","arrowup","[0.85,0.15,0.675,0.325]","","",""
"sailing-trial","63","567871","0.0-11.0-28.0","","","","false","","","","","","","","","","805.7999999970198","","208.6000000089407","","0","1","arrowleft","0","arrowleft","[0.85,0.15,0.675,0.325]","","",""
"sailing-trial","64","572372","0.0-11.0-29.0","","","","false","","","","","","","","","","null","","1453.0999999940395","","2","0","null","null","arrowup","[0.85,0.15,0.675,0.325]","","",""
"sailing-trial","65","577055","0.0-11.0-30.0","","","","false","","","","","","","","","","911.2999999970198","","148.20000000298023","","0","1","arrowleft","0","arrowleft","[0.85,0.15,0.675,0.325]","","",""
"sailing-trial","66","582287","0.0-11.0-31.0","","","","false","","","","","","","","","","null","","2187","","3","0","null","null","arrowup","[0.85,0.15,0.675,0.325]","","",""
"sailing-trial","67","587236","0.0-11.0-32.0","","","","false","","","","","","","","","","1085","","130.79999999701977","","0","1","arrowleft","0","arrowleft","[0.85,0.15,0.675,0.325]","","",""
"sailing-trial","68","592921","0.0-11.0-33.0","","","","false","","","","","","","","","","null","","2632.5999999940395","","1","0","null","null","arrowup","[0.85,0.15,0.675,0.325]","","",""
"sailing-trial","69","600306","0.0-11.0-34.0","","","","false","","","","","","","","","","2802.8999999910593","","500.20000000298023","","1","0","arrowleft","0","arrowright","[0.15,0.85,0.325,0.675]","","",""
"sailing-trial","70","604637","0.0-11.0-35.0","","","","false","","","","","","","","","","null","","1288.2999999970198","","0","0","null","null","arrowup","[0.15,0.85,0.325,0.675]","","",""
"sailing-trial","71","611671","0.0-11.0-36.0","","","","false","","","","","","","","","","1989.7000000029802","","964.6999999880791","","2","0","arrowright","1","arrowleft","[0.15,0.85,0.325,0.675]","","",""
"sailing-trial","72","615804","0.0-11.0-37.0","","","","false","","","","","","","","","","null","","1089.5","","2","0","null","null","arrowup","[0.15,0.85,0.325,0.675]","","",""
"sailing-trial","73","621087","0.0-11.0-38.0","","","","false","","","","","","","","","","983.7999999970198","","204.20000000298023","","0","0","arrowleft","0","arrowleft","[0.15,0.85,0.325,0.675]","","",""
"sailing-trial","74","625971","0.0-11.0-39.0","","","","false","","","","","","","","","","null","","1836","","2","0","null","null","arrowup","[0.15,0.85,0.325,0.675]","","",""
"sailing-trial","75","631286","0.0-11.0-40.0","","","","false","","","","","","","","","","1177.0999999940395","","43","","3","0","arrowright","1","arrowright","[0.15,0.85,0.325,0.675]","","",""
"sailing-trial","76","635036","0.0-11.0-41.0","","","","false","","","","","","","","","","null","","1053.7000000029802","","1","1","null","null","arrowup","[0.15,0.85,0.325,0.675]","","",""
"sailing-trial","77","640018","0.0-11.0-42.0","","","","false","","","","","","","","","","760.6999999880791","","416.30000001192093","","1","1","arrowleft","0","arrowright","[0.15,0.85,0.325,0.675]","","",""
"sailing-trial","78","643851","0.0-11.0-43.0","","","","false","","","","","","","","","","null","","1158.0999999940395","","3","1","null","null","arrowup","[0.15,0.85,0.325,0.675]","","",""
"sailing-trial","79","649703","0.0-11.0-44.0","","","","false","","","","","","","","","","1005.6000000089407","","725.9000000059605","","1","0","arrowleft","0","arrowright","[0.15,0.85,0.325,0.675]","","",""
"sailing-trial","80","653603","0.0-11.0-45.0","","","","false","","","","","","","","","","null","","878.2000000029802","","0","0","null","null","arrowup","[0.15,0.85,0.325,0.675]","","",""
"sailing-trial","81","657886","0.0-11.0-46.0","","","","false","","","","","","","","","","723.7000000029802","","165.6000000089407","","3","1","arrowright","1","arrowright","[0.15,0.85,0.325,0.675]","","",""
"sailing-trial","82","661636","0.0-11.0-47.0","","","","false","","","","","","","","","","null","","1108.5","","2","1","null","null","arrowup","[0.15,0.85,0.325,0.675]","","",""
"sailing-trial","83","666535","0.0-11.0-48.0","","","","false","","","","","","","","","","781.6000000089407","","668.7999999970198","","3","1","arrowright","1","arrowright","[0.15,0.85,0.325,0.675]","","",""
"sailing-trial","84","670867","0.0-11.0-49.0","","","","false","","","","","","","","","","null","","1619.1000000089407","","3","1","null","null","arrowup","[0.15,0.85,0.325,0.675]","","",""
"sailing-trial","85","675552","0.0-11.0-50.0","","","","false","","","","","","","","","","690.5","","540.7000000029802","","3","1","arrowright","1","arrowright","[0.15,0.85,0.325,0.675]","","",""
"sailing-trial","86","680119","0.0-11.0-51.0","","","","false","","","","","","","","","","null","","1536.7000000029802","","2","0","null","null","arrowup","[0.15,0.85,0.325,0.675]","","",""
"sailing-trial","87","685350","0.0-11.0-52.0","","","","false","","","","","","","","","","874.4000000059605","","255.1000000089407","","3","0","arrowright","1","arrowright","[0.15,0.85,0.325,0.675]","","",""
"sailing-trial","88","688467","0.0-11.0-53.0","","","","false","","","","","","","","","","null","","732.2000000029802","","1","1","null","null","arrowup","[0.15,0.85,0.325,0.675]","","",""
"sailing-trial","89","693819","0.0-11.0-54.0","","","","false","","","","","","","","","","740.3999999910593","","560.6999999880791","","1","1","arrowleft","0","arrowright","[0.15,0.85,0.325,0.675]","","",""
"sailing-trial","90","697685","0.0-11.0-55.0","","","","false","","","","","","","","","","null","","1532.699999988079","","1","1","null","null","arrowup","[0.15,0.85,0.325,0.675]","","",""
"sailing-trial","91","703017","0.0-11.0-56.0","","","","false","","","","","","","","","","1061.9000000059605","","158","","1","0","arrowleft","0","arrowright","[0.15,0.85,0.325,0.675]","","",""
"sailing-trial","92","706685","0.0-11.0-57.0","","","","false","","","","","","","","","","null","","635.1000000089407","","2","0","null","null","arrowup","[0.15,0.85,0.325,0.675]","","",""
"sailing-trial","93","712567","0.0-11.0-58.0","","","","false","","","","","","","","","","664.2000000029802","","1435.5999999940395","","0","1","arrowleft","0","arrowleft","[0.85,0.15,0.675,0.325]","","",""
"sailing-trial","94","716717","0.0-11.0-59.0","","","","false","","","","","","","","","","null","","1880.2999999970198","","0","1","null","null","arrowup","[0.85,0.15,0.675,0.325]","","",""
"sailing-trial","95","721266","0.0-11.0-60.0","","","","false","","","","","","","","","","886.9000000059605","","157.29999999701977","","0","1","arrowleft","0","arrowleft","[0.85,0.15,0.675,0.325]","","",""
"sailing-trial","96","725118","0.0-11.0-61.0","","","","false","","","","","","","","","","null","","825.5","","1","0","null","null","arrowup","[0.85,0.15,0.675,0.325]","","",""
"sailing-trial","97","732733","0.0-11.0-62.0","","","","false","","","","","","","","","","985.2999999970198","","2938.0999999940395","","0","1","arrowleft","0","arrowleft","[0.85,0.15,0.675,0.325]","","",""
"sailing-trial","98","737183","0.0-11.0-63.0","","","","false","","","","","","","","","","null","","1406.5999999940395","","1","0","null","null","arrowup","[0.85,0.15,0.675,0.325]","","",""
"sailing-trial","99","742567","0.0-11.0-64.0","","","","false","","","","","","","","","","1450.7000000029802","","168","","0","1","arrowleft","0","arrowleft","[0.85,0.15,0.675,0.325]","","",""
"sailing-trial","100","747750","0.0-11.0-65.0","","","","false","","","","","","","","","","null","","2135","","1","0","null","null","arrowup","[0.85,0.15,0.675,0.325]","","",""
"sailing-trial","101","752183","0.0-11.0-66.0","","","","false","","","","","","","","","","897.0999999940395","","58.29999999701977","","0","1","arrowleft","0","arrowleft","[0.85,0.15,0.675,0.325]","","",""
"sailing-trial","102","756366","0.0-11.0-67.0","","","","false","","","","","","","","","","null","","1159.2000000029802","","1","0","null","null","arrowup","[0.85,0.15,0.675,0.325]","","",""
"sailing-trial","103","762868","0.0-11.0-68.0","","","","false","","","","","","","","","","1250.2000000029802","","1090.7000000029802","","2","0","arrowright","1","arrowleft","[0.85,0.15,0.675,0.325]","","",""
"sailing-trial","104","766701","0.0-11.0-69.0","","","","false","","","","","","","","","","null","","779.1000000089407","","1","0","null","null","arrowup","[0.85,0.15,0.675,0.325]","","",""
"sailing-trial","105","771399","0.0-11.0-70.0","","","","false","","","","","","","","","","1326.7999999970198","","3.0999999940395355","","0","1","arrowleft","0","arrowleft","[0.85,0.15,0.675,0.325]","","",""
"sailing-trial","106","775634","0.0-11.0-71.0","","","","false","","","","","","","","","","null","","1192.2000000029802","","1","0","null","null","arrowup","[0.85,0.15,0.675,0.325]","","",""
"sailing-trial","107","784332","0.0-11.0-72.0","","","","false","","","","","","","","","","1384.7999999970198","","3613.7999999970198","","0","1","arrowleft","0","arrowleft","[0.85,0.15,0.675,0.325]","","",""
"sailing-trial","108","788683","0.0-11.0-73.0","","","","false","","","","","","","","","","null","","1874.8999999910593","","2","1","null","null","arrowup","[0.85,0.15,0.675,0.325]","","",""
"sailing-trial","109","794515","0.0-11.0-74.0","","","","false","","","","","","","","","","1496.4000000059605","","660","","2","1","arrowright","1","arrowleft","[0.85,0.15,0.675,0.325]","","",""
"sailing-trial","110","798448","0.0-11.0-75.0","","","","false","","","","","","","","","","null","","1387.699999988079","","0","1","null","null","arrowup","[0.85,0.15,0.675,0.325]","","",""
"sailing-trial","111","803749","0.0-11.0-76.0","","","","false","","","","","","","","","","1118.7999999970198","","290.5","","2","1","arrowright","1","arrowleft","[0.85,0.15,0.675,0.325]","","",""
"sailing-trial","112","807482","0.0-11.0-77.0","","","","false","","","","","","","","","","null","","1072","","1","1","null","null","arrowup","[0.85,0.15,0.675,0.325]","","",""
"sailing-trial","113","812749","0.0-11.0-78.0","","","","false","","","","","","","","","","1538.8999999910593","","170.40000000596046","","2","1","arrowright","1","arrowleft","[0.85,0.15,0.675,0.325]","","",""
"sailing-trial","114","816598","0.0-11.0-79.0","","","","false","","","","","","","","","","null","","1255.9000000059605","","2","1","null","null","arrowup","[0.85,0.15,0.675,0.325]","","",""
"sailing-trial","115","821799","0.0-11.0-80.0","","","","false","","","","","","","","","","1169","","480.79999999701977","","2","1","arrowright","1","arrowleft","[0.675,0.325,0.85,0.15]","","",""
"sailing-trial","116","825983","0.0-11.0-81.0","","","","false","","","","","","","","","","null","","1161.2999999970198","","3","0","null","null","arrowup","[0.675,0.325,0.85,0.15]","","",""
"sailing-trial","117","830914","0.0-11.0-82.0","","","","false","","","","","","","","","","1342.7999999970198","","35.19999998807907","","2","1","arrowright","1","arrowleft","[0.675,0.325,0.85,0.15]","","",""
"sailing-trial","118","835466","0.0-11.0-83.0","","","","false","","","","","","","","","","null","","1522.0999999940395","","3","0","null","null","arrowup","[0.675,0.325,0.85,0.15]","","",""
"sailing-trial","119","841564","0.0-11.0-84.0","","","","false","","","","","","","","","","1423.5","","148.3999999910593","","2","1","arrowright","1","arrowleft","[0.675,0.325,0.85,0.15]","","",""
"sailing-trial","120","844784","0.0-11.0-85.0","","","","false","","","","","","","","","","null","","1205","","2","0","null","null","arrowup","[0.675,0.325,0.85,0.15]","","",""
"sailing-trial","121","851831","0.0-11.0-86.0","","","","false","","","","","","","","","","2185.2999999970198","","741.8999999910593","","1","0","arrowleft","0","arrowright","[0.675,0.325,0.85,0.15]","","",""
"sailing-trial","122","855697","0.0-11.0-87.0","","","","false","","","","","","","","","","null","","820.2999999970198","","1","0","null","null","arrowup","[0.675,0.325,0.85,0.15]","","",""
"sailing-trial","123","860330","0.0-11.0-88.0","","","","false","","","","","","","","","","1139.7999999970198","","56.1000000089407","","0","1","arrowleft","0","arrowleft","[0.675,0.325,0.85,0.15]","","",""
"sailing-trial","124","865215","0.0-11.0-89.0","","","","false","","","","","","","","","","null","","1848.5","","1","0","null","null","arrowup","[0.675,0.325,0.85,0.15]","","",""
"sailing-trial","125","870281","0.0-11.0-90.0","","","","false","","","","","","","","","","926.4000000059605","","35.400000005960464","","0","0","arrowleft","0","arrowleft","[0.675,0.325,0.85,0.15]","","",""
"sailing-trial","126","874730","0.0-11.0-91.0","","","","false","","","","","","","","","","null","","2093.1000000089407","","2","1","null","null","arrowup","[0.675,0.325,0.85,0.15]","","",""
"sailing-trial","127","879447","0.0-11.0-92.0","","","","false","","","","","","","","","","691.0999999940395","","653.5","","2","1","arrowright","1","arrowleft","[0.675,0.325,0.85,0.15]","","",""
"sailing-trial","128","883980","0.0-11.0-93.0","","","","false","","","","","","","","","","null","","1495","","2","0","null","null","arrowup","[0.675,0.325,0.85,0.15]","","",""
"sailing-trial","129","889230","0.0-11.0-94.0","","","","false","","","","","","","","","","1136.9000000059605","","383.5","","2","1","arrowright","1","arrowleft","[0.675,0.325,0.85,0.15]","","",""
"sailing-trial","130","893931","0.0-11.0-95.0","","","","false","","","","","","","","","","null","","1676","","1","0","null","null","arrowup","[0.675,0.325,0.85,0.15]","","",""
"sailing-trial","131","899380","0.0-11.0-96.0","","","","false","","","","","","","","","","1299.8999999910593","","66","","2","0","arrowright","1","arrowleft","[0.325,0.675,0.15,0.85]","","",""
"sailing-trial","132","903213","0.0-11.0-97.0","","","","false","","","","","","","","","","null","","1299.2000000029802","","0","1","null","null","arrowup","[0.325,0.675,0.15,0.85]","","",""
"sailing-trial","133","907780","0.0-11.0-98.0","","","","false","","","","","","","","","","695.9000000059605","","121.8999999910593","","0","1","arrowleft","0","arrowleft","[0.325,0.675,0.15,0.85]","","",""
"sailing-trial","134","913196","0.0-11.0-99.0","","","","false","","","","","","","","","","null","","2844.2999999970198","","1","1","null","null","arrowup","[0.325,0.675,0.15,0.85]","","",""
"sailing-trial","135","919147","0.0-11.0-100.0","","","","false","","","","","","","","","","805.7000000029802","","1043.5999999940395","","0","0","arrowleft","0","arrowleft","[0.325,0.675,0.15,0.85]","","",""
"sailing-trial","136","922346","0.0-11.0-101.0","","","","false","","","","","","","","","","null","","824","","1","1","null","null","arrowup","[0.325,0.675,0.15,0.85]","","",""
"sailing-trial","137","927213","0.0-11.0-102.0","","","","false","","","","","","","","","","995.4000000059605","","376.40000000596046","","1","1","arrowleft","0","arrowright","[0.325,0.675,0.15,0.85]","","",""
"sailing-trial","138","932063","0.0-11.0-103.0","","","","false","","","","","","","","","","null","","1826.7999999970198","","2","0","null","null","arrowup","[0.325,0.675,0.15,0.85]","","",""
"sailing-trial","139","937246","0.0-11.0-104.0","","","","false","","","","","","","","","","792.2000000029802","","284.70000000298023","","1","0","arrowleft","0","arrowright","[0.325,0.675,0.15,0.85]","","",""
"sailing-trial","140","940962","0.0-11.0-105.0","","","","false","","","","","","","","","","null","","994.5","","1","1","null","null","arrowup","[0.325,0.675,0.15,0.85]","","",""
"sailing-trial","141","945463","0.0-11.0-106.0","","","","false","","","","","","","","","","993.4000000059605","","84","","1","1","arrowleft","0","arrowright","[0.325,0.675,0.15,0.85]","","",""
"sailing-trial","142","949179","0.0-11.0-107.0","","","","false","","","","","","","","","","null","","1412.5999999940395","","1","1","null","null","arrowup","[0.325,0.675,0.15,0.85]","","",""
"sailing-trial","143","954463","0.0-11.0-108.0","","","","false","","","","","","","","","","956.5999999940395","","237.40000000596046","","1","0","arrowleft","0","arrowright","[0.325,0.675,0.15,0.85]","","",""
"sailing-trial","144","958646","0.0-11.0-109.0","","","","false","","","","","","","","","","null","","1577.6000000089407","","0","1","null","null","arrowup","[0.325,0.675,0.15,0.85]","","",""
"sailing-trial","145","963813","0.0-11.0-110.0","","","","false","","","","","","","","","","795.5","","314.20000000298023","","0","0","arrowleft","0","arrowleft","[0.325,0.675,0.15,0.85]","","",""
"sailing-trial","146","968045","0.0-11.0-111.0","","","","false","","","","","","","","","","null","","1202.2000000029802","","3","0","null","null","arrowup","[0.325,0.675,0.15,0.85]","","",""
"sailing-trial","147","972961","0.0-11.0-112.0","","","","false","","","","","","","","","","1492.4000000059605","","111","","1","1","arrowleft","0","arrowright","[0.15,0.85,0.325,0.675]","","",""
"sailing-trial","148","977346","0.0-11.0-113.0","","","","false","","","","","","","","","","null","","1340.800000011921","","2","0","null","null","arrowup","[0.15,0.85,0.325,0.675]","","",""
"sailing-trial","149","981828","0.0-11.0-114.0","","","","false","","","","","","","","","","1028.5999999940395","","412.40000000596046","","1","1","arrowleft","0","arrowright","[0.15,0.85,0.325,0.675]","","",""
"sailing-trial","150","985945","0.0-11.0-115.0","","","","false","","","","","","","","","","null","","1655.2999999970198","","1","1","null","null","arrowup","[0.15,0.85,0.325,0.675]","","",""
"sailing-trial","151","991228","0.0-11.0-116.0","","","","false","","","","","","","","","","1467","","353.79999999701977","","1","1","arrowleft","0","arrowright","[0.15,0.85,0.325,0.675]","","",""
"sailing-trial","152","994544","0.0-11.0-117.0","","","","false","","","","","","","","","","null","","949.5999999940395","","1","1","null","null","arrowup","[0.15,0.85,0.325,0.675]","","",""
"sailing-trial","153","1000144","0.0-11.0-118.0","","","","false","","","","","","","","","","1010.0999999940395","","498.8999999910593","","1","0","arrowleft","0","arrowright","[0.15,0.85,0.325,0.675]","","",""
"sailing-trial","154","1004227","0.0-11.0-119.0","","","","false","","","","","","","","","","null","","1056.5","","2","0","null","null","arrowup","[0.15,0.85,0.325,0.675]","","",""
"sailing-trial","155","1009227","0.0-11.0-120.0","","","","false","","","","","","","","","","850.1000000089407","","493.6000000089407","","1","1","arrowleft","0","arrowright","[0.15,0.85,0.325,0.675]","","",""
"sailing-trial","156","1012927","0.0-11.0-121.0","","","","false","","","","","","","","","","null","","1109.300000011921","","2","1","null","null","arrowup","[0.15,0.85,0.325,0.675]","","",""
"sailing-trial","157","1018360","0.0-11.0-122.0","","","","false","","","","","","","","","","1266.5","","757.5","","1","1","arrowleft","0","arrowright","[0.15,0.85,0.325,0.675]","","",""
"sailing-trial","158","1022146","0.0-11.0-123.0","","","","false","","","","","","","","","","null","","741.9000000059605","","2","0","null","null","arrowup","[0.15,0.85,0.325,0.675]","","",""
"sailing-trial","159","1026927","0.0-11.0-124.0","","","","false","","","","","","","","","","969.3999999910593","","375.5","","1","1","arrowleft","0","arrowright","[0.15,0.85,0.325,0.675]","","",""
"sailing-trial","160","1031026","0.0-11.0-125.0","","","","false","","","","","","","","","","null","","1045.8999999910593","","1","0","null","null","arrowup","[0.15,0.85,0.325,0.675]","","",""
"sailing-trial","161","1036743","0.0-11.0-126.0","","","","false","","","","","","","","","","1151","","455.79999999701977","","1","0","arrowleft","0","arrowright","[0.15,0.85,0.325,0.675]","","",""
"sailing-trial","162","1040127","0.0-11.0-127.0","","","","false","","","","","","","","","","null","","984.0999999940395","","2","1","null","null","arrowup","[0.15,0.85,0.325,0.675]","","",""
"sailing-trial","163","1045494","0.0-11.0-128.0","","","","false","","","","","","","","","","771","","521.7999999970198","","2","0","arrowright","1","arrowleft","[0.15,0.85,0.325,0.675]","","",""
"sailing-trial","164","1049810","0.0-11.0-129.0","","","","false","","","","","","","","","","null","","1265.800000011921","","3","0","null","null","arrowup","[0.15,0.85,0.325,0.675]","","",""
"sailing-trial","165","1054810","0.0-11.0-130.0","","","","false","","","","","","","","","","1283.5999999940395","","138","","2","1","arrowright","1","arrowleft","[0.675,0.325,0.85,0.15]","","",""
"sailing-trial","166","1058392","0.0-11.0-131.0","","","","false","","","","","","","","","","null","","1084.0999999940395","","2","1","null","null","arrowup","[0.675,0.325,0.85,0.15]","","",""
"sailing-trial","167","1064443","0.0-11.0-132.0","","","","false","","","","","","","","","","965.5","","989.1999999880791","","2","0","arrowright","1","arrowleft","[0.675,0.325,0.85,0.15]","","",""
"sailing-trial","168","1068444","0.0-11.0-133.0","","","","false","","","","","","","","","","null","","947.2999999970198","","3","0","null","null","arrowup","[0.675,0.325,0.85,0.15]","","",""
"sailing-trial","169","1074459","0.0-11.0-134.0","","","","false","","","","","","","","","","2410","","132.20000000298023","","0","1","arrowleft","0","arrowleft","[0.675,0.325,0.85,0.15]","","",""
"sailing-trial","170","1078092","0.0-11.0-135.0","","","","false","","","","","","","","","","null","","1280.2999999970198","","0","1","null","null","arrowup","[0.675,0.325,0.85,0.15]","","",""
"sailing-trial","171","1082925","0.0-11.0-136.0","","","","false","","","","","","","","","","921.7999999970198","","190.70000000298023","","0","1","arrowleft","0","arrowleft","[0.675,0.325,0.85,0.15]","","",""
"sailing-trial","172","1086742","0.0-11.0-137.0","","","","false","","","","","","","","","","null","","778.8999999910593","","0","0","null","null","arrowup","[0.675,0.325,0.85,0.15]","","",""
"sailing-trial","173","1092209","0.0-11.0-138.0","","","","false","","","","","","","","","","1140","","240.20000000298023","","0","0","arrowleft","0","arrowleft","[0.675,0.325,0.85,0.15]","","",""
"sailing-trial","174","1096225","0.0-11.0-139.0","","","","false","","","","","","","","","","null","","1026.0999999940395","","0","1","null","null","arrowup","[0.675,0.325,0.85,0.15]","","",""
"sailing-trial","175","1101825","0.0-11.0-140.0","","","","false","","","","","","","","","","894","","642.5999999940395","","0","0","arrowleft","0","arrowleft","[0.675,0.325,0.85,0.15]","","",""
"sailing-trial","176","1105208","0.0-11.0-141.0","","","","false","","","","","","","","","","null","","696.1999999880791","","0","1","null","null","arrowup","[0.675,0.325,0.85,0.15]","","",""
"sailing-trial","177","1111741","0.0-11.0-142.0","","","","false","","","","","","","","","","866.4000000059605","","1898.9000000059605","","0","1","arrowleft","0","arrowleft","[0.675,0.325,0.85,0.15]","","",""
"sailing-trial","178","1115658","0.0-11.0-143.0","","","","false","","","","","","","","","","null","","1155","","2","1","null","null","arrowup","[0.675,0.325,0.85,0.15]","","",""
"sailing-trial","179","1120958","0.0-11.0-144.0","","","","false","","","","","","","","","","970.7000000029802","","678.7000000029802","","2","1","arrowright","1","arrowleft","[0.675,0.325,0.85,0.15]","","",""
"sailing-trial","180","1125292","0.0-11.0-145.0","","","","false","","","","","","","","","","null","","1295.2000000029802","","0","0","null","null","arrowup","[0.675,0.325,0.85,0.15]","","",""
"sailing-trial","181","1129909","0.0-11.0-146.0","","","","false","","","","","","","","","","873.7999999970198","","303.79999999701977","","2","1","arrowright","1","arrowleft","[0.85,0.15,0.675,0.325]","","",""
"sailing-trial","182","1134075","0.0-11.0-147.0","","","","false","","","","","","","","","","null","","1144","","1","0","null","null","arrowup","[0.85,0.15,0.675,0.325]","","",""
"sailing-trial","183","1139390","0.0-11.0-148.0","","","","false","","","","","","","","","","842.4000000059605","","781.7000000029802","","2","1","arrowright","1","arrowleft","[0.85,0.15,0.675,0.325]","","",""
"sailing-trial","184","1143091","0.0-11.0-149.0","","","","false","","","","","","","","","","null","","1274.9000000059605","","3","1","null","null","arrowup","[0.85,0.15,0.675,0.325]","","",""
"sailing-trial","185","1148825","0.0-11.0-150.0","","","","false","","","","","","","","","","1095","","535.5","","2","0","arrowright","1","arrowleft","[0.85,0.15,0.675,0.325]","","",""
"sailing-trial","186","1152291","0.0-11.0-151.0","","","","false","","","","","","","","","","null","","982.7999999970198","","0","1","null","null","arrowup","[0.85,0.15,0.675,0.325]","","",""
"sailing-trial","187","1157574","0.0-11.0-152.0","","","","false","","","","","","","","","","1049.4000000059605","","101","","3","0","arrowright","1","arrowright","[0.85,0.15,0.675,0.325]","","",""
"sailing-trial","188","1161674","0.0-11.0-153.0","","","","false","","","","","","","","","","null","","1067.5999999940395","","3","0","null","null","arrowup","[0.85,0.15,0.675,0.325]","","",""
"sailing-trial","189","1166691","0.0-11.0-154.0","","","","false","","","","","","","","","","860.5","","57.20000000298023","","0","0","arrowleft","0","arrowleft","[0.85,0.15,0.675,0.325]","","",""
"sailing-trial","190","1170541","0.0-11.0-155.0","","","","false","","","","","","","","","","null","","803.8999999910593","","1","0","null","null","arrowup","[0.85,0.15,0.675,0.325]","","",""
"sailing-trial","191","1176074","0.0-11.0-156.0","","","","false","","","","","","","","","","1950","","8.099999994039536","","0","1","arrowleft","0","arrowleft","[0.85,0.15,0.675,0.325]","","",""
"sailing-trial","192","1180807","0.0-11.0-157.0","","","","false","","","","","","","","","","null","","2347.800000011921","","0","1","null","null","arrowup","[0.85,0.15,0.675,0.325]","","",""
"sailing-trial","193","1188541","0.0-11.0-158.0","","","","false","","","","","","","","","","924","","2705.0999999940395","","0","0","arrowleft","0","arrowleft","[0.85,0.15,0.675,0.325]","","",""
"sailing-trial","194","1192006","0.0-11.0-159.0","","","","false","","","","","","","","","","null","","899.7000000029802","","2","1","null","null","arrowup","[0.85,0.15,0.675,0.325]","","",""
"sailing-trial","195","1197341","0.0-11.0-160.0","","","","false","","","","","","","","","","864.5999999940395","","377.70000000298023","","2","0","arrowright","1","arrowleft","[0.85,0.15,0.675,0.325]","","",""
"sailing-trial","196","1200956","0.0-11.0-161.0","","","","false","","","","","","","","","","null","","1034.800000011921","","0","1","null","null","arrowup","[0.85,0.15,0.675,0.325]","","",""
"sailing-trial","197","1206555","0.0-11.0-162.0","","","","false","","","","","","","","","","823.7000000029802","","688.2000000029802","","0","0","arrowleft","0","arrowleft","[0.675,0.325,0.85,0.15]","","",""
"sailing-trial","198","1210972","0.0-11.0-163.0","","","","false","","","","","","","","","","null","","1372.800000011921","","3","0","null","null","arrowup","[0.675,0.325,0.85,0.15]","","",""
"sailing-trial","199","1216157","0.0-11.0-164.0","","","","false","","","","","","","","","","1053.2999999970198","","19.299999997019768","","0","0","arrowleft","0","arrowleft","[0.675,0.325,0.85,0.15]","","",""
"sailing-trial","200","1220057","0.0-11.0-165.0","","","","false","","","","","","","","","","null","","876.5","","3","0","null","null","arrowup","[0.675,0.325,0.85,0.15]","","",""
"sailing-trial","201","1225841","0.0-11.0-166.0","","","","false","","","","","","","","","","1245.3999999910593","","436","","1","0","arrowleft","0","arrowright","[0.675,0.325,0.85,0.15]","","",""
"sailing-trial","202","1229372","0.0-11.0-167.0","","","","false","","","","","","","","","","null","","923.5","","0","1","null","null","arrowup","[0.675,0.325,0.85,0.15]","","",""
"sailing-trial","203","1233889","0.0-11.0-168.0","","","","false","","","","","","","","","","995.2000000029802","","50.20000000298023","","0","1","arrowleft","0","arrowleft","[0.675,0.325,0.85,0.15]","","",""
"sailing-trial","204","1241239","0.0-11.0-169.0","","","","false","","","","","","","","","","null","","4311.20000000298","","0","0","null","null","arrowup","[0.675,0.325,0.85,0.15]","","",""
"sailing-trial","205","1247073","0.0-11.0-170.0","","","","false","","","","","","","","","","1343.2999999970198","","406.6000000089407","","3","0","arrowright","1","arrowright","[0.675,0.325,0.85,0.15]","","",""
"sailing-trial","206","1250188","0.0-11.0-171.0","","","","false","","","","","","","","","","null","","742.5999999940395","","0","1","null","null","arrowup","[0.675,0.325,0.85,0.15]","","",""
"sailing-trial","207","1254571","0.0-11.0-172.0","","","","false","","","","","","","","","","752.9000000059605","","49.599999994039536","","0","1","arrowleft","0","arrowleft","[0.675,0.325,0.85,0.15]","","",""
"sailing-trial","208","1257721","0.0-11.0-173.0","","","","false","","","","","","","","","","null","","770.5","","0","1","null","null","arrowup","[0.675,0.325,0.85,0.15]","","",""
"sailing-trial","209","1265389","0.0-11.0-174.0","","","","false","","","","","","","","","","984.4000000059605","","3120","","0","1","arrowleft","0","arrowleft","[0.675,0.325,0.85,0.15]","","",""
"sailing-trial","210","1269405","0.0-11.0-175.0","","","","false","","","","","","","","","","null","","975.0999999940395","","3","0","null","null","arrowup","[0.675,0.325,0.85,0.15]","","",""
"sailing-trial","211","1275305","0.0-11.0-176.0","","","","false","","","","","","","","","","1109.5","","1181.5","","0","1","arrowleft","0","arrowleft","[0.675,0.325,0.85,0.15]","","",""
"sailing-trial","212","1279322","0.0-11.0-177.0","","","","false","","","","","","","","","","null","","987.2999999970198","","0","0","null","null","arrowup","[0.675,0.325,0.85,0.15]","","",""
"sailing-trial","213","1283554","0.0-11.0-178.0","","","","false","","","","","","","","","","756.1999999880791","","5.5999999940395355","","0","1","arrowleft","0","arrowleft","[0.675,0.325,0.85,0.15]","","",""
"sailing-trial","214","1288005","0.0-11.0-179.0","","","","false","","","","","","","","","","null","","1422.9000000059605","","1","0","null","null","arrowup","[0.675,0.325,0.85,0.15]","","",""
"sailing-trial","215","1293738","0.0-11.0-180.0","","","","false","","","","","","","","","","844.7999999970198","","1217.5","","0","1","arrowleft","0","arrowleft","[0.675,0.325,0.85,0.15]","","",""
"sailing-trial","216","1297955","0.0-11.0-181.0","","","","false","","","","","","","","","","null","","1181.199999988079","","1","0","null","null","arrowup","[0.675,0.325,0.85,0.15]","","",""
"sailing-trial","217","1303604","0.0-11.0-182.0","","","","false","","","","","","","","","","1022.0999999940395","","720.5","","0","1","arrowleft","0","arrowleft","[0.675,0.325,0.85,0.15]","","",""
"sailing-trial","218","1308054","0.0-11.0-183.0","","","","false","","","","","","","","","","null","","1420.2999999970198","","1","0","null","null","arrowup","[0.675,0.325,0.85,0.15]","","",""
"sailing-trial","219","1313004","0.0-11.0-184.0","","","","false","","","","","","","","","","997.7999999970198","","269.79999999701977","","0","1","arrowleft","0","arrowleft","[0.85,0.15,0.675,0.325]","","",""
"sailing-trial","220","1316904","0.0-11.0-185.0","","","","false","","","","","","","","","","null","","864.3999999910593","","1","0","null","null","arrowup","[0.85,0.15,0.675,0.325]","","",""
"sailing-trial","221","1322520","0.0-11.0-186.0","","","","false","","","","","","","","","","969.4000000059605","","840.7999999970198","","0","1","arrowleft","0","arrowleft","[0.85,0.15,0.675,0.325]","","",""
"sailing-trial","222","1325953","0.0-11.0-187.0","","","","false","","","","","","","","","","null","","952.9000000059605","","0","1","null","null","arrowup","[0.85,0.15,0.675,0.325]","","",""
"sailing-trial","223","1330937","0.0-11.0-188.0","","","","false","","","","","","","","","","833.7999999970198","","524.7000000029802","","0","1","arrowleft","0","arrowleft","[0.85,0.15,0.675,0.325]","","",""
"sailing-trial","224","1334921","0.0-11.0-189.0","","","","false","","","","","","","","","","null","","953","","2","0","null","null","arrowup","[0.85,0.15,0.675,0.325]","","",""
"sailing-trial","225","1339952","0.0-11.0-190.0","","","","false","","","","","","","","","","926.2000000029802","","583","","0","1","arrowleft","0","arrowleft","[0.85,0.15,0.675,0.325]","","",""
"sailing-trial","226","1343753","0.0-11.0-191.0","","","","false","","","","","","","","","","null","","751.2999999970198","","1","0","null","null","arrowup","[0.85,0.15,0.675,0.325]","","",""
"sailing-trial","227","1348938","0.0-11.0-192.0","","","","false","","","","","","","","","","795.5999999940395","","310.70000000298023","","0","0","arrowleft","0","arrowleft","[0.85,0.15,0.675,0.325]","","",""
"sailing-trial","228","1352336","0.0-11.0-193.0","","","","false","","","","","","","","","","null","","785.0999999940395","","2","1","null","null","arrowup","[0.85,0.15,0.675,0.325]","","",""
"sailing-trial","229","1356669","0.0-11.0-194.0","","","","false","","","","","","","","","","747.6999999880791","","93.5","","0","1","arrowleft","0","arrowleft","[0.85,0.15,0.675,0.325]","","",""
"sailing-trial","230","1360785","0.0-11.0-195.0","","","","false","","","","","","","","","","null","","1092.7999999970198","","1","0","null","null","arrowup","[0.85,0.15,0.675,0.325]","","",""
"sailing-trial","231","1365868","0.0-11.0-196.0","","","","false","","","","","","","","","","1011.1000000089407","","739.5999999940395","","0","1","arrowleft","0","arrowleft","[0.85,0.15,0.675,0.325]","","",""
"sailing-trial","232","1370154","0.0-11.0-197.0","","","","false","","","","","","","","","","null","","1261.5","","3","0","null","null","arrowup","[0.85,0.15,0.675,0.325]","","",""
"sailing-trial","233","1374519","0.0-11.0-198.0","","","","false","","","","","","","","","","799.7999999970198","","132.29999999701977","","0","1","arrowleft","0","arrowleft","[0.85,0.15,0.675,0.325]","","",""
"sailing-trial","234","1378603","0.0-11.0-199.0","","","","false","","","","","","","","","","null","","1040.0999999940395","","3","0","null","null","arrowup","[0.85,0.15,0.675,0.325]","","",""
"sailing-trial","235","1383485","0.0-11.0-200.0","","","","false","","","","","","","","","","834.7000000029802","","572.7999999970198","","0","1","arrowleft","0","arrowleft","[0.675,0.325,0.85,0.15]","","",""
"sailing-trial","236","1387635","0.0-11.0-201.0","","","","false","","","","","","","","","","null","","921.7000000029802","","0","1","null","null","arrowup","[0.675,0.325,0.85,0.15]","","",""
"sailing-trial","237","1393035","0.0-11.0-202.0","","","","false","","","","","","","","","","939.7000000029802","","765","","0","1","arrowleft","0","arrowleft","[0.675,0.325,0.85,0.15]","","",""
"sailing-trial","238","1397618","0.0-11.0-203.0","","","","false","","","","","","","","","","null","","1531.2000000029802","","0","0","null","null","arrowup","[0.675,0.325,0.85,0.15]","","",""
"sailing-trial","239","1402618","0.0-11.0-204.0","","","","false","","","","","","","","","","1012.4000000059605","","5.299999997019768","","0","1","arrowleft","0","arrowleft","[0.675,0.325,0.85,0.15]","","",""
"sailing-trial","240","1406169","0.0-11.0-205.0","","","","false","","","","","","","","","","null","","985.1999999880791","","2","1","null","null","arrowup","[0.675,0.325,0.85,0.15]","","",""
"sailing-trial","241","1411885","0.0-11.0-206.0","","","","false","","","","","","","","","","907.6999999880791","","704.2999999970198","","2","0","arrowright","1","arrowleft","[0.675,0.325,0.85,0.15]","","",""
"sailing-trial","242","1415750","0.0-11.0-207.0","","","","false","","","","","","","","","","null","","828.0999999940395","","3","0","null","null","arrowup","[0.675,0.325,0.85,0.15]","","",""
"sailing-trial","243","1420151","0.0-11.0-208.0","","","","false","","","","","","","","","","852.7999999970198","","63.1000000089407","","0","1","arrowleft","0","arrowleft","[0.675,0.325,0.85,0.15]","","",""
"sailing-trial","244","1424134","0.0-11.0-209.0","","","","false","","","","","","","","","","null","","1592.7999999970198","","2","1","null","null","arrowup","[0.675,0.325,0.85,0.15]","","",""
"sailing-trial","245","1428327","0.0-11.0-210.0","","","","false","","","","","","","","","","732.0999999940395","","74.79999999701977","","0","1","arrowleft","0","arrowleft","[0.675,0.325,0.85,0.15]","","",""
"sailing-trial","246","1433236","0.0-11.0-211.0","","","","false","","","","","","","","","","null","","2414.0999999940395","","1","1","null","null","arrowup","[0.675,0.325,0.85,0.15]","","",""
"sailing-trial","247","1437624","0.0-11.0-212.0","","","","false","","","","","","","","","","614.4000000059605","","335.09999999403954","","0","1","arrowleft","0","arrowleft","[0.675,0.325,0.85,0.15]","","",""
"sailing-trial","248","1441663","0.0-11.0-213.0","","","","false","","","","","","","","","","null","","981.7999999970198","","1","0","null","null","arrowup","[0.675,0.325,0.85,0.15]","","",""
"sailing-trial","249","1446600","0.0-11.0-214.0","","","","false","","","","","","","","","","819.7999999970198","","42.79999999701977","","0","0","arrowleft","0","arrowleft","[0.675,0.325,0.85,0.15]","","",""
"sailing-trial","250","1450370","0.0-11.0-215.0","","","","false","","","","","","","","","","null","","721.7000000029802","","1","0","null","null","arrowup","[0.675,0.325,0.85,0.15]","","",""
"sailing-trial","251","1456538","0.0-11.0-216.0","","","","false","","","","","","","","","","951.7000000029802","","1624.2000000029802","","0","1","arrowleft","0","arrowleft","[0.675,0.325,0.85,0.15]","","",""
"sailing-trial","252","1459722","0.0-11.0-217.0","","","","false","","","","","","","","","","null","","869.6000000089407","","0","1","null","null","arrowup","[0.675,0.325,0.85,0.15]","","",""
"sailing-trial","253","1465974","0.0-11.0-218.0","","","","false","","","","","","","","","","799.2000000029802","","1921.3999999910593","","0","1","arrowleft","0","arrowleft","[0.85,0.15,0.675,0.325]","","",""
"sailing-trial","254","1469175","0.0-11.0-219.0","","","","false","","","","","","","","","","null","","795.1000000089407","","0","1","null","null","arrowup","[0.85,0.15,0.675,0.325]","","",""
"sailing-trial","255","1473774","0.0-11.0-220.0","","","","false","","","","","","","","","","780.7000000029802","","284.79999999701977","","0","1","arrowleft","0","arrowleft","[0.85,0.15,0.675,0.325]","","",""
"sailing-trial","256","1477908","0.0-11.0-221.0","","","","false","","","","","","","","","","null","","1488.2999999970198","","1","1","null","null","arrowup","[0.85,0.15,0.675,0.325]","","",""
"sailing-trial","257","1481907","0.0-11.0-222.0","","","","false","","","","","","","","","","635.5999999940395","","144.79999999701977","","0","1","arrowleft","0","arrowleft","[0.85,0.15,0.675,0.325]","","",""
"sailing-trial","258","1486243","0.0-11.0-223.0","","","","false","","","","","","","","","","null","","1290.7000000029802","","3","0","null","null","arrowup","[0.85,0.15,0.675,0.325]","","",""
"sailing-trial","259","1491792","0.0-11.0-224.0","","","","false","","","","","","","","","","841.1000000089407","","622.9000000059605","","0","0","arrowleft","0","arrowleft","[0.85,0.15,0.675,0.325]","","",""
"sailing-trial","260","1496010","0.0-11.0-225.0","","","","false","","","","","","","","","","null","","1187.2999999970198","","1","0","null","null","arrowup","[0.85,0.15,0.675,0.325]","","",""
"sailing-trial","261","1501375","0.0-11.0-226.0","","","","false","","","","","","","","","","807","","862.7000000029802","","0","1","arrowleft","0","arrowleft","[0.85,0.15,0.675,0.325]","","",""
"sailing-trial","262","1505375","0.0-11.0-227.0","","","","false","","","","","","","","","","null","","972.2999999970198","","0","0","null","null","arrowup","[0.85,0.15,0.675,0.325]","","",""
"sailing-trial","263","1509659","0.0-11.0-228.0","","","","false","","","","","","","","","","930.2999999970198","","30.900000005960464","","0","1","arrowleft","0","arrowleft","[0.85,0.15,0.675,0.325]","","",""
"sailing-trial","264","1512876","0.0-11.0-229.0","","","","false","","","","","","","","","","null","","663.7999999970198","","0","1","null","null","arrowup","[0.85,0.15,0.675,0.325]","","",""
"sailing-trial","265","1517943","0.0-11.0-230.0","","","","false","","","","","","","","","","866.1999999880791","","98.80000001192093","","0","0","arrowleft","0","arrowleft","[0.85,0.15,0.675,0.325]","","",""
"sailing-trial","266","1521776","0.0-11.0-231.0","","","","false","","","","","","","","","","null","","802.1000000089407","","3","0","null","null","arrowup","[0.85,0.15,0.675,0.325]","","",""
"sailing-trial","267","1529376","0.0-11.0-232.0","","","","false","","","","","","","","","","378.20000000298023","","3636.300000011921","","0","1","arrowleft","0","arrowleft","[0.85,0.15,0.675,0.325]","","",""
"sailing-trial","268","1532943","0.0-11.0-233.0","","","","false","","","","","","","","","","null","","768.2999999970198","","2","1","null","null","arrowup","[0.85,0.15,0.675,0.325]","","",""
"sailing-trial","269","1537574","0.0-11.0-234.0","","","","false","","","","","","","","","","962.2000000029802","","186.20000000298023","","0","1","arrowleft","0","arrowleft","[0.85,0.15,0.675,0.325]","","",""
"sailing-trial","270","1541491","0.0-11.0-235.0","","","","false","","","","","","","","","","null","","874.9000000059605","","2","0","null","null","arrowup","[0.85,0.15,0.675,0.325]","","",""
"sailing-trial","271","1546609","0.0-11.0-236.0","","","","false","","","","","","","","","","936.2000000029802","","106","","0","0","arrowleft","0","arrowleft","[0.675,0.325,0.85,0.15]","","",""
"sailing-trial","272","1550125","0.0-11.0-237.0","","","","false","","","","","","","","","","null","","687","","3","1","null","null","arrowup","[0.675,0.325,0.85,0.15]","","",""
"sailing-trial","273","1555059","0.0-11.0-238.0","","","","false","","","","","","","","","","780.8999999910593","","70.09999999403954","","3","0","arrowright","1","arrowright","[0.675,0.325,0.85,0.15]","","",""
"sailing-trial","274","1558924","0.0-11.0-239.0","","","","false","","","","","","","","","","null","","841.9000000059605","","3","0","null","null","arrowup","[0.675,0.325,0.85,0.15]","","",""
"sailing-trial","275","1563859","0.0-11.0-240.0","","","","false","","","","","","","","","","793.5","","33.8999999910593","","0","0","arrowleft","0","arrowleft","[0.675,0.325,0.85,0.15]","","",""
"sailing-trial","276","1566908","0.0-11.0-241.0","","","","false","","","","","","","","","","null","","653.7999999970198","","2","1","null","null","arrowup","[0.675,0.325,0.85,0.15]","","",""
"sailing-trial","277","1571225","0.0-11.0-242.0","","","","false","","","","","","","","","","718.3999999910593","","153.79999999701977","","2","1","arrowright","1","arrowleft","[0.675,0.325,0.85,0.15]","","",""
"sailing-trial","278","1575342","0.0-11.0-243.0","","","","false","","","","","","","","","","null","","1076","","3","0","null","null","arrowup","[0.675,0.325,0.85,0.15]","","",""
"sailing-trial","279","1581742","0.0-11.0-244.0","","","","false","","","","","","","","","","1024.4000000059605","","1260.7000000029802","","2","0","arrowright","1","arrowleft","[0.675,0.325,0.85,0.15]","","",""
"sailing-trial","280","1585608","0.0-11.0-245.0","","","","false","","","","","","","","","","null","","831.6000000089407","","3","0","null","null","arrowup","[0.675,0.325,0.85,0.15]","","",""
"sailing-trial","281","1591858","0.0-11.0-246.0","","","","false","","","","","","","","","","910.0999999940395","","1732.7999999970198","","0","1","arrowleft","0","arrowleft","[0.675,0.325,0.85,0.15]","","",""
"sailing-trial","282","1595841","0.0-11.0-247.0","","","","false","","","","","","","","","","null","","1553.9000000059605","","2","1","null","null","arrowup","[0.675,0.325,0.85,0.15]","","",""
"sailing-trial","283","1600358","0.0-11.0-248.0","","","","false","","","","","","","","","","832.3999999910593","","23.5","","0","1","arrowleft","0","arrowleft","[0.675,0.325,0.85,0.15]","","",""
"sailing-trial","284","1604109","0.0-11.0-249.0","","","","false","","","","","","","","","","null","","715","","3","0","null","null","arrowup","[0.675,0.325,0.85,0.15]","","",""
"sailing-trial","285","1612693","0.0-11.0-250.0","","","","false","","","","","","","","","","2912","","1558.199999988079","","0","0","arrowleft","0","arrowleft","[0.675,0.325,0.85,0.15]","","",""
"sailing-trial","286","1616625","0.0-11.0-251.0","","","","false","","","","","","","","","","null","","882.8999999910593","","3","0","null","null","arrowup","[0.675,0.325,0.85,0.15]","","",""
"sailing-trial","287","1622991","0.0-11.0-252.0","","","","false","","","","","","","","","","1547.5","","691.2999999970198","","2","0","arrowright","1","arrowleft","[0.85,0.15,0.675,0.325]","","",""
"sailing-trial","288","1626842","0.0-11.0-253.0","","","","false","","","","","","","","","","null","","825","","2","0","null","null","arrowup","[0.85,0.15,0.675,0.325]","","",""
"sailing-trial","289","1631208","0.0-11.0-254.0","","","","false","","","","","","","","","","654.7000000029802","","28.700000002980232","","0","1","arrowleft","0","arrowleft","[0.85,0.15,0.675,0.325]","","",""
"sailing-trial","290","1635326","0.0-11.0-255.0","","","","false","","","","","","","","","","null","","1082.6000000089407","","3","0","null","null","arrowup","[0.85,0.15,0.675,0.325]","","",""
"sailing-trial","291","1640074","0.0-11.0-256.0","","","","false","","","","","","","","","","682.9000000059605","","437.79999999701977","","0","1","arrowleft","0","arrowleft","[0.85,0.15,0.675,0.325]","","",""
"sailing-trial","292","1644041","0.0-11.0-257.0","","","","false","","","","","","","","","","null","","928.4000000059605","","3","0","null","null","arrowup","[0.85,0.15,0.675,0.325]","","",""
"sailing-trial","293","1648657","0.0-11.0-258.0","","","","false","","","","","","","","","","847.0999999940395","","331.20000000298023","","0","1","arrowleft","0","arrowleft","[0.85,0.15,0.675,0.325]","","",""
"sailing-trial","294","1652793","0.0-11.0-259.0","","","","false","","","","","","","","","","null","","1103.1000000089407","","1","0","null","null","arrowup","[0.85,0.15,0.675,0.325]","","",""
"sailing-trial","295","1658440","0.0-11.0-260.0","","","","false","","","","","","","","","","825.7999999970198","","759.2000000029802","","0","1","arrowleft","0","arrowleft","[0.85,0.15,0.675,0.325]","","",""
"sailing-trial","296","1662790","0.0-11.0-261.0","","","","false","","","","","","","","","","null","","1703.5999999940395","","2","1","null","null","arrowup","[0.85,0.15,0.675,0.325]","","",""
"sailing-trial","297","1667673","0.0-11.0-262.0","","","","false","","","","","","","","","","790.6999999880791","","803.5999999940395","","0","1","arrowleft","0","arrowleft","[0.85,0.15,0.675,0.325]","","",""
"sailing-trial","298","1671491","0.0-11.0-263.0","","","","false","","","","","","","","","","null","","1136.7000000029802","","2","1","null","null","arrowup","[0.85,0.15,0.675,0.325]","","",""
"sailing-trial","299","1675923","0.0-11.0-264.0","","","","false","","","","","","","","","","872.9000000059605","","64.79999999701977","","0","1","arrowleft","0","arrowleft","[0.85,0.15,0.675,0.325]","","",""
"sailing-trial","300","1679623","0.0-11.0-265.0","","","","false","","","","","","","","","","null","","1071.699999988079","","2","1","null","null","arrowup","[0.85,0.15,0.675,0.325]","","",""
"sailing-trial","301","1684808","0.0-11.0-266.0","","","","false","","","","","","","","","","769","","299.8999999910593","","0","0","arrowleft","0","arrowleft","[0.85,0.15,0.675,0.325]","","",""
"sailing-trial","302","1688323","0.0-11.0-267.0","","","","false","","","","","","","","","","null","","684.3000000119209","","3","1","null","null","arrowup","[0.85,0.15,0.675,0.325]","","",""
"sailing-trial","303","1693858","0.0-11.0-268.0","","","","false","","","","","","","","","","833.3999999910593","","594.5999999940395","","0","0","arrowleft","0","arrowleft","[0.325,0.675,0.15,0.85]","","",""
"sailing-trial","304","1697440","0.0-11.0-269.0","","","","false","","","","","","","","","","null","","695.9000000059605","","3","1","null","null","arrowup","[0.325,0.675,0.15,0.85]","","",""
"sailing-trial","305","1702322","0.0-11.0-270.0","","","","false","","","","","","","","","","654.4000000059605","","649.3999999910593","","3","1","arrowright","1","arrowright","[0.325,0.675,0.15,0.85]","","",""
"sailing-trial","306","1705573","0.0-11.0-271.0","","","","false","","","","","","","","","","null","","777.7999999970198","","0","1","null","null","arrowup","[0.325,0.675,0.15,0.85]","","",""
"sailing-trial","307","1709973","0.0-11.0-272.0","","","","false","","","","","","","","","","862.4000000059605","","10.099999994039536","","3","1","arrowright","1","arrowright","[0.325,0.675,0.15,0.85]","","",""
"sailing-trial","308","1713490","0.0-11.0-273.0","","","","false","","","","","","","","","","null","","879.4000000059605","","1","1","null","null","arrowup","[0.325,0.675,0.15,0.85]","","",""
"sailing-trial","309","1717856","0.0-11.0-274.0","","","","false","","","","","","","","","","673.7000000029802","","131.29999999701977","","3","1","arrowright","1","arrowright","[0.325,0.675,0.15,0.85]","","",""
"sailing-trial","310","1721757","0.0-11.0-275.0","","","","false","","","","","","","","","","null","","868","","0","0","null","null","arrowup","[0.325,0.675,0.15,0.85]","","",""
"sailing-trial","311","1726407","0.0-11.0-276.0","","","","false","","","","","","","","","","829.7999999970198","","161","","3","1","arrowright","1","arrowright","[0.325,0.675,0.15,0.85]","","",""
"sailing-trial","312","1730507","0.0-11.0-277.0","","","","false","","","","","","","","","","null","","1047.0999999940395","","1","0","null","null","arrowup","[0.325,0.675,0.15,0.85]","","",""
"sailing-trial","313","1735107","0.0-11.0-278.0","","","","false","","","","","","","","","","923","","136.1000000089407","","3","1","arrowright","1","arrowright","[0.325,0.675,0.15,0.85]","","",""
"sailing-trial","314","1740174","0.0-11.0-279.0","","","","false","","","","","","","","","","null","","2410.9000000059605","","3","1","null","null","arrowup","[0.325,0.675,0.15,0.85]","","",""
"sailing-trial","315","1744906","0.0-11.0-280.0","","","","false","","","","","","","","","","746.2999999970198","","596","","3","1","arrowright","1","arrowright","[0.325,0.675,0.15,0.85]","","",""
"sailing-trial","316","1749007","0.0-11.0-281.0","","","","false","","","","","","","","","","null","","1048.5999999940395","","2","0","null","null","arrowup","[0.325,0.675,0.15,0.85]","","",""
"sailing-trial","317","1754623","0.0-11.0-282.0","","","","false","","","","","","","","","","663.0999999940395","","1350.1000000089407","","3","1","arrowright","1","arrowright","[0.325,0.675,0.15,0.85]","","",""
"sailing-trial","318","1757756","0.0-11.0-283.0","","","","false","","","","","","","","","","null","","730.2000000029802","","1","1","null","null","arrowup","[0.325,0.675,0.15,0.85]","","",""
"sailing-trial","319","1762240","0.0-11.0-284.0","","","","false","","","","","","","","","","741.7000000029802","","69","","3","1","arrowright","1","arrowright","[0.325,0.675,0.15,0.85]","","",""
"sailing-trial","320","1767323","0.0-11.0-285.0","","","","false","","","","","","","","","","null","","2059.5","","0","0","null","null","arrowup","[0.325,0.675,0.15,0.85]","","",""
"sailing-trial","321","1773056","0.0-11.0-286.0","","","","false","","","","","","","","","","829.7999999970198","","792.0999999940395","","3","0","arrowright","1","arrowright","[0.15,0.85,0.325,0.675]","","",""
"sailing-trial","322","1776139","0.0-11.0-287.0","","","","false","","","","","","","","","","null","","644.6999999880791","","2","1","null","null","arrowup","[0.15,0.85,0.325,0.675]","","",""
"sailing-trial","323","1781723","0.0-11.0-288.0","","","","false","","","","","","","","","","906.7000000029802","","871.5","","2","1","arrowright","1","arrowleft","[0.15,0.85,0.325,0.675]","","",""
"sailing-trial","324","1785722","0.0-11.0-289.0","","","","false","","","","","","","","","","null","","1232","","1","1","null","null","arrowup","[0.15,0.85,0.325,0.675]","","",""
"sailing-trial","325","1790956","0.0-11.0-290.0","","","","false","","","","","","","","","","832.8000000119209","","300.90000000596046","","2","0","arrowright","1","arrowleft","[0.15,0.85,0.325,0.675]","","",""
"sailing-trial","326","1795289","0.0-11.0-291.0","","","","false","","","","","","","","","","null","","681.1000000089407","","3","1","null","null","arrowup","[0.15,0.85,0.325,0.675]","","",""
"sailing-trial","327","1800588","0.0-11.0-292.0","","","","false","","","","","","","","","","998.5","","854.2999999970198","","3","1","arrowright","1","arrowright","[0.15,0.85,0.325,0.675]","","",""
"sailing-trial","328","1804689","0.0-11.0-293.0","","","","false","","","","","","","","","","null","","1292.2999999970198","","2","1","null","null","arrowup","[0.15,0.85,0.325,0.675]","","",""
"sailing-trial","329","1809872","0.0-11.0-294.0","","","","false","","","","","","","","","","1064.1000000089407","","679.5","","3","1","arrowright","1","arrowright","[0.15,0.85,0.325,0.675]","","",""
"sailing-trial","330","1814939","0.0-11.0-295.0","","","","false","","","","","","","","","","null","","709","","1","1","null","null","arrowup","[0.15,0.85,0.325,0.675]","","",""
"sailing-trial","331","1819857","0.0-11.0-296.0","","","","false","","","","","","","","","","723.7999999970198","","81.80000001192093","","3","0","arrowright","1","arrowright","[0.15,0.85,0.325,0.675]","","",""
"sailing-trial","332","1823089","0.0-11.0-297.0","","","","false","","","","","","","","","","null","","891","","3","1","null","null","arrowup","[0.15,0.85,0.325,0.675]","","",""
"sailing-trial","333","1827738","0.0-11.0-298.0","","","","false","","","","","","","","","","699.8999999910593","","528.5999999940395","","3","1","arrowright","1","arrowright","[0.15,0.85,0.325,0.675]","","",""
"sailing-trial","334","1831923","0.0-11.0-299.0","","","","false","","","","","","","","","","null","","1150.7999999970198","","2","0","null","null","arrowup","[0.15,0.85,0.325,0.675]","","",""
"sailing-trial","335","1836105","0.0-11.0-300.0","","","","false","","","","","","","","","","787.4000000059605","","65.70000000298023","","3","1","arrowright","1","arrowright","[0.15,0.85,0.325,0.675]","","",""
"sailing-trial","336","1839355","0.0-11.0-301.0","","","","false","","","","","","","","","","null","","779.4000000059605","","1","1","null","null","arrowup","[0.15,0.85,0.325,0.675]","","",""
"sailing-trial","337","1843972","0.0-11.0-302.0","","","","false","","","","","","","","","","1114.2999999970198","","34","","3","1","arrowright","1","arrowright","[0.15,0.85,0.325,0.675]","","",""
"sailing-trial","338","1847055","0.0-11.0-303.0","","","","false","","","","","","","","","","null","","925.2999999970198","","0","1","null","null","arrowup","[0.15,0.85,0.325,0.675]","","",""
"sailing-trial","339","1852622","0.0-11.0-304.0","","","","false","","","","","","","","","","704.5999999940395","","792.5999999940395","","3","0","arrowright","1","arrowright","[0.15,0.85,0.325,0.675]","","",""
"sailing-trial","340","1856405","0.0-11.0-305.0","","","","false","","","","","","","","","","null","","757.2000000029802","","3","0","null","null","arrowup","[0.15,0.85,0.325,0.675]","","",""
"sailing-trial","341","1860572","0.0-11.0-306.0","","","","false","","","","","","","","","","829.1999999880791","","29.30000001192093","","0","1","arrowleft","0","arrowleft","[0.325,0.675,0.15,0.85]","","",""
"sailing-trial","342","1864439","0.0-11.0-307.0","","","","false","","","","","","","","","","null","","843.5","","1","0","null","null","arrowup","[0.325,0.675,0.15,0.85]","","",""
"sailing-trial","343","1868603","0.0-11.0-308.0","","","","false","","","","","","","","","","659.6000000089407","","92.20000000298023","","0","1","arrowleft","0","arrowleft","[0.325,0.675,0.15,0.85]","","",""
"sailing-trial","344","1871838","0.0-11.0-309.0","","","","false","","","","","","","","","","null","","1017","","0","1","null","null","arrowup","[0.325,0.675,0.15,0.85]","","",""
"sailing-trial","345","1876755","0.0-11.0-310.0","","","","false","","","","","","","","","","755.7999999970198","","722.9000000059605","","0","1","arrowleft","0","arrowleft","[0.325,0.675,0.15,0.85]","","",""
"sailing-trial","346","1879954","0.0-11.0-311.0","","","","false","","","","","","","","","","null","","940.3999999910593","","3","1","null","null","arrowup","[0.325,0.675,0.15,0.85]","","",""
"sailing-trial","347","1885839","0.0-11.0-312.0","","","","false","","","","","","","","","","1588.5","","190.5","","0","0","arrowleft","0","arrowleft","[0.325,0.675,0.15,0.85]","","",""
"sailing-trial","348","1888956","0.0-11.0-313.0","","","","false","","","","","","","","","","null","","78.8999999910593","","0","0","null","null","arrowup","[0.325,0.675,0.15,0.85]","","",""
"sailing-trial","349","1893355","0.0-11.0-314.0","","","","false","","","","","","","","","","716","","141.6000000089407","","3","1","arrowright","1","arrowright","[0.325,0.675,0.15,0.85]","","",""
"sailing-trial","350","1896272","0.0-11.0-315.0","","","","false","","","","","","","","","","null","","715.7999999970198","","3","1","null","null","arrowup","[0.325,0.675,0.15,0.85]","","",""
"sailing-trial","351","1900704","0.0-11.0-316.0","","","","false","","","","","","","","","","822","","149.70000000298023","","3","1","arrowright","1","arrowright","[0.325,0.675,0.15,0.85]","","",""
"sailing-trial","352","1905004","0.0-11.0-317.0","","","","false","","","","","","","","","","null","","1278.7999999970198","","2","0","null","null","arrowup","[0.325,0.675,0.15,0.85]","","",""
"sailing-trial","353","1909588","0.0-11.0-318.0","","","","false","","","","","","","","","","848.1000000089407","","150.29999999701977","","3","1","arrowright","1","arrowright","[0.325,0.675,0.15,0.85]","","",""
"sailing-trial","354","1913556","0.0-11.0-319.0","","","","false","","","","","","","","","","null","","922.3999999910593","","0","0","null","null","arrowup","[0.325,0.675,0.15,0.85]","","",""
"sailing-trial","355","1918020","0.0-11.0-320.0","","","","false","","","","","","","","","","912.5","","216.29999999701977","","3","1","arrowright","1","arrowright","[0.325,0.675,0.15,0.85]","","",""
"sailing-trial","356","1921371","0.0-11.0-321.0","","","","false","","","","","","","","","","null","","786.3999999910593","","3","1","null","null","arrowup","[0.325,0.675,0.15,0.85]","","",""
"sailing-trial","357","1926887","0.0-11.0-322.0","","","","false","","","","","","","","","","824.7000000029802","","849","","3","1","arrowright","1","arrowright","[0.325,0.675,0.15,0.85]","","",""
"sailing-trial","358","1930054","0.0-11.0-323.0","","","","false","","","","","","","","","","null","","792.0999999940395","","3","1","null","null","arrowup","[0.325,0.675,0.15,0.85]","","",""
"sailing-trial","359","1934754","0.0-11.0-324.0","","","","false","","","","","","","","","","823.5","","442.1000000089407","","3","1","arrowright","1","arrowright","[0.325,0.675,0.15,0.85]","","",""
"sailing-trial","360","1939388","0.0-11.0-325.0","","","","false","","","","","","","","","","null","","2298.5","","2","1","null","null","arrowup","[0.325,0.675,0.15,0.85]","","",""
"sailing-trial","361","1943520","0.0-11.0-326.0","","","","false","","","","","","","","","","755.5","","3.9000000059604645","","3","1","arrowright","1","arrowright","[0.15,0.85,0.325,0.675]","","",""
"sailing-trial","362","1947555","0.0-11.0-327.0","","","","false","","","","","","","","","","null","","997.4000000059605","","0","0","null","null","arrowup","[0.15,0.85,0.325,0.675]","","",""
"sailing-trial","363","1952886","0.0-11.0-328.0","","","","false","","","","","","","","","","817","","1072.5","","3","1","arrowright","1","arrowright","[0.15,0.85,0.325,0.675]","","",""
"sailing-trial","364","1956088","0.0-11.0-329.0","","","","false","","","","","","","","","","null","","826.6000000089407","","3","1","null","null","arrowup","[0.15,0.85,0.325,0.675]","","",""
"sailing-trial","365","1961821","0.0-11.0-330.0","","","","false","","","","","","","","","","934.5","","710.2999999970198","","3","0","arrowright","1","arrowright","[0.15,0.85,0.325,0.675]","","",""
"sailing-trial","366","1965454","0.0-11.0-331.0","","","","false","","","","","","","","","","null","","597.0999999940395","","2","0","null","null","arrowup","[0.15,0.85,0.325,0.675]","","",""
"sailing-trial","367","1972221","0.0-11.0-332.0","","","","false","","","","","","","","","","1098.2000000029802","","1552.199999988079","","0","0","arrowleft","0","arrowleft","[0.15,0.85,0.325,0.675]","","",""
"sailing-trial","368","1975586","0.0-11.0-333.0","","","","false","","","","","","","","","","null","","693.5","","2","1","null","null","arrowup","[0.15,0.85,0.325,0.675]","","",""
"sailing-trial","369","1981088","0.0-11.0-334.0","","","","false","","","","","","","","","","790.7999999970198","","592.8999999910593","","2","0","arrowright","1","arrowleft","[0.15,0.85,0.325,0.675]","","",""
"sailing-trial","370","1985136","0.0-11.0-335.0","","","","false","","","","","","","","","","null","","1006","","0","0","null","null","arrowup","[0.15,0.85,0.325,0.675]","","",""
"sailing-trial","371","1989335","0.0-11.0-336.0","","","","false","","","","","","","","","","765.0999999940395","","17.399999991059303","","3","1","arrowright","1","arrowright","[0.15,0.85,0.325,0.675]","","",""
"sailing-trial","372","1993204","0.0-11.0-337.0","","","","false","","","","","","","","","","null","","823.2999999970198","","0","0","null","null","arrowup","[0.15,0.85,0.325,0.675]","","",""
"sailing-trial","373","1998921","0.0-11.0-338.0","","","","false","","","","","","","","","","729","","885","","3","0","arrowright","1","arrowright","[0.15,0.85,0.325,0.675]","","",""
"sailing-trial","374","2002770","0.0-11.0-339.0","","","","false","","","","","","","","","","null","","800.5","","3","0","null","null","arrowup","[0.15,0.85,0.325,0.675]","","",""
"sailing-trial","375","2009969","0.0-11.0-340.0","","","","false","","","","","","","","","","2991.3999999910593","","774.8999999910593","","3","1","arrowright","1","arrowright","[0.15,0.85,0.325,0.675]","","",""
"sailing-trial","376","2012969","0.0-11.0-341.0","","","","false","","","","","","","","","","null","","662.5","","3","1","null","null","arrowup","[0.15,0.85,0.325,0.675]","","",""
"sailing-trial","377","2017103","0.0-11.0-342.0","","","","false","","","","","","","","","","715.9000000059605","","60.099999994039536","","3","1","arrowright","1","arrowright","[0.15,0.85,0.325,0.675]","","",""
"sailing-trial","378","2020735","0.0-11.0-343.0","","","","false","","","","","","","","","","null","","1278.0999999940395","","2","1","null","null","arrowup","[0.15,0.85,0.325,0.675]","","",""
"sailing-trial","379","2024902","0.0-11.0-344.0","","","","false","","","","","","","","","","677.1000000089407","","8.5","","3","1","arrowright","1","arrowright","[0.15,0.85,0.325,0.675]","","",""
"sailing-trial","380","2028653","0.0-11.0-345.0","","","","false","","","","","","","","","","null","","725.9000000059605","","2","0","null","null","arrowup","[0.15,0.85,0.325,0.675]","","",""
"sailing-trial","381","2033669","0.0-11.0-346.0","","","","false","","","","","","","","","","793","","414.1000000089407","","3","1","arrowright","1","arrowright","[0.325,0.675,0.15,0.85]","","",""
"sailing-trial","382","2037537","0.0-11.0-347.0","","","","false","","","","","","","","","","null","","844.2000000029802","","0","0","null","null","arrowup","[0.325,0.675,0.15,0.85]","","",""
"sailing-trial","383","2042219","0.0-11.0-348.0","","","","false","","","","","","","","","","732.0999999940395","","445.8999999910593","","3","1","arrowright","1","arrowright","[0.325,0.675,0.15,0.85]","","",""
"sailing-trial","384","2046037","0.0-11.0-349.0","","","","false","","","","","","","","","","null","","786","","0","0","null","null","arrowup","[0.325,0.675,0.15,0.85]","","",""
"sailing-trial","385","2050436","0.0-11.0-350.0","","","","false","","","","","","","","","","706.5999999940395","","169.40000000596046","","3","1","arrowright","1","arrowright","[0.325,0.675,0.15,0.85]","","",""
"sailing-trial","386","2054369","0.0-11.0-351.0","","","","false","","","","","","","","","","null","","909.7000000029802","","0","0","null","null","arrowup","[0.325,0.675,0.15,0.85]","","",""
"sailing-trial","387","2058251","0.0-11.0-352.0","","","","false","","","","","","","","","","546","","29.799999997019768","","3","1","arrowright","1","arrowright","[0.325,0.675,0.15,0.85]","","",""
"sailing-trial","388","2062919","0.0-11.0-353.0","","","","false","","","","","","","","","","null","","1020.2000000029802","","3","1","null","null","arrowup","[0.325,0.675,0.15,0.85]","","",""
"sailing-trial","389","2067552","0.0-11.0-354.0","","","","false","","","","","","","","","","866.7000000029802","","329.70000000298023","","3","1","arrowright","1","arrowright","[0.325,0.675,0.15,0.85]","","",""
"sailing-trial","390","2071002","0.0-11.0-355.0","","","","false","","","","","","","","","","null","","825.5","","1","1","null","null","arrowup","[0.325,0.675,0.15,0.85]","","",""
"sailing-trial","391","2075436","0.0-11.0-356.0","","","","false","","","","","","","","","","809.7999999970198","","237.8999999910593","","3","1","arrowright","1","arrowright","[0.325,0.675,0.15,0.85]","","",""
"sailing-trial","392","2079353","0.0-11.0-357.0","","","","false","","","","","","","","","","null","","893.8999999910593","","0","0","null","null","arrowup","[0.325,0.675,0.15,0.85]","","",""
"sailing-trial","393","2083951","0.0-11.0-358.0","","","","false","","","","","","","","","","636.6999999880791","","91.69999998807907","","3","1","arrowright","1","arrowright","[0.325,0.675,0.15,0.85]","","",""
"sailing-trial","394","2087868","0.0-11.0-359.0","","","","false","","","","","","","","","","null","","881.8999999910593","","0","0","null","null","arrowup","[0.325,0.675,0.15,0.85]","","",""
"sailing-trial","395","2094268","0.0-11.0-360.0","","","","false","","","","","","","","","","784","","216.29999999701977","","3","1","arrowright","1","arrowright","[0.325,0.675,0.15,0.85]","","",""
"sailing-trial","396","2098752","0.0-11.0-361.0","","","","false","","","","","","","","","","null","","2004.7000000029802","","1","1","null","null","arrowup","[0.325,0.675,0.15,0.85]","","",""
"sailing-trial","397","2103135","0.0-11.0-362.0","","","","false","","","","","","","","","","694.6999999880791","","323.90000000596046","","3","1","arrowright","1","arrowright","[0.325,0.675,0.15,0.85]","","",""
"sailing-trial","398","2106168","0.0-11.0-363.0","","","","false","","","","","","","","","","null","","764.8999999910593","","3","1","null","null","arrowup","[0.325,0.675,0.15,0.85]","","",""
"sailing-trial","399","2111550","0.0-11.0-364.0","","","","false","","","","","","","","","","720.8999999910593","","538.2999999970198","","3","0","arrowright","1","arrowright","[0.325,0.675,0.15,0.85]","","",""
"sailing-trial","400","2114968","0.0-11.0-365.0","","","","false","","","","","","","","","","null","","850.2000000029802","","3","1","null","null","arrowup","[0.325,0.675,0.15,0.85]","","",""
"sailing-trial","401","2119335","0.0-11.0-366.0","","","","false","","","","","","","","","","661.7000000029802","","58.29999999701977","","3","1","arrowright","1","arrowright","[0.15,0.85,0.325,0.675]","","",""
"sailing-trial","402","2123186","0.0-11.0-367.0","","","","false","","","","","","","","","","null","","824.3000000119209","","0","0","null","null","arrowup","[0.15,0.85,0.325,0.675]","","",""
"sailing-trial","403","2128151","0.0-11.0-368.0","","","","false","","","","","","","","","","829.7999999970198","","295.29999999701977","","3","1","arrowright","1","arrowright","[0.15,0.85,0.325,0.675]","","",""
"sailing-trial","404","2134053","0.0-11.0-369.0","","","","false","","","","","","","","","","null","","2852.7999999970198","","0","0","null","null","arrowup","[0.15,0.85,0.325,0.675]","","",""
"sailing-trial","405","2139917","0.0-11.0-370.0","","","","false","","","","","","","","","","1076.5","","1213.300000011921","","3","1","arrowright","1","arrowright","[0.15,0.85,0.325,0.675]","","",""
"sailing-trial","406","2144118","0.0-11.0-371.0","","","","false","","","","","","","","","","null","","1272.0999999940395","","1","1","null","null","arrowup","[0.15,0.85,0.325,0.675]","","",""
"sailing-trial","407","2150419","0.0-11.0-372.0","","","","false","","","","","","","","","","1877.0999999940395","","327.40000000596046","","3","0","arrowright","1","arrowright","[0.15,0.85,0.325,0.675]","","",""
"sailing-trial","408","2154285","0.0-11.0-373.0","","","","false","","","","","","","","","","null","","831.5","","0","0","null","null","arrowup","[0.15,0.85,0.325,0.675]","","",""
"sailing-trial","409","2159836","0.0-11.0-374.0","","","","false","","","","","","","","","","882.8999999910593","","571","","3","0","arrowright","1","arrowright","[0.15,0.85,0.325,0.675]","","",""
"sailing-trial","410","2164151","0.0-11.0-375.0","","","","false","","","","","","","","","","null","","1263.4000000059605","","2","0","null","null","arrowup","[0.15,0.85,0.325,0.675]","","",""
"sailing-trial","411","2168834","0.0-11.0-376.0","","","","false","","","","","","","","","","788.0999999940395","","422.20000000298023","","1","1","arrowleft","0","arrowright","[0.15,0.85,0.325,0.675]","","",""
"sailing-trial","412","2172667","0.0-11.0-377.0","","","","false","","","","","","","","","","null","","809.7000000029802","","3","0","null","null","arrowup","[0.15,0.85,0.325,0.675]","","",""
"sailing-trial","413","2177367","0.0-11.0-378.0","","","","false","","","","","","","","","","738.5999999940395","","351","","1","1","arrowleft","0","arrowright","[0.15,0.85,0.325,0.675]","","",""
"sailing-trial","414","2181068","0.0-11.0-379.0","","","","false","","","","","","","","","","null","","1193.6000000089407","","3","1","null","null","arrowup","[0.15,0.85,0.325,0.675]","","",""
"sailing-trial","415","2187051","0.0-11.0-380.0","","","","false","","","","","","","","","","1589.9000000059605","","655.6000000089407","","1","1","arrowleft","0","arrowright","[0.15,0.85,0.325,0.675]","","",""
"sailing-trial","416","2191069","0.0-11.0-381.0","","","","false","","","","","","","","","","null","","969.5","","0","0","null","null","arrowup","[0.15,0.85,0.325,0.675]","","",""
"sailing-trial","417","2196585","0.0-11.0-382.0","","","","false","","","","","","","","","","731","","697.7999999970198","","1","0","arrowleft","0","arrowright","[0.675,0.325,0.85,0.15]","","",""
"sailing-trial","418","2200334","0.0-11.0-383.0","","","","false","","","","","","","","","","null","","700.9000000059605","","1","0","null","null","arrowup","[0.675,0.325,0.85,0.15]","","",""
"sailing-trial","419","2205101","0.0-11.0-384.0","","","","false","","","","","","","","","","661.1999999880791","","21.5","","3","0","arrowright","1","arrowright","[0.675,0.325,0.85,0.15]","","",""
"sailing-trial","420","2208818","0.0-11.0-385.0","","","","false","","","","","","","","","","null","","668.8999999910593","","3","0","null","null","arrowup","[0.675,0.325,0.85,0.15]","","",""
"sailing-trial","421","2213851","0.0-11.0-386.0","","","","false","","","","","","","","","","1268.9000000059605","","49.5","","2","1","arrowright","1","arrowleft","[0.675,0.325,0.85,0.15]","","",""
"sailing-trial","422","2217050","0.0-11.0-387.0","","","","false","","","","","","","","","","null","","752.2999999970198","","2","1","null","null","arrowup","[0.675,0.325,0.85,0.15]","","",""
"sailing-trial","423","2221601","0.0-11.0-388.0","","","","false","","","","","","","","","","871.6000000089407","","102.1000000089407","","2","1","arrowright","1","arrowleft","[0.675,0.325,0.85,0.15]","","",""
"sailing-trial","424","2225417","0.0-11.0-389.0","","","","false","","","","","","","","","","null","","726","","0","1","null","null","arrowup","[0.675,0.325,0.85,0.15]","","",""
"sailing-trial","425","2231333","0.0-11.0-390.0","","","","false","","","","","","","","","","1567.2999999970198","","1172","","2","1","arrowright","1","arrowleft","[0.675,0.325,0.85,0.15]","","",""
"sailing-trial","426","2236522","0.0-11.0-391.0","","","","false","","","","","","","","","","null","","2138","","0","0","null","null","arrowup","[0.675,0.325,0.85,0.15]","","",""
"sailing-trial","427","2240967","0.0-11.0-392.0","","","","false","","","","","","","","","","667.9000000059605","","75.79999999701977","","2","1","arrowright","1","arrowleft","[0.675,0.325,0.85,0.15]","","",""
"sailing-trial","428","2245449","0.0-11.0-393.0","","","","false","","","","","","","","","","null","","1458.0999999940395","","3","0","null","null","arrowup","[0.675,0.325,0.85,0.15]","","",""
"sailing-trial","429","2251266","0.0-11.0-394.0","","","","false","","","","","","","","","","1234.699999988079","","793.5","","2","1","arrowright","1","arrowleft","[0.675,0.325,0.85,0.15]","","",""
"sailing-trial","430","2255816","0.0-11.0-395.0","","","","false","","","","","","","","","","null","","1519.5","","1","0","null","null","arrowup","[0.675,0.325,0.85,0.15]","","",""
"sailing-trial","431","2261300","0.0-11.0-396.0","","","","false","","","","","","","","","","966.5","","711.7999999970198","","2","1","arrowright","1","arrowleft","[0.675,0.325,0.85,0.15]","","",""
"sailing-trial","432","2266101","0.0-11.0-397.0","","","","false","","","","","","","","","","null","","1771.3999999910593","","1","0","null","null","arrowup","[0.675,0.325,0.85,0.15]","","",""
"sailing-trial","433","2276517","0.0-11.0-398.0","","","","false","","","","","","","","","","6591.600000008941","","31","","2","1","arrowright","1","arrowleft","[0.675,0.325,0.85,0.15]","","",""
"sailing-trial","434","2280416","0.0-11.0-399.0","","","","false","","","","","","","","","","null","","1392.5999999940395","","3","1","null","null","arrowup","[0.675,0.325,0.85,0.15]","","",""
"instructions","435","2284741","0.0-12.0","","","","","","","","","","4324.29999999702","","","","","","","","","","","","","","","","[{""page_index"":0,""viewing_time"":4323.699999988079}]"
"survey-debrief","436","2302675","0.0-13.0","","","","","","","","","","17932","","","","","","","","","","","","","","{""difficulty"":""5"",""fun"":""5"",""clarity"":""5"",""strategy"":""no"",""feedback"":""no""}","",""
