"trial_type","trial_index","time_elapsed","internal_node_id","value","metadata","success","timeout","failed_images","failed_audio","failed_video","browser_interaction","low_quality","rt","stimulus","response","button_pressed","island_rt","island_response","boat_rt","boat_response","boat","reward","island_key","island","boat_key","reward_probabilities","responses","num_errors","view_history"
"pavlovia","0","2","0.0-0.0","","","","","","","","","","","","","","","","","","","","","","","","","",""
"call-function","1","2","0.0-1.0","","{""task_version"":""sailing_part1_v1"",""task_condition"":""good"",""boats"":[""B"",""D"",""C"",""A""],""boats_demo"":[""F"",""H"",""G"",""E""],""islands"":[""B"",""A""],""subject_id"":""14955"",""age"":""21"",""gender"":""Male""}","","","","","","","","","","","","","","","","","","","","","","","",""
"preload","2","11071","0.0-2.0","","","true","false","[]","[]","[]","[{""event"":""fullscreenenter"",""trial"":3,""time"":13975}]","false","","","","","","","","","","","","","","","","",""
"fullscreen","3","14965","0.0-3.0","","","true","","","","","","","","","","","","","","","","","","","","","","",""
"audio-keyboard-response","4","16659","0.0-4.0-0.0","","","","","","","","","","1669.3333333333333","audio/beep_loop.wav"," ","","","","","","","","","","","","","",""
"audio-test","5","17872","0.0-4.0-1.0","","","","","","","","","","null","audio/turtle.mp3","","3","","","","","","","","","","","","",""
"audio-test","6","21380","0.0-4.0-2.0","","","","","","","","","","null","audio/shark.mp3","","2","","","","","","","","","","","","",""
"sailing-instructions","7","50231","0.0-5.0-0.0-0.0","","","","","","","","","","","","","","null","null","null","null","null","null","","","","","","",""
"sailing-trial","8","52698","0.0-5.0-0.0-1.0-0.0","","","","false","","","","","","","","","","1353","","null","","null","null","arrowleft","0","null","null","","",""
"sailing-trial","9","54794","0.0-5.0-0.0-1.0-1.0","","","","false","","","","","","","","","","987","","null","","null","null","arrowright","1","null","null","","",""
"sailing-trial","10","57650","0.0-5.0-0.0-1.0-2.0","","","","false","","","","","","","","","","1735","","null","","null","null","arrowleft","0","null","null","","",""
"sailing-instructions","11","97631","0.0-5.0-0.0-2.0","","","","","","","","","","","","","","null","null","null","null","0","null","","","","","","",""
"sailing-trial","12","102188","0.0-5.0-0.0-3.0-0.0","","","","false","","","","","","","","","","null","","1637","","2","1","null","null","arrowleft","[1,1,1,1]","","",""
"sailing-trial","13","106579","0.0-5.0-0.0-3.0-1.0","","","","false","","","","","","","","","","null","","1337","","3","1","null","null","arrowright","[1,1,1,1]","","",""
"sailing-trial","14","110104","0.0-5.0-0.0-3.0-2.0","","","","false","","","","","","","","","","null","","1034","","2","0","null","null","arrowleft","[0,0,0,0]","","",""
"sailing-instructions","15","117136","0.0-5.0-0.0-4.0","","","","","","","","","","","","","","null","null","null","null","null","null","","","","","","",""
"sailing-comprehension","16","133235","0.0-5.0-0.0-5.0","","","","","","","","","","11055","","","","","","","","","","","","","","[""true"",""false"",""false"",""true""]","1",""
"sailing-instructions","17","159754","0.0-5.0-0.1-0.1","","","","","","","","","","","","","","null","null","null","null","null","null","","","","","","",""
"sailing-trial","18","162142","0.0-5.0-0.1-1.1-0.1","","","","false","","","","","","","","","","1279","","null","","null","null","arrowleft","0","null","null","","",""
"sailing-trial","19","163311","0.0-5.0-0.1-1.1-1.1","","","","false","","","","","","","","","","39","","null","","null","null","arrowright","1","null","null","","",""
"sailing-trial","20","164534","0.0-5.0-0.1-1.1-2.1","","","","false","","","","","","","","","","107","","null","","null","null","arrowleft","0","null","null","","",""
"sailing-instructions","21","202250","0.0-5.0-0.1-2.1","","","","","","","","","","","","","","null","null","null","null","0","null","","","","","","",""
"sailing-trial","22","205780","0.0-5.0-0.1-3.1-0.1","","","","false","","","","","","","","","","null","","660","","2","1","null","null","arrowleft","[1,1,1,1]","","",""
"sailing-trial","23","207881","0.0-5.0-0.1-3.1-1.1","","","","false","","","","","","","","","","null","","41","","3","1","null","null","arrowright","[1,1,1,1]","","",""
"sailing-trial","24","209532","0.0-5.0-0.1-3.1-2.1","","","","false","","","","","","","","","","null","","32","","2","0","null","null","arrowleft","[0,0,0,0]","","",""
"sailing-instructions","25","216788","0.0-5.0-0.1-4.1","","","","","","","","","","","","","","null","null","null","null","null","null","","","","","","",""
"sailing-comprehension","26","227232","0.0-5.0-0.1-5.1","","","","","","","","","","8982","","","","","","","","","","","","","","[""true"",""true"",""false"",""true""]","0",""
"sailing-instructions","27","284742","0.0-6.0-0.0-0.0","","","","","","","","","","","","","","null","null","null","null","null","null","","","","","","",""
"sailing-comprehension","28","299511","0.0-6.0-0.0-1.0","","","","","","","","","","13473","","","","","","","","","","","","","","[""true"",""false"",""true""]","0",""
"sailing-instructions","29","312934","0.0-7.0-0.0-0.0","","","","","","","","","","","","","","null","null","null","null","null","null","","","","","","",""
"sailing-trial","30","317852","0.0-7.0-0.0-1.0-0.0","","","","false","","","","","","","","","","null","","2723","","0","0","null","null","arrowup","[0.2,0.8,0.2,0.8]","","",""
"sailing-trial","31","320914","0.0-7.0-0.0-1.0-1.0","","","","false","","","","","","","","","","null","","1087","","1","0","null","null","arrowup","[0.2,0.8,0.2,0.8]","","",""
"sailing-trial","32","323870","0.0-7.0-0.0-1.0-2.0","","","","false","","","","","","","","","","null","","1153","","2","0","null","null","arrowup","[0.2,0.8,0.2,0.8]","","",""
"sailing-trial","33","326837","0.0-7.0-0.0-1.0-3.0","","","","false","","","","","","","","","","null","","1195","","3","1","null","null","arrowup","[0.2,0.8,0.2,0.8]","","",""
"sailing-comprehension","34","332948","0.0-7.0-0.0-2.0","","","","","","","","","","4841","","","","","","","","","","","","","","[""false""]","0",""
"sailing-instructions","35","342595","0.0-8.0-0.0-0.0","","","","","","","","","","","","","","null","null","null","null","null","null","","","","","","",""
"sailing-comprehension","36","346356","0.0-8.0-0.0-1.0","","","","","","","","","","2732","","","","","","","","","","","","","","[""true""]","0",""
"sailing-instructions","37","378678","0.0-9.0-0.0-0.0","","","","","","","","","","","","","","null","null","null","null","null","null","","","","","","",""
"sailing-trial","38","384037","0.0-9.0-0.0-1.0-0.0","","","","false","","","","","","","","","","1415","","454","","3","1","arrowright","1","arrowright","[0.2,0.8,0.2,0.8]","","",""
"sailing-trial","39","388386","0.0-9.0-0.0-1.0-1.0","","","","false","","","","","","","","","","1223","","268","","2","0","arrowright","1","arrowleft","[0.2,0.8,0.2,0.8]","","",""
"sailing-trial","40","391542","0.0-9.0-0.0-1.0-2.0","","","","false","","","","","","","","","","null","","1309","","0","0","null","null","arrowup","[0.2,0.8,0.2,0.8]","","",""
"sailing-trial","41","395687","0.0-9.0-0.0-1.0-3.0","","","","false","","","","","","","","","","954","","358","","0","0","arrowleft","0","arrowleft","[0.2,0.8,0.2,0.8]","","",""
"sailing-trial","42","398854","0.0-9.0-0.0-1.0-4.0","","","","false","","","","","","","","","","null","","1276","","3","1","null","null","arrowup","[0.2,0.8,0.2,0.8]","","",""
"sailing-trial","43","402501","0.0-9.0-0.0-1.0-5.0","","","","false","","","","","","","","","","540","","150","","1","1","arrowleft","0","arrowright","[0.2,0.8,0.2,0.8]","","",""
"sailing-instructions","44","427118","0.0-10.0","","","","","","","","","","","","","","null","null","null","null","null","null","","","","","","",""
"sailing-trial","45","431547","0.0-11.0-0.0","","","","false","","","","","","","","","","1087","","190","","3","1","arrowright","1","arrowright","[0.325,0.675,0.15,0.85]","","",""
"sailing-trial","46","433725","0.0-11.0-1.0","","","","false","","","","","","","","","","null","","812","","1","0","null","null","arrowup","[0.325,0.675,0.15,0.85]","","",""
"sailing-trial","47","438545","0.0-11.0-2.0","","","","false","","","","","","","","","","740","","280","","2","0","arrowright","1","arrowleft","[0.325,0.675,0.15,0.85]","","",""
"sailing-trial","48","440854","0.0-11.0-3.0","","","","false","","","","","","","","","","null","","1051","","2","0","null","null","arrowup","[0.325,0.675,0.15,0.85]","","",""
"sailing-trial","49","444192","0.0-11.0-4.0","","","","false","","","","","","","","","","586","","369","","3","0","arrowright","1","arrowright","[0.325,0.675,0.15,0.85]","","",""
"sailing-trial","50","446426","0.0-11.0-5.0","","","","false","","","","","","","","","","null","","1010","","2","0","null","null","arrowup","[0.325,0.675,0.15,0.85]","","",""
"sailing-trial","51","450318","0.0-11.0-6.0","","","","false","","","","","","","","","","630","","230","","2","1","arrowright","1","arrowleft","[0.325,0.675,0.15,0.85]","","",""
"sailing-trial","52","453049","0.0-11.0-7.0","","","","false","","","","","","","","","","null","","1245","","0","0","null","null","arrowup","[0.325,0.675,0.15,0.85]","","",""
"sailing-trial","53","456688","0.0-11.0-8.0","","","","false","","","","","","","","","","543","","155","","3","1","arrowright","1","arrowright","[0.325,0.675,0.15,0.85]","","",""
"sailing-trial","54","459710","0.0-11.0-9.0","","","","false","","","","","","","","","","null","","1306","","3","1","null","null","arrowup","[0.325,0.675,0.15,0.85]","","",""
"sailing-trial","55","462895","0.0-11.0-10.0","","","","false","","","","","","","","","","608","","264","","2","0","arrowright","1","arrowleft","[0.325,0.675,0.15,0.85]","","",""
"sailing-trial","56","464979","0.0-11.0-11.0","","","","false","","","","","","","","","","null","","805","","3","0","null","null","arrowup","[0.325,0.675,0.15,0.85]","","",""
"sailing-trial","57","468210","0.0-11.0-12.0","","","","false","","","","","","","","","","498","","330","","1","0","arrowleft","0","arrowright","[0.325,0.675,0.15,0.85]","","",""
"sailing-trial","58","470546","0.0-11.0-13.0","","","","false","","","","","","","","","","null","","566","","3","1","null","null","arrowup","[0.325,0.675,0.15,0.85]","","",""
"sailing-trial","59","473926","0.0-11.0-14.0","","","","false","","","","","","","","","","540","","313","","0","0","arrowleft","0","arrowleft","[0.325,0.675,0.15,0.85]","","",""
"sailing-trial","60","475748","0.0-11.0-15.0","","","","false","","","","","","","","","","null","","566","","3","0","null","null","arrowup","[0.325,0.675,0.15,0.85]","","",""
"sailing-trial","61","478743","0.0-11.0-16.0","","","","false","","","","","","","","","","436","","194","","1","0","arrowleft","0","arrowright","[0.325,0.675,0.15,0.85]","","",""
"sailing-trial","62","481003","0.0-11.0-17.0","","","","false","","","","","","","","","","null","","545","","3","1","null","null","arrowup","[0.325,0.675,0.15,0.85]","","",""
"sailing-trial","63","484289","0.0-11.0-18.0","","","","false","","","","","","","","","","649","","270","","0","0","arrowleft","0","arrowleft","[0.15,0.85,0.325,0.675]","","",""
"sailing-trial","64","486635","0.0-11.0-19.0","","","","false","","","","","","","","","","null","","587","","2","1","null","null","arrowup","[0.15,0.85,0.325,0.675]","","",""
"sailing-trial","65","490705","0.0-11.0-20.0","","","","false","","","","","","","","","","1132","","105","","3","1","arrowright","1","arrowright","[0.15,0.85,0.325,0.675]","","",""
"sailing-trial","66","492959","0.0-11.0-21.0","","","","false","","","","","","","","","","null","","1098","","2","0","null","null","arrowup","[0.15,0.85,0.325,0.675]","","",""
"sailing-trial","67","496343","0.0-11.0-22.0","","","","false","","","","","","","","","","438","","189","","3","1","arrowright","1","arrowright","[0.15,0.85,0.325,0.675]","","",""
"sailing-trial","68","499131","0.0-11.0-23.0","","","","false","","","","","","","","","","null","","1064","","1","1","null","null","arrowup","[0.15,0.85,0.325,0.675]","","",""
"sailing-trial","69","502706","0.0-11.0-24.0","","","","false","","","","","","","","","","457","","273","","3","1","arrowright","1","arrowright","[0.15,0.85,0.325,0.675]","","",""
"sailing-trial","70","505080","0.0-11.0-25.0","","","","false","","","","","","","","","","null","","637","","3","1","null","null","arrowup","[0.15,0.85,0.325,0.675]","","",""
"sailing-trial","71","508027","0.0-11.0-26.0","","","","false","","","","","","","","","","457","","218","","3","0","arrowright","1","arrowright","[0.15,0.85,0.325,0.675]","","",""
"sailing-trial","72","509915","0.0-11.0-27.0","","","","false","","","","","","","","","","null","","675","","0","0","null","null","arrowup","[0.15,0.85,0.325,0.675]","","",""
"sailing-trial","73","513237","0.0-11.0-28.0","","","","false","","","","","","","","","","415","","87","","3","1","arrowright","1","arrowright","[0.15,0.85,0.325,0.675]","","",""
"sailing-trial","74","515312","0.0-11.0-29.0","","","","false","","","","","","","","","","null","","875","","2","0","null","null","arrowup","[0.15,0.85,0.325,0.675]","","",""
"sailing-trial","75","519864","0.0-11.0-30.0","","","","false","","","","","","","","","","501","","376","","3","1","arrowright","1","arrowright","[0.15,0.85,0.325,0.675]","","",""
"sailing-trial","76","522196","0.0-11.0-31.0","","","","false","","","","","","","","","","null","","624","","3","1","null","null","arrowup","[0.15,0.85,0.325,0.675]","","",""
"sailing-trial","77","525836","0.0-11.0-32.0","","","","false","","","","","","","","","","464","","173","","3","1","arrowright","1","arrowright","[0.15,0.85,0.325,0.675]","","",""
"sailing-trial","78","528586","0.0-11.0-33.0","","","","false","","","","","","","","","","null","","1038","","3","1","null","null","arrowup","[0.15,0.85,0.325,0.675]","","",""
"sailing-trial","79","532349","0.0-11.0-34.0","","","","false","","","","","","","","","","612","","262","","3","1","arrowright","1","arrowright","[0.15,0.85,0.325,0.675]","","",""
"sailing-trial","80","534164","0.0-11.0-35.0","","","","false","","","","","","","","","","null","","558","","0","0","null","null","arrowup","[0.15,0.85,0.325,0.675]","","",""
"sailing-trial","81","537498","0.0-11.0-36.0","","","","false","","","","","","","","","","479","","110","","3","1","arrowright","1","arrowright","[0.325,0.675,0.15,0.85]","","",""
"sailing-trial","82","539618","0.0-11.0-37.0","","","","false","","","","","","","","","","null","","906","","2","0","null","null","arrowup","[0.325,0.675,0.15,0.85]","","",""
"sailing-trial","83","543025","0.0-11.0-38.0","","","","false","","","","","","","","","","394","","216","","3","1","arrowright","1","arrowright","[0.325,0.675,0.15,0.85]","","",""
"sailing-trial","84","545519","0.0-11.0-39.0","","","","false","","","","","","","","","","null","","654","","1","1","null","null","arrowup","[0.325,0.675,0.15,0.85]","","",""
"sailing-trial","85","549347","0.0-11.0-40.0","","","","false","","","","","","","","","","419","","311","","3","1","arrowright","1","arrowright","[0.325,0.675,0.15,0.85]","","",""
"sailing-trial","86","552068","0.0-11.0-41.0","","","","false","","","","","","","","","","null","","1303","","2","0","null","null","arrowup","[0.325,0.675,0.15,0.85]","","",""
"sailing-trial","87","555157","0.0-11.0-42.0","","","","false","","","","","","","","","","525","","156","","3","0","arrowright","1","arrowright","[0.325,0.675,0.15,0.85]","","",""
"sailing-trial","88","557653","0.0-11.0-43.0","","","","false","","","","","","","","","","null","","836","","1","1","null","null","arrowup","[0.325,0.675,0.15,0.85]","","",""
"sailing-trial","89","561319","0.0-11.0-44.0","","","","false","","","","","","","","","","432","","275","","3","1","arrowright","1","arrowright","[0.325,0.675,0.15,0.85]","","",""
"sailing-trial","90","563613","0.0-11.0-45.0","","","","false","","","","","","","","","","null","","542","","3","1","null","null","arrowup","[0.325,0.675,0.15,0.85]","","",""
"sailing-trial","91","567273","0.0-11.0-46.0","","","","false","","","","","","","","","","683","","231","","3","1","arrowright","1","arrowright","[0.325,0.675,0.15,0.85]","","",""
"sailing-trial","92","569134","0.0-11.0-47.0","","","","false","","","","","","","","","","null","","626","","2","0","null","null","arrowup","[0.325,0.675,0.15,0.85]","","",""
"sailing-trial","93","572213","0.0-11.0-48.0","","","","false","","","","","","","","","","480","","202","","3","0","arrowright","1","arrowright","[0.325,0.675,0.15,0.85]","","",""
"sailing-trial","94","574694","0.0-11.0-49.0","","","","false","","","","","","","","","","null","","771","","3","1","null","null","arrowup","[0.325,0.675,0.15,0.85]","","",""
"sailing-trial","95","578119","0.0-11.0-50.0","","","","false","","","","","","","","","","397","","298","","3","1","arrowright","1","arrowright","[0.325,0.675,0.15,0.85]","","",""
"sailing-trial","96","580282","0.0-11.0-51.0","","","","false","","","","","","","","","","null","","972","","1","0","null","null","arrowup","[0.325,0.675,0.15,0.85]","","",""
"sailing-trial","97","583908","0.0-11.0-52.0","","","","false","","","","","","","","","","437","","273","","3","1","arrowright","1","arrowright","[0.325,0.675,0.15,0.85]","","",""
"sailing-trial","98","586760","0.0-11.0-53.0","","","","false","","","","","","","","","","null","","1139","","1","0","null","null","arrowup","[0.325,0.675,0.15,0.85]","","",""
"sailing-trial","99","590756","0.0-11.0-54.0","","","","false","","","","","","","","","","393","","289","","3","1","arrowright","1","arrowright","[0.325,0.675,0.15,0.85]","","",""
"sailing-trial","100","593028","0.0-11.0-55.0","","","","false","","","","","","","","","","null","","563","","3","1","null","null","arrowup","[0.325,0.675,0.15,0.85]","","",""
"sailing-trial","101","596003","0.0-11.0-56.0","","","","false","","","","","","","","","","464","","125","","3","0","arrowright","1","arrowright","[0.325,0.675,0.15,0.85]","","",""
"sailing-trial","102","597803","0.0-11.0-57.0","","","","false","","","","","","","","","","null","","653","","2","0","null","null","arrowup","[0.325,0.675,0.15,0.85]","","",""
"sailing-trial","103","600820","0.0-11.0-58.0","","","","false","","","","","","","","","","395","","407","","3","0","arrowright","1","arrowright","[0.325,0.675,0.15,0.85]","","",""
"sailing-trial","104","603384","0.0-11.0-59.0","","","","false","","","","","","","","","","null","","826","","0","1","null","null","arrowup","[0.325,0.675,0.15,0.85]","","",""
"sailing-trial","105","606878","0.0-11.0-60.0","","","","false","","","","","","","","","","479","","232","","3","1","arrowright","1","arrowright","[0.675,0.325,0.85,0.15]","","",""
"sailing-trial","106","609332","0.0-11.0-61.0","","","","false","","","","","","","","","","null","","703","","2","1","null","null","arrowup","[0.675,0.325,0.85,0.15]","","",""
"sailing-trial","107","612214","0.0-11.0-62.0","","","","false","","","","","","","","","","444","","4","","3","0","arrowright","1","arrowright","[0.675,0.325,0.85,0.15]","","",""
"sailing-trial","108","614147","0.0-11.0-63.0","","","","false","","","","","","","","","","null","","741","","3","0","null","null","arrowup","[0.675,0.325,0.85,0.15]","","",""
"sailing-trial","109","617118","0.0-11.0-64.0","","","","false","","","","","","","","","","459","","295","","3","0","arrowright","1","arrowright","[0.675,0.325,0.85,0.15]","","",""
"sailing-trial","110","620214","0.0-11.0-65.0","","","","false","","","","","","","","","","null","","835","","1","0","null","null","arrowup","[0.675,0.325,0.85,0.15]","","",""
"sailing-trial","111","623008","0.0-11.0-66.0","","","","false","","","","","","","","","","457","","101","","3","0","arrowright","1","arrowright","[0.675,0.325,0.85,0.15]","","",""
"sailing-trial","112","625683","0.0-11.0-67.0","","","","false","","","","","","","","","","null","","980","","0","1","null","null","arrowup","[0.675,0.325,0.85,0.15]","","",""
"sailing-trial","113","629566","0.0-11.0-68.0","","","","false","","","","","","","","","","410","","535","","0","1","arrowleft","0","arrowleft","[0.675,0.325,0.85,0.15]","","",""
"sailing-trial","114","631542","0.0-11.0-69.0","","","","false","","","","","","","","","","null","","719","","0","0","null","null","arrowup","[0.675,0.325,0.85,0.15]","","",""
"sailing-trial","115","635273","0.0-11.0-70.0","","","","false","","","","","","","","","","522","","211","","1","1","arrowleft","0","arrowright","[0.675,0.325,0.85,0.15]","","",""
"sailing-trial","116","637054","0.0-11.0-71.0","","","","false","","","","","","","","","","null","","612","","3","0","null","null","arrowup","[0.675,0.325,0.85,0.15]","","",""
"sailing-trial","117","640090","0.0-11.0-72.0","","","","false","","","","","","","","","","434","","213","","1","0","arrowleft","0","arrowright","[0.675,0.325,0.85,0.15]","","",""
"sailing-trial","118","642451","0.0-11.0-73.0","","","","false","","","","","","","","","","null","","662","","2","1","null","null","arrowup","[0.675,0.325,0.85,0.15]","","",""
"sailing-trial","119","646201","0.0-11.0-74.0","","","","false","","","","","","","","","","669","","118","","2","1","arrowright","1","arrowleft","[0.675,0.325,0.85,0.15]","","",""
"sailing-trial","120","648506","0.0-11.0-75.0","","","","false","","","","","","","","","","null","","565","","2","1","null","null","arrowup","[0.675,0.325,0.85,0.15]","","",""
"sailing-trial","121","652106","0.0-11.0-76.0","","","","false","","","","","","","","","","432","","159","","2","1","arrowright","1","arrowleft","[0.675,0.325,0.85,0.15]","","",""
"sailing-trial","122","653949","0.0-11.0-77.0","","","","false","","","","","","","","","","null","","759","","1","0","null","null","arrowup","[0.675,0.325,0.85,0.15]","","",""
"sailing-trial","123","657492","0.0-11.0-78.0","","","","false","","","","","","","","","","568","","46","","2","1","arrowright","1","arrowleft","[0.85,0.15,0.675,0.325]","","",""
"sailing-trial","124","659135","0.0-11.0-79.0","","","","false","","","","","","","","","","null","","475","","1","0","null","null","arrowup","[0.85,0.15,0.675,0.325]","","",""
"sailing-trial","125","662064","0.0-11.0-80.0","","","","false","","","","","","","","","","567","","195","","2","0","arrowright","1","arrowleft","[0.85,0.15,0.675,0.325]","","",""
"sailing-trial","126","664463","0.0-11.0-81.0","","","","false","","","","","","","","","","null","","726","","3","1","null","null","arrowup","[0.85,0.15,0.675,0.325]","","",""
"sailing-trial","127","667891","0.0-11.0-82.0","","","","false","","","","","","","","","","413","","142","","2","1","arrowright","1","arrowleft","[0.85,0.15,0.675,0.325]","","",""
"sailing-trial","128","670280","0.0-11.0-83.0","","","","false","","","","","","","","","","null","","652","","0","1","null","null","arrowup","[0.85,0.15,0.675,0.325]","","",""
"sailing-trial","129","673972","0.0-11.0-84.0","","","","false","","","","","","","","","","588","","78","","2","1","arrowright","1","arrowleft","[0.85,0.15,0.675,0.325]","","",""
"sailing-trial","130","676149","0.0-11.0-85.0","","","","false","","","","","","","","","","null","","440","","2","1","null","null","arrowup","[0.85,0.15,0.675,0.325]","","",""
"sailing-trial","131","679411","0.0-11.0-86.0","","","","false","","","","","","","","","","390","","138","","2","1","arrowright","1","arrowleft","[0.85,0.15,0.675,0.325]","","",""
"sailing-trial","132","681947","0.0-11.0-87.0","","","","false","","","","","","","","","","null","","835","","2","1","null","null","arrowup","[0.85,0.15,0.675,0.325]","","",""
"sailing-trial","133","685357","0.0-11.0-88.0","","","","false","","","","","","","","","","434","","47","","2","1","arrowright","1","arrowleft","[0.85,0.15,0.675,0.325]","","",""
"sailing-trial","134","687445","0.0-11.0-89.0","","","","false","","","","","","","","","","null","","895","","1","0","null","null","arrowup","[0.85,0.15,0.675,0.325]","","",""
"sailing-trial","135","690726","0.0-11.0-90.0","","","","false","","","","","","","","","","501","","149","","2","1","arrowright","1","arrowleft","[0.85,0.15,0.675,0.325]","","",""
"sailing-trial","136","693065","0.0-11.0-91.0","","","","false","","","","","","","","","","null","","757","","2","1","null","null","arrowup","[0.85,0.15,0.675,0.325]","","",""
"sailing-trial","137","695884","0.0-11.0-92.0","","","","false","","","","","","","","","","460","","3","","2","0","arrowright","1","arrowleft","[0.85,0.15,0.675,0.325]","","",""
"sailing-trial","138","698245","0.0-11.0-93.0","","","","false","","","","","","","","","","null","","638","","0","1","null","null","arrowup","[0.85,0.15,0.675,0.325]","","",""
"sailing-trial","139","701767","0.0-11.0-94.0","","","","false","","","","","","","","","","504","","77","","2","1","arrowright","1","arrowleft","[0.85,0.15,0.675,0.325]","","",""
"sailing-trial","140","704126","0.0-11.0-95.0","","","","false","","","","","","","","","","null","","643","","2","1","null","null","arrowup","[0.85,0.15,0.675,0.325]","","",""
"sailing-trial","141","707391","0.0-11.0-96.0","","","","false","","","","","","","","","","327","","584","","2","0","arrowright","1","arrowleft","[0.85,0.15,0.675,0.325]","","",""
"sailing-trial","142","709127","0.0-11.0-97.0","","","","false","","","","","","","","","","null","","587","","3","0","null","null","arrowup","[0.85,0.15,0.675,0.325]","","",""
"sailing-trial","143","711813","0.0-11.0-98.0","","","","false","","","","","","","","","","305","","295","","2","0","arrowright","1","arrowleft","[0.85,0.15,0.675,0.325]","","",""
"sailing-trial","144","714148","0.0-11.0-99.0","","","","false","","","","","","","","","","null","","696","","0","1","null","null","arrowup","[0.85,0.15,0.675,0.325]","","",""
"sailing-trial","145","717741","0.0-11.0-100.0","","","","false","","","","","","","","","","409","","121","","0","1","arrowleft","0","arrowleft","[0.675,0.325,0.85,0.15]","","",""
"sailing-trial","146","719524","0.0-11.0-101.0","","","","false","","","","","","","","","","null","","593","","3","0","null","null","arrowup","[0.675,0.325,0.85,0.15]","","",""
"sailing-trial","147","723250","0.0-11.0-102.0","","","","false","","","","","","","","","","369","","341","","0","1","arrowleft","0","arrowleft","[0.675,0.325,0.85,0.15]","","",""
"sailing-trial","148","725353","0.0-11.0-103.0","","","","false","","","","","","","","","","null","","529","","2","1","null","null","arrowup","[0.675,0.325,0.85,0.15]","","",""
"sailing-trial","149","728769","0.0-11.0-104.0","","","","false","","","","","","","","","","571","","113","","0","1","arrowleft","0","arrowleft","[0.675,0.325,0.85,0.15]","","",""
"sailing-trial","150","730685","0.0-11.0-105.0","","","","false","","","","","","","","","","null","","747","","3","0","null","null","arrowup","[0.675,0.325,0.85,0.15]","","",""
"sailing-trial","151","734334","0.0-11.0-106.0","","","","false","","","","","","","","","","586","","56","","0","1","arrowleft","0","arrowleft","[0.675,0.325,0.85,0.15]","","",""
"sailing-trial","152","736837","0.0-11.0-107.0","","","","false","","","","","","","","","","null","","786","","1","1","null","null","arrowup","[0.675,0.325,0.85,0.15]","","",""
"sailing-trial","153","740514","0.0-11.0-108.0","","","","false","","","","","","","","","","852","","57","","0","1","arrowleft","0","arrowleft","[0.675,0.325,0.85,0.15]","","",""
"sailing-trial","154","742295","0.0-11.0-109.0","","","","false","","","","","","","","","","null","","590","","0","0","null","null","arrowup","[0.675,0.325,0.85,0.15]","","",""
"sailing-trial","155","745946","0.0-11.0-110.0","","","","false","","","","","","","","","","565","","193","","0","1","arrowleft","0","arrowleft","[0.675,0.325,0.85,0.15]","","",""
"sailing-trial","156","747675","0.0-11.0-111.0","","","","false","","","","","","","","","","null","","517","","1","0","null","null","arrowup","[0.675,0.325,0.85,0.15]","","",""
"sailing-trial","157","751079","0.0-11.0-112.0","","","","false","","","","","","","","","","413","","275","","0","1","arrowleft","0","arrowleft","[0.675,0.325,0.85,0.15]","","",""
"sailing-trial","158","753414","0.0-11.0-113.0","","","","false","","","","","","","","","","null","","569","","0","1","null","null","arrowup","[0.675,0.325,0.85,0.15]","","",""
"sailing-trial","159","756342","0.0-11.0-114.0","","","","false","","","","","","","","","","340","","224","","0","0","arrowleft","0","arrowleft","[0.675,0.325,0.85,0.15]","","",""
"sailing-trial","160","758581","0.0-11.0-115.0","","","","false","","","","","","","","","","null","","683","","2","1","null","null","arrowup","[0.675,0.325,0.85,0.15]","","",""
"sailing-trial","161","762176","0.0-11.0-116.0","","","","false","","","","","","","","","","420","","311","","0","1","arrowleft","0","arrowleft","[0.85,0.15,0.675,0.325]","","",""
"sailing-trial","162","764859","0.0-11.0-117.0","","","","false","","","","","","","","","","null","","992","","0","1","null","null","arrowup","[0.85,0.15,0.675,0.325]","","",""
"sailing-trial","163","769670","0.0-11.0-118.0","","","","false","","","","","","","","","","676","","1411","","0","1","arrowleft","0","arrowleft","[0.85,0.15,0.675,0.325]","","",""
"sailing-trial","164","772108","0.0-11.0-119.0","","","","false","","","","","","","","","","null","","1269","","1","0","null","null","arrowup","[0.85,0.15,0.675,0.325]","","",""
"sailing-trial","165","776613","0.0-11.0-120.0","","","","false","","","","","","","","","","1197","","267","","0","1","arrowleft","0","arrowleft","[0.85,0.15,0.675,0.325]","","",""
"sailing-trial","166","779235","0.0-11.0-121.0","","","","false","","","","","","","","","","null","","755","","0","1","null","null","arrowup","[0.85,0.15,0.675,0.325]","","",""
"sailing-trial","167","784376","0.0-11.0-122.0","","","","false","","","","","","","","","","1957","","277","","0","1","arrowleft","0","arrowleft","[0.85,0.15,0.675,0.325]","","",""
"sailing-trial","168","786343","0.0-11.0-123.0","","","","false","","","","","","","","","","null","","368","","0","1","null","null","arrowup","[0.85,0.15,0.675,0.325]","","",""
"sailing-trial","169","790116","0.0-11.0-124.0","","","","false","","","","","","","","","","428","","413","","0","1","arrowleft","0","arrowleft","[0.85,0.15,0.675,0.325]","","",""
"sailing-trial","170","792320","0.0-11.0-125.0","","","","false","","","","","","","","","","null","","1079","","1","0","null","null","arrowup","[0.85,0.15,0.675,0.325]","","",""
"sailing-trial","171","795893","0.0-11.0-126.0","","","","false","","","","","","","","","","1023","","15","","0","1","arrowleft","0","arrowleft","[0.85,0.15,0.675,0.325]","","",""
"sailing-trial","172","798093","0.0-11.0-127.0","","","","false","","","","","","","","","","null","","614","","0","1","null","null","arrowup","[0.85,0.15,0.675,0.325]","","",""
"sailing-trial","173","801468","0.0-11.0-128.0","","","","false","","","","","","","","","","410","","307","","0","1","arrowleft","0","arrowleft","[0.85,0.15,0.675,0.325]","","",""
"sailing-trial","174","803471","0.0-11.0-129.0","","","","false","","","","","","","","","","null","","877","","1","0","null","null","arrowup","[0.85,0.15,0.675,0.325]","","",""
"sailing-trial","175","806449","0.0-11.0-130.0","","","","false","","","","","","","","","","412","","51","","0","1","arrowleft","0","arrowleft","[0.85,0.15,0.675,0.325]","","",""
"sailing-trial","176","808112","0.0-11.0-131.0","","","","false","","","","","","","","","","null","","580","","3","0","null","null","arrowup","[0.85,0.15,0.675,0.325]","","",""
"sailing-trial","177","811278","0.0-11.0-132.0","","","","false","","","","","","","","","","390","","385","","0","0","arrowleft","0","arrowleft","[0.675,0.325,0.85,0.15]","","",""
"sailing-trial","178","813961","0.0-11.0-133.0","","","","false","","","","","","","","","","null","","893","","1","1","null","null","arrowup","[0.675,0.325,0.85,0.15]","","",""
"sailing-trial","179","817504","0.0-11.0-134.0","","","","false","","","","","","","","","","431","","231","","0","1","arrowleft","0","arrowleft","[0.675,0.325,0.85,0.15]","","",""
"sailing-trial","180","819798","0.0-11.0-135.0","","","","false","","","","","","","","","","null","","733","","2","1","null","null","arrowup","[0.675,0.325,0.85,0.15]","","",""
"sailing-trial","181","823317","0.0-11.0-136.0","","","","false","","","","","","","","","","454","","349","","0","1","arrowleft","0","arrowleft","[0.675,0.325,0.85,0.15]","","",""
"sailing-trial","182","825839","0.0-11.0-137.0","","","","false","","","","","","","","","","null","","1133","","2","0","null","null","arrowup","[0.675,0.325,0.85,0.15]","","",""
"sailing-trial","183","828889","0.0-11.0-138.0","","","","false","","","","","","","","","","498","","226","","0","0","arrowleft","0","arrowleft","[0.675,0.325,0.85,0.15]","","",""
"sailing-trial","184","830714","0.0-11.0-139.0","","","","false","","","","","","","","","","null","","742","","1","0","null","null","arrowup","[0.675,0.325,0.85,0.15]","","",""
"sailing-trial","185","834440","0.0-11.0-140.0","","","","false","","","","","","","","","","456","","458","","0","1","arrowleft","0","arrowleft","[0.675,0.325,0.85,0.15]","","",""
"sailing-trial","186","836632","0.0-11.0-141.0","","","","false","","","","","","","","","","null","","559","","2","1","null","null","arrowup","[0.675,0.325,0.85,0.15]","","",""
"sailing-trial","187","840127","0.0-11.0-142.0","","","","false","","","","","","","","","","514","","283","","0","1","arrowleft","0","arrowleft","[0.675,0.325,0.85,0.15]","","",""
"sailing-trial","188","842605","0.0-11.0-143.0","","","","false","","","","","","","","","","null","","741","","2","1","null","null","arrowup","[0.675,0.325,0.85,0.15]","","",""
"sailing-trial","189","846103","0.0-11.0-144.0","","","","false","","","","","","","","","","454","","230","","0","1","arrowleft","0","arrowleft","[0.675,0.325,0.85,0.15]","","",""
"sailing-trial","190","848027","0.0-11.0-145.0","","","","false","","","","","","","","","","null","","668","","3","0","null","null","arrowup","[0.675,0.325,0.85,0.15]","","",""
"sailing-trial","191","851564","0.0-11.0-146.0","","","","false","","","","","","","","","","520","","340","","0","1","arrowleft","0","arrowleft","[0.675,0.325,0.85,0.15]","","",""
"sailing-trial","192","853299","0.0-11.0-147.0","","","","false","","","","","","","","","","null","","542","","0","0","null","null","arrowup","[0.675,0.325,0.85,0.15]","","",""
"sailing-trial","193","855760","0.0-11.0-148.0","","","","false","","","","","","","","","","412","","29","","0","0","arrowleft","0","arrowleft","[0.15,0.85,0.325,0.675]","","",""
"sailing-trial","194","858303","0.0-11.0-149.0","","","","false","","","","","","","","","","null","","870","","0","1","null","null","arrowup","[0.15,0.85,0.325,0.675]","","",""
"sailing-trial","195","861293","0.0-11.0-150.0","","","","false","","","","","","","","","","628","","253","","0","0","arrowleft","0","arrowleft","[0.15,0.85,0.325,0.675]","","",""
"sailing-trial","196","863050","0.0-11.0-151.0","","","","false","","","","","","","","","","null","","566","","0","0","null","null","arrowup","[0.15,0.85,0.325,0.675]","","",""
"sailing-trial","197","866940","0.0-11.0-152.0","","","","false","","","","","","","","","","727","","191","","1","1","arrowleft","0","arrowright","[0.15,0.85,0.325,0.675]","","",""
"sailing-trial","198","869122","0.0-11.0-153.0","","","","false","","","","","","","","","","null","","551","","3","1","null","null","arrowup","[0.15,0.85,0.325,0.675]","","",""
"sailing-trial","199","872503","0.0-11.0-154.0","","","","false","","","","","","","","","","407","","291","","1","1","arrowleft","0","arrowright","[0.15,0.85,0.325,0.675]","","",""
"sailing-trial","200","874740","0.0-11.0-155.0","","","","false","","","","","","","","","","null","","563","","2","1","null","null","arrowup","[0.15,0.85,0.325,0.675]","","",""
"sailing-trial","201","877931","0.0-11.0-156.0","","","","false","","","","","","","","","","352","","134","","1","1","arrowleft","0","arrowright","[0.15,0.85,0.325,0.675]","","",""
"sailing-trial","202","879985","0.0-11.0-157.0","","","","false","","","","","","","","","","null","","840","","0","0","null","null","arrowup","[0.15,0.85,0.325,0.675]","","",""
"sailing-trial","203","882877","0.0-11.0-158.0","","","","false","","","","","","","","","","347","","366","","1","0","arrowleft","0","arrowright","[0.15,0.85,0.325,0.675]","","",""
"sailing-trial","204","884797","0.0-11.0-159.0","","","","false","","","","","","","","","","null","","619","","2","0","null","null","arrowup","[0.15,0.85,0.325,0.675]","","",""
"sailing-trial","205","888719","0.0-11.0-160.0","","","","false","","","","","","","","","","651","","862","","1","0","arrowleft","0","arrowright","[0.15,0.85,0.325,0.675]","","",""
"sailing-trial","206","890746","0.0-11.0-161.0","","","","false","","","","","","","","","","null","","942","","0","0","null","null","arrowup","[0.15,0.85,0.325,0.675]","","",""
"sailing-trial","207","894606","0.0-11.0-162.0","","","","false","","","","","","","","","","633","","481","","2","1","arrowright","1","arrowleft","[0.15,0.85,0.325,0.675]","","",""
"sailing-trial","208","896365","0.0-11.0-163.0","","","","false","","","","","","","","","","null","","656","","2","0","null","null","arrowup","[0.15,0.85,0.325,0.675]","","",""
"sailing-trial","209","899874","0.0-11.0-164.0","","","","false","","","","","","","","","","631","","177","","1","1","arrowleft","0","arrowright","[0.325,0.675,0.15,0.85]","","",""
"sailing-trial","210","902186","0.0-11.0-165.0","","","","false","","","","","","","","","","null","","639","","1","1","null","null","arrowup","[0.325,0.675,0.15,0.85]","","",""
"sailing-trial","211","905486","0.0-11.0-166.0","","","","false","","","","","","","","","","516","","44","","1","1","arrowleft","0","arrowright","[0.325,0.675,0.15,0.85]","","",""
"sailing-trial","212","907359","0.0-11.0-167.0","","","","false","","","","","","","","","","null","","769","","2","0","null","null","arrowup","[0.325,0.675,0.15,0.85]","","",""
"sailing-trial","213","911299","0.0-11.0-168.0","","","","false","","","","","","","","","","608","","111","","1","1","arrowleft","0","arrowright","[0.325,0.675,0.15,0.85]","","",""
"sailing-trial","214","913461","0.0-11.0-169.0","","","","false","","","","","","","","","","null","","499","","1","1","null","null","arrowup","[0.325,0.675,0.15,0.85]","","",""
"sailing-trial","215","916987","0.0-11.0-170.0","","","","false","","","","","","","","","","462","","336","","1","1","arrowleft","0","arrowright","[0.325,0.675,0.15,0.85]","","",""
"sailing-trial","216","919222","0.0-11.0-171.0","","","","false","","","","","","","","","","null","","564","","1","1","null","null","arrowup","[0.325,0.675,0.15,0.85]","","",""
"sailing-trial","217","922345","0.0-11.0-172.0","","","","false","","","","","","","","","","279","","301","","1","1","arrowleft","0","arrowright","[0.325,0.675,0.15,0.85]","","",""
"sailing-trial","218","924792","0.0-11.0-173.0","","","","false","","","","","","","","","","null","","697","","2","1","null","null","arrowup","[0.325,0.675,0.15,0.85]","","",""
"sailing-trial","219","928786","0.0-11.0-174.0","","","","false","","","","","","","","","","679","","307","","1","1","arrowleft","0","arrowright","[0.325,0.675,0.15,0.85]","","",""
"sailing-trial","220","931030","0.0-11.0-175.0","","","","false","","","","","","","","","","null","","596","","0","1","null","null","arrowup","[0.325,0.675,0.15,0.85]","","",""
"sailing-trial","221","935059","0.0-11.0-176.0","","","","false","","","","","","","","","","1044","","198","","1","1","arrowleft","0","arrowright","[0.325,0.675,0.15,0.85]","","",""
"sailing-trial","222","937759","0.0-11.0-177.0","","","","false","","","","","","","","","","null","","614","","3","1","null","null","arrowup","[0.325,0.675,0.15,0.85]","","",""
"sailing-trial","223","941114","0.0-11.0-178.0","","","","false","","","","","","","","","","584","","138","","1","1","arrowleft","0","arrowright","[0.325,0.675,0.15,0.85]","","",""
"sailing-trial","224","942901","0.0-11.0-179.0","","","","false","","","","","","","","","","null","","683","","2","0","null","null","arrowup","[0.325,0.675,0.15,0.85]","","",""
"sailing-trial","225","946277","0.0-11.0-180.0","","","","false","","","","","","","","","","566","","170","","1","1","arrowleft","0","arrowright","[0.675,0.325,0.85,0.15]","","",""
"sailing-trial","226","947822","0.0-11.0-181.0","","","","false","","","","","","","","","","null","","399","","0","0","null","null","arrowup","[0.675,0.325,0.85,0.15]","","",""
"sailing-trial","227","951158","0.0-11.0-182.0","","","","false","","","","","","","","","","458","","351","","1","1","arrowleft","0","arrowright","[0.675,0.325,0.85,0.15]","","",""
"sailing-trial","228","952922","0.0-11.0-183.0","","","","false","","","","","","","","","","null","","528","","3","0","null","null","arrowup","[0.675,0.325,0.85,0.15]","","",""
"sailing-trial","229","957513","0.0-11.0-184.0","","","","false","","","","","","","","","","2046","","251","","1","0","arrowleft","0","arrowright","[0.675,0.325,0.85,0.15]","","",""
"sailing-trial","230","959496","0.0-11.0-185.0","","","","false","","","","","","","","","","null","","813","","0","0","null","null","arrowup","[0.675,0.325,0.85,0.15]","","",""
"sailing-trial","231","962826","0.0-11.0-186.0","","","","false","","","","","","","","","","588","","321","","1","0","arrowleft","0","arrowright","[0.675,0.325,0.85,0.15]","","",""
"sailing-trial","232","965347","0.0-11.0-187.0","","","","false","","","","","","","","","","null","","878","","1","1","null","null","arrowup","[0.675,0.325,0.85,0.15]","","",""
"sailing-trial","233","968107","0.0-11.0-188.0","","","","false","","","","","","","","","","440","","270","","1","0","arrowleft","0","arrowright","[0.675,0.325,0.85,0.15]","","",""
"sailing-trial","234","969960","0.0-11.0-189.0","","","","false","","","","","","","","","","null","","704","","1","0","null","null","arrowup","[0.675,0.325,0.85,0.15]","","",""
"sailing-trial","235","972790","0.0-11.0-190.0","","","","false","","","","","","","","","","391","","241","","3","0","arrowright","1","arrowright","[0.675,0.325,0.85,0.15]","","",""
"sailing-trial","236","974657","0.0-11.0-191.0","","","","false","","","","","","","","","","null","","763","","3","0","null","null","arrowup","[0.675,0.325,0.85,0.15]","","",""
"sailing-trial","237","977532","0.0-11.0-192.0","","","","false","","","","","","","","","","392","","308","","2","0","arrowright","1","arrowleft","[0.675,0.325,0.85,0.15]","","",""
"sailing-trial","238","979828","0.0-11.0-193.0","","","","false","","","","","","","","","","null","","610","","0","1","null","null","arrowup","[0.675,0.325,0.85,0.15]","","",""
"sailing-trial","239","983321","0.0-11.0-194.0","","","","false","","","","","","","","","","483","","285","","0","1","arrowleft","0","arrowleft","[0.675,0.325,0.85,0.15]","","",""
"sailing-trial","240","985498","0.0-11.0-195.0","","","","false","","","","","","","","","","null","","572","","2","1","null","null","arrowup","[0.675,0.325,0.85,0.15]","","",""
"sailing-trial","241","988599","0.0-11.0-196.0","","","","false","","","","","","","","","","497","","396","","0","0","arrowleft","0","arrowleft","[0.15,0.85,0.325,0.675]","","",""
"sailing-trial","242","991098","0.0-11.0-197.0","","","","false","","","","","","","","","","null","","567","","3","1","null","null","arrowup","[0.15,0.85,0.325,0.675]","","",""
"sailing-trial","243","993988","0.0-11.0-198.0","","","","false","","","","","","","","","","615","","183","","0","0","arrowleft","0","arrowleft","[0.15,0.85,0.325,0.675]","","",""
"sailing-trial","244","995736","0.0-11.0-199.0","","","","false","","","","","","","","","","null","","575","","3","0","null","null","arrowup","[0.15,0.85,0.325,0.675]","","",""
"sailing-trial","245","999112","0.0-11.0-200.0","","","","false","","","","","","","","","","412","","293","","2","1","arrowright","1","arrowleft","[0.15,0.85,0.325,0.675]","","",""
"sailing-trial","246","1000897","0.0-11.0-201.0","","","","false","","","","","","","","","","null","","551","","2","0","null","null","arrowup","[0.15,0.85,0.325,0.675]","","",""
"sailing-trial","247","1003920","0.0-11.0-202.0","","","","false","","","","","","","","","","729","","183","","2","0","arrowright","1","arrowleft","[0.15,0.85,0.325,0.675]","","",""
"sailing-trial","248","1005504","0.0-11.0-203.0","","","","false","","","","","","","","","","null","","522","","0","0","null","null","arrowup","[0.15,0.85,0.325,0.675]","","",""
"sailing-trial","249","1008932","0.0-11.0-204.0","","","","false","","","","","","","","","","349","","136","","2","1","arrowright","1","arrowleft","[0.15,0.85,0.325,0.675]","","",""
"sailing-trial","250","1011221","0.0-11.0-205.0","","","","false","","","","","","","","","","null","","689","","3","1","null","null","arrowup","[0.15,0.85,0.325,0.675]","","",""
"sailing-trial","251","1014802","0.0-11.0-206.0","","","","false","","","","","","","","","","507","","106","","2","1","arrowright","1","arrowleft","[0.15,0.85,0.325,0.675]","","",""
"sailing-trial","252","1017051","0.0-11.0-207.0","","","","false","","","","","","","","","","null","","810","","3","0","null","null","arrowup","[0.15,0.85,0.325,0.675]","","",""
"sailing-trial","253","1019934","0.0-11.0-208.0","","","","false","","","","","","","","","","481","","207","","2","0","arrowright","1","arrowleft","[0.15,0.85,0.325,0.675]","","",""
"sailing-trial","254","1022156","0.0-11.0-209.0","","","","false","","","","","","","","","","null","","836","","1","0","null","null","arrowup","[0.15,0.85,0.325,0.675]","","",""
"sailing-trial","255","1026549","0.0-11.0-210.0","","","","false","","","","","","","","","","1506","","250","","2","1","arrowright","1","arrowleft","[0.15,0.85,0.325,0.675]","","",""
"sailing-trial","256","1028816","0.0-11.0-211.0","","","","false","","","","","","","","","","null","","634","","1","1","null","null","arrowup","[0.15,0.85,0.325,0.675]","","",""
"sailing-trial","257","1031315","0.0-11.0-212.0","","","","false","","","","","","","","","","366","","17","","2","0","arrowright","1","arrowleft","[0.15,0.85,0.325,0.675]","","",""
"sailing-trial","258","1033008","0.0-11.0-213.0","","","","false","","","","","","","","","","null","","632","","2","0","null","null","arrowup","[0.15,0.85,0.325,0.675]","","",""
"sailing-trial","259","1036340","0.0-11.0-214.0","","","","false","","","","","","","","","","305","","298","","1","1","arrowleft","0","arrowright","[0.15,0.85,0.325,0.675]","","",""
"sailing-trial","260","1038827","0.0-11.0-215.0","","","","false","","","","","","","","","","null","","560","","1","1","null","null","arrowup","[0.15,0.85,0.325,0.675]","","",""
"sailing-trial","261","1042325","0.0-11.0-216.0","","","","false","","","","","","","","","","733","","149","","1","1","arrowleft","0","arrowright","[0.325,0.675,0.15,0.85]","","",""
"sailing-trial","262","1044022","0.0-11.0-217.0","","","","false","","","","","","","","","","null","","569","","2","0","null","null","arrowup","[0.325,0.675,0.15,0.85]","","",""
"sailing-trial","263","1047642","0.0-11.0-218.0","","","","false","","","","","","","","","","390","","300","","1","1","arrowleft","0","arrowright","[0.325,0.675,0.15,0.85]","","",""
"sailing-trial","264","1050020","0.0-11.0-219.0","","","","false","","","","","","","","","","null","","718","","1","1","null","null","arrowup","[0.325,0.675,0.15,0.85]","","",""
"sailing-trial","265","1053327","0.0-11.0-220.0","","","","false","","","","","","","","","","325","","301","","1","1","arrowleft","0","arrowright","[0.325,0.675,0.15,0.85]","","",""
"sailing-trial","266","1054931","0.0-11.0-221.0","","","","false","","","","","","","","","","null","","564","","2","0","null","null","arrowup","[0.325,0.675,0.15,0.85]","","",""
"sailing-trial","267","1057816","0.0-11.0-222.0","","","","false","","","","","","","","","","413","","289","","1","0","arrowleft","0","arrowright","[0.325,0.675,0.15,0.85]","","",""
"sailing-trial","268","1059465","0.0-11.0-223.0","","","","false","","","","","","","","","","null","","522","","2","0","null","null","arrowup","[0.325,0.675,0.15,0.85]","","",""
"sailing-trial","269","1062956","0.0-11.0-224.0","","","","false","","","","","","","","","","326","","226","","1","1","arrowleft","0","arrowright","[0.325,0.675,0.15,0.85]","","",""
"sailing-trial","270","1064075","0.0-11.0-225.0","","","","false","","","","","","","","","","null","","19","","2","0","null","null","arrowup","[0.325,0.675,0.15,0.85]","","",""
"sailing-trial","271","1067392","0.0-11.0-226.0","","","","false","","","","","","","","","","478","","243","","1","1","arrowleft","0","arrowright","[0.325,0.675,0.15,0.85]","","",""
"sailing-trial","272","1069628","0.0-11.0-227.0","","","","false","","","","","","","","","","null","","608","","3","1","null","null","arrowup","[0.325,0.675,0.15,0.85]","","",""
"sailing-trial","273","1073284","0.0-11.0-228.0","","","","false","","","","","","","","","","497","","504","","1","1","arrowleft","0","arrowright","[0.325,0.675,0.15,0.85]","","",""
"sailing-trial","274","1075405","0.0-11.0-229.0","","","","false","","","","","","","","","","null","","500","","3","1","null","null","arrowup","[0.325,0.675,0.15,0.85]","","",""
"sailing-trial","275","1078106","0.0-11.0-230.0","","","","false","","","","","","","","","","251","","224","","1","0","arrowleft","0","arrowright","[0.325,0.675,0.15,0.85]","","",""
"sailing-trial","276","1079840","0.0-11.0-231.0","","","","false","","","","","","","","","","null","","631","","0","0","null","null","arrowup","[0.325,0.675,0.15,0.85]","","",""
"sailing-trial","277","1083110","0.0-11.0-232.0","","","","false","","","","","","","","","","326","","254","","1","1","arrowleft","0","arrowright","[0.325,0.675,0.15,0.85]","","",""
"sailing-trial","278","1085526","0.0-11.0-233.0","","","","false","","","","","","","","","","null","","636","","2","0","null","null","arrowup","[0.325,0.675,0.15,0.85]","","",""
"sailing-trial","279","1088266","0.0-11.0-234.0","","","","false","","","","","","","","","","412","","103","","1","0","arrowleft","0","arrowright","[0.15,0.85,0.325,0.675]","","",""
"sailing-trial","280","1089966","0.0-11.0-235.0","","","","false","","","","","","","","","","null","","639","","0","0","null","null","arrowup","[0.15,0.85,0.325,0.675]","","",""
"sailing-trial","281","1093089","0.0-11.0-236.0","","","","false","","","","","","","","","","480","","94","","3","1","arrowright","1","arrowright","[0.15,0.85,0.325,0.675]","","",""
"sailing-trial","282","1094708","0.0-11.0-237.0","","","","false","","","","","","","","","","null","","602","","0","0","null","null","arrowup","[0.15,0.85,0.325,0.675]","","",""
"sailing-trial","283","1097911","0.0-11.0-238.0","","","","false","","","","","","","","","","329","","356","","3","1","arrowright","1","arrowright","[0.15,0.85,0.325,0.675]","","",""
"sailing-trial","284","1099536","0.0-11.0-239.0","","","","false","","","","","","","","","","null","","455","","0","0","null","null","arrowup","[0.15,0.85,0.325,0.675]","","",""
"sailing-trial","285","1102714","0.0-11.0-240.0","","","","false","","","","","","","","","","305","","278","","3","1","arrowright","1","arrowright","[0.15,0.85,0.325,0.675]","","",""
"sailing-trial","286","1104242","0.0-11.0-241.0","","","","false","","","","","","","","","","null","","381","","2","0","null","null","arrowup","[0.15,0.85,0.325,0.675]","","",""
"sailing-trial","287","1107839","0.0-11.0-242.0","","","","false","","","","","","","","","","328","","265","","3","1","arrowright","1","arrowright","[0.15,0.85,0.325,0.675]","","",""
"sailing-trial","288","1110476","0.0-11.0-243.0","","","","false","","","","","","","","","","null","","994","","1","1","null","null","arrowup","[0.15,0.85,0.325,0.675]","","",""
"sailing-trial","289","1113868","0.0-11.0-244.0","","","","false","","","","","","","","","","573","","285","","3","1","arrowright","1","arrowright","[0.15,0.85,0.325,0.675]","","",""
"sailing-trial","290","1115930","0.0-11.0-245.0","","","","false","","","","","","","","","","null","","543","","2","1","null","null","arrowup","[0.15,0.85,0.325,0.675]","","",""
"sailing-trial","291","1119123","0.0-11.0-246.0","","","","false","","","","","","","","","","458","","152","","3","1","arrowright","1","arrowright","[0.15,0.85,0.325,0.675]","","",""
"sailing-trial","292","1120865","0.0-11.0-247.0","","","","false","","","","","","","","","","null","","616","","0","0","null","null","arrowup","[0.15,0.85,0.325,0.675]","","",""
"sailing-trial","293","1124013","0.0-11.0-248.0","","","","false","","","","","","","","","","350","","260","","3","1","arrowright","1","arrowright","[0.15,0.85,0.325,0.675]","","",""
"sailing-trial","294","1125475","0.0-11.0-249.0","","","","false","","","","","","","","","","null","","445","","0","0","null","null","arrowup","[0.15,0.85,0.325,0.675]","","",""
"sailing-trial","295","1128840","0.0-11.0-250.0","","","","false","","","","","","","","","","272","","42","","3","1","arrowright","1","arrowright","[0.15,0.85,0.325,0.675]","","",""
"sailing-trial","296","1130822","0.0-11.0-251.0","","","","false","","","","","","","","","","null","","282","","3","1","null","null","arrowup","[0.15,0.85,0.325,0.675]","","",""
"sailing-trial","297","1133778","0.0-11.0-252.0","","","","false","","","","","","","","","","415","","190","","3","0","arrowright","1","arrowright","[0.15,0.85,0.325,0.675]","","",""
"sailing-trial","298","1135384","0.0-11.0-253.0","","","","false","","","","","","","","","","null","","567","","0","0","null","null","arrowup","[0.15,0.85,0.325,0.675]","","",""
"sailing-trial","299","1138545","0.0-11.0-254.0","","","","false","","","","","","","","","","370","","223","","3","1","arrowright","1","arrowright","[0.15,0.85,0.325,0.675]","","",""
"sailing-trial","300","1140896","0.0-11.0-255.0","","","","false","","","","","","","","","","null","","699","","1","1","null","null","arrowup","[0.15,0.85,0.325,0.675]","","",""
"sailing-trial","301","1144204","0.0-11.0-256.0","","","","false","","","","","","","","","","433","","288","","3","1","arrowright","1","arrowright","[0.325,0.675,0.15,0.85]","","",""
"sailing-trial","302","1146100","0.0-11.0-257.0","","","","false","","","","","","","","","","null","","245","","1","1","null","null","arrowup","[0.325,0.675,0.15,0.85]","","",""
"sailing-trial","303","1149039","0.0-11.0-258.0","","","","false","","","","","","","","","","226","","107","","3","1","arrowright","1","arrowright","[0.325,0.675,0.15,0.85]","","",""
"sailing-trial","304","1151804","0.0-11.0-259.0","","","","false","","","","","","","","","","null","","1224","","3","1","null","null","arrowup","[0.325,0.675,0.15,0.85]","","",""
"sailing-trial","305","1154919","0.0-11.0-260.0","","","","false","","","","","","","","","","87","","231","","3","0","arrowright","1","arrowright","[0.325,0.675,0.15,0.85]","","",""
"sailing-trial","306","1157238","0.0-11.0-261.0","","","","false","","","","","","","","","","null","","762","","3","1","null","null","arrowup","[0.325,0.675,0.15,0.85]","","",""
"sailing-trial","307","1160689","0.0-11.0-262.0","","","","false","","","","","","","","","","397","","210","","3","1","arrowright","1","arrowright","[0.325,0.675,0.15,0.85]","","",""
"sailing-trial","308","1162609","0.0-11.0-263.0","","","","false","","","","","","","","","","null","","215","","3","1","null","null","arrowup","[0.325,0.675,0.15,0.85]","","",""
"sailing-trial","309","1165579","0.0-11.0-264.0","","","","false","","","","","","","","","","114","","254","","3","1","arrowright","1","arrowright","[0.325,0.675,0.15,0.85]","","",""
"sailing-trial","310","1167073","0.0-11.0-265.0","","","","false","","","","","","","","","","null","","433","","2","0","null","null","arrowup","[0.325,0.675,0.15,0.85]","","",""
"sailing-trial","311","1170196","0.0-11.0-266.0","","","","false","","","","","","","","","","402","","97","","3","1","arrowright","1","arrowright","[0.325,0.675,0.15,0.85]","","",""
"sailing-trial","312","1174258","0.0-11.0-267.0","","","","false","","","","","","","","","","null","","2377","","1","1","null","null","arrowup","[0.325,0.675,0.15,0.85]","","",""
"sailing-trial","313","1177991","0.0-11.0-268.0","","","","false","","","","","","","","","","1027","","149","","3","1","arrowright","1","arrowright","[0.325,0.675,0.15,0.85]","","",""
"sailing-trial","314","1180369","0.0-11.0-269.0","","","","false","","","","","","","","","","null","","809","","1","1","null","null","arrowup","[0.325,0.675,0.15,0.85]","","",""
"sailing-trial","315","1184154","0.0-11.0-270.0","","","","false","","","","","","","","","","386","","145","","3","1","arrowright","1","arrowright","[0.325,0.675,0.15,0.85]","","",""
"sailing-trial","316","1187467","0.0-11.0-271.0","","","","false","","","","","","","","","","null","","1357","","3","1","null","null","arrowup","[0.325,0.675,0.15,0.85]","","",""
"sailing-trial","317","1191005","0.0-11.0-272.0","","","","false","","","","","","","","","","1065","","305","","3","0","arrowright","1","arrowright","[0.325,0.675,0.15,0.85]","","",""
"sailing-trial","318","1193245","0.0-11.0-273.0","","","","false","","","","","","","","","","null","","815","","2","0","null","null","arrowup","[0.325,0.675,0.15,0.85]","","",""
"sailing-trial","319","1196265","0.0-11.0-274.0","","","","false","","","","","","","","","","177","","281","","3","1","arrowright","1","arrowright","[0.325,0.675,0.15,0.85]","","",""
"sailing-trial","320","1198349","0.0-11.0-275.0","","","","false","","","","","","","","","","null","","477","","3","1","null","null","arrowup","[0.325,0.675,0.15,0.85]","","",""
"sailing-trial","321","1201252","0.0-11.0-276.0","","","","false","","","","","","","","","","434","","341","","3","0","arrowright","1","arrowright","[0.85,0.15,0.675,0.325]","","",""
"sailing-trial","322","1203040","0.0-11.0-277.0","","","","false","","","","","","","","","","null","","727","","1","0","null","null","arrowup","[0.85,0.15,0.675,0.325]","","",""
"sailing-trial","323","1205500","0.0-11.0-278.0","","","","false","","","","","","","","","","286","","51","","3","0","arrowright","1","arrowright","[0.85,0.15,0.675,0.325]","","",""
"sailing-trial","324","1208244","0.0-11.0-279.0","","","","false","","","","","","","","","","null","","705","","1","0","null","null","arrowup","[0.85,0.15,0.675,0.325]","","",""
"sailing-trial","325","1212272","0.0-11.0-280.0","","","","false","","","","","","","","","","1164","","239","","2","1","arrowright","1","arrowleft","[0.85,0.15,0.675,0.325]","","",""
"sailing-trial","326","1214574","0.0-11.0-281.0","","","","false","","","","","","","","","","null","","585","","3","1","null","null","arrowup","[0.85,0.15,0.675,0.325]","","",""
"sailing-trial","327","1217716","0.0-11.0-282.0","","","","false","","","","","","","","","","303","","309","","2","1","arrowright","1","arrowleft","[0.85,0.15,0.675,0.325]","","",""
"sailing-trial","328","1220044","0.0-11.0-283.0","","","","false","","","","","","","","","","null","","700","","0","1","null","null","arrowup","[0.85,0.15,0.675,0.325]","","",""
"sailing-trial","329","1223532","0.0-11.0-284.0","","","","false","","","","","","","","","","392","","198","","2","1","arrowright","1","arrowleft","[0.85,0.15,0.675,0.325]","","",""
"sailing-trial","330","1225985","0.0-11.0-285.0","","","","false","","","","","","","","","","null","","695","","0","1","null","null","arrowup","[0.85,0.15,0.675,0.325]","","",""
"sailing-trial","331","1229265","0.0-11.0-286.0","","","","false","","","","","","","","","","574","","28","","2","1","arrowright","1","arrowleft","[0.85,0.15,0.675,0.325]","","",""
"sailing-trial","332","1231936","0.0-11.0-287.0","","","","false","","","","","","","","","","null","","993","","3","0","null","null","arrowup","[0.85,0.15,0.675,0.325]","","",""
"sailing-trial","333","1235173","0.0-11.0-288.0","","","","false","","","","","","","","","","154","","291","","2","1","arrowright","1","arrowleft","[0.85,0.15,0.675,0.325]","","",""
"sailing-trial","334","1237403","0.0-11.0-289.0","","","","false","","","","","","","","","","null","","418","","2","1","null","null","arrowup","[0.85,0.15,0.675,0.325]","","",""
"sailing-trial","335","1240695","0.0-11.0-290.0","","","","false","","","","","","","","","","587","","121","","2","1","arrowright","1","arrowleft","[0.85,0.15,0.675,0.325]","","",""
"sailing-trial","336","1242472","0.0-11.0-291.0","","","","false","","","","","","","","","","null","","694","","1","0","null","null","arrowup","[0.85,0.15,0.675,0.325]","","",""
"sailing-trial","337","1245511","0.0-11.0-292.0","","","","false","","","","","","","","","","263","","213","","2","1","arrowright","1","arrowleft","[0.675,0.325,0.85,0.15]","","",""
"sailing-trial","338","1247769","0.0-11.0-293.0","","","","false","","","","","","","","","","null","","734","","1","1","null","null","arrowup","[0.675,0.325,0.85,0.15]","","",""
"sailing-trial","339","1250912","0.0-11.0-294.0","","","","false","","","","","","","","","","344","","208","","2","1","arrowright","1","arrowleft","[0.675,0.325,0.85,0.15]","","",""
"sailing-trial","340","1253179","0.0-11.0-295.0","","","","false","","","","","","","","","","null","","689","","1","1","null","null","arrowup","[0.675,0.325,0.85,0.15]","","",""
"sailing-trial","341","1256414","0.0-11.0-296.0","","","","false","","","","","","","","","","320","","103","","2","1","arrowright","1","arrowleft","[0.675,0.325,0.85,0.15]","","",""
"sailing-trial","342","1258549","0.0-11.0-297.0","","","","false","","","","","","","","","","null","","739","","0","0","null","null","arrowup","[0.675,0.325,0.85,0.15]","","",""
"sailing-trial","343","1261740","0.0-11.0-298.0","","","","false","","","","","","","","","","414","","163","","2","1","arrowright","1","arrowleft","[0.675,0.325,0.85,0.15]","","",""
"sailing-trial","344","1264291","0.0-11.0-299.0","","","","false","","","","","","","","","","null","","719","","1","1","null","null","arrowup","[0.675,0.325,0.85,0.15]","","",""
"sailing-trial","345","1267775","0.0-11.0-300.0","","","","false","","","","","","","","","","433","","413","","2","1","arrowright","1","arrowleft","[0.675,0.325,0.85,0.15]","","",""
"sailing-trial","346","1269608","0.0-11.0-301.0","","","","false","","","","","","","","","","null","","771","","3","0","null","null","arrowup","[0.675,0.325,0.85,0.15]","","",""
"sailing-trial","347","1272664","0.0-11.0-302.0","","","","false","","","","","","","","","","351","","76","","2","1","arrowright","1","arrowleft","[0.675,0.325,0.85,0.15]","","",""
"sailing-trial","348","1274563","0.0-11.0-303.0","","","","false","","","","","","","","","","null","","729","","1","0","null","null","arrowup","[0.675,0.325,0.85,0.15]","","",""
"sailing-trial","349","1277554","0.0-11.0-304.0","","","","false","","","","","","","","","","241","","144","","2","1","arrowright","1","arrowleft","[0.675,0.325,0.85,0.15]","","",""
"sailing-trial","350","1279509","0.0-11.0-305.0","","","","false","","","","","","","","","","null","","734","","3","0","null","null","arrowup","[0.675,0.325,0.85,0.15]","","",""
"sailing-trial","351","1283883","0.0-11.0-306.0","","","","false","","","","","","","","","","437","","1273","","2","1","arrowright","1","arrowleft","[0.675,0.325,0.85,0.15]","","",""
"sailing-trial","352","1285603","0.0-11.0-307.0","","","","false","","","","","","","","","","null","","703","","0","0","null","null","arrowup","[0.675,0.325,0.85,0.15]","","",""
"sailing-trial","353","1288799","0.0-11.0-308.0","","","","false","","","","","","","","","","380","","99","","2","1","arrowright","1","arrowleft","[0.675,0.325,0.85,0.15]","","",""
"sailing-trial","354","1290713","0.0-11.0-309.0","","","","false","","","","","","","","","","null","","723","","1","0","null","null","arrowup","[0.675,0.325,0.85,0.15]","","",""
"sailing-trial","355","1293709","0.0-11.0-310.0","","","","false","","","","","","","","","","327","","118","","2","1","arrowright","1","arrowleft","[0.85,0.15,0.675,0.325]","","",""
"sailing-trial","356","1297823","0.0-11.0-311.0","","","","false","","","","","","","","","","null","","2506","","2","1","null","null","arrowup","[0.85,0.15,0.675,0.325]","","",""
"sailing-trial","357","1300530","0.0-11.0-312.0","","","","false","","","","","","","","","","369","","242","","2","0","arrowright","1","arrowleft","[0.85,0.15,0.675,0.325]","","",""
"sailing-trial","358","1302347","0.0-11.0-313.0","","","","false","","","","","","","","","","null","","756","","0","0","null","null","arrowup","[0.85,0.15,0.675,0.325]","","",""
"sailing-trial","359","1305500","0.0-11.0-314.0","","","","false","","","","","","","","","","307","","161","","2","0","arrowright","1","arrowleft","[0.85,0.15,0.675,0.325]","","",""
"sailing-trial","360","1307310","0.0-11.0-315.0","","","","false","","","","","","","","","","null","","706","","1","0","null","null","arrowup","[0.85,0.15,0.675,0.325]","","",""
"sailing-trial","361","1310507","0.0-11.0-316.0","","","","false","","","","","","","","","","263","","299","","2","1","arrowright","1","arrowleft","[0.85,0.15,0.675,0.325]","","",""
"sailing-trial","362","1313214","0.0-11.0-317.0","","","","false","","","","","","","","","","null","","949","","2","1","null","null","arrowup","[0.85,0.15,0.675,0.325]","","",""
"sailing-trial","363","1316246","0.0-11.0-318.0","","","","false","","","","","","","","","","242","","194","","2","1","arrowright","1","arrowleft","[0.85,0.15,0.675,0.325]","","",""
"sailing-trial","364","1318524","0.0-11.0-319.0","","","","false","","","","","","","","","","null","","529","","2","1","null","null","arrowup","[0.85,0.15,0.675,0.325]","","",""
"sailing-trial","365","1321932","0.0-11.0-320.0","","","","false","","","","","","","","","","531","","65","","2","1","arrowright","1","arrowleft","[0.85,0.15,0.675,0.325]","","",""
"sailing-trial","366","1324229","0.0-11.0-321.0","","","","false","","","","","","","","","","null","","774","","2","1","null","null","arrowup","[0.85,0.15,0.675,0.325]","","",""
"sailing-trial","367","1326942","0.0-11.0-322.0","","","","false","","","","","","","","","","411","","13","","2","0","arrowright","1","arrowleft","[0.85,0.15,0.675,0.325]","","",""
"sailing-trial","368","1329224","0.0-11.0-323.0","","","","false","","","","","","","","","","null","","720","","0","1","null","null","arrowup","[0.85,0.15,0.675,0.325]","","",""
"sailing-trial","369","1332088","0.0-11.0-324.0","","","","false","","","","","","","","","","415","","290","","2","0","arrowright","1","arrowleft","[0.85,0.15,0.675,0.325]","","",""
"sailing-trial","370","1333563","0.0-11.0-325.0","","","","false","","","","","","","","","","null","","457","","3","0","null","null","arrowup","[0.85,0.15,0.675,0.325]","","",""
"sailing-trial","371","1337083","0.0-11.0-326.0","","","","false","","","","","","","","","","479","","276","","0","1","arrowleft","0","arrowleft","[0.85,0.15,0.675,0.325]","","",""
"sailing-trial","372","1339461","0.0-11.0-327.0","","","","false","","","","","","","","","","null","","476","","0","1","null","null","arrowup","[0.85,0.15,0.675,0.325]","","",""
"sailing-trial","373","1342123","0.0-11.0-328.0","","","","false","","","","","","","","","","298","","248","","0","0","arrowleft","0","arrowleft","[0.85,0.15,0.675,0.325]","","",""
"sailing-trial","374","1343664","0.0-11.0-329.0","","","","false","","","","","","","","","","null","","522","","3","0","null","null","arrowup","[0.85,0.15,0.675,0.325]","","",""
"sailing-trial","375","1346786","0.0-11.0-330.0","","","","false","","","","","","","","","","324","","404","","0","0","arrowleft","0","arrowleft","[0.15,0.85,0.325,0.675]","","",""
"sailing-trial","376","1348973","0.0-11.0-331.0","","","","false","","","","","","","","","","null","","588","","1","1","null","null","arrowup","[0.15,0.85,0.325,0.675]","","",""
"sailing-trial","377","1351731","0.0-11.0-332.0","","","","false","","","","","","","","","","439","","224","","1","0","arrowleft","0","arrowright","[0.15,0.85,0.325,0.675]","","",""
"sailing-trial","378","1353453","0.0-11.0-333.0","","","","false","","","","","","","","","","null","","619","","2","0","null","null","arrowup","[0.15,0.85,0.325,0.675]","","",""
"sailing-trial","379","1356817","0.0-11.0-334.0","","","","false","","","","","","","","","","543","","248","","1","1","arrowleft","0","arrowright","[0.15,0.85,0.325,0.675]","","",""
"sailing-trial","380","1359001","0.0-11.0-335.0","","","","false","","","","","","","","","","null","","652","","1","1","null","null","arrowup","[0.15,0.85,0.325,0.675]","","",""
"sailing-trial","381","1362378","0.0-11.0-336.0","","","","false","","","","","","","","","","703","","153","","1","1","arrowleft","0","arrowright","[0.15,0.85,0.325,0.675]","","",""
"sailing-trial","382","1364457","0.0-11.0-337.0","","","","false","","","","","","","","","","null","","552","","2","1","null","null","arrowup","[0.15,0.85,0.325,0.675]","","",""
"sailing-trial","383","1368002","0.0-11.0-338.0","","","","false","","","","","","","","","","447","","236","","1","1","arrowleft","0","arrowright","[0.15,0.85,0.325,0.675]","","",""
"sailing-trial","384","1370218","0.0-11.0-339.0","","","","false","","","","","","","","","","null","","479","","2","1","null","null","arrowup","[0.15,0.85,0.325,0.675]","","",""
"sailing-trial","385","1373668","0.0-11.0-340.0","","","","false","","","","","","","","","","454","","265","","1","1","arrowleft","0","arrowright","[0.15,0.85,0.325,0.675]","","",""
"sailing-trial","386","1375368","0.0-11.0-341.0","","","","false","","","","","","","","","","null","","617","","0","0","null","null","arrowup","[0.15,0.85,0.325,0.675]","","",""
"sailing-trial","387","1378612","0.0-11.0-342.0","","","","false","","","","","","","","","","240","","269","","1","1","arrowleft","0","arrowright","[0.15,0.85,0.325,0.675]","","",""
"sailing-trial","388","1380237","0.0-11.0-343.0","","","","false","","","","","","","","","","null","","607","","0","0","null","null","arrowup","[0.15,0.85,0.325,0.675]","","",""
"sailing-trial","389","1382666","0.0-11.0-344.0","","","","false","","","","","","","","","","303","","11","","1","0","arrowleft","0","arrowright","[0.15,0.85,0.325,0.675]","","",""
"sailing-trial","390","1385023","0.0-11.0-345.0","","","","false","","","","","","","","","","null","","543","","1","1","null","null","arrowup","[0.15,0.85,0.325,0.675]","","",""
"sailing-trial","391","1388116","0.0-11.0-346.0","","","","false","","","","","","","","","","233","","69","","1","1","arrowleft","0","arrowright","[0.15,0.85,0.325,0.675]","","",""
"sailing-trial","392","1389677","0.0-11.0-347.0","","","","false","","","","","","","","","","null","","433","","0","0","null","null","arrowup","[0.15,0.85,0.325,0.675]","","",""
"sailing-trial","393","1393512","0.0-11.0-348.0","","","","false","","","","","","","","","","660","","267","","1","1","arrowleft","0","arrowright","[0.325,0.675,0.15,0.85]","","",""
"sailing-trial","394","1396304","0.0-11.0-349.0","","","","false","","","","","","","","","","null","","636","","2","1","null","null","arrowup","[0.325,0.675,0.15,0.85]","","",""
"sailing-trial","395","1399628","0.0-11.0-350.0","","","","false","","","","","","","","","","719","","440","","1","0","arrowleft","0","arrowright","[0.325,0.675,0.15,0.85]","","",""
"sailing-trial","396","1401495","0.0-11.0-351.0","","","","false","","","","","","","","","","null","","539","","1","0","null","null","arrowup","[0.325,0.675,0.15,0.85]","","",""
"sailing-trial","397","1404186","0.0-11.0-352.0","","","","false","","","","","","","","","","370","","298","","1","0","arrowleft","0","arrowright","[0.325,0.675,0.15,0.85]","","",""
"sailing-trial","398","1406338","0.0-11.0-353.0","","","","false","","","","","","","","","","null","","588","","3","1","null","null","arrowup","[0.325,0.675,0.15,0.85]","","",""
"sailing-trial","399","1409500","0.0-11.0-354.0","","","","false","","","","","","","","","","414","","233","","3","1","arrowright","1","arrowright","[0.325,0.675,0.15,0.85]","","",""
"sailing-trial","400","1411065","0.0-11.0-355.0","","","","false","","","","","","","","","","null","","546","","0","0","null","null","arrowup","[0.325,0.675,0.15,0.85]","","",""
"sailing-trial","401","1414634","0.0-11.0-356.0","","","","false","","","","","","","","","","414","","286","","3","1","arrowright","1","arrowright","[0.325,0.675,0.15,0.85]","","",""
"sailing-trial","402","1416896","0.0-11.0-357.0","","","","false","","","","","","","","","","null","","703","","1","1","null","null","arrowup","[0.325,0.675,0.15,0.85]","","",""
"sailing-trial","403","1420240","0.0-11.0-358.0","","","","false","","","","","","","","","","482","","174","","3","1","arrowright","1","arrowright","[0.325,0.675,0.15,0.85]","","",""
"sailing-trial","404","1421995","0.0-11.0-359.0","","","","false","","","","","","","","","","null","","564","","1","0","null","null","arrowup","[0.325,0.675,0.15,0.85]","","",""
"sailing-trial","405","1425424","0.0-11.0-360.0","","","","false","","","","","","","","","","698","","166","","3","1","arrowright","1","arrowright","[0.325,0.675,0.15,0.85]","","",""
"sailing-trial","406","1427910","0.0-11.0-361.0","","","","false","","","","","","","","","","null","","630","","0","1","null","null","arrowup","[0.325,0.675,0.15,0.85]","","",""
"sailing-trial","407","1431510","0.0-11.0-362.0","","","","false","","","","","","","","","","193","","317","","3","1","arrowright","1","arrowright","[0.325,0.675,0.15,0.85]","","",""
"sailing-trial","408","1433463","0.0-11.0-363.0","","","","false","","","","","","","","","","null","","342","","3","1","null","null","arrowup","[0.325,0.675,0.15,0.85]","","",""
"sailing-trial","409","1436992","0.0-11.0-364.0","","","","false","","","","","","","","","","395","","339","","3","1","arrowright","1","arrowright","[0.325,0.675,0.15,0.85]","","",""
"sailing-trial","410","1439021","0.0-11.0-365.0","","","","false","","","","","","","","","","null","","409","","3","1","null","null","arrowup","[0.325,0.675,0.15,0.85]","","",""
"sailing-trial","411","1442393","0.0-11.0-366.0","","","","false","","","","","","","","","","422","","326","","3","1","arrowright","1","arrowright","[0.325,0.675,0.15,0.85]","","",""
"sailing-trial","412","1444394","0.0-11.0-367.0","","","","false","","","","","","","","","","null","","477","","3","1","null","null","arrowup","[0.325,0.675,0.15,0.85]","","",""
"sailing-trial","413","1447884","0.0-11.0-368.0","","","","false","","","","","","","","","","519","","105","","3","1","arrowright","1","arrowright","[0.15,0.85,0.325,0.675]","","",""
"sailing-trial","414","1450022","0.0-11.0-369.0","","","","false","","","","","","","","","","null","","476","","3","1","null","null","arrowup","[0.15,0.85,0.325,0.675]","","",""
"sailing-trial","415","1453725","0.0-11.0-370.0","","","","false","","","","","","","","","","489","","320","","3","1","arrowright","1","arrowright","[0.15,0.85,0.325,0.675]","","",""
"sailing-trial","416","1455914","0.0-11.0-371.0","","","","false","","","","","","","","","","null","","503","","3","1","null","null","arrowup","[0.15,0.85,0.325,0.675]","","",""
"sailing-trial","417","1459414","0.0-11.0-372.0","","","","false","","","","","","","","","","509","","416","","3","1","arrowright","1","arrowright","[0.15,0.85,0.325,0.675]","","",""
"sailing-trial","418","1461782","0.0-11.0-373.0","","","","false","","","","","","","","","","null","","769","","3","1","null","null","arrowup","[0.15,0.85,0.325,0.675]","","",""
"sailing-trial","419","1466504","0.0-11.0-374.0","","","","false","","","","","","","","","","464","","1644","","3","1","arrowright","1","arrowright","[0.15,0.85,0.325,0.675]","","",""
"sailing-trial","420","1469605","0.0-11.0-375.0","","","","false","","","","","","","","","","null","","1508","","2","1","null","null","arrowup","[0.15,0.85,0.325,0.675]","","",""
"sailing-trial","421","1474393","0.0-11.0-376.0","","","","false","","","","","","","","","","1764","","332","","3","0","arrowright","1","arrowright","[0.15,0.85,0.325,0.675]","","",""
"sailing-trial","422","1476841","0.0-11.0-377.0","","","","false","","","","","","","","","","null","","806","","0","1","null","null","arrowup","[0.15,0.85,0.325,0.675]","","",""
"sailing-trial","423","1480029","0.0-11.0-378.0","","","","false","","","","","","","","","","248","","64","","3","1","arrowright","1","arrowright","[0.15,0.85,0.325,0.675]","","",""
"sailing-trial","424","1482074","0.0-11.0-379.0","","","","false","","","","","","","","","","null","","844","","0","0","null","null","arrowup","[0.15,0.85,0.325,0.675]","","",""
"sailing-trial","425","1485245","0.0-11.0-380.0","","","","false","","","","","","","","","","326","","264","","3","1","arrowright","1","arrowright","[0.15,0.85,0.325,0.675]","","",""
"sailing-trial","426","1487358","0.0-11.0-381.0","","","","false","","","","","","","","","","null","","574","","1","1","null","null","arrowup","[0.15,0.85,0.325,0.675]","","",""
"sailing-trial","427","1490612","0.0-11.0-382.0","","","","false","","","","","","","","","","371","","332","","3","1","arrowright","1","arrowright","[0.15,0.85,0.325,0.675]","","",""
"sailing-trial","428","1492145","0.0-11.0-383.0","","","","false","","","","","","","","","","null","","492","","0","0","null","null","arrowup","[0.15,0.85,0.325,0.675]","","",""
"sailing-trial","429","1495496","0.0-11.0-384.0","","","","false","","","","","","","","","","370","","316","","3","1","arrowright","1","arrowright","[0.325,0.675,0.15,0.85]","","",""
"sailing-trial","430","1497576","0.0-11.0-385.0","","","","false","","","","","","","","","","null","","481","","3","1","null","null","arrowup","[0.325,0.675,0.15,0.85]","","",""
"sailing-trial","431","1501099","0.0-11.0-386.0","","","","false","","","","","","","","","","465","","253","","3","1","arrowright","1","arrowright","[0.325,0.675,0.15,0.85]","","",""
"sailing-trial","432","1503155","0.0-11.0-387.0","","","","false","","","","","","","","","","null","","499","","1","1","null","null","arrowup","[0.325,0.675,0.15,0.85]","","",""
"sailing-trial","433","1506842","0.0-11.0-388.0","","","","false","","","","","","","","","","810","","319","","3","1","arrowright","1","arrowright","[0.325,0.675,0.15,0.85]","","",""
"sailing-trial","434","1508930","0.0-11.0-389.0","","","","false","","","","","","","","","","null","","745","","0","0","null","null","arrowup","[0.325,0.675,0.15,0.85]","","",""
"sailing-trial","435","1512071","0.0-11.0-390.0","","","","false","","","","","","","","","","329","","239","","3","1","arrowright","1","arrowright","[0.325,0.675,0.15,0.85]","","",""
"sailing-trial","436","1513638","0.0-11.0-391.0","","","","false","","","","","","","","","","null","","464","","3","0","null","null","arrowup","[0.325,0.675,0.15,0.85]","","",""
"sailing-trial","437","1516661","0.0-11.0-392.0","","","","false","","","","","","","","","","350","","0","","3","1","arrowright","1","arrowright","[0.325,0.675,0.15,0.85]","","",""
"sailing-trial","438","1518831","0.0-11.0-393.0","","","","false","","","","","","","","","","null","","504","","0","1","null","null","arrowup","[0.325,0.675,0.15,0.85]","","",""
"sailing-trial","439","1522243","0.0-11.0-394.0","","","","false","","","","","","","","","","508","","314","","3","1","arrowright","1","arrowright","[0.325,0.675,0.15,0.85]","","",""
"sailing-trial","440","1524393","0.0-11.0-395.0","","","","false","","","","","","","","","","null","","501","","1","1","null","null","arrowup","[0.325,0.675,0.15,0.85]","","",""
"sailing-trial","441","1527934","0.0-11.0-396.0","","","","false","","","","","","","","","","761","","166","","3","1","arrowright","1","arrowright","[0.325,0.675,0.15,0.85]","","",""
"sailing-trial","442","1529824","0.0-11.0-397.0","","","","false","","","","","","","","","","null","","561","","0","0","null","null","arrowup","[0.325,0.675,0.15,0.85]","","",""
"sailing-trial","443","1533146","0.0-11.0-398.0","","","","false","","","","","","","","","","351","","299","","3","1","arrowright","1","arrowright","[0.325,0.675,0.15,0.85]","","",""
"sailing-trial","444","1535119","0.0-11.0-399.0","","","","false","","","","","","","","","","null","","433","","1","1","null","null","arrowup","[0.325,0.675,0.15,0.85]","","",""
"instructions","445","1540076","0.0-12.0","","","","","","","","","","4956","","","","","","","","","","","","","","","","[{""page_index"":0,""viewing_time"":4956}]"
"survey-debrief","446","1564071","0.0-13.0","","","","","","","","","","23993","","","","","","","","","","","","","","{""difficulty"":""5"",""fun"":""2"",""clarity"":""5"",""strategy"":""Just kept checking which store had the highest rate of success"",""feedback"":""No""}","",""
