"trial_type","trial_index","time_elapsed","internal_node_id","value","metadata","success","timeout","failed_images","failed_audio","failed_video","browser_interaction","low_quality","rt","stimulus","response","button_pressed","island_rt","island_response","boat_rt","boat_response","boat","reward","island_key","island","boat_key","reward_probabilities","responses","num_errors","view_history"
"pavlovia","0","6","0.0-0.0","","","","","","","","","","","","","","","","","","","","","","","","","",""
"call-function","1","7","0.0-1.0","","{""task_version"":""sailing_part1_v1"",""task_condition"":""good"",""boats"":[""B"",""C"",""D"",""A""],""boats_demo"":[""F"",""H"",""G"",""E""],""islands"":[""A"",""B""],""subject_id"":""15365"",""age"":""14"",""gender"":""Male""}","","","","","","","","","","","","","","","","","","","","","","","",""
"preload","2","8746","0.0-2.0","","","true","false","[]","[]","[]","[{""event"":""fullscreenenter"",""trial"":3,""time"":44739}]","false","","","","","","","","","","","","","","","","",""
"fullscreen","3","45701","0.0-3.0","","","true","","","","","","","","","","","","","","","","","","","","","","",""
"audio-keyboard-response","4","67937","0.0-4.0-0.0","","","","","","","","","","21600","audio/beep_loop.wav"," ","","","","","","","","","","","","","",""
"audio-test","5","70701","0.0-4.0-1.0","","","","","","","","","","null","audio/turtle.mp3","","3","","","","","","","","","","","","",""
"audio-test","6","72969","0.0-4.0-2.0","","","","","","","","","","null","audio/shark.mp3","","2","","","","","","","","","","","","",""
"sailing-instructions","7","127914","0.0-5.0-0.0-0.0","","","","","","","","","","","","","","null","null","null","null","null","null","","","","","","",""
"sailing-trial","8","139658","0.0-5.0-0.0-1.0-0.0","","","","false","","","","","","","","","","10464.599999904633","","null","","null","null","arrowleft","0","null","null","","",""
"sailing-trial","9","145629","0.0-5.0-0.0-1.0-1.0","","","","false","","","","","","","","","","4833.5","","null","","null","null","arrowright","1","null","null","","",""
"sailing-trial","10","150435","0.0-5.0-0.0-1.0-2.0","","","","false","","","","","","","","","","3654.0999999046326","","null","","null","null","arrowleft","0","null","null","","",""
"sailing-instructions","11","195827","0.0-5.0-0.0-2.0","","","","","","","","","","","","","","null","null","null","null","0","null","","","","","","",""
"sailing-trial","12","202012","0.0-5.0-0.0-3.0-0.0","","","","false","","","","","","","","","","null","","1928.2000000476837","","2","1","null","null","arrowleft","[1,1,1,1]","","",""
"sailing-trial","13","207115","0.0-5.0-0.0-3.0-1.0","","","","false","","","","","","","","","","null","","1679.7000000476837","","3","1","null","null","arrowright","[1,1,1,1]","","",""
"sailing-trial","14","212038","0.0-5.0-0.0-3.0-2.0","","","","false","","","","","","","","","","null","","1349.5","","2","0","null","null","arrowleft","[0,0,0,0]","","",""
"sailing-instructions","15","221053","0.0-5.0-0.0-4.0","","","","","","","","","","","","","","null","null","null","null","null","null","","","","","","",""
"sailing-comprehension","16","244293","0.0-5.0-0.0-5.0","","","","","","","","","","20789.799999952316","","","","","","","","","","","","","","[""true"",""true"",""false"",""true""]","0",""
"sailing-instructions","17","357154","0.0-6.0-0.0-0.0","","","","","","","","","","","","","","null","null","null","null","null","null","","","","","","",""
"sailing-comprehension","18","379900","0.0-6.0-0.0-1.0","","","","","","","","","","17181.5","","","","","","","","","","","","","","[""true"",""false"",""true""]","0",""
"sailing-instructions","19","411332","0.0-7.0-0.0-0.0","","","","","","","","","","","","","","null","null","null","null","null","null","","","","","","",""
"sailing-trial","20","424868","0.0-7.0-0.0-1.0-0.0","","","","false","","","","","","","","","","null","","10496.900000095367","","0","0","null","null","arrowup","[0.2,0.8,0.2,0.8]","","",""
"sailing-trial","21","431406","0.0-7.0-0.0-1.0-1.0","","","","false","","","","","","","","","","null","","2961.600000143051","","1","1","null","null","arrowup","[0.2,0.8,0.2,0.8]","","",""
"sailing-trial","22","436218","0.0-7.0-0.0-1.0-2.0","","","","false","","","","","","","","","","null","","1791.2000000476837","","2","0","null","null","arrowup","[0.2,0.8,0.2,0.8]","","",""
"sailing-trial","23","439623","0.0-7.0-0.0-1.0-3.0","","","","false","","","","","","","","","","null","","683.2000000476837","","3","1","null","null","arrowup","[0.2,0.8,0.2,0.8]","","",""
"sailing-comprehension","24","448467","0.0-7.0-0.0-2.0","","","","","","","","","","4642.5","","","","","","","","","","","","","","[""true""]","1",""
"sailing-instructions","25","477548","0.0-7.0-0.1-0.1","","","","","","","","","","","","","","null","null","null","null","null","null","","","","","","",""
"sailing-trial","26","490977","0.0-7.0-0.1-1.1-0.1","","","","false","","","","","","","","","","null","","10382","","0","0","null","null","arrowup","[0.2,0.8,0.2,0.8]","","",""
"sailing-trial","27","504482","0.0-7.0-0.1-1.1-1.1","","","","false","","","","","","","","","","null","","3899","","1","1","null","null","arrowup","[0.2,0.8,0.2,0.8]","","",""
"sailing-trial","28","509173","0.0-7.0-0.1-1.1-2.1","","","","false","","","","","","","","","","null","","2497.4000000953674","","2","0","null","null","arrowup","[0.2,0.8,0.2,0.8]","","",""
"sailing-trial","29","514235","0.0-7.0-0.1-1.1-3.1","","","","false","","","","","","","","","","null","","2046.1000001430511","","3","0","null","null","arrowup","[0.2,0.8,0.2,0.8]","","",""
"sailing-comprehension","30","531623","0.0-7.0-0.1-2.1","","","","","","","","","","8635.700000047684","","","","","","","","","","","","","","[""false""]","0",""
"sailing-instructions","31","546655","0.0-8.0-0.0-0.0","","","","","","","","","","","","","","null","null","null","null","null","null","","","","","","",""
"sailing-comprehension","32","555122","0.0-8.0-0.0-1.0","","","","","","","","","","6418.099999904633","","","","","","","","","","","","","","[""true""]","0",""
"sailing-instructions","33","612653","0.0-9.0-0.0-0.0","","","","","","","","","","","","","","null","null","null","null","null","null","","","","","","",""
"sailing-trial","34","622232","0.0-9.0-0.0-1.0-0.0","","","","false","","","","","","","","","","3069.7999999523163","","1756.3999998569489","","1","1","arrowleft","0","arrowright","[0.2,0.8,0.2,0.8]","","",""
"sailing-trial","35","627613","0.0-9.0-0.0-1.0-1.0","","","","false","","","","","","","","","","1241.8999998569489","","87.79999995231628","","1","0","arrowleft","0","arrowright","[0.2,0.8,0.2,0.8]","","",""
"sailing-trial","36","632685","0.0-9.0-0.0-1.0-2.0","","","","false","","","","","","","","","","null","","2799.2000000476837","","0","1","null","null","arrowup","[0.2,0.8,0.2,0.8]","","",""
"sailing-trial","37","638944","0.0-9.0-0.0-1.0-3.0","","","","false","","","","","","","","","","1500.5999999046326","","695.3999998569489","","1","0","arrowleft","0","arrowright","[0.2,0.8,0.2,0.8]","","",""
"sailing-trial","38","643304","0.0-9.0-0.0-1.0-4.0","","","","false","","","","","","","","","","null","","1910.2000000476837","","3","1","null","null","arrowup","[0.2,0.8,0.2,0.8]","","",""
"sailing-trial","39","648832","0.0-9.0-0.0-1.0-5.0","","","","false","","","","","","","","","","1006.0999999046326","","376.2000000476837","","2","0","arrowright","1","arrowleft","[0.2,0.8,0.2,0.8]","","",""
"sailing-instructions","40","758432","0.0-10.0","","","","","","","","","","","","","","null","null","null","null","null","null","","","","","","",""
"sailing-trial","41","765774","0.0-11.0-0.0","","","","false","","","","","","","","","","2851.0999999046326","","120","","3","0","arrowright","1","arrowright","[0.85,0.15,0.325,0.675]","","",""
"sailing-trial","42","770450","0.0-11.0-1.0","","","","false","","","","","","","","","","null","","2038","","3","1","null","null","arrowup","[0.85,0.15,0.325,0.675]","","",""
"sailing-trial","43","775905","0.0-11.0-2.0","","","","false","","","","","","","","","","1026.8000001907349","","488","","0","1","arrowleft","0","arrowleft","[0.85,0.15,0.325,0.675]","","",""
"sailing-trial","44","780477","0.0-11.0-3.0","","","","false","","","","","","","","","","null","","2341.7999999523163","","3","1","null","null","arrowup","[0.85,0.15,0.325,0.675]","","",""
"sailing-trial","45","785683","0.0-11.0-4.0","","","","false","","","","","","","","","","861.2999999523163","","287.7999999523163","","0","1","arrowleft","0","arrowleft","[0.85,0.15,0.325,0.675]","","",""
"sailing-trial","46","792003","0.0-11.0-5.0","","","","false","","","","","","","","","","null","","1884.2999999523163","","2","1","null","null","arrowup","[0.85,0.15,0.325,0.675]","","",""
"sailing-trial","47","795895","0.0-11.0-6.0","","","","false","","","","","","","","","","694.5","","264.2000000476837","","3","1","arrowright","1","arrowright","[0.85,0.15,0.325,0.675]","","",""
"sailing-trial","48","800210","0.0-11.0-7.0","","","","false","","","","","","","","","","null","","1274.1000001430511","","1","0","null","null","arrowup","[0.85,0.15,0.325,0.675]","","",""
"sailing-trial","49","805032","0.0-11.0-8.0","","","","false","","","","","","","","","","320.2999999523163","","457.60000014305115","","3","0","arrowright","1","arrowright","[0.85,0.15,0.325,0.675]","","",""
"sailing-trial","50","809051","0.0-11.0-9.0","","","","false","","","","","","","","","","null","","1740.0999999046326","","2","1","null","null","arrowup","[0.85,0.15,0.325,0.675]","","",""
"sailing-trial","51","813259","0.0-11.0-10.0","","","","false","","","","","","","","","","522.4000000953674","","312.09999990463257","","3","1","arrowright","1","arrowright","[0.85,0.15,0.325,0.675]","","",""
"sailing-trial","52","817208","0.0-11.0-11.0","","","","false","","","","","","","","","","null","","1857.6000001430511","","1","0","null","null","arrowup","[0.85,0.15,0.325,0.675]","","",""
"sailing-trial","53","822097","0.0-11.0-12.0","","","","false","","","","","","","","","","542.0999999046326","","303","","3","0","arrowright","1","arrowright","[0.85,0.15,0.325,0.675]","","",""
"sailing-trial","54","825733","0.0-11.0-13.0","","","","false","","","","","","","","","","null","","1584.7000000476837","","0","1","null","null","arrowup","[0.85,0.15,0.325,0.675]","","",""
"sailing-trial","55","829606","0.0-11.0-14.0","","","","false","","","","","","","","","","271.2000000476837","","17.59999990463257","","3","1","arrowright","1","arrowright","[0.85,0.15,0.325,0.675]","","",""
"sailing-trial","56","831781","0.0-11.0-15.0","","","","false","","","","","","","","","","null","","721.6999998092651","","2","0","null","null","arrowup","[0.85,0.15,0.325,0.675]","","",""
"sailing-trial","57","836565","0.0-11.0-16.0","","","","false","","","","","","","","","","477.2000000476837","","266.40000009536743","","3","0","arrowright","1","arrowright","[0.325,0.675,0.85,0.15]","","",""
"sailing-trial","58","839287","0.0-11.0-17.0","","","","false","","","","","","","","","","null","","845.5999999046326","","2","1","null","null","arrowup","[0.325,0.675,0.85,0.15]","","",""
"sailing-trial","59","844038","0.0-11.0-18.0","","","","false","","","","","","","","","","1048.2000000476837","","323.2999999523163","","0","0","arrowleft","0","arrowleft","[0.325,0.675,0.85,0.15]","","",""
"sailing-trial","60","848783","0.0-11.0-19.0","","","","false","","","","","","","","","","null","","2567.100000143051","","1","1","null","null","arrowup","[0.325,0.675,0.85,0.15]","","",""
"sailing-trial","61","853728","0.0-11.0-20.0","","","","false","","","","","","","","","","573.3000001907349","","325","","3","0","arrowright","1","arrowright","[0.325,0.675,0.85,0.15]","","",""
"sailing-trial","62","857260","0.0-11.0-21.0","","","","false","","","","","","","","","","null","","1674.7000000476837","","1","0","null","null","arrowup","[0.325,0.675,0.85,0.15]","","",""
"sailing-trial","63","864699","0.0-11.0-22.0","","","","false","","","","","","","","","","1565.3000001907349","","298.69999980926514","","3","1","arrowright","1","arrowright","[0.325,0.675,0.85,0.15]","","",""
"sailing-trial","64","867754","0.0-11.0-23.0","","","","false","","","","","","","","","","null","","1761.0999999046326","","1","0","null","null","arrowup","[0.325,0.675,0.85,0.15]","","",""
"sailing-trial","65","870857","0.0-11.0-24.0","","","","false","","","","","","","","","","487","","328.7999999523163","","3","0","arrowright","1","arrowright","[0.325,0.675,0.85,0.15]","","",""
"sailing-trial","66","872635","0.0-11.0-25.0","","","","false","","","","","","","","","","null","","363.90000009536743","","2","0","null","null","arrowup","[0.325,0.675,0.85,0.15]","","",""
"sailing-trial","67","875516","0.0-11.0-26.0","","","","false","","","","","","","","","","328.39999985694885","","211.10000014305115","","3","0","arrowright","1","arrowright","[0.325,0.675,0.85,0.15]","","",""
"sailing-trial","68","877103","0.0-11.0-27.0","","","","false","","","","","","","","","","null","","269","","3","0","null","null","arrowup","[0.325,0.675,0.85,0.15]","","",""
"sailing-trial","69","879729","0.0-11.0-28.0","","","","false","","","","","","","","","","375.39999985694885","","0.7000000476837158","","3","0","arrowright","1","arrowright","[0.325,0.675,0.85,0.15]","","",""
"sailing-trial","70","881795","0.0-11.0-29.0","","","","false","","","","","","","","","","null","","276.5","","1","1","null","null","arrowup","[0.325,0.675,0.85,0.15]","","",""
"sailing-trial","71","887115","0.0-11.0-30.0","","","","false","","","","","","","","","","2797.9000000953674","","352.7999999523163","","0","0","arrowleft","0","arrowleft","[0.325,0.675,0.85,0.15]","","",""
"sailing-trial","72","889114","0.0-11.0-31.0","","","","false","","","","","","","","","","null","","268.10000014305115","","0","1","null","null","arrowup","[0.325,0.675,0.85,0.15]","","",""
"sailing-trial","73","891395","0.0-11.0-32.0","","","","false","","","","","","","","","","3.8000001907348633","","48.59999990463257","","0","0","arrowleft","0","arrowleft","[0.325,0.675,0.85,0.15]","","",""
"sailing-trial","74","893370","0.0-11.0-33.0","","","","false","","","","","","","","","","null","","268.40000009536743","","1","1","null","null","arrowup","[0.325,0.675,0.85,0.15]","","",""
"sailing-trial","75","896952","0.0-11.0-34.0","","","","false","","","","","","","","","","140.79999995231628","","774.1000001430511","","1","0","arrowleft","0","arrowright","[0.325,0.675,0.85,0.15]","","",""
"sailing-trial","76","898286","0.0-11.0-35.0","","","","false","","","","","","","","","","null","","98.40000009536743","","1","0","null","null","arrowup","[0.325,0.675,0.85,0.15]","","",""
"sailing-trial","77","901387","0.0-11.0-36.0","","","","false","","","","","","","","","","215.59999990463257","","97.59999990463257","","1","1","arrowleft","0","arrowright","[0.15,0.85,0.675,0.325]","","",""
"sailing-trial","78","903020","0.0-11.0-37.0","","","","false","","","","","","","","","","null","","86.29999995231628","","2","0","null","null","arrowup","[0.15,0.85,0.675,0.325]","","",""
"sailing-trial","79","906407","0.0-11.0-38.0","","","","false","","","","","","","","","","551.2999999523163","","445","","3","0","arrowright","1","arrowright","[0.15,0.85,0.675,0.325]","","",""
"sailing-trial","80","908959","0.0-11.0-39.0","","","","false","","","","","","","","","","null","","263.39999985694885","","3","0","null","null","arrowup","[0.15,0.85,0.675,0.325]","","",""
"sailing-trial","81","915412","0.0-11.0-40.0","","","","false","","","","","","","","","","3728.5","","499.7999999523163","","2","0","arrowright","1","arrowleft","[0.15,0.85,0.675,0.325]","","",""
"sailing-trial","82","916625","0.0-11.0-41.0","","","","false","","","","","","","","","","null","","131.39999985694885","","3","0","null","null","arrowup","[0.15,0.85,0.675,0.325]","","",""
"sailing-trial","83","919915","0.0-11.0-42.0","","","","false","","","","","","","","","","272.90000009536743","","273.69999980926514","","0","1","arrowleft","0","arrowleft","[0.15,0.85,0.675,0.325]","","",""
"sailing-trial","84","921843","0.0-11.0-43.0","","","","false","","","","","","","","","","null","","272.7999999523163","","1","1","null","null","arrowup","[0.15,0.85,0.675,0.325]","","",""
"sailing-trial","85","925053","0.0-11.0-44.0","","","","false","","","","","","","","","","2.700000047683716","","269","","1","1","arrowleft","0","arrowright","[0.15,0.85,0.675,0.325]","","",""
"sailing-trial","86","926751","0.0-11.0-45.0","","","","false","","","","","","","","","","null","","535.3999998569489","","3","0","null","null","arrowup","[0.15,0.85,0.675,0.325]","","",""
"sailing-trial","87","929216","0.0-11.0-46.0","","","","false","","","","","","","","","","72.70000004768372","","21.59999990463257","","3","0","arrowright","1","arrowright","[0.15,0.85,0.675,0.325]","","",""
"sailing-trial","88","931175","0.0-11.0-47.0","","","","false","","","","","","","","","","null","","136","","3","1","null","null","arrowup","[0.15,0.85,0.675,0.325]","","",""
"sailing-trial","89","933747","0.0-11.0-48.0","","","","false","","","","","","","","","","187.89999985694885","","59.200000047683716","","0","0","arrowleft","0","arrowleft","[0.15,0.85,0.675,0.325]","","",""
"sailing-trial","90","937131","0.0-11.0-49.0","","","","false","","","","","","","","","","null","","2284.199999809265","","0","0","null","null","arrowup","[0.15,0.85,0.675,0.325]","","",""
"sailing-trial","91","939541","0.0-11.0-50.0","","","","false","","","","","","","","","","167.59999990463257","","101.5","","2","0","arrowright","1","arrowleft","[0.15,0.85,0.675,0.325]","","",""
"sailing-trial","92","941456","0.0-11.0-51.0","","","","false","","","","","","","","","","null","","426","","2","0","null","null","arrowup","[0.15,0.85,0.675,0.325]","","",""
"sailing-trial","93","945027","0.0-11.0-52.0","","","","false","","","","","","","","","","361.7000000476837","","199.20000004768372","","2","1","arrowright","1","arrowleft","[0.325,0.675,0.85,0.15]","","",""
"sailing-trial","94","946766","0.0-11.0-53.0","","","","false","","","","","","","","","","null","","406.89999985694885","","3","0","null","null","arrowup","[0.325,0.675,0.85,0.15]","","",""
"sailing-trial","95","951165","0.0-11.0-54.0","","","","false","","","","","","","","","","261.7999999523163","","19.700000047683716","","2","1","arrowright","1","arrowleft","[0.325,0.675,0.85,0.15]","","",""
"sailing-trial","96","954877","0.0-11.0-55.0","","","","false","","","","","","","","","","null","","2368.399999856949","","0","0","null","null","arrowup","[0.325,0.675,0.85,0.15]","","",""
"sailing-trial","97","957917","0.0-11.0-56.0","","","","false","","","","","","","","","","151.29999995231628","","236.90000009536743","","2","1","arrowright","1","arrowleft","[0.325,0.675,0.85,0.15]","","",""
"sailing-trial","98","962962","0.0-11.0-57.0","","","","false","","","","","","","","","","null","","2701.0999999046326","","3","0","null","null","arrowup","[0.325,0.675,0.85,0.15]","","",""
"sailing-trial","99","966950","0.0-11.0-58.0","","","","false","","","","","","","","","","650.3999998569489","","202.20000004768372","","2","1","arrowright","1","arrowleft","[0.325,0.675,0.85,0.15]","","",""
"sailing-trial","100","970007","0.0-11.0-59.0","","","","false","","","","","","","","","","null","","365.2000000476837","","3","1","null","null","arrowup","[0.325,0.675,0.85,0.15]","","",""
"sailing-trial","101","973966","0.0-11.0-60.0","","","","false","","","","","","","","","","861.2999999523163","","44.59999990463257","","1","1","arrowleft","0","arrowright","[0.325,0.675,0.85,0.15]","","",""
"sailing-trial","102","975566","0.0-11.0-61.0","","","","false","","","","","","","","","","null","","363.40000009536743","","0","0","null","null","arrowup","[0.325,0.675,0.85,0.15]","","",""
"sailing-trial","103","978149","0.0-11.0-62.0","","","","false","","","","","","","","","","231.89999985694885","","69.79999995231628","","1","0","arrowleft","0","arrowright","[0.325,0.675,0.85,0.15]","","",""
"sailing-trial","104","980119","0.0-11.0-63.0","","","","false","","","","","","","","","","null","","268.7000000476837","","2","1","null","null","arrowup","[0.325,0.675,0.85,0.15]","","",""
"sailing-trial","105","982550","0.0-11.0-64.0","","","","false","","","","","","","","","","36.60000014305115","","207","","0","0","arrowleft","0","arrowleft","[0.325,0.675,0.85,0.15]","","",""
"sailing-trial","106","984098","0.0-11.0-65.0","","","","false","","","","","","","","","","null","","255.60000014305115","","0","0","null","null","arrowup","[0.325,0.675,0.85,0.15]","","",""
"sailing-trial","107","987307","0.0-11.0-66.0","","","","false","","","","","","","","","","330.7000000476837","","247.70000004768372","","0","0","arrowleft","0","arrowleft","[0.325,0.675,0.85,0.15]","","",""
"sailing-trial","108","989234","0.0-11.0-67.0","","","","false","","","","","","","","","","null","","262.2999999523163","","1","1","null","null","arrowup","[0.325,0.675,0.85,0.15]","","",""
"sailing-trial","109","992959","0.0-11.0-68.0","","","","false","","","","","","","","","","483.10000014305115","","226.80000019073486","","2","1","arrowright","1","arrowleft","[0.15,0.85,0.675,0.325]","","",""
"sailing-trial","110","995413","0.0-11.0-69.0","","","","false","","","","","","","","","","null","","996.3000001907349","","0","0","null","null","arrowup","[0.15,0.85,0.675,0.325]","","",""
"sailing-trial","111","999161","0.0-11.0-70.0","","","","false","","","","","","","","","","490.40000009536743","","368.80000019073486","","2","1","arrowright","1","arrowleft","[0.15,0.85,0.675,0.325]","","",""
"sailing-trial","112","1001134","0.0-11.0-71.0","","","","false","","","","","","","","","","null","","881.5","","3","0","null","null","arrowup","[0.15,0.85,0.675,0.325]","","",""
"sailing-trial","113","1004052","0.0-11.0-72.0","","","","false","","","","","","","","","","34","","30.299999952316284","","2","1","arrowright","1","arrowleft","[0.15,0.85,0.675,0.325]","","",""
"sailing-trial","114","1006908","0.0-11.0-73.0","","","","false","","","","","","","","","","null","","1730.5","","0","0","null","null","arrowup","[0.15,0.85,0.675,0.325]","","",""
"sailing-trial","115","1009530","0.0-11.0-74.0","","","","false","","","","","","","","","","170.70000004768372","","360.7000000476837","","0","0","arrowleft","0","arrowleft","[0.15,0.85,0.675,0.325]","","",""
"sailing-trial","116","1013266","0.0-11.0-75.0","","","","false","","","","","","","","","","null","","1486.1000001430511","","1","1","null","null","arrowup","[0.15,0.85,0.675,0.325]","","",""
"sailing-trial","117","1016102","0.0-11.0-76.0","","","","false","","","","","","","","","","21.799999952316284","","40.90000009536743","","3","0","arrowright","1","arrowright","[0.15,0.85,0.675,0.325]","","",""
"sailing-trial","118","1018304","0.0-11.0-77.0","","","","false","","","","","","","","","","null","","374.90000009536743","","2","1","null","null","arrowup","[0.15,0.85,0.675,0.325]","","",""
"sailing-trial","119","1021398","0.0-11.0-78.0","","","","false","","","","","","","","","","167.89999985694885","","135.79999995231628","","2","1","arrowright","1","arrowleft","[0.15,0.85,0.675,0.325]","","",""
"sailing-trial","120","1023293","0.0-11.0-79.0","","","","false","","","","","","","","","","null","","200.70000004768372","","2","1","null","null","arrowup","[0.15,0.85,0.675,0.325]","","",""
"sailing-trial","121","1026370","0.0-11.0-80.0","","","","false","","","","","","","","","","83.89999985694885","","187","","2","1","arrowright","1","arrowleft","[0.15,0.85,0.675,0.325]","","",""
"sailing-trial","122","1027730","0.0-11.0-81.0","","","","false","","","","","","","","","","null","","198.29999995231628","","0","0","null","null","arrowup","[0.15,0.85,0.675,0.325]","","",""
"sailing-trial","123","1030457","0.0-11.0-82.0","","","","false","","","","","","","","","","162.89999985694885","","249.70000004768372","","0","0","arrowleft","0","arrowleft","[0.15,0.85,0.675,0.325]","","",""
"sailing-trial","124","1032574","0.0-11.0-83.0","","","","false","","","","","","","","","","null","","960.1999998092651","","0","0","null","null","arrowup","[0.15,0.85,0.675,0.325]","","",""
"sailing-trial","125","1035549","0.0-11.0-84.0","","","","false","","","","","","","","","","16.5","","640.3999998569489","","0","0","arrowleft","0","arrowleft","[0.85,0.15,0.325,0.675]","","",""
"sailing-trial","126","1037195","0.0-11.0-85.0","","","","false","","","","","","","","","","null","","220.59999990463257","","3","0","null","null","arrowup","[0.85,0.15,0.325,0.675]","","",""
"sailing-trial","127","1040940","0.0-11.0-86.0","","","","false","","","","","","","","","","224.5","","54.89999985694885","","0","1","arrowleft","0","arrowleft","[0.85,0.15,0.325,0.675]","","",""
"sailing-trial","128","1042582","0.0-11.0-87.0","","","","false","","","","","","","","","","null","","338.09999990463257","","3","0","null","null","arrowup","[0.85,0.15,0.325,0.675]","","",""
"sailing-trial","129","1045430","0.0-11.0-88.0","","","","false","","","","","","","","","","154.79999995231628","","49.30000019073486","","0","1","arrowleft","0","arrowleft","[0.85,0.15,0.325,0.675]","","",""
"sailing-trial","130","1047212","0.0-11.0-89.0","","","","false","","","","","","","","","","null","","99.29999995231628","","3","1","null","null","arrowup","[0.85,0.15,0.325,0.675]","","",""
"sailing-trial","131","1051484","0.0-11.0-90.0","","","","false","","","","","","","","","","677.3000001907349","","753.9000000953674","","3","1","arrowright","1","arrowright","[0.85,0.15,0.325,0.675]","","",""
"sailing-trial","132","1053912","0.0-11.0-91.0","","","","false","","","","","","","","","","null","","721.6000001430511","","3","1","null","null","arrowup","[0.85,0.15,0.325,0.675]","","",""
"sailing-trial","133","1056892","0.0-11.0-92.0","","","","false","","","","","","","","","","327.89999985694885","","335.59999990463257","","1","0","arrowleft","0","arrowright","[0.85,0.15,0.325,0.675]","","",""
"sailing-trial","134","1059534","0.0-11.0-93.0","","","","false","","","","","","","","","","null","","896.5","","3","1","null","null","arrowup","[0.85,0.15,0.325,0.675]","","",""
"sailing-trial","135","1062527","0.0-11.0-94.0","","","","false","","","","","","","","","","31.799999952316284","","304.09999990463257","","0","1","arrowleft","0","arrowleft","[0.85,0.15,0.325,0.675]","","",""
"sailing-trial","136","1063636","0.0-11.0-95.0","","","","false","","","","","","","","","","null","","67.09999990463257","","3","0","null","null","arrowup","[0.85,0.15,0.325,0.675]","","",""
"sailing-trial","137","1066802","0.0-11.0-96.0","","","","false","","","","","","","","","","353.89999985694885","","10.200000047683716","","0","1","arrowleft","0","arrowleft","[0.85,0.15,0.325,0.675]","","",""
"sailing-trial","138","1068948","0.0-11.0-97.0","","","","false","","","","","","","","","","null","","256.7999999523163","","2","1","null","null","arrowup","[0.85,0.15,0.325,0.675]","","",""
"sailing-trial","139","1072156","0.0-11.0-98.0","","","","false","","","","","","","","","","484.90000009536743","","42","","0","1","arrowleft","0","arrowleft","[0.85,0.15,0.325,0.675]","","",""
"sailing-trial","140","1073868","0.0-11.0-99.0","","","","false","","","","","","","","","","null","","156.69999980926514","","2","1","null","null","arrowup","[0.85,0.15,0.325,0.675]","","",""
"sailing-trial","141","1076286","0.0-11.0-100.0","","","","false","","","","","","","","","","83.29999995231628","","39.59999990463257","","0","0","arrowleft","0","arrowleft","[0.85,0.15,0.325,0.675]","","",""
"sailing-trial","142","1078509","0.0-11.0-101.0","","","","false","","","","","","","","","","null","","578.5999999046326","","3","1","null","null","arrowup","[0.85,0.15,0.325,0.675]","","",""
"sailing-trial","143","1081187","0.0-11.0-102.0","","","","false","","","","","","","","","","1.2999999523162842","","86.39999985694885","","0","1","arrowleft","0","arrowleft","[0.85,0.15,0.325,0.675]","","",""
"sailing-trial","144","1082834","0.0-11.0-103.0","","","","false","","","","","","","","","","null","","55.700000047683716","","3","1","null","null","arrowup","[0.85,0.15,0.325,0.675]","","",""
"sailing-trial","145","1086060","0.0-11.0-104.0","","","","false","","","","","","","","","","339.2000000476837","","18.5","","0","1","arrowleft","0","arrowleft","[0.675,0.325,0.15,0.85]","","",""
"sailing-trial","146","1087445","0.0-11.0-105.0","","","","false","","","","","","","","","","null","","124.79999995231628","","2","0","null","null","arrowup","[0.675,0.325,0.15,0.85]","","",""
"sailing-trial","147","1090193","0.0-11.0-106.0","","","","false","","","","","","","","","","112.79999995231628","","36.5","","0","1","arrowleft","0","arrowleft","[0.675,0.325,0.15,0.85]","","",""
"sailing-trial","148","1091478","0.0-11.0-107.0","","","","false","","","","","","","","","","null","","90.59999990463257","","1","0","null","null","arrowup","[0.675,0.325,0.15,0.85]","","",""
"sailing-trial","149","1095224","0.0-11.0-108.0","","","","false","","","","","","","","","","479.40000009536743","","137.5","","0","1","arrowleft","0","arrowleft","[0.675,0.325,0.15,0.85]","","",""
"sailing-trial","150","1096717","0.0-11.0-109.0","","","","false","","","","","","","","","","null","","62","","0","0","null","null","arrowup","[0.675,0.325,0.15,0.85]","","",""
"sailing-trial","151","1100097","0.0-11.0-110.0","","","","false","","","","","","","","","","278.30000019073486","","137.39999985694885","","0","1","arrowleft","0","arrowleft","[0.675,0.325,0.15,0.85]","","",""
"sailing-trial","152","1103108","0.0-11.0-111.0","","","","false","","","","","","","","","","null","","1214","","0","1","null","null","arrowup","[0.675,0.325,0.15,0.85]","","",""
"sailing-trial","153","1105842","0.0-11.0-112.0","","","","false","","","","","","","","","","442.7999999523163","","144","","0","0","arrowleft","0","arrowleft","[0.675,0.325,0.15,0.85]","","",""
"sailing-trial","154","1107385","0.0-11.0-113.0","","","","false","","","","","","","","","","null","","415.7999999523163","","2","0","null","null","arrowup","[0.675,0.325,0.15,0.85]","","",""
"sailing-trial","155","1110004","0.0-11.0-114.0","","","","false","","","","","","","","","","105.10000014305115","","405","","0","0","arrowleft","0","arrowleft","[0.675,0.325,0.15,0.85]","","",""
"sailing-trial","156","1113114","0.0-11.0-115.0","","","","false","","","","","","","","","","null","","1924","","2","0","null","null","arrowup","[0.675,0.325,0.15,0.85]","","",""
"sailing-trial","157","1116113","0.0-11.0-116.0","","","","false","","","","","","","","","","63","","127.5","","0","1","arrowleft","0","arrowleft","[0.675,0.325,0.15,0.85]","","",""
"sailing-trial","158","1117601","0.0-11.0-117.0","","","","false","","","","","","","","","","null","","292.30000019073486","","2","0","null","null","arrowup","[0.675,0.325,0.15,0.85]","","",""
"sailing-trial","159","1120743","0.0-11.0-118.0","","","","false","","","","","","","","","","612.8000001907349","","318.59999990463257","","0","0","arrowleft","0","arrowleft","[0.675,0.325,0.15,0.85]","","",""
"sailing-trial","160","1121863","0.0-11.0-119.0","","","","false","","","","","","","","","","null","","44.40000009536743","","0","0","null","null","arrowup","[0.675,0.325,0.15,0.85]","","",""
"sailing-trial","161","1125010","0.0-11.0-120.0","","","","false","","","","","","","","","","95.29999995231628","","75.10000014305115","","0","1","arrowleft","0","arrowleft","[0.675,0.325,0.15,0.85]","","",""
"sailing-trial","162","1127213","0.0-11.0-121.0","","","","false","","","","","","","","","","null","","1003.2999999523163","","1","0","null","null","arrowup","[0.675,0.325,0.15,0.85]","","",""
"sailing-trial","163","1130165","0.0-11.0-122.0","","","","false","","","","","","","","","","65.70000004768372","","187.5","","0","1","arrowleft","0","arrowleft","[0.325,0.675,0.85,0.15]","","",""
"sailing-trial","164","1132112","0.0-11.0-123.0","","","","false","","","","","","","","","","null","","279.90000009536743","","2","1","null","null","arrowup","[0.325,0.675,0.85,0.15]","","",""
"sailing-trial","165","1134787","0.0-11.0-124.0","","","","false","","","","","","","","","","275.7999999523163","","247.20000004768372","","0","0","arrowleft","0","arrowleft","[0.325,0.675,0.85,0.15]","","",""
"sailing-trial","166","1136394","0.0-11.0-125.0","","","","false","","","","","","","","","","null","","568.7999999523163","","2","0","null","null","arrowup","[0.325,0.675,0.85,0.15]","","",""
"sailing-trial","167","1138850","0.0-11.0-126.0","","","","false","","","","","","","","","","276.40000009536743","","93.29999995231628","","0","0","arrowleft","0","arrowleft","[0.325,0.675,0.85,0.15]","","",""
"sailing-trial","168","1140334","0.0-11.0-127.0","","","","false","","","","","","","","","","null","","268.40000009536743","","3","0","null","null","arrowup","[0.325,0.675,0.85,0.15]","","",""
"sailing-trial","169","1142848","0.0-11.0-128.0","","","","false","","","","","","","","","","14.299999952316284","","18.5","","0","0","arrowleft","0","arrowleft","[0.325,0.675,0.85,0.15]","","",""
"sailing-trial","170","1143940","0.0-11.0-129.0","","","","false","","","","","","","","","","null","","48.89999985694885","","1","0","null","null","arrowup","[0.325,0.675,0.85,0.15]","","",""
"sailing-trial","171","1146864","0.0-11.0-130.0","","","","false","","","","","","","","","","54.700000047683716","","145.70000004768372","","0","1","arrowleft","0","arrowleft","[0.325,0.675,0.85,0.15]","","",""
"sailing-trial","172","1148175","0.0-11.0-131.0","","","","false","","","","","","","","","","null","","97.29999995231628","","0","0","null","null","arrowup","[0.325,0.675,0.85,0.15]","","",""
"sailing-trial","173","1151007","0.0-11.0-132.0","","","","false","","","","","","","","","","237.40000009536743","","253","","0","0","arrowleft","0","arrowleft","[0.325,0.675,0.85,0.15]","","",""
"sailing-trial","174","1153314","0.0-11.0-133.0","","","","false","","","","","","","","","","null","","76.59999990463257","","3","0","null","null","arrowup","[0.325,0.675,0.85,0.15]","","",""
"sailing-trial","175","1156315","0.0-11.0-134.0","","","","false","","","","","","","","","","342.09999990463257","","575.7999999523163","","3","0","arrowright","1","arrowright","[0.325,0.675,0.85,0.15]","","",""
"sailing-trial","176","1157550","0.0-11.0-135.0","","","","false","","","","","","","","","","null","","186.70000004768372","","0","0","null","null","arrowup","[0.325,0.675,0.85,0.15]","","",""
"sailing-trial","177","1161017","0.0-11.0-136.0","","","","false","","","","","","","","","","244.39999985694885","","79.39999985694885","","3","1","arrowright","1","arrowright","[0.325,0.675,0.85,0.15]","","",""
"sailing-trial","178","1162597","0.0-11.0-137.0","","","","false","","","","","","","","","","null","","25.600000143051147","","1","1","null","null","arrowup","[0.325,0.675,0.85,0.15]","","",""
"sailing-trial","179","1168652","0.0-11.0-138.0","","","","false","","","","","","","","","","939.7999999523163","","2147.7000000476837","","3","1","arrowright","1","arrowright","[0.15,0.85,0.675,0.325]","","",""
"sailing-trial","180","1170461","0.0-11.0-139.0","","","","false","","","","","","","","","","null","","367.7000000476837","","3","0","null","null","arrowup","[0.15,0.85,0.675,0.325]","","",""
"sailing-trial","181","1173825","0.0-11.0-140.0","","","","false","","","","","","","","","","202.79999995231628","","862.1000001430511","","3","0","arrowright","1","arrowright","[0.15,0.85,0.675,0.325]","","",""
"sailing-trial","182","1175245","0.0-11.0-141.0","","","","false","","","","","","","","","","null","","388.09999990463257","","0","0","null","null","arrowup","[0.15,0.85,0.675,0.325]","","",""
"sailing-trial","183","1178075","0.0-11.0-142.0","","","","false","","","","","","","","","","18.5","","119.29999995231628","","3","0","arrowright","1","arrowright","[0.15,0.85,0.675,0.325]","","",""
"sailing-trial","184","1179761","0.0-11.0-143.0","","","","false","","","","","","","","","","null","","31.5","","3","1","null","null","arrowup","[0.15,0.85,0.675,0.325]","","",""
"sailing-trial","185","1182222","0.0-11.0-144.0","","","","false","","","","","","","","","","69.5","","193.20000004768372","","3","0","arrowright","1","arrowright","[0.15,0.85,0.675,0.325]","","",""
"sailing-trial","186","1185886","0.0-11.0-145.0","","","","false","","","","","","","","","","null","","623.2000000476837","","0","0","null","null","arrowup","[0.15,0.85,0.675,0.325]","","",""
"sailing-trial","187","1189507","0.0-11.0-146.0","","","","false","","","","","","","","","","894.2999999523163","","46.40000009536743","","3","1","arrowright","1","arrowright","[0.15,0.85,0.675,0.325]","","",""
"sailing-trial","188","1193563","0.0-11.0-147.0","","","","false","","","","","","","","","","null","","1269.0999999046326","","2","1","null","null","arrowup","[0.15,0.85,0.675,0.325]","","",""
"sailing-trial","189","1196198","0.0-11.0-148.0","","","","false","","","","","","","","","","290.89999985694885","","133.90000009536743","","3","0","arrowright","1","arrowright","[0.15,0.85,0.675,0.325]","","",""
"sailing-trial","190","1199029","0.0-11.0-149.0","","","","false","","","","","","","","","","null","","1724.2999999523163","","2","0","null","null","arrowup","[0.15,0.85,0.675,0.325]","","",""
"sailing-trial","191","1202172","0.0-11.0-150.0","","","","false","","","","","","","","","","42.89999985694885","","112.70000004768372","","3","0","arrowright","1","arrowright","[0.15,0.85,0.675,0.325]","","",""
"sailing-trial","192","1203942","0.0-11.0-151.0","","","","false","","","","","","","","","","null","","162.89999985694885","","1","1","null","null","arrowup","[0.15,0.85,0.675,0.325]","","",""
"sailing-trial","193","1206902","0.0-11.0-152.0","","","","false","","","","","","","","","","0.9000000953674316","","119.5","","3","1","arrowright","1","arrowright","[0.15,0.85,0.675,0.325]","","",""
"sailing-trial","194","1212357","0.0-11.0-153.0","","","","false","","","","","","","","","","null","","3674","","1","1","null","null","arrowup","[0.15,0.85,0.675,0.325]","","",""
"sailing-trial","195","1214723","0.0-11.0-154.0","","","","false","","","","","","","","","","180","","19","","3","0","arrowright","1","arrowright","[0.15,0.85,0.675,0.325]","","",""
"sailing-trial","196","1222036","0.0-11.0-155.0","","","","false","","","","","","","","","","null","","5583.800000190735","","2","1","null","null","arrowup","[0.15,0.85,0.675,0.325]","","",""
"sailing-trial","197","1224307","0.0-11.0-156.0","","","","false","","","","","","","","","","101.69999980926514","","17.90000009536743","","3","0","arrowright","1","arrowright","[0.325,0.675,0.85,0.15]","","",""
"sailing-trial","198","1226099","0.0-11.0-157.0","","","","false","","","","","","","","","","null","","458.2999999523163","","0","0","null","null","arrowup","[0.325,0.675,0.85,0.15]","","",""
"sailing-trial","199","1228742","0.0-11.0-158.0","","","","false","","","","","","","","","","426.2999999523163","","8.099999904632568","","3","0","arrowright","1","arrowright","[0.325,0.675,0.85,0.15]","","",""
"sailing-trial","200","1233064","0.0-11.0-159.0","","","","false","","","","","","","","","","null","","2509.600000143051","","1","1","null","null","arrowup","[0.325,0.675,0.85,0.15]","","",""
"sailing-trial","201","1235997","0.0-11.0-160.0","","","","false","","","","","","","","","","318.39999985694885","","246.90000009536743","","3","0","arrowright","1","arrowright","[0.325,0.675,0.85,0.15]","","",""
"sailing-trial","202","1238650","0.0-11.0-161.0","","","","false","","","","","","","","","","null","","927.0999999046326","","0","1","null","null","arrowup","[0.325,0.675,0.85,0.15]","","",""
"sailing-trial","203","1241153","0.0-11.0-162.0","","","","false","","","","","","","","","","210.60000014305115","","56.80000019073486","","3","0","arrowright","1","arrowright","[0.325,0.675,0.85,0.15]","","",""
"sailing-trial","204","1244173","0.0-11.0-163.0","","","","false","","","","","","","","","","null","","1329.5999999046326","","1","1","null","null","arrowup","[0.325,0.675,0.85,0.15]","","",""
"sailing-trial","205","1246704","0.0-11.0-164.0","","","","false","","","","","","","","","","26.299999952316284","","298.90000009536743","","3","0","arrowright","1","arrowright","[0.325,0.675,0.85,0.15]","","",""
"sailing-trial","206","1250078","0.0-11.0-165.0","","","","false","","","","","","","","","","null","","1827.1000001430511","","1","1","null","null","arrowup","[0.325,0.675,0.85,0.15]","","",""
"sailing-trial","207","1252636","0.0-11.0-166.0","","","","false","","","","","","","","","","49","","295.89999985694885","","3","0","arrowright","1","arrowright","[0.325,0.675,0.85,0.15]","","",""
"sailing-trial","208","1255334","0.0-11.0-167.0","","","","false","","","","","","","","","","null","","457","","2","1","null","null","arrowup","[0.325,0.675,0.85,0.15]","","",""
"sailing-trial","209","1258309","0.0-11.0-168.0","","","","false","","","","","","","","","","68.39999985694885","","315.90000009536743","","3","0","arrowright","1","arrowright","[0.325,0.675,0.85,0.15]","","",""
"sailing-trial","210","1261020","0.0-11.0-169.0","","","","false","","","","","","","","","","null","","366.10000014305115","","0","1","null","null","arrowup","[0.325,0.675,0.85,0.15]","","",""
"sailing-trial","211","1263401","0.0-11.0-170.0","","","","false","","","","","","","","","","102.59999990463257","","55.10000014305115","","0","0","arrowleft","0","arrowleft","[0.325,0.675,0.85,0.15]","","",""
"sailing-trial","212","1264599","0.0-11.0-171.0","","","","false","","","","","","","","","","null","","19.59999990463257","","1","0","null","null","arrowup","[0.325,0.675,0.85,0.15]","","",""
"sailing-trial","213","1267613","0.0-11.0-172.0","","","","false","","","","","","","","","","46.299999952316284","","813.2000000476837","","0","0","arrowleft","0","arrowleft","[0.325,0.675,0.85,0.15]","","",""
"sailing-trial","214","1268714","0.0-11.0-173.0","","","","false","","","","","","","","","","null","","25.5","","2","0","null","null","arrowup","[0.325,0.675,0.85,0.15]","","",""
"sailing-trial","215","1272127","0.0-11.0-174.0","","","","false","","","","","","","","","","412","","894.2999999523163","","0","0","arrowleft","0","arrowleft","[0.325,0.675,0.85,0.15]","","",""
"sailing-trial","216","1273803","0.0-11.0-175.0","","","","false","","","","","","","","","","null","","346.59999990463257","","3","0","null","null","arrowup","[0.325,0.675,0.85,0.15]","","",""
"sailing-trial","217","1277734","0.0-11.0-176.0","","","","false","","","","","","","","","","1204.2000000476837","","94","","1","1","arrowleft","0","arrowright","[0.15,0.85,0.675,0.325]","","",""
"sailing-trial","218","1279090","0.0-11.0-177.0","","","","false","","","","","","","","","","null","","25.299999952316284","","0","0","null","null","arrowup","[0.15,0.85,0.675,0.325]","","",""
"sailing-trial","219","1282358","0.0-11.0-178.0","","","","false","","","","","","","","","","224.20000004768372","","99","","2","1","arrowright","1","arrowleft","[0.15,0.85,0.675,0.325]","","",""
"sailing-trial","220","1284638","0.0-11.0-179.0","","","","false","","","","","","","","","","null","","728.1999998092651","","1","1","null","null","arrowup","[0.15,0.85,0.675,0.325]","","",""
"sailing-trial","221","1287430","0.0-11.0-180.0","","","","false","","","","","","","","","","18.800000190734863","","11.800000190734863","","2","1","arrowright","1","arrowleft","[0.15,0.85,0.675,0.325]","","",""
"sailing-trial","222","1288840","0.0-11.0-181.0","","","","false","","","","","","","","","","null","","84.79999995231628","","3","0","null","null","arrowup","[0.15,0.85,0.675,0.325]","","",""
"sailing-trial","223","1292620","0.0-11.0-182.0","","","","false","","","","","","","","","","142.70000004768372","","60","","2","1","arrowright","1","arrowleft","[0.15,0.85,0.675,0.325]","","",""
"sailing-trial","224","1296707","0.0-11.0-183.0","","","","false","","","","","","","","","","null","","2770.7000000476837","","0","0","null","null","arrowup","[0.15,0.85,0.675,0.325]","","",""
"sailing-trial","225","1299360","0.0-11.0-184.0","","","","false","","","","","","","","","","401.5","","144.10000014305115","","0","0","arrowleft","0","arrowleft","[0.15,0.85,0.675,0.325]","","",""
"sailing-trial","226","1301300","0.0-11.0-185.0","","","","false","","","","","","","","","","null","","881.3999998569489","","3","0","null","null","arrowup","[0.15,0.85,0.675,0.325]","","",""
"sailing-trial","227","1304727","0.0-11.0-186.0","","","","false","","","","","","","","","","555.2000000476837","","219.09999990463257","","0","1","arrowleft","0","arrowleft","[0.15,0.85,0.675,0.325]","","",""
"sailing-trial","228","1306091","0.0-11.0-187.0","","","","false","","","","","","","","","","null","","183.40000009536743","","3","0","null","null","arrowup","[0.15,0.85,0.675,0.325]","","",""
"sailing-trial","229","1309038","0.0-11.0-188.0","","","","false","","","","","","","","","","435.59999990463257","","319.5","","0","0","arrowleft","0","arrowleft","[0.15,0.85,0.675,0.325]","","",""
"sailing-trial","230","1311148","0.0-11.0-189.0","","","","false","","","","","","","","","","null","","316.7999999523163","","2","1","null","null","arrowup","[0.15,0.85,0.675,0.325]","","",""
"sailing-trial","231","1313658","0.0-11.0-190.0","","","","false","","","","","","","","","","72.69999980926514","","190.40000009536743","","0","0","arrowleft","0","arrowleft","[0.15,0.85,0.675,0.325]","","",""
"sailing-trial","232","1315769","0.0-11.0-191.0","","","","false","","","","","","","","","","null","","274.7000000476837","","2","1","null","null","arrowup","[0.15,0.85,0.675,0.325]","","",""
"sailing-trial","233","1319715","0.0-11.0-192.0","","","","false","","","","","","","","","","8.400000095367432","","1468.2999999523163","","0","0","arrowleft","0","arrowleft","[0.15,0.85,0.675,0.325]","","",""
"sailing-trial","234","1321623","0.0-11.0-193.0","","","","false","","","","","","","","","","null","","118.40000009536743","","2","1","null","null","arrowup","[0.15,0.85,0.675,0.325]","","",""
"sailing-trial","235","1324328","0.0-11.0-194.0","","","","false","","","","","","","","","","71.79999995231628","","281.39999985694885","","0","0","arrowleft","0","arrowleft","[0.325,0.675,0.85,0.15]","","",""
"sailing-trial","236","1326431","0.0-11.0-195.0","","","","false","","","","","","","","","","null","","92","","1","1","null","null","arrowup","[0.325,0.675,0.85,0.15]","","",""
"sailing-trial","237","1329746","0.0-11.0-196.0","","","","false","","","","","","","","","","206.29999995231628","","43.90000009536743","","0","0","arrowleft","0","arrowleft","[0.325,0.675,0.85,0.15]","","",""
"sailing-trial","238","1331799","0.0-11.0-197.0","","","","false","","","","","","","","","","null","","683.3999998569489","","3","0","null","null","arrowup","[0.325,0.675,0.85,0.15]","","",""
"sailing-trial","239","1336282","0.0-11.0-198.0","","","","false","","","","","","","","","","2064.0999999046326","","156.10000014305115","","3","0","arrowright","1","arrowright","[0.325,0.675,0.85,0.15]","","",""
"sailing-trial","240","1337707","0.0-11.0-199.0","","","","false","","","","","","","","","","null","","174.5","","3","0","null","null","arrowup","[0.325,0.675,0.85,0.15]","","",""
"sailing-trial","241","1340149","0.0-11.0-200.0","","","","false","","","","","","","","","","176.70000004768372","","70.69999980926514","","0","0","arrowleft","0","arrowleft","[0.325,0.675,0.85,0.15]","","",""
"sailing-trial","242","1341763","0.0-11.0-201.0","","","","false","","","","","","","","","","null","","385.39999985694885","","0","0","null","null","arrowup","[0.325,0.675,0.85,0.15]","","",""
"sailing-trial","243","1344995","0.0-11.0-202.0","","","","false","","","","","","","","","","291.7000000476837","","120.90000009536743","","0","0","arrowleft","0","arrowleft","[0.325,0.675,0.85,0.15]","","",""
"sailing-trial","244","1346889","0.0-11.0-203.0","","","","false","","","","","","","","","","null","","332.10000014305115","","0","0","null","null","arrowup","[0.325,0.675,0.85,0.15]","","",""
"sailing-trial","245","1349996","0.0-11.0-204.0","","","","false","","","","","","","","","","73","","269.39999985694885","","0","1","arrowleft","0","arrowleft","[0.325,0.675,0.85,0.15]","","",""
"sailing-trial","246","1351592","0.0-11.0-205.0","","","","false","","","","","","","","","","null","","251.10000014305115","","0","0","null","null","arrowup","[0.325,0.675,0.85,0.15]","","",""
"sailing-trial","247","1355519","0.0-11.0-206.0","","","","false","","","","","","","","","","931.4000000953674","","99.5","","2","1","arrowright","1","arrowleft","[0.325,0.675,0.85,0.15]","","",""
"sailing-trial","248","1358398","0.0-11.0-207.0","","","","false","","","","","","","","","","null","","1029.6000001430511","","2","0","null","null","arrowup","[0.325,0.675,0.85,0.15]","","",""
"sailing-trial","249","1361574","0.0-11.0-208.0","","","","false","","","","","","","","","","100.60000014305115","","165.59999990463257","","2","1","arrowright","1","arrowleft","[0.325,0.675,0.85,0.15]","","",""
"sailing-trial","250","1365814","0.0-11.0-209.0","","","","false","","","","","","","","","","null","","2186.2000000476837","","2","1","null","null","arrowup","[0.325,0.675,0.85,0.15]","","",""
"sailing-trial","251","1369316","0.0-11.0-210.0","","","","false","","","","","","","","","","382.7000000476837","","30.40000009536743","","2","0","arrowright","1","arrowleft","[0.15,0.85,0.675,0.325]","","",""
"sailing-trial","252","1371086","0.0-11.0-211.0","","","","false","","","","","","","","","","null","","189.70000004768372","","1","1","null","null","arrowup","[0.15,0.85,0.675,0.325]","","",""
"sailing-trial","253","1373300","0.0-11.0-212.0","","","","false","","","","","","","","","","109","","0.5999999046325684","","2","0","arrowright","1","arrowleft","[0.15,0.85,0.675,0.325]","","",""
"sailing-trial","254","1375294","0.0-11.0-213.0","","","","false","","","","","","","","","","null","","135.5","","2","1","null","null","arrowup","[0.15,0.85,0.675,0.325]","","",""
"sailing-trial","255","1378092","0.0-11.0-214.0","","","","false","","","","","","","","","","153.09999990463257","","98.39999985694885","","0","0","arrowleft","0","arrowleft","[0.15,0.85,0.675,0.325]","","",""
"sailing-trial","256","1381048","0.0-11.0-215.0","","","","false","","","","","","","","","","null","","1200.9000000953674","","1","1","null","null","arrowup","[0.15,0.85,0.675,0.325]","","",""
"sailing-trial","257","1384883","0.0-11.0-216.0","","","","false","","","","","","","","","","753.7999999523163","","767","","0","0","arrowleft","0","arrowleft","[0.15,0.85,0.675,0.325]","","",""
"sailing-trial","258","1385924","0.0-11.0-217.0","","","","false","","","","","","","","","","null","","2.3999998569488525","","3","0","null","null","arrowup","[0.15,0.85,0.675,0.325]","","",""
"sailing-trial","259","1389462","0.0-11.0-218.0","","","","false","","","","","","","","","","634.1999998092651","","21.40000009536743","","0","1","arrowleft","0","arrowleft","[0.15,0.85,0.675,0.325]","","",""
"sailing-trial","260","1391193","0.0-11.0-219.0","","","","false","","","","","","","","","","null","","116.79999995231628","","1","1","null","null","arrowup","[0.15,0.85,0.675,0.325]","","",""
"sailing-trial","261","1394848","0.0-11.0-220.0","","","","false","","","","","","","","","","93","","1334.2999999523163","","0","0","arrowleft","0","arrowleft","[0.15,0.85,0.675,0.325]","","",""
"sailing-trial","262","1397463","0.0-11.0-221.0","","","","false","","","","","","","","","","null","","915.7000000476837","","2","1","null","null","arrowup","[0.15,0.85,0.675,0.325]","","",""
"sailing-trial","263","1400409","0.0-11.0-222.0","","","","false","","","","","","","","","","544.7999999523163","","14.399999856948853","","0","0","arrowleft","0","arrowleft","[0.15,0.85,0.675,0.325]","","",""
"sailing-trial","264","1401972","0.0-11.0-223.0","","","","false","","","","","","","","","","null","","147.59999990463257","","3","0","null","null","arrowup","[0.15,0.85,0.675,0.325]","","",""
"sailing-trial","265","1405526","0.0-11.0-224.0","","","","false","","","","","","","","","","571","","700.7999999523163","","0","0","arrowleft","0","arrowleft","[0.15,0.85,0.675,0.325]","","",""
"sailing-trial","266","1407674","0.0-11.0-225.0","","","","false","","","","","","","","","","null","","258.59999990463257","","3","1","null","null","arrowup","[0.15,0.85,0.675,0.325]","","",""
"sailing-trial","267","1412116","0.0-11.0-226.0","","","","false","","","","","","","","","","718.7999999523163","","999.7000000476837","","0","1","arrowleft","0","arrowleft","[0.325,0.675,0.85,0.15]","","",""
"sailing-trial","268","1413595","0.0-11.0-227.0","","","","false","","","","","","","","","","null","","187.5","","0","0","null","null","arrowup","[0.325,0.675,0.85,0.15]","","",""
"sailing-trial","269","1416722","0.0-11.0-228.0","","","","false","","","","","","","","","","237.5","","186.39999985694885","","0","1","arrowleft","0","arrowleft","[0.325,0.675,0.85,0.15]","","",""
"sailing-trial","270","1418208","0.0-11.0-229.0","","","","false","","","","","","","","","","null","","34","","3","0","null","null","arrowup","[0.325,0.675,0.85,0.15]","","",""
"sailing-trial","271","1420794","0.0-11.0-230.0","","","","false","","","","","","","","","","212.19999980926514","","58.69999980926514","","0","0","arrowleft","0","arrowleft","[0.325,0.675,0.85,0.15]","","",""
"sailing-trial","272","1422643","0.0-11.0-231.0","","","","false","","","","","","","","","","null","","226.29999995231628","","1","1","null","null","arrowup","[0.325,0.675,0.85,0.15]","","",""
"sailing-trial","273","1427550","0.0-11.0-232.0","","","","false","","","","","","","","","","798.0999999046326","","60.799999952316284","","1","0","arrowleft","0","arrowright","[0.325,0.675,0.85,0.15]","","",""
"sailing-trial","274","1432277","0.0-11.0-233.0","","","","false","","","","","","","","","","null","","1708.9000000953674","","3","0","null","null","arrowup","[0.325,0.675,0.85,0.15]","","",""
"sailing-trial","275","1435381","0.0-11.0-234.0","","","","false","","","","","","","","","","215.59999990463257","","88.70000004768372","","3","1","arrowright","1","arrowright","[0.325,0.675,0.85,0.15]","","",""
"sailing-trial","276","1437528","0.0-11.0-235.0","","","","false","","","","","","","","","","null","","203.60000014305115","","2","1","null","null","arrowup","[0.325,0.675,0.85,0.15]","","",""
"sailing-trial","277","1440072","0.0-11.0-236.0","","","","false","","","","","","","","","","108.60000014305115","","157.69999980926514","","3","0","arrowright","1","arrowright","[0.325,0.675,0.85,0.15]","","",""
"sailing-trial","278","1441273","0.0-11.0-237.0","","","","false","","","","","","","","","","null","","100.79999995231628","","0","0","null","null","arrowup","[0.325,0.675,0.85,0.15]","","",""
"sailing-trial","279","1443959","0.0-11.0-238.0","","","","false","","","","","","","","","","88.59999990463257","","183.09999990463257","","3","0","arrowright","1","arrowright","[0.325,0.675,0.85,0.15]","","",""
"sailing-trial","280","1445842","0.0-11.0-239.0","","","","false","","","","","","","","","","null","","89.59999990463257","","0","1","null","null","arrowup","[0.325,0.675,0.85,0.15]","","",""
"sailing-trial","281","1448610","0.0-11.0-240.0","","","","false","","","","","","","","","","2.799999952316284","","634","","3","0","arrowright","1","arrowright","[0.325,0.675,0.85,0.15]","","",""
"sailing-trial","282","1449832","0.0-11.0-241.0","","","","false","","","","","","","","","","null","","121","","0","0","null","null","arrowup","[0.325,0.675,0.85,0.15]","","",""
"sailing-trial","283","1452802","0.0-11.0-242.0","","","","false","","","","","","","","","","751.4000000953674","","13.200000047683716","","1","0","arrowleft","0","arrowright","[0.325,0.675,0.85,0.15]","","",""
"sailing-trial","284","1454843","0.0-11.0-243.0","","","","false","","","","","","","","","","null","","877.1999998092651","","0","0","null","null","arrowup","[0.325,0.675,0.85,0.15]","","",""
"sailing-trial","285","1458050","0.0-11.0-244.0","","","","false","","","","","","","","","","43.90000009536743","","40.09999990463257","","0","1","arrowleft","0","arrowleft","[0.325,0.675,0.85,0.15]","","",""
"sailing-trial","286","1459909","0.0-11.0-245.0","","","","false","","","","","","","","","","null","","51.299999952316284","","1","1","null","null","arrowup","[0.325,0.675,0.85,0.15]","","",""
"sailing-trial","287","1462279","0.0-11.0-246.0","","","","false","","","","","","","","","","93.79999995231628","","154.70000004768372","","0","0","arrowleft","0","arrowleft","[0.325,0.675,0.85,0.15]","","",""
"sailing-trial","288","1463360","0.0-11.0-247.0","","","","false","","","","","","","","","","null","","13.099999904632568","","3","0","null","null","arrowup","[0.325,0.675,0.85,0.15]","","",""
"sailing-trial","289","1466229","0.0-11.0-248.0","","","","false","","","","","","","","","","218.20000004768372","","172.29999995231628","","0","0","arrowleft","0","arrowleft","[0.325,0.675,0.85,0.15]","","",""
"sailing-trial","290","1468279","0.0-11.0-249.0","","","","false","","","","","","","","","","null","","435.7999999523163","","2","1","null","null","arrowup","[0.325,0.675,0.85,0.15]","","",""
"sailing-trial","291","1471273","0.0-11.0-250.0","","","","false","","","","","","","","","","205","","5.299999952316284","","0","1","arrowleft","0","arrowleft","[0.85,0.15,0.325,0.675]","","",""
"sailing-trial","292","1472736","0.0-11.0-251.0","","","","false","","","","","","","","","","null","","332.2999999523163","","0","0","null","null","arrowup","[0.85,0.15,0.325,0.675]","","",""
"sailing-trial","293","1475612","0.0-11.0-252.0","","","","false","","","","","","","","","","181.70000004768372","","25.100000143051147","","0","1","arrowleft","0","arrowleft","[0.85,0.15,0.325,0.675]","","",""
"sailing-trial","294","1477459","0.0-11.0-253.0","","","","false","","","","","","","","","","null","","66.10000014305115","","0","1","null","null","arrowup","[0.85,0.15,0.325,0.675]","","",""
"sailing-trial","295","1480351","0.0-11.0-254.0","","","","false","","","","","","","","","","116.09999990463257","","190.5","","0","1","arrowleft","0","arrowleft","[0.85,0.15,0.325,0.675]","","",""
"sailing-trial","296","1481782","0.0-11.0-255.0","","","","false","","","","","","","","","","null","","58","","2","0","null","null","arrowup","[0.85,0.15,0.325,0.675]","","",""
"sailing-trial","297","1484056","0.0-11.0-256.0","","","","false","","","","","","","","","","4.400000095367432","","148.90000009536743","","0","0","arrowleft","0","arrowleft","[0.85,0.15,0.325,0.675]","","",""
"sailing-trial","298","1485690","0.0-11.0-257.0","","","","false","","","","","","","","","","null","","32.40000009536743","","0","1","null","null","arrowup","[0.85,0.15,0.325,0.675]","","",""
"sailing-trial","299","1488468","0.0-11.0-258.0","","","","false","","","","","","","","","","29.799999952316284","","161.79999995231628","","0","1","arrowleft","0","arrowleft","[0.85,0.15,0.325,0.675]","","",""
"sailing-trial","300","1490255","0.0-11.0-259.0","","","","false","","","","","","","","","","null","","164.89999985694885","","3","0","null","null","arrowup","[0.85,0.15,0.325,0.675]","","",""
"sailing-trial","301","1493508","0.0-11.0-260.0","","","","false","","","","","","","","","","110.40000009536743","","462.7999999523163","","0","1","arrowleft","0","arrowleft","[0.85,0.15,0.325,0.675]","","",""
"sailing-trial","302","1494911","0.0-11.0-261.0","","","","false","","","","","","","","","","null","","315.30000019073486","","2","0","null","null","arrowup","[0.85,0.15,0.325,0.675]","","",""
"sailing-trial","303","1497521","0.0-11.0-262.0","","","","false","","","","","","","","","","446.7000000476837","","69.90000009536743","","0","0","arrowleft","0","arrowleft","[0.85,0.15,0.325,0.675]","","",""
"sailing-trial","304","1498816","0.0-11.0-263.0","","","","false","","","","","","","","","","null","","178.39999985694885","","1","0","null","null","arrowup","[0.85,0.15,0.325,0.675]","","",""
"sailing-trial","305","1503667","0.0-11.0-264.0","","","","false","","","","","","","","","","71.70000004768372","","2646.5999999046326","","0","0","arrowleft","0","arrowleft","[0.85,0.15,0.325,0.675]","","",""
"sailing-trial","306","1505633","0.0-11.0-265.0","","","","false","","","","","","","","","","null","","245.70000004768372","","0","1","null","null","arrowup","[0.85,0.15,0.325,0.675]","","",""
"sailing-trial","307","1508527","0.0-11.0-266.0","","","","false","","","","","","","","","","218.79999995231628","","76.80000019073486","","0","1","arrowleft","0","arrowleft","[0.675,0.325,0.15,0.85]","","",""
"sailing-trial","308","1509644","0.0-11.0-267.0","","","","false","","","","","","","","","","null","","82.29999995231628","","1","0","null","null","arrowup","[0.675,0.325,0.15,0.85]","","",""
"sailing-trial","309","1512965","0.0-11.0-268.0","","","","false","","","","","","","","","","64.59999990463257","","370.59999990463257","","0","1","arrowleft","0","arrowleft","[0.675,0.325,0.15,0.85]","","",""
"sailing-trial","310","1514503","0.0-11.0-269.0","","","","false","","","","","","","","","","null","","184.70000004768372","","2","0","null","null","arrowup","[0.675,0.325,0.15,0.85]","","",""
"sailing-trial","311","1517097","0.0-11.0-270.0","","","","false","","","","","","","","","","294.2999999523163","","3.6999998092651367","","0","0","arrowleft","0","arrowleft","[0.675,0.325,0.15,0.85]","","",""
"sailing-trial","312","1519103","0.0-11.0-271.0","","","","false","","","","","","","","","","null","","183.09999990463257","","3","1","null","null","arrowup","[0.675,0.325,0.15,0.85]","","",""
"sailing-trial","313","1522212","0.0-11.0-272.0","","","","false","","","","","","","","","","4.900000095367432","","385.5","","0","1","arrowleft","0","arrowleft","[0.675,0.325,0.15,0.85]","","",""
"sailing-trial","314","1523361","0.0-11.0-273.0","","","","false","","","","","","","","","","null","","83.39999985694885","","3","0","null","null","arrowup","[0.675,0.325,0.15,0.85]","","",""
"sailing-trial","315","1531045","0.0-11.0-274.0","","","","false","","","","","","","","","","2529.899999856949","","442.90000009536743","","0","1","arrowleft","0","arrowleft","[0.675,0.325,0.15,0.85]","","",""
"sailing-trial","316","1532973","0.0-11.0-275.0","","","","false","","","","","","","","","","null","","233.09999990463257","","3","1","null","null","arrowup","[0.675,0.325,0.15,0.85]","","",""
"sailing-trial","317","1535645","0.0-11.0-276.0","","","","false","","","","","","","","","","37.39999985694885","","356.2000000476837","","0","0","arrowleft","0","arrowleft","[0.675,0.325,0.15,0.85]","","",""
"sailing-trial","318","1537296","0.0-11.0-277.0","","","","false","","","","","","","","","","null","","241.59999990463257","","2","0","null","null","arrowup","[0.675,0.325,0.15,0.85]","","",""
"sailing-trial","319","1540689","0.0-11.0-278.0","","","","false","","","","","","","","","","290.09999990463257","","276.10000014305115","","0","1","arrowleft","0","arrowleft","[0.675,0.325,0.15,0.85]","","",""
"sailing-trial","320","1541772","0.0-11.0-279.0","","","","false","","","","","","","","","","null","","23.200000047683716","","2","0","null","null","arrowup","[0.675,0.325,0.15,0.85]","","",""
"sailing-trial","321","1544905","0.0-11.0-280.0","","","","false","","","","","","","","","","157.20000004768372","","194.5","","1","0","arrowleft","0","arrowright","[0.675,0.325,0.15,0.85]","","",""
"sailing-trial","322","1547153","0.0-11.0-281.0","","","","false","","","","","","","","","","null","","1156.5","","2","0","null","null","arrowup","[0.675,0.325,0.15,0.85]","","",""
"sailing-trial","323","1549693","0.0-11.0-282.0","","","","false","","","","","","","","","","136.09999990463257","","218.59999990463257","","2","0","arrowright","1","arrowleft","[0.675,0.325,0.15,0.85]","","",""
"sailing-trial","324","1551502","0.0-11.0-283.0","","","","false","","","","","","","","","","null","","674.4000000953674","","2","0","null","null","arrowup","[0.675,0.325,0.15,0.85]","","",""
"sailing-trial","325","1554845","0.0-11.0-284.0","","","","false","","","","","","","","","","401.7000000476837","","71.09999990463257","","3","1","arrowright","1","arrowright","[0.675,0.325,0.15,0.85]","","",""
"sailing-trial","326","1556102","0.0-11.0-285.0","","","","false","","","","","","","","","","null","","29.5","","2","0","null","null","arrowup","[0.675,0.325,0.15,0.85]","","",""
"sailing-trial","327","1558731","0.0-11.0-286.0","","","","false","","","","","","","","","","72.20000004768372","","421.2000000476837","","3","0","arrowright","1","arrowright","[0.675,0.325,0.15,0.85]","","",""
"sailing-trial","328","1560547","0.0-11.0-287.0","","","","false","","","","","","","","","","null","","172.19999980926514","","1","1","null","null","arrowup","[0.675,0.325,0.15,0.85]","","",""
"sailing-trial","329","1563054","0.0-11.0-288.0","","","","false","","","","","","","","","","39.200000047683716","","293.39999985694885","","3","0","arrowright","1","arrowright","[0.85,0.15,0.325,0.675]","","",""
"sailing-trial","330","1564533","0.0-11.0-289.0","","","","false","","","","","","","","","","null","","393.39999985694885","","1","0","null","null","arrowup","[0.85,0.15,0.325,0.675]","","",""
"sailing-trial","331","1567816","0.0-11.0-290.0","","","","false","","","","","","","","","","676.9000000953674","","17.90000009536743","","3","1","arrowright","1","arrowright","[0.85,0.15,0.325,0.675]","","",""
"sailing-trial","332","1569177","0.0-11.0-291.0","","","","false","","","","","","","","","","null","","198.39999985694885","","2","0","null","null","arrowup","[0.85,0.15,0.325,0.675]","","",""
"sailing-trial","333","1571999","0.0-11.0-292.0","","","","false","","","","","","","","","","159.89999985694885","","229.70000004768372","","3","0","arrowright","1","arrowright","[0.85,0.15,0.325,0.675]","","",""
"sailing-trial","334","1573752","0.0-11.0-293.0","","","","false","","","","","","","","","","null","","116.90000009536743","","0","1","null","null","arrowup","[0.85,0.15,0.325,0.675]","","",""
"sailing-trial","335","1577546","0.0-11.0-294.0","","","","false","","","","","","","","","","489.90000009536743","","525.2999999523163","","3","1","arrowright","1","arrowright","[0.85,0.15,0.325,0.675]","","",""
"sailing-trial","336","1579957","0.0-11.0-295.0","","","","false","","","","","","","","","","null","","701","","0","1","null","null","arrowup","[0.85,0.15,0.325,0.675]","","",""
"sailing-trial","337","1582917","0.0-11.0-296.0","","","","false","","","","","","","","","","207.70000004768372","","160.70000004768372","","3","1","arrowright","1","arrowright","[0.85,0.15,0.325,0.675]","","",""
"sailing-trial","338","1584729","0.0-11.0-297.0","","","","false","","","","","","","","","","null","","124","","3","1","null","null","arrowup","[0.85,0.15,0.325,0.675]","","",""
"sailing-trial","339","1587808","0.0-11.0-298.0","","","","false","","","","","","","","","","200.59999990463257","","232.19999980926514","","3","1","arrowright","1","arrowright","[0.85,0.15,0.325,0.675]","","",""
"sailing-trial","340","1593860","0.0-11.0-299.0","","","","false","","","","","","","","","","null","","3474","","0","1","null","null","arrowup","[0.85,0.15,0.325,0.675]","","",""
"sailing-trial","341","1596804","0.0-11.0-300.0","","","","false","","","","","","","","","","45.700000047683716","","236.20000004768372","","3","1","arrowright","1","arrowright","[0.85,0.15,0.325,0.675]","","",""
"sailing-trial","342","1600014","0.0-11.0-301.0","","","","false","","","","","","","","","","null","","399.7999999523163","","3","1","null","null","arrowup","[0.85,0.15,0.325,0.675]","","",""
"sailing-trial","343","1603773","0.0-11.0-302.0","","","","false","","","","","","","","","","835.1999998092651","","211.5","","3","1","arrowright","1","arrowright","[0.85,0.15,0.325,0.675]","","",""
"sailing-trial","344","1605256","0.0-11.0-303.0","","","","false","","","","","","","","","","null","","164.10000014305115","","1","0","null","null","arrowup","[0.85,0.15,0.325,0.675]","","",""
"sailing-trial","345","1608729","0.0-11.0-304.0","","","","false","","","","","","","","","","528.2000000476837","","364.5","","3","1","arrowright","1","arrowright","[0.85,0.15,0.325,0.675]","","",""
"sailing-trial","346","1612055","0.0-11.0-305.0","","","","false","","","","","","","","","","null","","1564.5","","2","1","null","null","arrowup","[0.85,0.15,0.325,0.675]","","",""
"sailing-trial","347","1615215","0.0-11.0-306.0","","","","false","","","","","","","","","","70.40000009536743","","61.700000047683716","","3","1","arrowright","1","arrowright","[0.675,0.325,0.15,0.85]","","",""
"sailing-trial","348","1617228","0.0-11.0-307.0","","","","false","","","","","","","","","","null","","312.59999990463257","","3","1","null","null","arrowup","[0.675,0.325,0.15,0.85]","","",""
"sailing-trial","349","1620804","0.0-11.0-308.0","","","","false","","","","","","","","","","99.5","","387.60000014305115","","3","1","arrowright","1","arrowright","[0.675,0.325,0.15,0.85]","","",""
"sailing-trial","350","1622011","0.0-11.0-309.0","","","","false","","","","","","","","","","null","","30.40000009536743","","1","0","null","null","arrowup","[0.675,0.325,0.15,0.85]","","",""
"sailing-trial","351","1624511","0.0-11.0-310.0","","","","false","","","","","","","","","","236.90000009536743","","27.200000047683716","","3","0","arrowright","1","arrowright","[0.675,0.325,0.15,0.85]","","",""
"sailing-trial","352","1626438","0.0-11.0-311.0","","","","false","","","","","","","","","","null","","220.40000009536743","","1","0","null","null","arrowup","[0.675,0.325,0.15,0.85]","","",""
"sailing-trial","353","1629326","0.0-11.0-312.0","","","","false","","","","","","","","","","386.40000009536743","","158.29999995231628","","1","0","arrowleft","0","arrowright","[0.675,0.325,0.15,0.85]","","",""
"sailing-trial","354","1631148","0.0-11.0-313.0","","","","false","","","","","","","","","","null","","252.90000009536743","","0","1","null","null","arrowup","[0.675,0.325,0.15,0.85]","","",""
"sailing-trial","355","1634977","0.0-11.0-314.0","","","","false","","","","","","","","","","63.19999980926514","","211.70000004768372","","0","0","arrowleft","0","arrowleft","[0.675,0.325,0.15,0.85]","","",""
"sailing-trial","356","1637683","0.0-11.0-315.0","","","","false","","","","","","","","","","null","","1053.5","","3","1","null","null","arrowup","[0.675,0.325,0.15,0.85]","","",""
"sailing-trial","357","1640960","0.0-11.0-316.0","","","","false","","","","","","","","","","608.6999998092651","","86.70000004768372","","0","1","arrowleft","0","arrowleft","[0.675,0.325,0.15,0.85]","","",""
"sailing-trial","358","1642690","0.0-11.0-317.0","","","","false","","","","","","","","","","null","","128.70000004768372","","0","1","null","null","arrowup","[0.675,0.325,0.15,0.85]","","",""
"sailing-trial","359","1645700","0.0-11.0-318.0","","","","false","","","","","","","","","","134.40000009536743","","111.89999985694885","","0","1","arrowleft","0","arrowleft","[0.675,0.325,0.15,0.85]","","",""
"sailing-trial","360","1649043","0.0-11.0-319.0","","","","false","","","","","","","","","","null","","1620.7000000476837","","0","1","null","null","arrowup","[0.675,0.325,0.15,0.85]","","",""
"sailing-trial","361","1651937","0.0-11.0-320.0","","","","false","","","","","","","","","","69.5","","114.40000009536743","","0","1","arrowleft","0","arrowleft","[0.675,0.325,0.15,0.85]","","",""
"sailing-trial","362","1654116","0.0-11.0-321.0","","","","false","","","","","","","","","","null","","420.5","","3","1","null","null","arrowup","[0.675,0.325,0.15,0.85]","","",""
"sailing-trial","363","1656476","0.0-11.0-322.0","","","","false","","","","","","","","","","90.59999990463257","","127.29999995231628","","0","0","arrowleft","0","arrowleft","[0.675,0.325,0.15,0.85]","","",""
"sailing-trial","364","1658185","0.0-11.0-323.0","","","","false","","","","","","","","","","null","","224.80000019073486","","1","0","null","null","arrowup","[0.675,0.325,0.15,0.85]","","",""
"sailing-trial","365","1661965","0.0-11.0-324.0","","","","false","","","","","","","","","","548.2000000476837","","46.80000019073486","","0","1","arrowleft","0","arrowleft","[0.15,0.85,0.675,0.325]","","",""
"sailing-trial","366","1663220","0.0-11.0-325.0","","","","false","","","","","","","","","","null","","66.5","","0","0","null","null","arrowup","[0.15,0.85,0.675,0.325]","","",""
"sailing-trial","367","1666027","0.0-11.0-326.0","","","","false","","","","","","","","","","183.90000009536743","","446.7999999523163","","0","0","arrowleft","0","arrowleft","[0.15,0.85,0.675,0.325]","","",""
"sailing-trial","368","1667735","0.0-11.0-327.0","","","","false","","","","","","","","","","null","","75.5","","1","1","null","null","arrowup","[0.15,0.85,0.675,0.325]","","",""
"sailing-trial","369","1670191","0.0-11.0-328.0","","","","false","","","","","","","","","","179.39999985694885","","96.20000004768372","","0","0","arrowleft","0","arrowleft","[0.15,0.85,0.675,0.325]","","",""
"sailing-trial","370","1672094","0.0-11.0-329.0","","","","false","","","","","","","","","","null","","249.20000004768372","","0","1","null","null","arrowup","[0.15,0.85,0.675,0.325]","","",""
"sailing-trial","371","1674711","0.0-11.0-330.0","","","","false","","","","","","","","","","168.09999990463257","","248.89999985694885","","0","0","arrowleft","0","arrowleft","[0.15,0.85,0.675,0.325]","","",""
"sailing-trial","372","1675912","0.0-11.0-331.0","","","","false","","","","","","","","","","null","","118.59999990463257","","3","0","null","null","arrowup","[0.15,0.85,0.675,0.325]","","",""
"sailing-trial","373","1678389","0.0-11.0-332.0","","","","false","","","","","","","","","","30.700000047683716","","113.29999995231628","","0","0","arrowleft","0","arrowleft","[0.15,0.85,0.675,0.325]","","",""
"sailing-trial","374","1679662","0.0-11.0-333.0","","","","false","","","","","","","","","","null","","42.299999952316284","","0","0","null","null","arrowup","[0.15,0.85,0.675,0.325]","","",""
"sailing-trial","375","1681881","0.0-11.0-334.0","","","","false","","","","","","","","","","130.5","","11.299999952316284","","0","0","arrowleft","0","arrowleft","[0.15,0.85,0.675,0.325]","","",""
"sailing-trial","376","1683359","0.0-11.0-335.0","","","","false","","","","","","","","","","null","","326.2999999523163","","0","0","null","null","arrowup","[0.15,0.85,0.675,0.325]","","",""
"sailing-trial","377","1685587","0.0-11.0-336.0","","","","false","","","","","","","","","","65","","41.5","","0","0","arrowleft","0","arrowleft","[0.15,0.85,0.675,0.325]","","",""
"sailing-trial","378","1687478","0.0-11.0-337.0","","","","false","","","","","","","","","","null","","149.70000004768372","","1","1","null","null","arrowup","[0.15,0.85,0.675,0.325]","","",""
"sailing-trial","379","1690159","0.0-11.0-338.0","","","","false","","","","","","","","","","233.39999985694885","","221.09999990463257","","0","0","arrowleft","0","arrowleft","[0.15,0.85,0.675,0.325]","","",""
"sailing-trial","380","1691725","0.0-11.0-339.0","","","","false","","","","","","","","","","null","","282.90000009536743","","0","0","null","null","arrowup","[0.15,0.85,0.675,0.325]","","",""
"sailing-trial","381","1694744","0.0-11.0-340.0","","","","false","","","","","","","","","","388.7999999523163","","137.29999995231628","","1","0","arrowleft","0","arrowright","[0.15,0.85,0.675,0.325]","","",""
"sailing-trial","382","1696973","0.0-11.0-341.0","","","","false","","","","","","","","","","null","","190.5","","2","1","null","null","arrowup","[0.15,0.85,0.675,0.325]","","",""
"sailing-trial","383","1701165","0.0-11.0-342.0","","","","false","","","","","","","","","","831.9000000953674","","194.89999985694885","","1","1","arrowleft","0","arrowright","[0.15,0.85,0.675,0.325]","","",""
"sailing-trial","384","1702961","0.0-11.0-343.0","","","","false","","","","","","","","","","null","","232.09999990463257","","1","1","null","null","arrowup","[0.15,0.85,0.675,0.325]","","",""
"sailing-trial","385","1705431","0.0-11.0-344.0","","","","false","","","","","","","","","","144.90000009536743","","25.40000009536743","","1","0","arrowleft","0","arrowright","[0.325,0.675,0.85,0.15]","","",""
"sailing-trial","386","1707180","0.0-11.0-345.0","","","","false","","","","","","","","","","null","","393.2999999523163","","3","0","null","null","arrowup","[0.325,0.675,0.85,0.15]","","",""
"sailing-trial","387","1711040","0.0-11.0-346.0","","","","false","","","","","","","","","","371.40000009536743","","82.40000009536743","","2","0","arrowright","1","arrowleft","[0.325,0.675,0.85,0.15]","","",""
"sailing-trial","388","1713156","0.0-11.0-347.0","","","","false","","","","","","","","","","null","","53.5","","1","1","null","null","arrowup","[0.325,0.675,0.85,0.15]","","",""
"sailing-trial","389","1715711","0.0-11.0-348.0","","","","false","","","","","","","","","","4.799999952316284","","187.5","","3","0","arrowright","1","arrowright","[0.325,0.675,0.85,0.15]","","",""
"sailing-trial","390","1717330","0.0-11.0-349.0","","","","false","","","","","","","","","","null","","28.09999990463257","","1","1","null","null","arrowup","[0.325,0.675,0.85,0.15]","","",""
"sailing-trial","391","1720304","0.0-11.0-350.0","","","","false","","","","","","","","","","594.8000001907349","","188.20000004768372","","3","0","arrowright","1","arrowright","[0.325,0.675,0.85,0.15]","","",""
"sailing-trial","392","1721525","0.0-11.0-351.0","","","","false","","","","","","","","","","null","","151.79999995231628","","3","0","null","null","arrowup","[0.325,0.675,0.85,0.15]","","",""
"sailing-trial","393","1724299","0.0-11.0-352.0","","","","false","","","","","","","","","","131.69999980926514","","19.299999952316284","","2","1","arrowright","1","arrowleft","[0.325,0.675,0.85,0.15]","","",""
"sailing-trial","394","1726195","0.0-11.0-353.0","","","","false","","","","","","","","","","null","","340.90000009536743","","1","1","null","null","arrowup","[0.325,0.675,0.85,0.15]","","",""
"sailing-trial","395","1729356","0.0-11.0-354.0","","","","false","","","","","","","","","","64","","287.7999999523163","","1","1","arrowleft","0","arrowright","[0.325,0.675,0.85,0.15]","","",""
"sailing-trial","396","1730833","0.0-11.0-355.0","","","","false","","","","","","","","","","null","","216.59999990463257","","3","0","null","null","arrowup","[0.325,0.675,0.85,0.15]","","",""
"sailing-trial","397","1733512","0.0-11.0-356.0","","","","false","","","","","","","","","","27.299999952316284","","20.100000143051147","","2","1","arrowright","1","arrowleft","[0.325,0.675,0.85,0.15]","","",""
"sailing-trial","398","1735163","0.0-11.0-357.0","","","","false","","","","","","","","","","null","","50.59999990463257","","0","0","null","null","arrowup","[0.325,0.675,0.85,0.15]","","",""
"sailing-trial","399","1738202","0.0-11.0-358.0","","","","false","","","","","","","","","","135","","31.90000009536743","","2","1","arrowright","1","arrowleft","[0.325,0.675,0.85,0.15]","","",""
"sailing-trial","400","1740079","0.0-11.0-359.0","","","","false","","","","","","","","","","null","","608.7999999523163","","1","0","null","null","arrowup","[0.325,0.675,0.85,0.15]","","",""
"sailing-trial","401","1742635","0.0-11.0-360.0","","","","false","","","","","","","","","","104.79999995231628","","335.10000014305115","","0","0","arrowleft","0","arrowleft","[0.325,0.675,0.85,0.15]","","",""
"sailing-trial","402","1745055","0.0-11.0-361.0","","","","false","","","","","","","","","","null","","549.5999999046326","","1","1","null","null","arrowup","[0.325,0.675,0.85,0.15]","","",""
"sailing-trial","403","1748016","0.0-11.0-362.0","","","","false","","","","","","","","","","113","","55.09999990463257","","2","1","arrowright","1","arrowleft","[0.325,0.675,0.85,0.15]","","",""
"sailing-trial","404","1749795","0.0-11.0-363.0","","","","false","","","","","","","","","","null","","116.29999995231628","","2","1","null","null","arrowup","[0.325,0.675,0.85,0.15]","","",""
"sailing-trial","405","1753155","0.0-11.0-364.0","","","","false","","","","","","","","","","308.7999999523163","","312.90000009536743","","2","1","arrowright","1","arrowleft","[0.325,0.675,0.85,0.15]","","",""
"sailing-trial","406","1756979","0.0-11.0-365.0","","","","false","","","","","","","","","","null","","1542.7000000476837","","1","1","null","null","arrowup","[0.325,0.675,0.85,0.15]","","",""
"sailing-trial","407","1759415","0.0-11.0-366.0","","","","false","","","","","","","","","","232.29999995231628","","80.70000004768372","","2","0","arrowright","1","arrowleft","[0.675,0.325,0.15,0.85]","","",""
"sailing-trial","408","1762301","0.0-11.0-367.0","","","","false","","","","","","","","","","null","","1140.5999999046326","","0","1","null","null","arrowup","[0.675,0.325,0.15,0.85]","","",""
"sailing-trial","409","1765162","0.0-11.0-368.0","","","","false","","","","","","","","","","35.09999990463257","","104","","2","0","arrowright","1","arrowleft","[0.675,0.325,0.15,0.85]","","",""
"sailing-trial","410","1767075","0.0-11.0-369.0","","","","false","","","","","","","","","","null","","119.5","","3","1","null","null","arrowup","[0.675,0.325,0.15,0.85]","","",""
"sailing-trial","411","1770201","0.0-11.0-370.0","","","","false","","","","","","","","","","419.2000000476837","","87.29999995231628","","1","1","arrowleft","0","arrowright","[0.675,0.325,0.15,0.85]","","",""
"sailing-trial","412","1771497","0.0-11.0-371.0","","","","false","","","","","","","","","","null","","138.29999995231628","","1","0","null","null","arrowup","[0.675,0.325,0.15,0.85]","","",""
"sailing-trial","413","1774433","0.0-11.0-372.0","","","","false","","","","","","","","","","167","","5.700000047683716","","1","0","arrowleft","0","arrowright","[0.675,0.325,0.15,0.85]","","",""
"sailing-trial","414","1775663","0.0-11.0-373.0","","","","false","","","","","","","","","","null","","74.40000009536743","","2","0","null","null","arrowup","[0.675,0.325,0.15,0.85]","","",""
"sailing-trial","415","1778700","0.0-11.0-374.0","","","","false","","","","","","","","","","101.79999995231628","","209.79999995231628","","3","1","arrowright","1","arrowright","[0.675,0.325,0.15,0.85]","","",""
"sailing-trial","416","1780530","0.0-11.0-375.0","","","","false","","","","","","","","","","null","","114.90000009536743","","0","1","null","null","arrowup","[0.675,0.325,0.15,0.85]","","",""
"sailing-trial","417","1784338","0.0-11.0-376.0","","","","false","","","","","","","","","","762.5","","195.29999995231628","","3","1","arrowright","1","arrowright","[0.675,0.325,0.15,0.85]","","",""
"sailing-trial","418","1785684","0.0-11.0-377.0","","","","false","","","","","","","","","","null","","31","","1","0","null","null","arrowup","[0.675,0.325,0.15,0.85]","","",""
"sailing-trial","419","1788932","0.0-11.0-378.0","","","","false","","","","","","","","","","2.5","","721.6000001430511","","3","0","arrowright","1","arrowright","[0.675,0.325,0.15,0.85]","","",""
"sailing-trial","420","1790080","0.0-11.0-379.0","","","","false","","","","","","","","","","null","","8.899999856948853","","2","0","null","null","arrowup","[0.675,0.325,0.15,0.85]","","",""
"sailing-trial","421","1792870","0.0-11.0-380.0","","","","false","","","","","","","","","","6.599999904632568","","170.20000004768372","","3","1","arrowright","1","arrowright","[0.675,0.325,0.15,0.85]","","",""
"sailing-trial","422","1794831","0.0-11.0-381.0","","","","false","","","","","","","","","","null","","168.90000009536743","","2","1","null","null","arrowup","[0.675,0.325,0.15,0.85]","","",""
"sailing-trial","423","1797892","0.0-11.0-382.0","","","","false","","","","","","","","","","150.5","","309.40000009536743","","3","1","arrowright","1","arrowright","[0.85,0.15,0.325,0.675]","","",""
"sailing-trial","424","1799060","0.0-11.0-383.0","","","","false","","","","","","","","","","null","","106.20000004768372","","2","0","null","null","arrowup","[0.85,0.15,0.325,0.675]","","",""
"sailing-trial","425","1801851","0.0-11.0-384.0","","","","false","","","","","","","","","","34.200000047683716","","53.09999990463257","","3","1","arrowright","1","arrowright","[0.85,0.15,0.325,0.675]","","",""
"sailing-trial","426","1803132","0.0-11.0-385.0","","","","false","","","","","","","","","","null","","119.29999995231628","","1","0","null","null","arrowup","[0.85,0.15,0.325,0.675]","","",""
"sailing-trial","427","1806791","0.0-11.0-386.0","","","","false","","","","","","","","","","896.6000001430511","","47.90000009536743","","3","1","arrowright","1","arrowright","[0.85,0.15,0.325,0.675]","","",""
"sailing-trial","428","1808182","0.0-11.0-387.0","","","","false","","","","","","","","","","null","","148.10000014305115","","2","0","null","null","arrowup","[0.85,0.15,0.325,0.675]","","",""
"sailing-trial","429","1811762","0.0-11.0-388.0","","","","false","","","","","","","","","","305.39999985694885","","515.2000000476837","","3","1","arrowright","1","arrowright","[0.85,0.15,0.325,0.675]","","",""
"sailing-trial","430","1813560","0.0-11.0-389.0","","","","false","","","","","","","","","","null","","27.300000190734863","","0","1","null","null","arrowup","[0.85,0.15,0.325,0.675]","","",""
"sailing-trial","431","1816402","0.0-11.0-390.0","","","","false","","","","","","","","","","131.19999980926514","","30.59999990463257","","3","1","arrowright","1","arrowright","[0.85,0.15,0.325,0.675]","","",""
"sailing-trial","432","1818198","0.0-11.0-391.0","","","","false","","","","","","","","","","null","","1.1000001430511475","","3","1","null","null","arrowup","[0.85,0.15,0.325,0.675]","","",""
"sailing-trial","433","1821658","0.0-11.0-392.0","","","","false","","","","","","","","","","379.7000000476837","","213.59999990463257","","3","1","arrowright","1","arrowright","[0.85,0.15,0.325,0.675]","","",""
"sailing-trial","434","1823026","0.0-11.0-393.0","","","","false","","","","","","","","","","null","","171.79999995231628","","2","0","null","null","arrowup","[0.85,0.15,0.325,0.675]","","",""
"sailing-trial","435","1825626","0.0-11.0-394.0","","","","false","","","","","","","","","","77.39999985694885","","169","","3","0","arrowright","1","arrowright","[0.85,0.15,0.325,0.675]","","",""
"sailing-trial","436","1827060","0.0-11.0-395.0","","","","false","","","","","","","","","","null","","280.2000000476837","","0","0","null","null","arrowup","[0.85,0.15,0.325,0.675]","","",""
"sailing-trial","437","1830772","0.0-11.0-396.0","","","","false","","","","","","","","","","119.39999985694885","","901.3000001907349","","3","1","arrowright","1","arrowright","[0.85,0.15,0.325,0.675]","","",""
"sailing-trial","438","1831875","0.0-11.0-397.0","","","","false","","","","","","","","","","null","","30.5","","1","0","null","null","arrowup","[0.85,0.15,0.325,0.675]","","",""
"sailing-trial","439","1836675","0.0-11.0-398.0","","","","false","","","","","","","","","","228.20000004768372","","1917.1000001430511","","3","1","arrowright","1","arrowright","[0.85,0.15,0.325,0.675]","","",""
"sailing-trial","440","1838372","0.0-11.0-399.0","","","","false","","","","","","","","","","null","","91.20000004768372","","1","1","null","null","arrowup","[0.85,0.15,0.325,0.675]","","",""
"instructions","441","1838516","0.0-12.0","","","","","","","","","","143.30000019073486","","","","","","","","","","","","","","","","[{""page_index"":0,""viewing_time"":143.10000014305115}]"
"survey-debrief","442","1882697","0.0-13.0","","","","","","","","","","44178","","","","","","","","","","","","","","{""difficulty"":""2"",""fun"":""3"",""clarity"":""5"",""strategy"":""I just tried to remember which color had the most gold"",""feedback"":""nope""}","",""
