"trial_type","trial_index","time_elapsed","internal_node_id","value","metadata","success","timeout","failed_images","failed_audio","failed_video","browser_interaction","low_quality","rt","stimulus","response","button_pressed","island_rt","island_response","boat_rt","boat_response","boat","reward","island_key","island","boat_key","reward_probabilities","responses","num_errors","view_history"
"pavlovia","0","4","0.0-0.0","","","","","","","","","","","","","","","","","","","","","","","","","",""
"call-function","1","5","0.0-1.0","","{""task_version"":""sailing_part1_v1"",""task_condition"":""good"",""boats"":[""C"",""D"",""B"",""A""],""boats_demo"":[""F"",""E"",""G"",""H""],""islands"":[""B"",""A""],""subject_id"":""14043"",""age"":""13"",""gender"":""Female""}","","","","","","","","","","","","","","","","","","","","","","","",""
"preload","2","2304","0.0-2.0","","","true","false","[]","[]","[]","[{""event"":""fullscreenenter"",""trial"":3,""time"":5676}]","false","","","","","","","","","","","","","","","","",""
"fullscreen","3","6637","0.0-3.0","","","true","","","","","","","","","","","","","","","","","","","","","","",""
"audio-keyboard-response","4","9763","0.0-4.0-0.0","","","","","","","","","","2170.6666666666665","audio/beep_loop.wav"," ","","","","","","","","","","","","","",""
"audio-test","5","11617","0.0-4.0-1.0","","","","","","","","","","null","audio/turtle.mp3","","3","","","","","","","","","","","","",""
"audio-test","6","14143","0.0-4.0-2.0","","","","","","","","","","null","audio/shark.mp3","","2","","","","","","","","","","","","",""
"sailing-instructions","7","44249","0.0-5.0-0.0-0.0","","","","","","","","","","","","","","null","null","null","null","null","null","","","","","","",""
"sailing-trial","8","47891","0.0-5.0-0.0-1.0-0.0","","","","false","","","","","","","","","","2541","","null","","null","null","arrowleft","0","null","null","","",""
"sailing-trial","9","51160","0.0-5.0-0.0-1.0-1.0","","","","false","","","","","","","","","","2162.300001144409","","null","","null","null","arrowright","1","null","null","","",""
"sailing-trial","10","53616","0.0-5.0-0.0-1.0-2.0","","","","false","","","","","","","","","","1335.6999988555908","","null","","null","null","arrowleft","0","null","null","","",""
"sailing-instructions","11","94195","0.0-5.0-0.0-2.0","","","","","","","","","","","","","","null","null","null","null","0","null","","","","","","",""
"sailing-trial","12","100106","0.0-5.0-0.0-3.0-0.0","","","","false","","","","","","","","","","null","","1690","","2","1","null","null","arrowleft","[1,1,1,1]","","",""
"sailing-trial","13","103993","0.0-5.0-0.0-3.0-1.0","","","","false","","","","","","","","","","null","","638.8999996185303","","3","1","null","null","arrowright","[1,1,1,1]","","",""
"sailing-trial","14","108573","0.0-5.0-0.0-3.0-2.0","","","","false","","","","","","","","","","null","","1077.3000011444092","","2","0","null","null","arrowleft","[0,0,0,0]","","",""
"sailing-instructions","15","115983","0.0-5.0-0.0-4.0","","","","","","","","","","","","","","null","null","null","null","null","null","","","","","","",""
"sailing-comprehension","16","140483","0.0-5.0-0.0-5.0","","","","","","","","","","19286.5","","","","","","","","","","","","","","[""true"",""true"",""false"",""true""]","0",""
"sailing-instructions","17","201130","0.0-6.0-0.0-0.0","","","","","","","","","","","","","","null","null","null","null","null","null","","","","","","",""
"sailing-comprehension","18","216404","0.0-6.0-0.0-1.0","","","","","","","","","","13703.29999923706","","","","","","","","","","","","","","[""true"",""false"",""true""]","0",""
"sailing-instructions","19","229897","0.0-7.0-0.0-0.0","","","","","","","","","","","","","","null","null","null","null","null","null","","","","","","",""
"sailing-trial","20","236353","0.0-7.0-0.0-1.0-0.0","","","","false","","","","","","","","","","null","","3485.300001144409","","0","0","null","null","arrowup","[0.2,0.8,0.2,0.8]","","",""
"sailing-trial","21","241848","0.0-7.0-0.0-1.0-1.0","","","","false","","","","","","","","","","null","","2357.6000003814697","","1","1","null","null","arrowup","[0.2,0.8,0.2,0.8]","","",""
"sailing-trial","22","245756","0.0-7.0-0.0-1.0-2.0","","","","false","","","","","","","","","","null","","1164.8999996185303","","2","0","null","null","arrowup","[0.2,0.8,0.2,0.8]","","",""
"sailing-trial","23","249494","0.0-7.0-0.0-1.0-3.0","","","","false","","","","","","","","","","null","","1236.5","","3","1","null","null","arrowup","[0.2,0.8,0.2,0.8]","","",""
"sailing-comprehension","24","264875","0.0-7.0-0.0-2.0","","","","","","","","","","11599.900001525879","","","","","","","","","","","","","","[""true""]","1",""
"sailing-instructions","25","280677","0.0-7.0-0.1-0.1","","","","","","","","","","","","","","null","null","null","null","null","null","","","","","","",""
"sailing-trial","26","285584","0.0-7.0-0.1-1.1-0.1","","","","false","","","","","","","","","","null","","2110","","0","0","null","null","arrowup","[0.2,0.8,0.2,0.8]","","",""
"sailing-trial","27","288846","0.0-7.0-0.1-1.1-1.1","","","","false","","","","","","","","","","null","","1048.8999996185303","","1","1","null","null","arrowup","[0.2,0.8,0.2,0.8]","","",""
"sailing-trial","28","290918","0.0-7.0-0.1-1.1-2.1","","","","false","","","","","","","","","","null","","529.6999988555908","","2","0","null","null","arrowup","[0.2,0.8,0.2,0.8]","","",""
"sailing-trial","29","293660","0.0-7.0-0.1-1.1-3.1","","","","false","","","","","","","","","","null","","781.7000007629395","","3","1","null","null","arrowup","[0.2,0.8,0.2,0.8]","","",""
"sailing-comprehension","30","300958","0.0-7.0-0.1-2.1","","","","","","","","","","5429.299999237061","","","","","","","","","","","","","","[""false""]","0",""
"sailing-instructions","31","312869","0.0-8.0-0.0-0.0","","","","","","","","","","","","","","null","null","null","null","null","null","","","","","","",""
"sailing-comprehension","32","320118","0.0-8.0-0.0-1.0","","","","","","","","","","6137.800001144409","","","","","","","","","","","","","","[""true""]","0",""
"sailing-instructions","33","355492","0.0-9.0-0.0-0.0","","","","","","","","","","","","","","null","null","null","null","null","null","","","","","","",""
"sailing-trial","34","363483","0.0-9.0-0.0-1.0-0.0","","","","false","","","","","","","","","","2498.5","","1566","","0","0","arrowleft","0","arrowleft","[0.2,0.8,0.2,0.8]","","",""
"sailing-trial","35","368513","0.0-9.0-0.0-1.0-1.0","","","","false","","","","","","","","","","1122.8999996185303","","125.79999923706055","","3","1","arrowright","1","arrowright","[0.2,0.8,0.2,0.8]","","",""
"sailing-trial","36","372705","0.0-9.0-0.0-1.0-2.0","","","","false","","","","","","","","","","null","","2005.3999996185303","","0","0","null","null","arrowup","[0.2,0.8,0.2,0.8]","","",""
"sailing-trial","37","377330","0.0-9.0-0.0-1.0-3.0","","","","false","","","","","","","","","","942.1000003814697","","375.5","","1","1","arrowleft","0","arrowright","[0.2,0.8,0.2,0.8]","","",""
"sailing-trial","38","380917","0.0-9.0-0.0-1.0-4.0","","","","false","","","","","","","","","","null","","1342.7999992370605","","3","1","null","null","arrowup","[0.2,0.8,0.2,0.8]","","",""
"sailing-trial","39","384688","0.0-9.0-0.0-1.0-5.0","","","","false","","","","","","","","","","679.8999996185303","","27.200000762939453","","2","0","arrowright","1","arrowleft","[0.2,0.8,0.2,0.8]","","",""
"sailing-instructions","40","410310","0.0-10.0","","","","","","","","","","","","","","null","null","null","null","null","null","","","","","","",""
"sailing-trial","41","415566","0.0-11.0-0.0","","","","false","","","","","","","","","","1112.8000011444092","","491.3999996185303","","0","1","arrowleft","0","arrowleft","[0.85,0.15,0.675,0.325]","","",""
"sailing-trial","42","419156","0.0-11.0-1.0","","","","false","","","","","","","","","","null","","1380.7000007629395","","3","1","null","null","arrowup","[0.85,0.15,0.675,0.325]","","",""
"sailing-trial","43","423761","0.0-11.0-2.0","","","","false","","","","","","","","","","791.7999992370605","","428.1999988555908","","1","1","arrowleft","0","arrowright","[0.85,0.15,0.675,0.325]","","",""
"sailing-trial","44","426939","0.0-11.0-3.0","","","","false","","","","","","","","","","null","","1155.7999992370605","","3","0","null","null","arrowup","[0.85,0.15,0.675,0.325]","","",""
"sailing-trial","45","430163","0.0-11.0-4.0","","","","false","","","","","","","","","","716.5","","95.19999885559082","","3","0","arrowright","1","arrowright","[0.85,0.15,0.675,0.325]","","",""
"sailing-trial","46","432740","0.0-11.0-5.0","","","","false","","","","","","","","","","null","","1150.099998474121","","1","0","null","null","arrowup","[0.85,0.15,0.675,0.325]","","",""
"sailing-trial","47","437189","0.0-11.0-6.0","","","","false","","","","","","","","","","1527.1999988555908","","13","","2","1","arrowright","1","arrowleft","[0.85,0.15,0.675,0.325]","","",""
"sailing-trial","48","440205","0.0-11.0-7.0","","","","false","","","","","","","","","","null","","1111.1000003814697","","0","1","null","null","arrowup","[0.85,0.15,0.675,0.325]","","",""
"sailing-trial","49","444083","0.0-11.0-8.0","","","","false","","","","","","","","","","577.8999996185303","","302.3000011444092","","0","1","arrowleft","0","arrowleft","[0.85,0.15,0.675,0.325]","","",""
"sailing-trial","50","447356","0.0-11.0-9.0","","","","false","","","","","","","","","","null","","1148.6000003814697","","0","1","null","null","arrowup","[0.85,0.15,0.675,0.325]","","",""
"sailing-trial","51","451821","0.0-11.0-10.0","","","","false","","","","","","","","","","548.2999992370605","","1157","","1","0","arrowleft","0","arrowright","[0.85,0.15,0.675,0.325]","","",""
"sailing-trial","52","454888","0.0-11.0-11.0","","","","false","","","","","","","","","","null","","1126.8999996185303","","0","1","null","null","arrowup","[0.85,0.15,0.675,0.325]","","",""
"sailing-trial","53","459738","0.0-11.0-12.0","","","","false","","","","","","","","","","589.6000003814697","","1143.5","","0","1","arrowleft","0","arrowleft","[0.85,0.15,0.675,0.325]","","",""
"sailing-trial","54","462270","0.0-11.0-13.0","","","","false","","","","","","","","","","null","","1038.1999988555908","","1","0","null","null","arrowup","[0.85,0.15,0.675,0.325]","","",""
"sailing-trial","55","465894","0.0-11.0-14.0","","","","false","","","","","","","","","","524.8999996185303","","194.19999885559082","","2","1","arrowright","1","arrowleft","[0.85,0.15,0.675,0.325]","","",""
"sailing-trial","56","468838","0.0-11.0-15.0","","","","false","","","","","","","","","","null","","1584","","3","0","null","null","arrowup","[0.85,0.15,0.675,0.325]","","",""
"sailing-trial","57","473501","0.0-11.0-16.0","","","","false","","","","","","","","","","630.4000015258789","","873.2999992370605","","0","1","arrowleft","0","arrowleft","[0.85,0.15,0.675,0.325]","","",""
"sailing-trial","58","476665","0.0-11.0-17.0","","","","false","","","","","","","","","","null","","1102.8999996185303","","0","1","null","null","arrowup","[0.85,0.15,0.675,0.325]","","",""
"sailing-trial","59","480496","0.0-11.0-18.0","","","","false","","","","","","","","","","490.1999988555908","","243.80000114440918","","2","1","arrowright","1","arrowleft","[0.15,0.85,0.325,0.675]","","",""
"sailing-trial","60","483177","0.0-11.0-19.0","","","","false","","","","","","","","","","null","","1101.8000011444092","","3","0","null","null","arrowup","[0.15,0.85,0.325,0.675]","","",""
"sailing-trial","61","486672","0.0-11.0-20.0","","","","false","","","","","","","","","","662.3999996185303","","145.19999885559082","","0","0","arrowleft","0","arrowleft","[0.15,0.85,0.325,0.675]","","",""
"sailing-trial","62","489625","0.0-11.0-21.0","","","","false","","","","","","","","","","null","","980.4000015258789","","2","1","null","null","arrowup","[0.15,0.85,0.325,0.675]","","",""
"sailing-trial","63","492872","0.0-11.0-22.0","","","","false","","","","","","","","","","554.8999996185303","","47.30000114440918","","2","0","arrowright","1","arrowleft","[0.15,0.85,0.325,0.675]","","",""
"sailing-trial","64","496296","0.0-11.0-23.0","","","","false","","","","","","","","","","null","","1374.599998474121","","1","1","null","null","arrowup","[0.15,0.85,0.325,0.675]","","",""
"sailing-trial","65","500098","0.0-11.0-24.0","","","","false","","","","","","","","","","524.6000003814697","","680.5","","0","0","arrowleft","0","arrowleft","[0.15,0.85,0.325,0.675]","","",""
"sailing-trial","66","502536","0.0-11.0-25.0","","","","false","","","","","","","","","","null","","944.5","","0","0","null","null","arrowup","[0.15,0.85,0.325,0.675]","","",""
"sailing-trial","67","505629","0.0-11.0-26.0","","","","false","","","","","","","","","","611.2000007629395","","97.80000114440918","","2","0","arrowright","1","arrowleft","[0.15,0.85,0.325,0.675]","","",""
"sailing-trial","68","508252","0.0-11.0-27.0","","","","false","","","","","","","","","","null","","788.8999996185303","","3","1","null","null","arrowup","[0.15,0.85,0.325,0.675]","","",""
"sailing-trial","69","511931","0.0-11.0-28.0","","","","false","","","","","","","","","","777","","1.3999996185302734","","3","1","arrowright","1","arrowright","[0.15,0.85,0.325,0.675]","","",""
"sailing-trial","70","514467","0.0-11.0-29.0","","","","false","","","","","","","","","","null","","1008.2999992370605","","3","0","null","null","arrowup","[0.15,0.85,0.325,0.675]","","",""
"sailing-trial","71","520172","0.0-11.0-30.0","","","","false","","","","","","","","","","1588.3000011444092","","1013.9000015258789","","1","1","arrowleft","0","arrowright","[0.15,0.85,0.325,0.675]","","",""
"sailing-trial","72","523300","0.0-11.0-31.0","","","","false","","","","","","","","","","null","","1277.1000003814697","","3","1","null","null","arrowup","[0.15,0.85,0.325,0.675]","","",""
"sailing-trial","73","528188","0.0-11.0-32.0","","","","false","","","","","","","","","","1843.3999996185303","","1.3999996185302734","","1","1","arrowleft","0","arrowright","[0.15,0.85,0.325,0.675]","","",""
"sailing-trial","74","531162","0.0-11.0-33.0","","","","false","","","","","","","","","","null","","989","","2","1","null","null","arrowup","[0.15,0.85,0.325,0.675]","","",""
"sailing-trial","75","536544","0.0-11.0-34.0","","","","false","","","","","","","","","","1592.900001525879","","762","","2","1","arrowright","1","arrowleft","[0.15,0.85,0.325,0.675]","","",""
"sailing-trial","76","539375","0.0-11.0-35.0","","","","false","","","","","","","","","","null","","888.8000011444092","","1","1","null","null","arrowup","[0.15,0.85,0.325,0.675]","","",""
"sailing-trial","77","543634","0.0-11.0-36.0","","","","false","","","","","","","","","","1180.2000007629395","","123.70000076293945","","3","1","arrowright","1","arrowright","[0.325,0.675,0.15,0.85]","","",""
"sailing-trial","78","547756","0.0-11.0-37.0","","","","false","","","","","","","","","","null","","1775.2000007629395","","2","0","null","null","arrowup","[0.325,0.675,0.15,0.85]","","",""
"sailing-trial","79","551997","0.0-11.0-38.0","","","","false","","","","","","","","","","538.6000003814697","","899.3999996185303","","1","1","arrowleft","0","arrowright","[0.325,0.675,0.15,0.85]","","",""
"sailing-trial","80","554353","0.0-11.0-39.0","","","","false","","","","","","","","","","null","","954.5","","2","0","null","null","arrowup","[0.325,0.675,0.15,0.85]","","",""
"sailing-trial","81","558149","0.0-11.0-40.0","","","","false","","","","","","","","","","1168.900001525879","","229.30000114440918","","2","0","arrowright","1","arrowleft","[0.325,0.675,0.15,0.85]","","",""
"sailing-trial","82","560733","0.0-11.0-41.0","","","","false","","","","","","","","","","null","","1304.3999996185303","","3","0","null","null","arrowup","[0.325,0.675,0.15,0.85]","","",""
"sailing-trial","83","564233","0.0-11.0-42.0","","","","false","","","","","","","","","","1145.5","","1.1000003814697266","","3","0","arrowright","1","arrowright","[0.325,0.675,0.15,0.85]","","",""
"sailing-trial","84","567377","0.0-11.0-43.0","","","","false","","","","","","","","","","null","","1287.8999996185303","","0","1","null","null","arrowup","[0.325,0.675,0.15,0.85]","","",""
"sailing-trial","85","570496","0.0-11.0-44.0","","","","false","","","","","","","","","","523.3999996185303","","55.30000114440918","","0","0","arrowleft","0","arrowleft","[0.325,0.675,0.15,0.85]","","",""
"sailing-trial","86","573643","0.0-11.0-45.0","","","","false","","","","","","","","","","null","","1159.2999992370605","","3","1","null","null","arrowup","[0.325,0.675,0.15,0.85]","","",""
"sailing-trial","87","578667","0.0-11.0-46.0","","","","false","","","","","","","","","","978.8999996185303","","1086.2000007629395","","3","1","arrowright","1","arrowright","[0.325,0.675,0.15,0.85]","","",""
"sailing-trial","88","581617","0.0-11.0-47.0","","","","false","","","","","","","","","","null","","1125.8999996185303","","1","1","null","null","arrowup","[0.325,0.675,0.15,0.85]","","",""
"sailing-trial","89","585428","0.0-11.0-48.0","","","","false","","","","","","","","","","616.1000003814697","","222","","1","1","arrowleft","0","arrowright","[0.325,0.675,0.15,0.85]","","",""
"sailing-trial","90","588269","0.0-11.0-49.0","","","","false","","","","","","","","","","null","","972.8000011444092","","0","1","null","null","arrowup","[0.325,0.675,0.15,0.85]","","",""
"sailing-trial","91","592750","0.0-11.0-50.0","","","","false","","","","","","","","","","854.1999988555908","","795.2000007629395","","3","1","arrowright","1","arrowright","[0.325,0.675,0.15,0.85]","","",""
"sailing-trial","92","595715","0.0-11.0-51.0","","","","false","","","","","","","","","","null","","1042.2000007629395","","2","0","null","null","arrowup","[0.325,0.675,0.15,0.85]","","",""
"sailing-trial","93","598719","0.0-11.0-52.0","","","","false","","","","","","","","","","532.6000003814697","","114.5","","0","0","arrowleft","0","arrowleft","[0.15,0.85,0.325,0.675]","","",""
"sailing-trial","94","602036","0.0-11.0-53.0","","","","false","","","","","","","","","","null","","1727","","1","0","null","null","arrowup","[0.15,0.85,0.325,0.675]","","",""
"sailing-trial","95","605863","0.0-11.0-54.0","","","","false","","","","","","","","","","878.7999992370605","","106.80000114440918","","1","1","arrowleft","0","arrowright","[0.15,0.85,0.325,0.675]","","",""
"sailing-trial","96","608769","0.0-11.0-55.0","","","","false","","","","","","","","","","null","","1032.2999992370605","","1","1","null","null","arrowup","[0.15,0.85,0.325,0.675]","","",""
"sailing-trial","97","613010","0.0-11.0-56.0","","","","false","","","","","","","","","","989.1000003814697","","726.6999988555908","","3","0","arrowright","1","arrowright","[0.15,0.85,0.325,0.675]","","",""
"sailing-trial","98","615582","0.0-11.0-57.0","","","","false","","","","","","","","","","null","","1021.6000003814697","","0","0","null","null","arrowup","[0.15,0.85,0.325,0.675]","","",""
"sailing-trial","99","619894","0.0-11.0-58.0","","","","false","","","","","","","","","","1458.8999996185303","","23.899999618530273","","2","1","arrowright","1","arrowleft","[0.15,0.85,0.325,0.675]","","",""
"sailing-trial","100","622457","0.0-11.0-59.0","","","","false","","","","","","","","","","null","","1039.3999996185303","","0","0","null","null","arrowup","[0.15,0.85,0.325,0.675]","","",""
"sailing-trial","101","627333","0.0-11.0-60.0","","","","false","","","","","","","","","","1429","","532.3999996185303","","1","1","arrowleft","0","arrowright","[0.15,0.85,0.325,0.675]","","",""
"sailing-trial","102","629857","0.0-11.0-61.0","","","","false","","","","","","","","","","null","","1082.8999996185303","","0","0","null","null","arrowup","[0.15,0.85,0.325,0.675]","","",""
"sailing-trial","103","633679","0.0-11.0-62.0","","","","false","","","","","","","","","","788.2000007629395","","160.79999923706055","","2","1","arrowright","1","arrowleft","[0.15,0.85,0.325,0.675]","","",""
"sailing-trial","104","636594","0.0-11.0-63.0","","","","false","","","","","","","","","","null","","938.8999996185303","","0","1","null","null","arrowup","[0.15,0.85,0.325,0.675]","","",""
"sailing-trial","105","640226","0.0-11.0-64.0","","","","false","","","","","","","","","","720.9000015258789","","40","","1","1","arrowleft","0","arrowright","[0.15,0.85,0.325,0.675]","","",""
"sailing-trial","106","643113","0.0-11.0-65.0","","","","false","","","","","","","","","","null","","996.7999992370605","","3","1","null","null","arrowup","[0.15,0.85,0.325,0.675]","","",""
"sailing-trial","107","647021","0.0-11.0-66.0","","","","false","","","","","","","","","","859.3999996185303","","139.39999961853027","","2","1","arrowright","1","arrowleft","[0.15,0.85,0.325,0.675]","","",""
"sailing-trial","108","650148","0.0-11.0-67.0","","","","false","","","","","","","","","","null","","971.2999992370605","","1","1","null","null","arrowup","[0.15,0.85,0.325,0.675]","","",""
"sailing-trial","109","654187","0.0-11.0-68.0","","","","false","","","","","","","","","","668.8999996185303","","883.6999988555908","","3","0","arrowright","1","arrowright","[0.675,0.325,0.85,0.15]","","",""
"sailing-trial","110","657114","0.0-11.0-69.0","","","","false","","","","","","","","","","null","","985.5","","1","1","null","null","arrowup","[0.675,0.325,0.85,0.15]","","",""
"sailing-trial","111","660123","0.0-11.0-70.0","","","","false","","","","","","","","","","635.8999996185303","","49.20000076293945","","1","0","arrowleft","0","arrowright","[0.675,0.325,0.85,0.15]","","",""
"sailing-trial","112","663534","0.0-11.0-71.0","","","","false","","","","","","","","","","null","","1990.2999992370605","","0","0","null","null","arrowup","[0.675,0.325,0.85,0.15]","","",""
"sailing-trial","113","667809","0.0-11.0-72.0","","","","false","","","","","","","","","","1283.3999996185303","","457.5","","3","0","arrowright","1","arrowright","[0.675,0.325,0.85,0.15]","","",""
"sailing-trial","114","670985","0.0-11.0-73.0","","","","false","","","","","","","","","","null","","1014.6000003814697","","2","1","null","null","arrowup","[0.675,0.325,0.85,0.15]","","",""
"sailing-trial","115","674705","0.0-11.0-74.0","","","","false","","","","","","","","","","590.9000015258789","","245.70000076293945","","2","1","arrowright","1","arrowleft","[0.675,0.325,0.85,0.15]","","",""
"sailing-trial","116","677680","0.0-11.0-75.0","","","","false","","","","","","","","","","null","","967.5","","0","1","null","null","arrowup","[0.675,0.325,0.85,0.15]","","",""
"sailing-trial","117","681216","0.0-11.0-76.0","","","","false","","","","","","","","","","567.7999992370605","","86.10000038146973","","0","1","arrowleft","0","arrowleft","[0.675,0.325,0.85,0.15]","","",""
"sailing-trial","118","684146","0.0-11.0-77.0","","","","false","","","","","","","","","","null","","953.6000003814697","","0","1","null","null","arrowup","[0.675,0.325,0.85,0.15]","","",""
"sailing-trial","119","687574","0.0-11.0-78.0","","","","false","","","","","","","","","","551.3000011444092","","67.70000076293945","","2","1","arrowright","1","arrowleft","[0.675,0.325,0.85,0.15]","","",""
"sailing-trial","120","690172","0.0-11.0-79.0","","","","false","","","","","","","","","","null","","748.6000003814697","","1","0","null","null","arrowup","[0.675,0.325,0.85,0.15]","","",""
"sailing-trial","121","693671","0.0-11.0-80.0","","","","false","","","","","","","","","","541","","27.100000381469727","","0","1","arrowleft","0","arrowleft","[0.675,0.325,0.85,0.15]","","",""
"sailing-trial","122","697244","0.0-11.0-81.0","","","","false","","","","","","","","","","null","","1654.8999996185303","","3","0","null","null","arrowup","[0.675,0.325,0.85,0.15]","","",""
"sailing-trial","123","700751","0.0-11.0-82.0","","","","false","","","","","","","","","","563.7999992370605","","106","","0","1","arrowleft","0","arrowleft","[0.675,0.325,0.85,0.15]","","",""
"sailing-trial","124","703371","0.0-11.0-83.0","","","","false","","","","","","","","","","null","","1175.6000003814697","","3","0","null","null","arrowup","[0.675,0.325,0.85,0.15]","","",""
"sailing-trial","125","706757","0.0-11.0-84.0","","","","false","","","","","","","","","","528.2999992370605","","26.700000762939453","","2","1","arrowright","1","arrowleft","[0.85,0.15,0.675,0.325]","","",""
"sailing-trial","126","709570","0.0-11.0-85.0","","","","false","","","","","","","","","","null","","967.6000003814697","","0","1","null","null","arrowup","[0.85,0.15,0.675,0.325]","","",""
"sailing-trial","127","714282","0.0-11.0-86.0","","","","false","","","","","","","","","","603.2999992370605","","1711.3000011444092","","0","0","arrowleft","0","arrowleft","[0.85,0.15,0.675,0.325]","","",""
"sailing-trial","128","717244","0.0-11.0-87.0","","","","false","","","","","","","","","","null","","1127.2999992370605","","3","1","null","null","arrowup","[0.85,0.15,0.675,0.325]","","",""
"sailing-trial","129","720549","0.0-11.0-88.0","","","","false","","","","","","","","","","776.0999984741211","","131.19999885559082","","2","0","arrowright","1","arrowleft","[0.85,0.15,0.675,0.325]","","",""
"sailing-trial","130","723118","0.0-11.0-89.0","","","","false","","","","","","","","","","null","","708.5","","2","1","null","null","arrowup","[0.85,0.15,0.675,0.325]","","",""
"sailing-trial","131","726683","0.0-11.0-90.0","","","","false","","","","","","","","","","565.3999996185303","","151.10000038146973","","0","1","arrowleft","0","arrowleft","[0.85,0.15,0.675,0.325]","","",""
"sailing-trial","132","729578","0.0-11.0-91.0","","","","false","","","","","","","","","","null","","1024.3999996185303","","0","1","null","null","arrowup","[0.85,0.15,0.675,0.325]","","",""
"sailing-trial","133","733320","0.0-11.0-92.0","","","","false","","","","","","","","","","897.9000015258789","","28.799999237060547","","2","1","arrowright","1","arrowleft","[0.85,0.15,0.675,0.325]","","",""
"sailing-trial","134","736228","0.0-11.0-93.0","","","","false","","","","","","","","","","null","","1076.1999988555908","","2","1","null","null","arrowup","[0.85,0.15,0.675,0.325]","","",""
"sailing-trial","135","740122","0.0-11.0-94.0","","","","false","","","","","","","","","","412.5","","584","","2","1","arrowright","1","arrowleft","[0.85,0.15,0.675,0.325]","","",""
"sailing-trial","136","742391","0.0-11.0-95.0","","","","false","","","","","","","","","","null","","993","","1","0","null","null","arrowup","[0.85,0.15,0.675,0.325]","","",""
"sailing-trial","137","747032","0.0-11.0-96.0","","","","false","","","","","","","","","","513.8000011444092","","1120.2999992370605","","0","1","arrowleft","0","arrowleft","[0.85,0.15,0.675,0.325]","","",""
"sailing-trial","138","750075","0.0-11.0-97.0","","","","false","","","","","","","","","","null","","1146.7999992370605","","2","1","null","null","arrowup","[0.85,0.15,0.675,0.325]","","",""
"sailing-trial","139","753520","0.0-11.0-98.0","","","","false","","","","","","","","","","476.6000003814697","","151","","2","1","arrowright","1","arrowleft","[0.85,0.15,0.675,0.325]","","",""
"sailing-trial","140","755976","0.0-11.0-99.0","","","","false","","","","","","","","","","null","","1130.1000003814697","","1","0","null","null","arrowup","[0.85,0.15,0.675,0.325]","","",""
"sailing-trial","141","759382","0.0-11.0-100.0","","","","false","","","","","","","","","","563.1000003814697","","23.399999618530273","","0","1","arrowleft","0","arrowleft","[0.675,0.325,0.85,0.15]","","",""
"sailing-trial","142","761856","0.0-11.0-101.0","","","","false","","","","","","","","","","null","","701.1000003814697","","2","1","null","null","arrowup","[0.675,0.325,0.85,0.15]","","",""
"sailing-trial","143","765865","0.0-11.0-102.0","","","","false","","","","","","","","","","364.70000076293945","","780.7999992370605","","2","1","arrowright","1","arrowleft","[0.675,0.325,0.85,0.15]","","",""
"sailing-trial","144","768435","0.0-11.0-103.0","","","","false","","","","","","","","","","null","","1291.900001525879","","3","0","null","null","arrowup","[0.675,0.325,0.85,0.15]","","",""
"sailing-trial","145","771997","0.0-11.0-104.0","","","","false","","","","","","","","","","715.6999988555908","","22","","0","1","arrowleft","0","arrowleft","[0.675,0.325,0.85,0.15]","","",""
"sailing-trial","146","774496","0.0-11.0-105.0","","","","false","","","","","","","","","","null","","629.2000007629395","","3","0","null","null","arrowup","[0.675,0.325,0.85,0.15]","","",""
"sailing-trial","147","778042","0.0-11.0-106.0","","","","false","","","","","","","","","","519.5","","47.20000076293945","","2","1","arrowright","1","arrowleft","[0.675,0.325,0.85,0.15]","","",""
"sailing-trial","148","780680","0.0-11.0-107.0","","","","false","","","","","","","","","","null","","1275","","1","0","null","null","arrowup","[0.675,0.325,0.85,0.15]","","",""
"sailing-trial","149","784471","0.0-11.0-108.0","","","","false","","","","","","","","","","763.2999992370605","","139.5","","0","1","arrowleft","0","arrowleft","[0.675,0.325,0.85,0.15]","","",""
"sailing-trial","150","787362","0.0-11.0-109.0","","","","false","","","","","","","","","","null","","422.6999988555908","","2","1","null","null","arrowup","[0.675,0.325,0.85,0.15]","","",""
"sailing-trial","151","790703","0.0-11.0-110.0","","","","false","","","","","","","","","","568.6000003814697","","39.29999923706055","","2","1","arrowright","1","arrowleft","[0.675,0.325,0.85,0.15]","","",""
"sailing-trial","152","792455","0.0-11.0-111.0","","","","false","","","","","","","","","","null","","254.39999961853027","","3","0","null","null","arrowup","[0.675,0.325,0.85,0.15]","","",""
"sailing-trial","153","796066","0.0-11.0-112.0","","","","false","","","","","","","","","","492.79999923706055","","314.3999996185303","","0","1","arrowleft","0","arrowleft","[0.675,0.325,0.85,0.15]","","",""
"sailing-trial","154","798521","0.0-11.0-113.0","","","","false","","","","","","","","","","null","","558.3999996185303","","0","1","null","null","arrowup","[0.675,0.325,0.85,0.15]","","",""
"sailing-trial","155","801783","0.0-11.0-114.0","","","","false","","","","","","","","","","436.0999984741211","","55.400001525878906","","2","1","arrowright","1","arrowleft","[0.675,0.325,0.85,0.15]","","",""
"sailing-trial","156","804102","0.0-11.0-115.0","","","","false","","","","","","","","","","null","","748.8999996185303","","1","0","null","null","arrowup","[0.675,0.325,0.85,0.15]","","",""
"sailing-trial","157","807980","0.0-11.0-116.0","","","","false","","","","","","","","","","584.1000003814697","","519.3999996185303","","0","1","arrowleft","0","arrowleft","[0.675,0.325,0.85,0.15]","","",""
"sailing-trial","158","810116","0.0-11.0-117.0","","","","false","","","","","","","","","","null","","838.3000011444092","","2","0","null","null","arrowup","[0.675,0.325,0.85,0.15]","","",""
"sailing-trial","159","813123","0.0-11.0-118.0","","","","false","","","","","","","","","","573.5999984741211","","298.6999988555908","","2","0","arrowright","1","arrowleft","[0.675,0.325,0.85,0.15]","","",""
"sailing-trial","160","815317","0.0-11.0-119.0","","","","false","","","","","","","","","","null","","868.3999996185303","","0","0","null","null","arrowup","[0.675,0.325,0.85,0.15]","","",""
"sailing-trial","161","819346","0.0-11.0-120.0","","","","false","","","","","","","","","","586.6000003814697","","705.0999984741211","","3","1","arrowright","1","arrowright","[0.675,0.325,0.85,0.15]","","",""
"sailing-trial","162","821929","0.0-11.0-121.0","","","","false","","","","","","","","","","null","","1093.6000003814697","","3","0","null","null","arrowup","[0.675,0.325,0.85,0.15]","","",""
"sailing-trial","163","826037","0.0-11.0-122.0","","","","false","","","","","","","","","","595.7999992370605","","349.70000076293945","","3","1","arrowright","1","arrowright","[0.85,0.15,0.675,0.325]","","",""
"sailing-trial","164","828510","0.0-11.0-123.0","","","","false","","","","","","","","","","null","","683.5999984741211","","0","1","null","null","arrowup","[0.85,0.15,0.675,0.325]","","",""
"sailing-trial","165","831877","0.0-11.0-124.0","","","","false","","","","","","","","","","444.5","","7.399999618530273","","0","1","arrowleft","0","arrowleft","[0.85,0.15,0.675,0.325]","","",""
"sailing-trial","166","834464","0.0-11.0-125.0","","","","false","","","","","","","","","","null","","1243.8999996185303","","2","0","null","null","arrowup","[0.85,0.15,0.675,0.325]","","",""
"sailing-trial","167","837542","0.0-11.0-126.0","","","","false","","","","","","","","","","560.5","","14.200000762939453","","3","0","arrowright","1","arrowright","[0.85,0.15,0.675,0.325]","","",""
"sailing-trial","168","840619","0.0-11.0-127.0","","","","false","","","","","","","","","","null","","1092.5","","0","1","null","null","arrowup","[0.85,0.15,0.675,0.325]","","",""
"sailing-trial","169","844438","0.0-11.0-128.0","","","","false","","","","","","","","","","321.5","","675.5999984741211","","0","1","arrowleft","0","arrowleft","[0.85,0.15,0.675,0.325]","","",""
"sailing-trial","170","849604","0.0-11.0-129.0","","","","false","","","","","","","","","","null","","2290.7000007629395","","2","1","null","null","arrowup","[0.85,0.15,0.675,0.325]","","",""
"sailing-trial","171","853068","0.0-11.0-130.0","","","","false","","","","","","","","","","464.6000003814697","","702.3999996185303","","1","0","arrowleft","0","arrowright","[0.85,0.15,0.675,0.325]","","",""
"sailing-trial","172","855548","0.0-11.0-131.0","","","","false","","","","","","","","","","null","","676.7000007629395","","0","1","null","null","arrowup","[0.85,0.15,0.675,0.325]","","",""
"sailing-trial","173","858833","0.0-11.0-132.0","","","","false","","","","","","","","","","440.4000015258789","","35","","0","1","arrowleft","0","arrowleft","[0.85,0.15,0.675,0.325]","","",""
"sailing-trial","174","861849","0.0-11.0-133.0","","","","false","","","","","","","","","","null","","1585.7999992370605","","1","0","null","null","arrowup","[0.85,0.15,0.675,0.325]","","",""
"sailing-trial","175","865518","0.0-11.0-134.0","","","","false","","","","","","","","","","580.2999992370605","","275.4000015258789","","3","1","arrowright","1","arrowright","[0.85,0.15,0.675,0.325]","","",""
"sailing-trial","176","867739","0.0-11.0-135.0","","","","false","","","","","","","","","","null","","771.8999996185303","","1","0","null","null","arrowup","[0.85,0.15,0.675,0.325]","","",""
"sailing-trial","177","872004","0.0-11.0-136.0","","","","false","","","","","","","","","","584.7000007629395","","568.9000015258789","","0","0","arrowleft","0","arrowleft","[0.85,0.15,0.675,0.325]","","",""
"sailing-trial","178","874964","0.0-11.0-137.0","","","","false","","","","","","","","","","null","","976.8999996185303","","2","1","null","null","arrowup","[0.85,0.15,0.675,0.325]","","",""
"sailing-trial","179","878826","0.0-11.0-138.0","","","","false","","","","","","","","","","494.20000076293945","","589.7000007629395","","3","1","arrowright","1","arrowright","[0.85,0.15,0.675,0.325]","","",""
"sailing-trial","180","881335","0.0-11.0-139.0","","","","false","","","","","","","","","","null","","1167.1000003814697","","2","0","null","null","arrowup","[0.85,0.15,0.675,0.325]","","",""
"sailing-trial","181","885367","0.0-11.0-140.0","","","","false","","","","","","","","","","526.8999996185303","","739.2999992370605","","0","1","arrowleft","0","arrowleft","[0.675,0.325,0.85,0.15]","","",""
"sailing-trial","182","887637","0.0-11.0-141.0","","","","false","","","","","","","","","","null","","736.1999988555908","","3","0","null","null","arrowup","[0.675,0.325,0.85,0.15]","","",""
"sailing-trial","183","890845","0.0-11.0-142.0","","","","false","","","","","","","","","","471.70000076293945","","460.8000011444092","","3","0","arrowright","1","arrowright","[0.675,0.325,0.85,0.15]","","",""
"sailing-trial","184","893960","0.0-11.0-143.0","","","","false","","","","","","","","","","null","","1057.7999992370605","","3","0","null","null","arrowup","[0.675,0.325,0.85,0.15]","","",""
"sailing-trial","185","898184","0.0-11.0-144.0","","","","false","","","","","","","","","","1059.6000003814697","","315","","2","1","arrowright","1","arrowleft","[0.675,0.325,0.85,0.15]","","",""
"sailing-trial","186","901326","0.0-11.0-145.0","","","","false","","","","","","","","","","null","","1276","","2","1","null","null","arrowup","[0.675,0.325,0.85,0.15]","","",""
"sailing-trial","187","905838","0.0-11.0-146.0","","","","false","","","","","","","","","","594.3999996185303","","1064.599998474121","","2","1","arrowright","1","arrowleft","[0.675,0.325,0.85,0.15]","","",""
"sailing-trial","188","908220","0.0-11.0-147.0","","","","false","","","","","","","","","","null","","1008.1000003814697","","3","0","null","null","arrowup","[0.675,0.325,0.85,0.15]","","",""
"sailing-trial","189","911817","0.0-11.0-148.0","","","","false","","","","","","","","","","676.1000003814697","","41.5","","0","1","arrowleft","0","arrowleft","[0.675,0.325,0.85,0.15]","","",""
"sailing-trial","190","914887","0.0-11.0-149.0","","","","false","","","","","","","","","","null","","1050.7000007629395","","0","1","null","null","arrowup","[0.675,0.325,0.85,0.15]","","",""
"sailing-trial","191","919363","0.0-11.0-150.0","","","","false","","","","","","","","","","535.6000003814697","","937.7000007629395","","0","1","arrowleft","0","arrowleft","[0.675,0.325,0.85,0.15]","","",""
"sailing-trial","192","921829","0.0-11.0-151.0","","","","false","","","","","","","","","","null","","1181.1000003814697","","2","0","null","null","arrowup","[0.675,0.325,0.85,0.15]","","",""
"sailing-trial","193","927039","0.0-11.0-152.0","","","","false","","","","","","","","","","632.1000003814697","","1863","","2","0","arrowright","1","arrowleft","[0.675,0.325,0.85,0.15]","","",""
"sailing-trial","194","929777","0.0-11.0-153.0","","","","false","","","","","","","","","","null","","1170.1000003814697","","3","0","null","null","arrowup","[0.675,0.325,0.85,0.15]","","",""
"sailing-trial","195","933499","0.0-11.0-154.0","","","","false","","","","","","","","","","815","","73.20000076293945","","2","1","arrowright","1","arrowleft","[0.675,0.325,0.85,0.15]","","",""
"sailing-trial","196","936174","0.0-11.0-155.0","","","","false","","","","","","","","","","null","","795.5","","2","1","null","null","arrowup","[0.675,0.325,0.85,0.15]","","",""
"sailing-trial","197","939559","0.0-11.0-156.0","","","","false","","","","","","","","","","407.70000076293945","","171.60000038146973","","2","1","arrowright","1","arrowleft","[0.675,0.325,0.85,0.15]","","",""
"sailing-trial","198","942641","0.0-11.0-157.0","","","","false","","","","","","","","","","null","","1214.2000007629395","","2","1","null","null","arrowup","[0.675,0.325,0.85,0.15]","","",""
"sailing-trial","199","945904","0.0-11.0-158.0","","","","false","","","","","","","","","","370.1000003814697","","83","","0","1","arrowleft","0","arrowleft","[0.675,0.325,0.85,0.15]","","",""
"sailing-trial","200","949060","0.0-11.0-159.0","","","","false","","","","","","","","","","null","","1244.5","","1","1","null","null","arrowup","[0.675,0.325,0.85,0.15]","","",""
"sailing-trial","201","952266","0.0-11.0-160.0","","","","false","","","","","","","","","","738.2999992370605","","122.39999961853027","","2","0","arrowright","1","arrowleft","[0.325,0.675,0.15,0.85]","","",""
"sailing-trial","202","955005","0.0-11.0-161.0","","","","false","","","","","","","","","","null","","857.3999996185303","","3","1","null","null","arrowup","[0.325,0.675,0.15,0.85]","","",""
"sailing-trial","203","958137","0.0-11.0-162.0","","","","false","","","","","","","","","","687.1000003814697","","101.10000038146973","","0","0","arrowleft","0","arrowleft","[0.325,0.675,0.15,0.85]","","",""
"sailing-trial","204","960276","0.0-11.0-163.0","","","","false","","","","","","","","","","null","","809.2000007629395","","1","0","null","null","arrowup","[0.325,0.675,0.15,0.85]","","",""
"sailing-trial","205","964985","0.0-11.0-164.0","","","","false","","","","","","","","","","1590.1999988555908","","417.8000011444092","","1","1","arrowleft","0","arrowright","[0.325,0.675,0.15,0.85]","","",""
"sailing-trial","206","967994","0.0-11.0-165.0","","","","false","","","","","","","","","","null","","1090.1000003814697","","1","1","null","null","arrowup","[0.325,0.675,0.15,0.85]","","",""
"sailing-trial","207","971016","0.0-11.0-166.0","","","","false","","","","","","","","","","486.3000011444092","","487","","1","0","arrowleft","0","arrowright","[0.325,0.675,0.15,0.85]","","",""
"sailing-trial","208","974423","0.0-11.0-167.0","","","","false","","","","","","","","","","null","","1410.7000007629395","","1","1","null","null","arrowup","[0.325,0.675,0.15,0.85]","","",""
"sailing-trial","209","977825","0.0-11.0-168.0","","","","false","","","","","","","","","","542.8000011444092","","81.60000038146973","","1","1","arrowleft","0","arrowright","[0.325,0.675,0.15,0.85]","","",""
"sailing-trial","210","980546","0.0-11.0-169.0","","","","false","","","","","","","","","","null","","885.1000003814697","","2","0","null","null","arrowup","[0.325,0.675,0.15,0.85]","","",""
"sailing-trial","211","984435","0.0-11.0-170.0","","","","false","","","","","","","","","","635.8999996185303","","300.9000015258789","","3","1","arrowright","1","arrowright","[0.325,0.675,0.15,0.85]","","",""
"sailing-trial","212","986993","0.0-11.0-171.0","","","","false","","","","","","","","","","null","","926.6000003814697","","3","0","null","null","arrowup","[0.325,0.675,0.15,0.85]","","",""
"sailing-trial","213","991746","0.0-11.0-172.0","","","","false","","","","","","","","","","1704.1000003814697","","148.79999923706055","","3","1","arrowright","1","arrowright","[0.325,0.675,0.15,0.85]","","",""
"sailing-trial","214","994376","0.0-11.0-173.0","","","","false","","","","","","","","","","null","","720.0999984741211","","3","1","null","null","arrowup","[0.325,0.675,0.15,0.85]","","",""
"sailing-trial","215","998556","0.0-11.0-174.0","","","","false","","","","","","","","","","476.3999996185303","","447.5","","3","1","arrowright","1","arrowright","[0.325,0.675,0.15,0.85]","","",""
"sailing-trial","216","1000795","0.0-11.0-175.0","","","","false","","","","","","","","","","null","","688","","2","0","null","null","arrowup","[0.325,0.675,0.15,0.85]","","",""
"sailing-trial","217","1003946","0.0-11.0-176.0","","","","false","","","","","","","","","","610.1000003814697","","152","","1","0","arrowleft","0","arrowright","[0.325,0.675,0.15,0.85]","","",""
"sailing-trial","218","1006765","0.0-11.0-177.0","","","","false","","","","","","","","","","null","","837.8999996185303","","0","1","null","null","arrowup","[0.325,0.675,0.15,0.85]","","",""
"sailing-trial","219","1009726","0.0-11.0-178.0","","","","false","","","","","","","","","","521.1000003814697","","36.29999923706055","","0","0","arrowleft","0","arrowleft","[0.15,0.85,0.325,0.675]","","",""
"sailing-trial","220","1012280","0.0-11.0-179.0","","","","false","","","","","","","","","","null","","681.3999996185303","","1","1","null","null","arrowup","[0.15,0.85,0.325,0.675]","","",""
"sailing-trial","221","1016314","0.0-11.0-180.0","","","","false","","","","","","","","","","431.8999996185303","","759.1000003814697","","3","1","arrowright","1","arrowright","[0.15,0.85,0.325,0.675]","","",""
"sailing-trial","222","1018615","0.0-11.0-181.0","","","","false","","","","","","","","","","null","","967.5","","3","0","null","null","arrowup","[0.15,0.85,0.325,0.675]","","",""
"sailing-trial","223","1022273","0.0-11.0-182.0","","","","false","","","","","","","","","","589.8999996185303","","217.4000015258789","","1","1","arrowleft","0","arrowright","[0.15,0.85,0.325,0.675]","","",""
"sailing-trial","224","1024464","0.0-11.0-183.0","","","","false","","","","","","","","","","null","","752.6999988555908","","2","0","null","null","arrowup","[0.15,0.85,0.325,0.675]","","",""
"sailing-trial","225","1028006","0.0-11.0-184.0","","","","false","","","","","","","","","","575.1000003814697","","626.5","","3","0","arrowright","1","arrowright","[0.15,0.85,0.325,0.675]","","",""
"sailing-trial","226","1030760","0.0-11.0-185.0","","","","false","","","","","","","","","","null","","886","","1","1","null","null","arrowup","[0.15,0.85,0.325,0.675]","","",""
"sailing-trial","227","1034098","0.0-11.0-186.0","","","","false","","","","","","","","","","429.8000011444092","","45.5","","1","1","arrowleft","0","arrowright","[0.15,0.85,0.325,0.675]","","",""
"sailing-trial","228","1036449","0.0-11.0-187.0","","","","false","","","","","","","","","","null","","960.3999996185303","","0","0","null","null","arrowup","[0.15,0.85,0.325,0.675]","","",""
"sailing-trial","229","1039575","0.0-11.0-188.0","","","","false","","","","","","","","","","548.6999988555908","","221.20000076293945","","2","0","arrowright","1","arrowleft","[0.15,0.85,0.325,0.675]","","",""
"sailing-trial","230","1042230","0.0-11.0-189.0","","","","false","","","","","","","","","","null","","749.2000007629395","","3","1","null","null","arrowup","[0.15,0.85,0.325,0.675]","","",""
"sailing-trial","231","1045045","0.0-11.0-190.0","","","","false","","","","","","","","","","448.6999988555908","","60.10000038146973","","3","0","arrowright","1","arrowright","[0.15,0.85,0.325,0.675]","","",""
"sailing-trial","232","1048414","0.0-11.0-191.0","","","","false","","","","","","","","","","null","","945.3000011444092","","1","1","null","null","arrowup","[0.15,0.85,0.325,0.675]","","",""
"sailing-trial","233","1051482","0.0-11.0-192.0","","","","false","","","","","","","","","","561.8999996185303","","26.700000762939453","","1","0","arrowleft","0","arrowright","[0.15,0.85,0.325,0.675]","","",""
"sailing-trial","234","1054383","0.0-11.0-193.0","","","","false","","","","","","","","","","null","","1046.3000011444092","","2","1","null","null","arrowup","[0.15,0.85,0.325,0.675]","","",""
"sailing-trial","235","1057667","0.0-11.0-194.0","","","","false","","","","","","","","","","412.3000011444092","","1.1000003814697266","","2","1","arrowright","1","arrowleft","[0.15,0.85,0.325,0.675]","","",""
"sailing-trial","236","1060490","0.0-11.0-195.0","","","","false","","","","","","","","","","null","","936.5","","3","1","null","null","arrowup","[0.15,0.85,0.325,0.675]","","",""
"sailing-trial","237","1063975","0.0-11.0-196.0","","","","false","","","","","","","","","","481.1000003814697","","176.39999961853027","","1","1","arrowleft","0","arrowright","[0.15,0.85,0.325,0.675]","","",""
"sailing-trial","238","1066465","0.0-11.0-197.0","","","","false","","","","","","","","","","null","","976.2000007629395","","2","0","null","null","arrowup","[0.15,0.85,0.325,0.675]","","",""
"sailing-trial","239","1070715","0.0-11.0-198.0","","","","false","","","","","","","","","","1249","","136.39999961853027","","3","1","arrowright","1","arrowright","[0.325,0.675,0.15,0.85]","","",""
"sailing-trial","240","1072974","0.0-11.0-199.0","","","","false","","","","","","","","","","null","","865","","0","0","null","null","arrowup","[0.325,0.675,0.15,0.85]","","",""
"sailing-trial","241","1076511","0.0-11.0-200.0","","","","false","","","","","","","","","","733.7000007629395","","24.19999885559082","","1","1","arrowleft","0","arrowright","[0.325,0.675,0.15,0.85]","","",""
"sailing-trial","242","1078485","0.0-11.0-201.0","","","","false","","","","","","","","","","null","","586.5999984741211","","0","0","null","null","arrowup","[0.325,0.675,0.15,0.85]","","",""
"sailing-trial","243","1081951","0.0-11.0-202.0","","","","false","","","","","","","","","","593.1000003814697","","236.60000038146973","","2","1","arrowright","1","arrowleft","[0.325,0.675,0.15,0.85]","","",""
"sailing-trial","244","1084654","0.0-11.0-203.0","","","","false","","","","","","","","","","null","","711","","1","1","null","null","arrowup","[0.325,0.675,0.15,0.85]","","",""
"sailing-trial","245","1087595","0.0-11.0-204.0","","","","false","","","","","","","","","","576.8999996185303","","71.79999923706055","","1","0","arrowleft","0","arrowright","[0.325,0.675,0.15,0.85]","","",""
"sailing-trial","246","1090465","0.0-11.0-205.0","","","","false","","","","","","","","","","null","","970.1000003814697","","1","1","null","null","arrowup","[0.325,0.675,0.15,0.85]","","",""
"sailing-trial","247","1094293","0.0-11.0-206.0","","","","false","","","","","","","","","","529.8999996185303","","645.2000007629395","","1","1","arrowleft","0","arrowright","[0.325,0.675,0.15,0.85]","","",""
"sailing-trial","248","1096484","0.0-11.0-207.0","","","","false","","","","","","","","","","null","","785.6000003814697","","0","0","null","null","arrowup","[0.325,0.675,0.15,0.85]","","",""
"sailing-trial","249","1100464","0.0-11.0-208.0","","","","false","","","","","","","","","","573.6000003814697","","613.8000011444092","","2","1","arrowright","1","arrowleft","[0.325,0.675,0.15,0.85]","","",""
"sailing-trial","250","1103037","0.0-11.0-209.0","","","","false","","","","","","","","","","null","","1009.6000003814697","","1","0","null","null","arrowup","[0.325,0.675,0.15,0.85]","","",""
"sailing-trial","251","1106503","0.0-11.0-210.0","","","","false","","","","","","","","","","623.1999988555908","","328.1999988555908","","2","0","arrowright","1","arrowleft","[0.325,0.675,0.15,0.85]","","",""
"sailing-trial","252","1109408","0.0-11.0-211.0","","","","false","","","","","","","","","","null","","880.3000011444092","","0","1","null","null","arrowup","[0.325,0.675,0.15,0.85]","","",""
"sailing-trial","253","1113353","0.0-11.0-212.0","","","","false","","","","","","","","","","522.8999996185303","","658.3999996185303","","1","1","arrowleft","0","arrowright","[0.325,0.675,0.15,0.85]","","",""
"sailing-trial","254","1116200","0.0-11.0-213.0","","","","false","","","","","","","","","","null","","765.3000011444092","","2","1","null","null","arrowup","[0.325,0.675,0.15,0.85]","","",""
"sailing-trial","255","1119807","0.0-11.0-214.0","","","","false","","","","","","","","","","493.20000076293945","","198.80000114440918","","2","1","arrowright","1","arrowleft","[0.15,0.85,0.325,0.675]","","",""
"sailing-trial","256","1122533","0.0-11.0-215.0","","","","false","","","","","","","","","","null","","1199.8999996185303","","0","0","null","null","arrowup","[0.15,0.85,0.325,0.675]","","",""
"sailing-trial","257","1126769","0.0-11.0-216.0","","","","false","","","","","","","","","","894.3000011444092","","495.20000076293945","","1","1","arrowleft","0","arrowright","[0.15,0.85,0.325,0.675]","","",""
"sailing-trial","258","1128957","0.0-11.0-217.0","","","","false","","","","","","","","","","null","","748","","0","0","null","null","arrowup","[0.15,0.85,0.325,0.675]","","",""
"sailing-trial","259","1132512","0.0-11.0-218.0","","","","false","","","","","","","","","","676.5","","185.79999923706055","","1","1","arrowleft","0","arrowright","[0.15,0.85,0.325,0.675]","","",""
"sailing-trial","260","1135539","0.0-11.0-219.0","","","","false","","","","","","","","","","null","","1026.7999992370605","","3","1","null","null","arrowup","[0.15,0.85,0.325,0.675]","","",""
"sailing-trial","261","1139322","0.0-11.0-220.0","","","","false","","","","","","","","","","841.0999984741211","","89.30000114440918","","1","1","arrowleft","0","arrowright","[0.15,0.85,0.325,0.675]","","",""
"sailing-trial","262","1142367","0.0-11.0-221.0","","","","false","","","","","","","","","","null","","1125.8000011444092","","1","1","null","null","arrowup","[0.15,0.85,0.325,0.675]","","",""
"sailing-trial","263","1146014","0.0-11.0-222.0","","","","false","","","","","","","","","","543.5","","697.8000011444092","","2","0","arrowright","1","arrowleft","[0.15,0.85,0.325,0.675]","","",""
"sailing-trial","264","1148889","0.0-11.0-223.0","","","","false","","","","","","","","","","null","","1024.3999996185303","","2","1","null","null","arrowup","[0.15,0.85,0.325,0.675]","","",""
"sailing-trial","265","1151975","0.0-11.0-224.0","","","","false","","","","","","","","","","605.7000007629395","","140.9000015258789","","2","0","arrowright","1","arrowleft","[0.15,0.85,0.325,0.675]","","",""
"sailing-trial","266","1155367","0.0-11.0-225.0","","","","false","","","","","","","","","","null","","1262.5","","1","0","null","null","arrowup","[0.15,0.85,0.325,0.675]","","",""
"sailing-trial","267","1158076","0.0-11.0-226.0","","","","false","","","","","","","","","","547.4000015258789","","34.5","","1","0","arrowleft","0","arrowright","[0.15,0.85,0.325,0.675]","","",""
"sailing-trial","268","1160806","0.0-11.0-227.0","","","","false","","","","","","","","","","null","","1222.3999996185303","","0","0","null","null","arrowup","[0.15,0.85,0.325,0.675]","","",""
"sailing-trial","269","1164604","0.0-11.0-228.0","","","","false","","","","","","","","","","854","","217.89999961853027","","3","1","arrowright","1","arrowright","[0.15,0.85,0.325,0.675]","","",""
"sailing-trial","270","1166731","0.0-11.0-229.0","","","","false","","","","","","","","","","null","","639.0999984741211","","0","0","null","null","arrowup","[0.15,0.85,0.325,0.675]","","",""
"sailing-trial","271","1170449","0.0-11.0-230.0","","","","false","","","","","","","","","","735.6000003814697","","220.0999984741211","","3","1","arrowright","1","arrowright","[0.15,0.85,0.325,0.675]","","",""
"sailing-trial","272","1173328","0.0-11.0-231.0","","","","false","","","","","","","","","","null","","830.8000011444092","","1","1","null","null","arrowup","[0.15,0.85,0.325,0.675]","","",""
"sailing-trial","273","1176249","0.0-11.0-232.0","","","","false","","","","","","","","","","439","","80.39999961853027","","1","0","arrowleft","0","arrowright","[0.675,0.325,0.85,0.15]","","",""
"sailing-trial","274","1178485","0.0-11.0-233.0","","","","false","","","","","","","","","","null","","733.1000003814697","","3","0","null","null","arrowup","[0.675,0.325,0.85,0.15]","","",""
"sailing-trial","275","1181692","0.0-11.0-234.0","","","","false","","","","","","","","","","551.1000003814697","","193.79999923706055","","3","0","arrowright","1","arrowright","[0.675,0.325,0.85,0.15]","","",""
"sailing-trial","276","1184554","0.0-11.0-235.0","","","","false","","","","","","","","","","null","","752.8999996185303","","2","1","null","null","arrowup","[0.675,0.325,0.85,0.15]","","",""
"sailing-trial","277","1187595","0.0-11.0-236.0","","","","false","","","","","","","","","","396.70000076293945","","203.79999923706055","","2","0","arrowright","1","arrowleft","[0.675,0.325,0.85,0.15]","","",""
"sailing-trial","278","1190122","0.0-11.0-237.0","","","","false","","","","","","","","","","null","","906.1999988555908","","3","0","null","null","arrowup","[0.675,0.325,0.85,0.15]","","",""
"sailing-trial","279","1194051","0.0-11.0-238.0","","","","false","","","","","","","","","","710","","311.3999996185303","","0","1","arrowleft","0","arrowleft","[0.675,0.325,0.85,0.15]","","",""
"sailing-trial","280","1196874","0.0-11.0-239.0","","","","false","","","","","","","","","","null","","964.2000007629395","","2","1","null","null","arrowup","[0.675,0.325,0.85,0.15]","","",""
"sailing-trial","281","1200380","0.0-11.0-240.0","","","","false","","","","","","","","","","433.8999996185303","","33.10000038146973","","0","1","arrowleft","0","arrowleft","[0.675,0.325,0.85,0.15]","","",""
"sailing-trial","282","1203288","0.0-11.0-241.0","","","","false","","","","","","","","","","null","","1074.8999996185303","","0","1","null","null","arrowup","[0.675,0.325,0.85,0.15]","","",""
"sailing-trial","283","1206610","0.0-11.0-242.0","","","","false","","","","","","","","","","658.6999988555908","","252.60000038146973","","2","0","arrowright","1","arrowleft","[0.675,0.325,0.85,0.15]","","",""
"sailing-trial","284","1209581","0.0-11.0-243.0","","","","false","","","","","","","","","","null","","827.2000007629395","","3","1","null","null","arrowup","[0.675,0.325,0.85,0.15]","","",""
"sailing-trial","285","1212948","0.0-11.0-244.0","","","","false","","","","","","","","","","628.7999992370605","","240.60000038146973","","0","0","arrowleft","0","arrowleft","[0.675,0.325,0.85,0.15]","","",""
"sailing-trial","286","1215480","0.0-11.0-245.0","","","","false","","","","","","","","","","null","","1092","","3","0","null","null","arrowup","[0.675,0.325,0.85,0.15]","","",""
"sailing-trial","287","1218983","0.0-11.0-246.0","","","","false","","","","","","","","","","517.1000003814697","","16.799999237060547","","3","1","arrowright","1","arrowright","[0.675,0.325,0.85,0.15]","","",""
"sailing-trial","288","1221592","0.0-11.0-247.0","","","","false","","","","","","","","","","null","","1202","","3","0","null","null","arrowup","[0.675,0.325,0.85,0.15]","","",""
"sailing-trial","289","1226530","0.0-11.0-248.0","","","","false","","","","","","","","","","2054","","34.19999885559082","","0","1","arrowleft","0","arrowleft","[0.675,0.325,0.85,0.15]","","",""
"sailing-trial","290","1229145","0.0-11.0-249.0","","","","false","","","","","","","","","","null","","767.2999992370605","","2","1","null","null","arrowup","[0.675,0.325,0.85,0.15]","","",""
"sailing-trial","291","1232100","0.0-11.0-250.0","","","","false","","","","","","","","","","497.29999923706055","","85.5","","2","0","arrowright","1","arrowleft","[0.325,0.675,0.15,0.85]","","",""
"sailing-trial","292","1235000","0.0-11.0-251.0","","","","false","","","","","","","","","","null","","982.3000011444092","","3","1","null","null","arrowup","[0.325,0.675,0.15,0.85]","","",""
"sailing-trial","293","1238376","0.0-11.0-252.0","","","","false","","","","","","","","","","575","","17.099998474121094","","3","1","arrowright","1","arrowright","[0.325,0.675,0.15,0.85]","","",""
"sailing-trial","294","1240886","0.0-11.0-253.0","","","","false","","","","","","","","","","null","","696.2999992370605","","3","1","null","null","arrowup","[0.325,0.675,0.15,0.85]","","",""
"sailing-trial","295","1244290","0.0-11.0-254.0","","","","false","","","","","","","","","","466.5","","47.80000114440918","","3","1","arrowright","1","arrowright","[0.325,0.675,0.15,0.85]","","",""
"sailing-trial","296","1246979","0.0-11.0-255.0","","","","false","","","","","","","","","","null","","549.6000003814697","","0","0","null","null","arrowup","[0.325,0.675,0.15,0.85]","","",""
"sailing-trial","297","1251242","0.0-11.0-256.0","","","","false","","","","","","","","","","1715.6000003814697","","180.70000076293945","","0","0","arrowleft","0","arrowleft","[0.325,0.675,0.15,0.85]","","",""
"sailing-trial","298","1254156","0.0-11.0-257.0","","","","false","","","","","","","","","","null","","857.3000011444092","","3","1","null","null","arrowup","[0.325,0.675,0.15,0.85]","","",""
"sailing-trial","299","1257417","0.0-11.0-258.0","","","","false","","","","","","","","","","434.29999923706055","","173.29999923706055","","3","1","arrowright","1","arrowright","[0.325,0.675,0.15,0.85]","","",""
"sailing-trial","300","1259530","0.0-11.0-259.0","","","","false","","","","","","","","","","null","","696.2999992370605","","1","0","null","null","arrowup","[0.325,0.675,0.15,0.85]","","",""
"sailing-trial","301","1264672","0.0-11.0-260.0","","","","false","","","","","","","","","","1765.7999992370605","","772.7999992370605","","3","1","arrowright","1","arrowright","[0.325,0.675,0.15,0.85]","","",""
"sailing-trial","302","1268847","0.0-11.0-261.0","","","","false","","","","","","","","","","null","","1693.7000007629395","","1","0","null","null","arrowup","[0.325,0.675,0.15,0.85]","","",""
"sailing-trial","303","1272058","0.0-11.0-262.0","","","","false","","","","","","","","","","651.1000003814697","","86.79999923706055","","0","0","arrowleft","0","arrowleft","[0.325,0.675,0.15,0.85]","","",""
"sailing-trial","304","1275213","0.0-11.0-263.0","","","","false","","","","","","","","","","null","","1194.3000011444092","","2","0","null","null","arrowup","[0.325,0.675,0.15,0.85]","","",""
"sailing-trial","305","1278899","0.0-11.0-264.0","","","","false","","","","","","","","","","531.6000003814697","","112.5","","3","1","arrowright","1","arrowright","[0.325,0.675,0.15,0.85]","","",""
"sailing-trial","306","1281223","0.0-11.0-265.0","","","","false","","","","","","","","","","null","","844.2999992370605","","0","0","null","null","arrowup","[0.325,0.675,0.15,0.85]","","",""
"sailing-trial","307","1284937","0.0-11.0-266.0","","","","false","","","","","","","","","","667.2000007629395","","186.19999885559082","","1","1","arrowleft","0","arrowright","[0.325,0.675,0.15,0.85]","","",""
"sailing-trial","308","1288849","0.0-11.0-267.0","","","","false","","","","","","","","","","null","","1573.6000003814697","","2","1","null","null","arrowup","[0.325,0.675,0.15,0.85]","","",""
"sailing-trial","309","1292430","0.0-11.0-268.0","","","","false","","","","","","","","","","558.6000003814697","","100.20000076293945","","3","1","arrowright","1","arrowright","[0.325,0.675,0.15,0.85]","","",""
"sailing-trial","310","1295042","0.0-11.0-269.0","","","","false","","","","","","","","","","null","","1122.1000003814697","","2","0","null","null","arrowup","[0.325,0.675,0.15,0.85]","","",""
"sailing-trial","311","1298747","0.0-11.0-270.0","","","","false","","","","","","","","","","674.2999992370605","","148","","1","1","arrowleft","0","arrowright","[0.15,0.85,0.325,0.675]","","",""
"sailing-trial","312","1301655","0.0-11.0-271.0","","","","false","","","","","","","","","","null","","1045.5","","1","1","null","null","arrowup","[0.15,0.85,0.325,0.675]","","",""
"sailing-trial","313","1305432","0.0-11.0-272.0","","","","false","","","","","","","","","","955.3000011444092","","11.200000762939453","","3","1","arrowright","1","arrowright","[0.15,0.85,0.325,0.675]","","",""
"sailing-trial","314","1308243","0.0-11.0-273.0","","","","false","","","","","","","","","","null","","801","","1","1","null","null","arrowup","[0.15,0.85,0.325,0.675]","","",""
"sailing-trial","315","1311637","0.0-11.0-274.0","","","","false","","","","","","","","","","505.20000076293945","","49.900001525878906","","1","1","arrowleft","0","arrowright","[0.15,0.85,0.325,0.675]","","",""
"sailing-trial","316","1314506","0.0-11.0-275.0","","","","false","","","","","","","","","","null","","853.2000007629395","","1","1","null","null","arrowup","[0.15,0.85,0.325,0.675]","","",""
"sailing-trial","317","1317534","0.0-11.0-276.0","","","","false","","","","","","","","","","446.20000076293945","","213.20000076293945","","3","0","arrowright","1","arrowright","[0.15,0.85,0.325,0.675]","","",""
"sailing-trial","318","1320264","0.0-11.0-277.0","","","","false","","","","","","","","","","null","","884.6999988555908","","3","1","null","null","arrowup","[0.15,0.85,0.325,0.675]","","",""
"sailing-trial","319","1323539","0.0-11.0-278.0","","","","false","","","","","","","","","","396","","96.4000015258789","","3","1","arrowright","1","arrowright","[0.15,0.85,0.325,0.675]","","",""
"sailing-trial","320","1326103","0.0-11.0-279.0","","","","false","","","","","","","","","","null","","967.6000003814697","","2","0","null","null","arrowup","[0.15,0.85,0.325,0.675]","","",""
"sailing-trial","321","1330406","0.0-11.0-280.0","","","","false","","","","","","","","","","647.5","","1098.8999996185303","","1","0","arrowleft","0","arrowright","[0.15,0.85,0.325,0.675]","","",""
"sailing-trial","322","1332615","0.0-11.0-281.0","","","","false","","","","","","","","","","null","","867.5999984741211","","0","0","null","null","arrowup","[0.15,0.85,0.325,0.675]","","",""
"sailing-trial","323","1336232","0.0-11.0-282.0","","","","false","","","","","","","","","","569.2000007629395","","230.19999885559082","","3","1","arrowright","1","arrowright","[0.15,0.85,0.325,0.675]","","",""
"sailing-trial","324","1338905","0.0-11.0-283.0","","","","false","","","","","","","","","","null","","731.8000011444092","","0","1","null","null","arrowup","[0.15,0.85,0.325,0.675]","","",""
"sailing-trial","325","1342900","0.0-11.0-284.0","","","","false","","","","","","","","","","585.7999992370605","","624.5","","3","1","arrowright","1","arrowright","[0.15,0.85,0.325,0.675]","","",""
"sailing-trial","326","1344877","0.0-11.0-285.0","","","","false","","","","","","","","","","null","","564.8000011444092","","2","0","null","null","arrowup","[0.15,0.85,0.325,0.675]","","",""
"sailing-trial","327","1348446","0.0-11.0-286.0","","","","false","","","","","","","","","","605.4000015258789","","118","","0","1","arrowleft","0","arrowleft","[0.325,0.675,0.15,0.85]","","",""
"sailing-trial","328","1351262","0.0-11.0-287.0","","","","false","","","","","","","","","","null","","936.6999988555908","","0","1","null","null","arrowup","[0.325,0.675,0.15,0.85]","","",""
"sailing-trial","329","1354417","0.0-11.0-288.0","","","","false","","","","","","","","","","450","","73.10000038146973","","0","1","arrowleft","0","arrowleft","[0.325,0.675,0.15,0.85]","","",""
"sailing-trial","330","1356779","0.0-11.0-289.0","","","","false","","","","","","","","","","null","","67.0999984741211","","3","1","null","null","arrowup","[0.325,0.675,0.15,0.85]","","",""
"sailing-trial","331","1360498","0.0-11.0-290.0","","","","false","","","","","","","","","","510.6000003814697","","155","","3","1","arrowright","1","arrowright","[0.325,0.675,0.15,0.85]","","",""
"sailing-trial","332","1362528","0.0-11.0-291.0","","","","false","","","","","","","","","","null","","658.1000003814697","","2","0","null","null","arrowup","[0.325,0.675,0.15,0.85]","","",""
"sailing-trial","333","1366003","0.0-11.0-292.0","","","","false","","","","","","","","","","682.9000015258789","","214","","0","0","arrowleft","0","arrowleft","[0.325,0.675,0.15,0.85]","","",""
"sailing-trial","334","1368508","0.0-11.0-293.0","","","","false","","","","","","","","","","null","","1171.3999996185303","","0","0","null","null","arrowup","[0.325,0.675,0.15,0.85]","","",""
"sailing-trial","335","1372360","0.0-11.0-294.0","","","","false","","","","","","","","","","719.1000003814697","","110.20000076293945","","3","1","arrowright","1","arrowright","[0.325,0.675,0.15,0.85]","","",""
"sailing-trial","336","1374631","0.0-11.0-295.0","","","","false","","","","","","","","","","null","","752.3999996185303","","2","0","null","null","arrowup","[0.325,0.675,0.15,0.85]","","",""
"sailing-trial","337","1377961","0.0-11.0-296.0","","","","false","","","","","","","","","","627.5999984741211","","264.4000015258789","","0","0","arrowleft","0","arrowleft","[0.325,0.675,0.15,0.85]","","",""
"sailing-trial","338","1380147","0.0-11.0-297.0","","","","false","","","","","","","","","","null","","753.8000011444092","","0","0","null","null","arrowup","[0.325,0.675,0.15,0.85]","","",""
"sailing-trial","339","1383559","0.0-11.0-298.0","","","","false","","","","","","","","","","997.6999988555908","","70.39999961853027","","1","0","arrowleft","0","arrowright","[0.325,0.675,0.15,0.85]","","",""
"sailing-trial","340","1386277","0.0-11.0-299.0","","","","false","","","","","","","","","","null","","855.3999996185303","","3","1","null","null","arrowup","[0.325,0.675,0.15,0.85]","","",""
"sailing-trial","341","1389814","0.0-11.0-300.0","","","","false","","","","","","","","","","545.7000007629395","","73.69999885559082","","3","1","arrowright","1","arrowright","[0.325,0.675,0.15,0.85]","","",""
"sailing-trial","342","1392563","0.0-11.0-301.0","","","","false","","","","","","","","","","null","","746.2999992370605","","3","1","null","null","arrowup","[0.325,0.675,0.15,0.85]","","",""
"sailing-trial","343","1396166","0.0-11.0-302.0","","","","false","","","","","","","","","","508.79999923706055","","107.60000038146973","","3","1","arrowright","1","arrowright","[0.325,0.675,0.15,0.85]","","",""
"sailing-trial","344","1398394","0.0-11.0-303.0","","","","false","","","","","","","","","","null","","731.6999988555908","","3","0","null","null","arrowup","[0.325,0.675,0.15,0.85]","","",""
"sailing-trial","345","1402461","0.0-11.0-304.0","","","","false","","","","","","","","","","1202.3999996185303","","64.20000076293945","","3","1","arrowright","1","arrowright","[0.325,0.675,0.15,0.85]","","",""
"sailing-trial","346","1404816","0.0-11.0-305.0","","","","false","","","","","","","","","","null","","942.6000003814697","","0","0","null","null","arrowup","[0.325,0.675,0.15,0.85]","","",""
"sailing-trial","347","1408362","0.0-11.0-306.0","","","","false","","","","","","","","","","596.6999988555908","","74.60000038146973","","3","1","arrowright","1","arrowright","[0.325,0.675,0.15,0.85]","","",""
"sailing-trial","348","1410476","0.0-11.0-307.0","","","","false","","","","","","","","","","null","","653","","2","0","null","null","arrowup","[0.325,0.675,0.15,0.85]","","",""
"sailing-trial","349","1414549","0.0-11.0-308.0","","","","false","","","","","","","","","","1090.8000011444092","","569.2999992370605","","1","0","arrowleft","0","arrowright","[0.325,0.675,0.15,0.85]","","",""
"sailing-trial","350","1417457","0.0-11.0-309.0","","","","false","","","","","","","","","","null","","1034.3000011444092","","1","1","null","null","arrowup","[0.325,0.675,0.15,0.85]","","",""
"sailing-trial","351","1421272","0.0-11.0-310.0","","","","false","","","","","","","","","","830.8999996185303","","94.5","","1","1","arrowleft","0","arrowright","[0.15,0.85,0.325,0.675]","","",""
"sailing-trial","352","1423422","0.0-11.0-311.0","","","","false","","","","","","","","","","null","","756.7000007629395","","2","0","null","null","arrowup","[0.15,0.85,0.325,0.675]","","",""
"sailing-trial","353","1426879","0.0-11.0-312.0","","","","false","","","","","","","","","","576.7999992370605","","322.3999996185303","","3","0","arrowright","1","arrowright","[0.15,0.85,0.325,0.675]","","",""
"sailing-trial","354","1429660","0.0-11.0-313.0","","","","false","","","","","","","","","","null","","862.9000015258789","","1","1","null","null","arrowup","[0.15,0.85,0.325,0.675]","","",""
"sailing-trial","355","1433177","0.0-11.0-314.0","","","","false","","","","","","","","","","408","","145.0999984741211","","1","1","arrowleft","0","arrowright","[0.15,0.85,0.325,0.675]","","",""
"sailing-trial","356","1435372","0.0-11.0-315.0","","","","false","","","","","","","","","","null","","609.5","","0","0","null","null","arrowup","[0.15,0.85,0.325,0.675]","","",""
"sailing-trial","357","1438582","0.0-11.0-316.0","","","","false","","","","","","","","","","578","","233","","3","0","arrowright","1","arrowright","[0.15,0.85,0.325,0.675]","","",""
"sailing-trial","358","1441634","0.0-11.0-317.0","","","","false","","","","","","","","","","null","","963.7000007629395","","3","1","null","null","arrowup","[0.15,0.85,0.325,0.675]","","",""
"sailing-trial","359","1444913","0.0-11.0-318.0","","","","false","","","","","","","","","","577.6000003814697","","175.5","","1","0","arrowleft","0","arrowright","[0.15,0.85,0.325,0.675]","","",""
"sailing-trial","360","1447258","0.0-11.0-319.0","","","","false","","","","","","","","","","null","","775.2999992370605","","2","0","null","null","arrowup","[0.15,0.85,0.325,0.675]","","",""
"sailing-trial","361","1451712","0.0-11.0-320.0","","","","false","","","","","","","","","","597","","640.6000003814697","","3","1","arrowright","1","arrowright","[0.15,0.85,0.325,0.675]","","",""
"sailing-trial","362","1454784","0.0-11.0-321.0","","","","false","","","","","","","","","","null","","1151.8999996185303","","3","1","null","null","arrowup","[0.15,0.85,0.325,0.675]","","",""
"sailing-trial","363","1458592","0.0-11.0-322.0","","","","false","","","","","","","","","","708.5","","117.60000038146973","","1","1","arrowleft","0","arrowright","[0.15,0.85,0.325,0.675]","","",""
"sailing-trial","364","1461181","0.0-11.0-323.0","","","","false","","","","","","","","","","null","","569.8000011444092","","2","1","null","null","arrowup","[0.15,0.85,0.325,0.675]","","",""
"sailing-trial","365","1464411","0.0-11.0-324.0","","","","false","","","","","","","","","","508.20000076293945","","154.5","","1","0","arrowleft","0","arrowright","[0.15,0.85,0.325,0.675]","","",""
"sailing-trial","366","1466794","0.0-11.0-325.0","","","","false","","","","","","","","","","null","","899","","1","0","null","null","arrowup","[0.15,0.85,0.325,0.675]","","",""
"sailing-trial","367","1470413","0.0-11.0-326.0","","","","false","","","","","","","","","","941.5","","193.39999961853027","","2","0","arrowright","1","arrowleft","[0.325,0.675,0.15,0.85]","","",""
"sailing-trial","368","1473503","0.0-11.0-327.0","","","","false","","","","","","","","","","null","","874.1999988555908","","0","1","null","null","arrowup","[0.325,0.675,0.15,0.85]","","",""
"sailing-trial","369","1477249","0.0-11.0-328.0","","","","false","","","","","","","","","","504.70000076293945","","215.69999885559082","","0","1","arrowleft","0","arrowleft","[0.325,0.675,0.15,0.85]","","",""
"sailing-trial","370","1479421","0.0-11.0-329.0","","","","false","","","","","","","","","","null","","679.7999992370605","","1","0","null","null","arrowup","[0.325,0.675,0.15,0.85]","","",""
"sailing-trial","371","1482945","0.0-11.0-330.0","","","","false","","","","","","","","","","794.3999996185303","","165","","0","0","arrowleft","0","arrowleft","[0.325,0.675,0.15,0.85]","","",""
"sailing-trial","372","1485760","0.0-11.0-331.0","","","","false","","","","","","","","","","null","","841.3999996185303","","1","1","null","null","arrowup","[0.325,0.675,0.15,0.85]","","",""
"sailing-trial","373","1489594","0.0-11.0-332.0","","","","false","","","","","","","","","","515.6000003814697","","752.1000003814697","","1","0","arrowleft","0","arrowright","[0.325,0.675,0.15,0.85]","","",""
"sailing-trial","374","1492423","0.0-11.0-333.0","","","","false","","","","","","","","","","null","","680.9000015258789","","3","1","null","null","arrowup","[0.325,0.675,0.15,0.85]","","",""
"sailing-trial","375","1495623","0.0-11.0-334.0","","","","false","","","","","","","","","","534.8000011444092","","194.19999885559082","","0","0","arrowleft","0","arrowleft","[0.325,0.675,0.15,0.85]","","",""
"sailing-trial","376","1498498","0.0-11.0-335.0","","","","false","","","","","","","","","","null","","865.6999988555908","","1","1","null","null","arrowup","[0.325,0.675,0.15,0.85]","","",""
"sailing-trial","377","1501601","0.0-11.0-336.0","","","","false","","","","","","","","","","411.29999923706055","","205.70000076293945","","1","0","arrowleft","0","arrowright","[0.325,0.675,0.15,0.85]","","",""
"sailing-trial","378","1504017","0.0-11.0-337.0","","","","false","","","","","","","","","","null","","871","","2","0","null","null","arrowup","[0.325,0.675,0.15,0.85]","","",""
"sailing-trial","379","1507478","0.0-11.0-338.0","","","","false","","","","","","","","","","725.2999992370605","","185.19999885559082","","3","0","arrowright","1","arrowright","[0.325,0.675,0.15,0.85]","","",""
"sailing-trial","380","1509799","0.0-11.0-339.0","","","","false","","","","","","","","","","null","","847.1000003814697","","0","0","null","null","arrowup","[0.325,0.675,0.15,0.85]","","",""
"sailing-trial","381","1513254","0.0-11.0-340.0","","","","false","","","","","","","","","","872.1000003814697","","118.10000038146973","","1","0","arrowleft","0","arrowright","[0.325,0.675,0.15,0.85]","","",""
"sailing-trial","382","1515544","0.0-11.0-341.0","","","","false","","","","","","","","","","null","","810.5","","0","0","null","null","arrowup","[0.325,0.675,0.15,0.85]","","",""
"sailing-trial","383","1519283","0.0-11.0-342.0","","","","false","","","","","","","","","","863.6000003814697","","479","","2","0","arrowright","1","arrowleft","[0.325,0.675,0.15,0.85]","","",""
"sailing-trial","384","1521887","0.0-11.0-343.0","","","","false","","","","","","","","","","null","","833.7999992370605","","1","0","null","null","arrowup","[0.325,0.675,0.15,0.85]","","",""
"sailing-trial","385","1525144","0.0-11.0-344.0","","","","false","","","","","","","","","","520.3999996185303","","310.4000015258789","","0","0","arrowleft","0","arrowleft","[0.325,0.675,0.15,0.85]","","",""
"sailing-trial","386","1527696","0.0-11.0-345.0","","","","false","","","","","","","","","","null","","959.3999996185303","","0","0","null","null","arrowup","[0.325,0.675,0.15,0.85]","","",""
"sailing-trial","387","1531353","0.0-11.0-346.0","","","","false","","","","","","","","","","712.1000003814697","","567.3000011444092","","3","0","arrowright","1","arrowright","[0.15,0.85,0.325,0.675]","","",""
"sailing-trial","388","1534082","0.0-11.0-347.0","","","","false","","","","","","","","","","null","","720.1000003814697","","3","1","null","null","arrowup","[0.15,0.85,0.325,0.675]","","",""
"sailing-trial","389","1537642","0.0-11.0-348.0","","","","false","","","","","","","","","","469.1999988555908","","150.0999984741211","","3","1","arrowright","1","arrowright","[0.15,0.85,0.325,0.675]","","",""
"sailing-trial","390","1540381","0.0-11.0-349.0","","","","false","","","","","","","","","","null","","825.1000003814697","","1","1","null","null","arrowup","[0.15,0.85,0.325,0.675]","","",""
"sailing-trial","391","1543811","0.0-11.0-350.0","","","","false","","","","","","","","","","389.79999923706055","","91.89999961853027","","3","1","arrowright","1","arrowright","[0.15,0.85,0.325,0.675]","","",""
"sailing-trial","392","1546335","0.0-11.0-351.0","","","","false","","","","","","","","","","null","","558.2999992370605","","1","1","null","null","arrowup","[0.15,0.85,0.325,0.675]","","",""
"sailing-trial","393","1549784","0.0-11.0-352.0","","","","false","","","","","","","","","","279.70000076293945","","103.19999885559082","","1","1","arrowleft","0","arrowright","[0.15,0.85,0.325,0.675]","","",""
"sailing-trial","394","1552273","0.0-11.0-353.0","","","","false","","","","","","","","","","null","","962.4000015258789","","2","0","null","null","arrowup","[0.15,0.85,0.325,0.675]","","",""
"sailing-trial","395","1555747","0.0-11.0-354.0","","","","false","","","","","","","","","","800.3999996185303","","196.89999961853027","","3","0","arrowright","1","arrowright","[0.15,0.85,0.325,0.675]","","",""
"sailing-trial","396","1558129","0.0-11.0-355.0","","","","false","","","","","","","","","","null","","939.5","","0","0","null","null","arrowup","[0.15,0.85,0.325,0.675]","","",""
"sailing-trial","397","1562130","0.0-11.0-356.0","","","","false","","","","","","","","","","401","","60.30000114440918","","1","1","arrowleft","0","arrowright","[0.15,0.85,0.325,0.675]","","",""
"sailing-trial","398","1563925","0.0-11.0-357.0","","","","false","","","","","","","","","","null","","389.1000003814697","","2","0","null","null","arrowup","[0.15,0.85,0.325,0.675]","","",""
"sailing-trial","399","1567385","0.0-11.0-358.0","","","","false","","","","","","","","","","888","","83.70000076293945","","3","0","arrowright","1","arrowright","[0.15,0.85,0.325,0.675]","","",""
"sailing-trial","400","1569618","0.0-11.0-359.0","","","","false","","","","","","","","","","null","","829.6000003814697","","1","0","null","null","arrowup","[0.15,0.85,0.325,0.675]","","",""
"sailing-trial","401","1574206","0.0-11.0-360.0","","","","false","","","","","","","","","","1189.3000011444092","","479.8999996185303","","1","1","arrowleft","0","arrowright","[0.15,0.85,0.325,0.675]","","",""
"sailing-trial","402","1576489","0.0-11.0-361.0","","","","false","","","","","","","","","","null","","820.6000003814697","","3","0","null","null","arrowup","[0.15,0.85,0.325,0.675]","","",""
"sailing-trial","403","1580177","0.0-11.0-362.0","","","","false","","","","","","","","","","714.5","","139.89999961853027","","2","1","arrowright","1","arrowleft","[0.325,0.675,0.15,0.85]","","",""
"sailing-trial","404","1582764","0.0-11.0-363.0","","","","false","","","","","","","","","","null","","784.8999996185303","","0","0","null","null","arrowup","[0.325,0.675,0.15,0.85]","","",""
"sailing-trial","405","1586178","0.0-11.0-364.0","","","","false","","","","","","","","","","672.1999988555908","","266.8999996185303","","2","0","arrowright","1","arrowleft","[0.325,0.675,0.15,0.85]","","",""
"sailing-trial","406","1588364","0.0-11.0-365.0","","","","false","","","","","","","","","","null","","820","","3","0","null","null","arrowup","[0.325,0.675,0.15,0.85]","","",""
"sailing-trial","407","1591581","0.0-11.0-366.0","","","","false","","","","","","","","","","792.7000007629395","","17.799999237060547","","1","0","arrowleft","0","arrowright","[0.325,0.675,0.15,0.85]","","",""
"sailing-trial","408","1593732","0.0-11.0-367.0","","","","false","","","","","","","","","","null","","783.8000011444092","","3","0","null","null","arrowup","[0.325,0.675,0.15,0.85]","","",""
"sailing-trial","409","1597090","0.0-11.0-368.0","","","","false","","","","","","","","","","765.3999996185303","","103.60000038146973","","2","0","arrowright","1","arrowleft","[0.325,0.675,0.15,0.85]","","",""
"sailing-trial","410","1599252","0.0-11.0-369.0","","","","false","","","","","","","","","","null","","758.6000003814697","","2","0","null","null","arrowup","[0.325,0.675,0.15,0.85]","","",""
"sailing-trial","411","1603074","0.0-11.0-370.0","","","","false","","","","","","","","","","710.7999992370605","","121.20000076293945","","0","1","arrowleft","0","arrowleft","[0.325,0.675,0.15,0.85]","","",""
"sailing-trial","412","1605697","0.0-11.0-371.0","","","","false","","","","","","","","","","null","","727.8999996185303","","3","1","null","null","arrowup","[0.325,0.675,0.15,0.85]","","",""
"sailing-trial","413","1608700","0.0-11.0-372.0","","","","false","","","","","","","","","","512.2999992370605","","60.20000076293945","","0","0","arrowleft","0","arrowleft","[0.325,0.675,0.15,0.85]","","",""
"sailing-trial","414","1610964","0.0-11.0-373.0","","","","false","","","","","","","","","","null","","790.6999988555908","","2","0","null","null","arrowup","[0.325,0.675,0.15,0.85]","","",""
"sailing-trial","415","1614313","0.0-11.0-374.0","","","","false","","","","","","","","","","845.5","","55.400001525878906","","3","0","arrowright","1","arrowright","[0.325,0.675,0.15,0.85]","","",""
"sailing-trial","416","1617081","0.0-11.0-375.0","","","","false","","","","","","","","","","null","","784.8999996185303","","1","1","null","null","arrowup","[0.325,0.675,0.15,0.85]","","",""
"sailing-trial","417","1620002","0.0-11.0-376.0","","","","false","","","","","","","","","","343.6000003814697","","114.10000038146973","","1","0","arrowleft","0","arrowright","[0.325,0.675,0.15,0.85]","","",""
"sailing-trial","418","1622742","0.0-11.0-377.0","","","","false","","","","","","","","","","null","","721.7999992370605","","1","1","null","null","arrowup","[0.325,0.675,0.15,0.85]","","",""
"sailing-trial","419","1626839","0.0-11.0-378.0","","","","false","","","","","","","","","","276.3999996185303","","1384.8999996185303","","1","0","arrowleft","0","arrowright","[0.325,0.675,0.15,0.85]","","",""
"sailing-trial","420","1629169","0.0-11.0-379.0","","","","false","","","","","","","","","","null","","764.7000007629395","","2","0","null","null","arrowup","[0.325,0.675,0.15,0.85]","","",""
"sailing-trial","421","1633565","0.0-11.0-380.0","","","","false","","","","","","","","","","1345.6999988555908","","151.89999961853027","","0","1","arrowleft","0","arrowleft","[0.325,0.675,0.15,0.85]","","",""
"sailing-trial","422","1635835","0.0-11.0-381.0","","","","false","","","","","","","","","","null","","797.7000007629395","","1","0","null","null","arrowup","[0.325,0.675,0.15,0.85]","","",""
"sailing-trial","423","1639616","0.0-11.0-382.0","","","","false","","","","","","","","","","759.5","","89.20000076293945","","0","1","arrowleft","0","arrowleft","[0.325,0.675,0.15,0.85]","","",""
"sailing-trial","424","1642081","0.0-11.0-383.0","","","","false","","","","","","","","","","null","","494.1999988555908","","1","1","null","null","arrowup","[0.325,0.675,0.15,0.85]","","",""
"sailing-trial","425","1645544","0.0-11.0-384.0","","","","false","","","","","","","","","","357.5","","158.10000038146973","","0","1","arrowleft","0","arrowleft","[0.85,0.15,0.675,0.325]","","",""
"sailing-trial","426","1647944","0.0-11.0-385.0","","","","false","","","","","","","","","","null","","386.1000003814697","","2","1","null","null","arrowup","[0.85,0.15,0.675,0.325]","","",""
"sailing-trial","427","1651191","0.0-11.0-386.0","","","","false","","","","","","","","","","227.39999961853027","","149.10000038146973","","2","1","arrowright","1","arrowleft","[0.85,0.15,0.675,0.325]","","",""
"sailing-trial","428","1654069","0.0-11.0-387.0","","","","false","","","","","","","","","","null","","997.2999992370605","","0","1","null","null","arrowup","[0.85,0.15,0.675,0.325]","","",""
"sailing-trial","429","1657420","0.0-11.0-388.0","","","","false","","","","","","","","","","427.29999923706055","","41.19999885559082","","2","1","arrowright","1","arrowleft","[0.85,0.15,0.675,0.325]","","",""
"sailing-trial","430","1659345","0.0-11.0-389.0","","","","false","","","","","","","","","","null","","475.79999923706055","","3","0","null","null","arrowup","[0.85,0.15,0.675,0.325]","","",""
"sailing-trial","431","1663445","0.0-11.0-390.0","","","","false","","","","","","","","","","983","","106.19999885559082","","0","1","arrowleft","0","arrowleft","[0.85,0.15,0.675,0.325]","","",""
"sailing-trial","432","1665360","0.0-11.0-391.0","","","","false","","","","","","","","","","null","","495.5999984741211","","1","0","null","null","arrowup","[0.85,0.15,0.675,0.325]","","",""
"sailing-trial","433","1669432","0.0-11.0-392.0","","","","false","","","","","","","","","","669.2000007629395","","666.0999984741211","","2","1","arrowright","1","arrowleft","[0.85,0.15,0.675,0.325]","","",""
"sailing-trial","434","1672080","0.0-11.0-393.0","","","","false","","","","","","","","","","null","","831.8999996185303","","2","1","null","null","arrowup","[0.85,0.15,0.675,0.325]","","",""
"sailing-trial","435","1675492","0.0-11.0-394.0","","","","false","","","","","","","","","","352.5","","92.79999923706055","","0","1","arrowleft","0","arrowleft","[0.85,0.15,0.675,0.325]","","",""
"sailing-trial","436","1678202","0.0-11.0-395.0","","","","false","","","","","","","","","","null","","796.8000011444092","","0","1","null","null","arrowup","[0.85,0.15,0.675,0.325]","","",""
"sailing-trial","437","1681483","0.0-11.0-396.0","","","","false","","","","","","","","","","328.5999984741211","","27.399999618530273","","2","1","arrowright","1","arrowleft","[0.85,0.15,0.675,0.325]","","",""
"sailing-trial","438","1683748","0.0-11.0-397.0","","","","false","","","","","","","","","","null","","834.3999996185303","","1","0","null","null","arrowup","[0.85,0.15,0.675,0.325]","","",""
"sailing-trial","439","1688027","0.0-11.0-398.0","","","","false","","","","","","","","","","884.1999988555908","","479.5","","0","1","arrowleft","0","arrowleft","[0.85,0.15,0.675,0.325]","","",""
"sailing-trial","440","1689917","0.0-11.0-399.0","","","","false","","","","","","","","","","null","","530.0999984741211","","2","0","null","null","arrowup","[0.85,0.15,0.675,0.325]","","",""
"instructions","441","1693654","0.0-12.0","","","","","","","","","","3734.7999992370605","","","","","","","","","","","","","","","","[{""page_index"":0,""viewing_time"":3733.2999992370605}]"
"survey-debrief","442","1755638","0.0-13.0","","","","","","","","","","61979","","","","","","","","","","","","","","{""difficulty"":""3"",""fun"":""4"",""clarity"":""5"",""strategy"":""No"",""feedback"":""I like the idea""}","",""
