"trial_type","trial_index","time_elapsed","internal_node_id","value","metadata","success","timeout","failed_images","failed_audio","failed_video","browser_interaction","low_quality","rt","stimulus","response","button_pressed","island_rt","island_response","boat_rt","boat_response","boat","reward","island_key","island","boat_key","reward_probabilities","responses","num_errors","view_history"
"pavlovia","0","3","0.0-0.0","","","","","","","","","","","","","","","","","","","","","","","","","",""
"call-function","1","3","0.0-1.0","","{""task_version"":""sailing_part1_v1"",""task_condition"":""good"",""boats"":[""D"",""C"",""A"",""B""],""boats_demo"":[""E"",""F"",""H"",""G""],""islands"":[""A"",""B""],""subject_id"":""13872"",""age"":""13"",""gender"":""Male""}","","","","","","","","","","","","","","","","","","","","","","","",""
"preload","2","1384","0.0-2.0","","","true","false","[]","[]","[]","[{""event"":""fullscreenenter"",""trial"":3,""time"":2615}]","false","","","","","","","","","","","","","","","","",""
"fullscreen","3","3590","0.0-3.0","","","true","","","","","","","","","","","","","","","","","","","","","","",""
"audio-keyboard-response","4","16235","0.0-4.0-0.0","","","","","","","","","","12591.020408163266","audio/beep_loop.wav"," ","","","","","","","","","","","","","",""
"audio-test","5","18138","0.0-4.0-1.0","","","","","","","","","","null","audio/turtle.mp3","","3","","","","","","","","","","","","",""
"audio-test","6","21772","0.0-4.0-2.0","","","","","","","","","","null","audio/shark.mp3","","2","","","","","","","","","","","","",""
"sailing-instructions","7","59005","0.0-5.0-0.0-0.0","","","","","","","","","","","","","","null","null","null","null","null","null","","","","","","",""
"sailing-trial","8","76014","0.0-5.0-0.0-1.0-0.0","","","","false","","","","","","","","","","15912","","null","","null","null","arrowleft","0","null","null","","",""
"sailing-trial","9","78130","0.0-5.0-0.0-1.0-1.0","","","","false","","","","","","","","","","1002","","null","","null","null","arrowright","1","null","null","","",""
"sailing-trial","10","81279","0.0-5.0-0.0-1.0-2.0","","","","false","","","","","","","","","","2036","","null","","null","null","arrowleft","0","null","null","","",""
"sailing-instructions","11","141748","0.0-5.0-0.0-2.0","","","","","","","","","","","","","","null","null","null","null","0","null","","","","","","",""
"sailing-trial","12","148243","0.0-5.0-0.0-3.0-0.0","","","","false","","","","","","","","","","null","","2493","","2","1","null","null","arrowleft","[1,1,1,1]","","",""
"sailing-trial","13","151426","0.0-5.0-0.0-3.0-1.0","","","","false","","","","","","","","","","null","","890","","3","1","null","null","arrowright","[1,1,1,1]","","",""
"sailing-trial","14","155830","0.0-5.0-0.0-3.0-2.0","","","","false","","","","","","","","","","null","","1266","","2","0","null","null","arrowleft","[0,0,0,0]","","",""
"sailing-instructions","15","163197","0.0-5.0-0.0-4.0","","","","","","","","","","","","","","null","null","null","null","null","null","","","","","","",""
"sailing-comprehension","16","200908","0.0-5.0-0.0-5.0","","","","","","","","","","31266","","","","","","","","","","","","","","[""true"",""true"",""false"",""true""]","0",""
"sailing-instructions","17","296523","0.0-6.0-0.0-0.0","","","","","","","","","","","","","","null","null","null","null","null","null","","","","","","",""
"sailing-comprehension","18","315612","0.0-6.0-0.0-1.0","","","","","","","","","","12782","","","","","","","","","","","","","","[""true"",""false"",""true""]","0",""
"sailing-instructions","19","335021","0.0-7.0-0.0-0.0","","","","","","","","","","","","","","null","null","null","null","null","null","","","","","","",""
"sailing-trial","20","340751","0.0-7.0-0.0-1.0-0.0","","","","false","","","","","","","","","","null","","3193","","0","0","null","null","arrowup","[0.2,0.8,0.2,0.8]","","",""
"sailing-trial","21","344683","0.0-7.0-0.0-1.0-1.0","","","","false","","","","","","","","","","null","","2070","","1","1","null","null","arrowup","[0.2,0.8,0.2,0.8]","","",""
"sailing-trial","22","346921","0.0-7.0-0.0-1.0-2.0","","","","false","","","","","","","","","","null","","984","","2","0","null","null","arrowup","[0.2,0.8,0.2,0.8]","","",""
"sailing-trial","23","349749","0.0-7.0-0.0-1.0-3.0","","","","false","","","","","","","","","","null","","922","","3","1","null","null","arrowup","[0.2,0.8,0.2,0.8]","","",""
"sailing-comprehension","24","360895","0.0-7.0-0.0-2.0","","","","","","","","","","8370","","","","","","","","","","","","","","[""true""]","1",""
"sailing-instructions","25","378169","0.0-7.0-0.1-0.1","","","","","","","","","","","","","","null","null","null","null","null","null","","","","","","",""
"sailing-trial","26","380468","0.0-7.0-0.1-1.1-0.1","","","","false","","","","","","","","","","null","","898","","0","0","null","null","arrowup","[0.2,0.8,0.2,0.8]","","",""
"sailing-trial","27","382531","0.0-7.0-0.1-1.1-1.1","","","","false","","","","","","","","","","null","","419","","1","1","null","null","arrowup","[0.2,0.8,0.2,0.8]","","",""
"sailing-trial","28","383686","0.0-7.0-0.1-1.1-2.1","","","","false","","","","","","","","","","null","","132","","2","0","null","null","arrowup","[0.2,0.8,0.2,0.8]","","",""
"sailing-trial","29","387746","0.0-7.0-0.1-1.1-3.1","","","","false","","","","","","","","","","null","","2323","","3","1","null","null","arrowup","[0.2,0.8,0.2,0.8]","","",""
"sailing-comprehension","30","395502","0.0-7.0-0.1-2.1","","","","","","","","","","6305","","","","","","","","","","","","","","[""false""]","0",""
"sailing-instructions","31","406968","0.0-8.0-0.0-0.0","","","","","","","","","","","","","","null","null","null","null","null","null","","","","","","",""
"sailing-comprehension","32","417309","0.0-8.0-0.0-1.0","","","","","","","","","","9098","","","","","","","","","","","","","","[""true""]","0",""
"sailing-instructions","33","440899","0.0-9.0-0.0-0.0","","","","","","","","","","","","","","null","null","null","null","null","null","","","","","","",""
"sailing-trial","34","446811","0.0-9.0-0.0-1.0-0.0","","","","false","","","","","","","","","","1707","","822","","0","1","arrowleft","0","arrowleft","[0.2,0.8,0.2,0.8]","","",""
"sailing-trial","35","450632","0.0-9.0-0.0-1.0-1.0","","","","false","","","","","","","","","","628","","51","","0","0","arrowleft","0","arrowleft","[0.2,0.8,0.2,0.8]","","",""
"sailing-trial","36","453593","0.0-9.0-0.0-1.0-2.0","","","","false","","","","","","","","","","null","","1660","","0","0","null","null","arrowup","[0.2,0.8,0.2,0.8]","","",""
"sailing-trial","37","458210","0.0-9.0-0.0-1.0-3.0","","","","false","","","","","","","","","","688","","852","","3","1","arrowright","1","arrowright","[0.2,0.8,0.2,0.8]","","",""
"sailing-trial","38","461459","0.0-9.0-0.0-1.0-4.0","","","","false","","","","","","","","","","null","","1294","","3","0","null","null","arrowup","[0.2,0.8,0.2,0.8]","","",""
"sailing-trial","39","465554","0.0-9.0-0.0-1.0-5.0","","","","false","","","","","","","","","","784","","427","","2","0","arrowright","1","arrowleft","[0.2,0.8,0.2,0.8]","","",""
"sailing-instructions","40","498346","0.0-10.0","","","","","","","","","","","","","","null","null","null","null","null","null","","","","","","",""
"sailing-trial","41","502554","0.0-11.0-0.0","","","","false","","","","","","","","","","1018","","161","","3","0","arrowright","1","arrowright","[0.325,0.675,0.85,0.15]","","",""
"sailing-trial","42","506107","0.0-11.0-1.0","","","","false","","","","","","","","","","null","","1310","","2","1","null","null","arrowup","[0.325,0.675,0.85,0.15]","","",""
"sailing-trial","43","509939","0.0-11.0-2.0","","","","false","","","","","","","","","","625","","271","","2","1","arrowright","1","arrowleft","[0.325,0.675,0.85,0.15]","","",""
"sailing-trial","44","512973","0.0-11.0-3.0","","","","false","","","","","","","","","","null","","1242","","2","1","null","null","arrowup","[0.325,0.675,0.85,0.15]","","",""
"sailing-trial","45","516888","0.0-11.0-4.0","","","","false","","","","","","","","","","682","","354","","2","1","arrowright","1","arrowleft","[0.325,0.675,0.85,0.15]","","",""
"sailing-trial","46","520153","0.0-11.0-5.0","","","","false","","","","","","","","","","null","","1509","","2","1","null","null","arrowup","[0.325,0.675,0.85,0.15]","","",""
"sailing-trial","47","523251","0.0-11.0-6.0","","","","false","","","","","","","","","","447","","130","","2","0","arrowright","1","arrowleft","[0.325,0.675,0.85,0.15]","","",""
"sailing-trial","48","526071","0.0-11.0-7.0","","","","false","","","","","","","","","","null","","1364","","0","0","null","null","arrowup","[0.325,0.675,0.85,0.15]","","",""
"sailing-trial","49","530053","0.0-11.0-8.0","","","","false","","","","","","","","","","662","","174","","1","1","arrowleft","0","arrowright","[0.325,0.675,0.85,0.15]","","",""
"sailing-trial","50","532854","0.0-11.0-9.0","","","","false","","","","","","","","","","null","","1044","","2","1","null","null","arrowup","[0.325,0.675,0.85,0.15]","","",""
"sailing-trial","51","536352","0.0-11.0-10.0","","","","false","","","","","","","","","","526","","87","","1","1","arrowleft","0","arrowright","[0.325,0.675,0.85,0.15]","","",""
"sailing-trial","52","539087","0.0-11.0-11.0","","","","false","","","","","","","","","","null","","960","","2","1","null","null","arrowup","[0.325,0.675,0.85,0.15]","","",""
"sailing-trial","53","542820","0.0-11.0-12.0","","","","false","","","","","","","","","","395","","439","","1","1","arrowleft","0","arrowright","[0.325,0.675,0.85,0.15]","","",""
"sailing-trial","54","545452","0.0-11.0-13.0","","","","false","","","","","","","","","","null","","874","","2","1","null","null","arrowup","[0.325,0.675,0.85,0.15]","","",""
"sailing-trial","55","549068","0.0-11.0-14.0","","","","false","","","","","","","","","","680","","86","","1","1","arrowleft","0","arrowright","[0.325,0.675,0.85,0.15]","","",""
"sailing-trial","56","552185","0.0-11.0-15.0","","","","false","","","","","","","","","","null","","1181","","1","1","null","null","arrowup","[0.325,0.675,0.85,0.15]","","",""
"sailing-trial","57","556201","0.0-11.0-16.0","","","","false","","","","","","","","","","638","","480","","1","1","arrowleft","0","arrowright","[0.325,0.675,0.85,0.15]","","",""
"sailing-trial","58","559067","0.0-11.0-17.0","","","","false","","","","","","","","","","null","","769","","3","1","null","null","arrowup","[0.325,0.675,0.85,0.15]","","",""
"sailing-trial","59","562618","0.0-11.0-18.0","","","","false","","","","","","","","","","468","","137","","1","1","arrowleft","0","arrowright","[0.675,0.325,0.15,0.85]","","",""
"sailing-trial","60","565033","0.0-11.0-19.0","","","","false","","","","","","","","","","null","","584","","0","1","null","null","arrowup","[0.675,0.325,0.15,0.85]","","",""
"sailing-trial","61","568651","0.0-11.0-20.0","","","","false","","","","","","","","","","608","","4","","1","1","arrowleft","0","arrowright","[0.675,0.325,0.15,0.85]","","",""
"sailing-trial","62","571610","0.0-11.0-21.0","","","","false","","","","","","","","","","null","","1418","","1","0","null","null","arrowup","[0.675,0.325,0.15,0.85]","","",""
"sailing-trial","63","575070","0.0-11.0-22.0","","","","false","","","","","","","","","","465","","585","","2","0","arrowright","1","arrowleft","[0.675,0.325,0.15,0.85]","","",""
"sailing-trial","64","577299","0.0-11.0-23.0","","","","false","","","","","","","","","","null","","970","","2","0","null","null","arrowup","[0.675,0.325,0.15,0.85]","","",""
"sailing-trial","65","580833","0.0-11.0-24.0","","","","false","","","","","","","","","","457","","84","","3","1","arrowright","1","arrowright","[0.675,0.325,0.15,0.85]","","",""
"sailing-trial","66","583295","0.0-11.0-25.0","","","","false","","","","","","","","","","null","","1084","","2","0","null","null","arrowup","[0.675,0.325,0.15,0.85]","","",""
"sailing-trial","67","586850","0.0-11.0-26.0","","","","false","","","","","","","","","","367","","263","","3","1","arrowright","1","arrowright","[0.675,0.325,0.15,0.85]","","",""
"sailing-trial","68","589366","0.0-11.0-27.0","","","","false","","","","","","","","","","null","","682","","0","1","null","null","arrowup","[0.675,0.325,0.15,0.85]","","",""
"sailing-trial","69","593316","0.0-11.0-28.0","","","","false","","","","","","","","","","587","","136","","3","1","arrowright","1","arrowright","[0.675,0.325,0.15,0.85]","","",""
"sailing-trial","70","595632","0.0-11.0-29.0","","","","false","","","","","","","","","","null","","964","","2","0","null","null","arrowup","[0.675,0.325,0.15,0.85]","","",""
"sailing-trial","71","598763","0.0-11.0-30.0","","","","false","","","","","","","","","","508","","176","","3","0","arrowright","1","arrowright","[0.675,0.325,0.15,0.85]","","",""
"sailing-trial","72","601615","0.0-11.0-31.0","","","","false","","","","","","","","","","null","","1140","","1","1","null","null","arrowup","[0.675,0.325,0.15,0.85]","","",""
"sailing-trial","73","605772","0.0-11.0-32.0","","","","false","","","","","","","","","","640","","150","","1","0","arrowleft","0","arrowright","[0.675,0.325,0.15,0.85]","","",""
"sailing-trial","74","608732","0.0-11.0-33.0","","","","false","","","","","","","","","","null","","1308","","0","1","null","null","arrowup","[0.675,0.325,0.15,0.85]","","",""
"sailing-trial","75","612016","0.0-11.0-34.0","","","","false","","","","","","","","","","518","","196","","0","1","arrowleft","0","arrowleft","[0.85,0.15,0.325,0.675]","","",""
"sailing-trial","76","614666","0.0-11.0-35.0","","","","false","","","","","","","","","","null","","805","","1","1","null","null","arrowup","[0.85,0.15,0.325,0.675]","","",""
"sailing-trial","77","617998","0.0-11.0-36.0","","","","false","","","","","","","","","","247","","293","","0","1","arrowleft","0","arrowleft","[0.85,0.15,0.325,0.675]","","",""
"sailing-trial","78","620919","0.0-11.0-37.0","","","","false","","","","","","","","","","null","","1680","","2","0","null","null","arrowup","[0.85,0.15,0.325,0.675]","","",""
"sailing-trial","79","624464","0.0-11.0-38.0","","","","false","","","","","","","","","","453","","103","","0","1","arrowleft","0","arrowleft","[0.85,0.15,0.325,0.675]","","",""
"sailing-trial","80","626269","0.0-11.0-39.0","","","","false","","","","","","","","","","null","","554","","1","0","null","null","arrowup","[0.85,0.15,0.325,0.675]","","",""
"sailing-trial","81","629547","0.0-11.0-40.0","","","","false","","","","","","","","","","405","","37","","0","1","arrowleft","0","arrowleft","[0.85,0.15,0.325,0.675]","","",""
"sailing-trial","82","631765","0.0-11.0-41.0","","","","false","","","","","","","","","","null","","1051","","1","0","null","null","arrowup","[0.85,0.15,0.325,0.675]","","",""
"sailing-trial","83","635148","0.0-11.0-42.0","","","","false","","","","","","","","","","321","","113","","0","1","arrowleft","0","arrowleft","[0.85,0.15,0.325,0.675]","","",""
"sailing-trial","84","637896","0.0-11.0-43.0","","","","false","","","","","","","","","","null","","1082","","0","1","null","null","arrowup","[0.85,0.15,0.325,0.675]","","",""
"sailing-trial","85","641129","0.0-11.0-44.0","","","","false","","","","","","","","","","52","","359","","0","1","arrowleft","0","arrowleft","[0.85,0.15,0.325,0.675]","","",""
"sailing-trial","86","643829","0.0-11.0-45.0","","","","false","","","","","","","","","","null","","969","","3","1","null","null","arrowup","[0.85,0.15,0.325,0.675]","","",""
"sailing-trial","87","647246","0.0-11.0-46.0","","","","false","","","","","","","","","","253","","209","","0","1","arrowleft","0","arrowleft","[0.85,0.15,0.325,0.675]","","",""
"sailing-trial","88","650262","0.0-11.0-47.0","","","","false","","","","","","","","","","null","","1316","","0","1","null","null","arrowup","[0.85,0.15,0.325,0.675]","","",""
"sailing-trial","89","654096","0.0-11.0-48.0","","","","false","","","","","","","","","","409","","120","","0","1","arrowleft","0","arrowleft","[0.85,0.15,0.325,0.675]","","",""
"sailing-trial","90","657107","0.0-11.0-49.0","","","","false","","","","","","","","","","null","","1613","","2","0","null","null","arrowup","[0.85,0.15,0.325,0.675]","","",""
"sailing-trial","91","661287","0.0-11.0-50.0","","","","false","","","","","","","","","","622","","990","","0","0","arrowleft","0","arrowleft","[0.85,0.15,0.325,0.675]","","",""
"sailing-trial","92","664178","0.0-11.0-51.0","","","","false","","","","","","","","","","null","","1023","","2","1","null","null","arrowup","[0.85,0.15,0.325,0.675]","","",""
"sailing-trial","93","667678","0.0-11.0-52.0","","","","false","","","","","","","","","","493","","104","","3","1","arrowright","1","arrowright","[0.85,0.15,0.325,0.675]","","",""
"sailing-trial","94","670428","0.0-11.0-53.0","","","","false","","","","","","","","","","null","","1019","","3","1","null","null","arrowup","[0.85,0.15,0.325,0.675]","","",""
"sailing-trial","95","673873","0.0-11.0-54.0","","","","false","","","","","","","","","","598","","412","","3","0","arrowright","1","arrowright","[0.325,0.675,0.85,0.15]","","",""
"sailing-trial","96","676349","0.0-11.0-55.0","","","","false","","","","","","","","","","null","","1227","","3","0","null","null","arrowup","[0.325,0.675,0.85,0.15]","","",""
"sailing-trial","97","679866","0.0-11.0-56.0","","","","false","","","","","","","","","","606","","438","","3","0","arrowright","1","arrowright","[0.325,0.675,0.85,0.15]","","",""
"sailing-trial","98","682494","0.0-11.0-57.0","","","","false","","","","","","","","","","null","","910","","0","1","null","null","arrowup","[0.325,0.675,0.85,0.15]","","",""
"sailing-trial","99","687277","0.0-11.0-58.0","","","","false","","","","","","","","","","833","","1184","","2","1","arrowright","1","arrowleft","[0.325,0.675,0.85,0.15]","","",""
"sailing-trial","100","689878","0.0-11.0-59.0","","","","false","","","","","","","","","","null","","854","","0","1","null","null","arrowup","[0.325,0.675,0.85,0.15]","","",""
"sailing-trial","101","693593","0.0-11.0-60.0","","","","false","","","","","","","","","","397","","49","","2","1","arrowright","1","arrowleft","[0.325,0.675,0.85,0.15]","","",""
"sailing-trial","102","696509","0.0-11.0-61.0","","","","false","","","","","","","","","","null","","1087","","2","1","null","null","arrowup","[0.325,0.675,0.85,0.15]","","",""
"sailing-trial","103","700776","0.0-11.0-62.0","","","","false","","","","","","","","","","326","","138","","2","1","arrowright","1","arrowleft","[0.325,0.675,0.85,0.15]","","",""
"sailing-trial","104","703311","0.0-11.0-63.0","","","","false","","","","","","","","","","null","","729","","1","1","null","null","arrowup","[0.325,0.675,0.85,0.15]","","",""
"sailing-trial","105","706893","0.0-11.0-64.0","","","","false","","","","","","","","","","527","","120","","2","1","arrowright","1","arrowleft","[0.325,0.675,0.85,0.15]","","",""
"sailing-trial","106","709543","0.0-11.0-65.0","","","","false","","","","","","","","","","null","","839","","3","1","null","null","arrowup","[0.325,0.675,0.85,0.15]","","",""
"sailing-trial","107","713609","0.0-11.0-66.0","","","","false","","","","","","","","","","388","","562","","2","1","arrowright","1","arrowleft","[0.325,0.675,0.85,0.15]","","",""
"sailing-trial","108","716146","0.0-11.0-67.0","","","","false","","","","","","","","","","null","","999","","0","0","null","null","arrowup","[0.325,0.675,0.85,0.15]","","",""
"sailing-trial","109","720225","0.0-11.0-68.0","","","","false","","","","","","","","","","418","","779","","2","1","arrowright","1","arrowleft","[0.325,0.675,0.85,0.15]","","",""
"sailing-trial","110","722534","0.0-11.0-69.0","","","","false","","","","","","","","","","null","","1038","","3","0","null","null","arrowup","[0.325,0.675,0.85,0.15]","","",""
"sailing-trial","111","725825","0.0-11.0-70.0","","","","false","","","","","","","","","","547","","95","","2","1","arrowright","1","arrowleft","[0.15,0.85,0.675,0.325]","","",""
"sailing-trial","112","728258","0.0-11.0-71.0","","","","false","","","","","","","","","","null","","782","","1","1","null","null","arrowup","[0.15,0.85,0.675,0.325]","","",""
"sailing-trial","113","732003","0.0-11.0-72.0","","","","false","","","","","","","","","","401","","845","","2","0","arrowright","1","arrowleft","[0.15,0.85,0.675,0.325]","","",""
"sailing-trial","114","734046","0.0-11.0-73.0","","","","false","","","","","","","","","","null","","997","","3","0","null","null","arrowup","[0.15,0.85,0.675,0.325]","","",""
"sailing-trial","115","737474","0.0-11.0-74.0","","","","false","","","","","","","","","","503","","121","","2","1","arrowright","1","arrowleft","[0.15,0.85,0.675,0.325]","","",""
"sailing-trial","116","739576","0.0-11.0-75.0","","","","false","","","","","","","","","","null","","890","","0","0","null","null","arrowup","[0.15,0.85,0.675,0.325]","","",""
"sailing-trial","117","743291","0.0-11.0-76.0","","","","false","","","","","","","","","","615","","233","","2","1","arrowright","1","arrowleft","[0.15,0.85,0.675,0.325]","","",""
"sailing-trial","118","745273","0.0-11.0-77.0","","","","false","","","","","","","","","","null","","745","","3","0","null","null","arrowup","[0.15,0.85,0.675,0.325]","","",""
"sailing-trial","119","748690","0.0-11.0-78.0","","","","false","","","","","","","","","","437","","56","","2","1","arrowright","1","arrowleft","[0.15,0.85,0.675,0.325]","","",""
"sailing-trial","120","750972","0.0-11.0-79.0","","","","false","","","","","","","","","","null","","697","","3","0","null","null","arrowup","[0.15,0.85,0.675,0.325]","","",""
"sailing-trial","121","754787","0.0-11.0-80.0","","","","false","","","","","","","","","","507","","271","","2","0","arrowright","1","arrowleft","[0.15,0.85,0.675,0.325]","","",""
"sailing-trial","122","757474","0.0-11.0-81.0","","","","false","","","","","","","","","","null","","937","","3","1","null","null","arrowup","[0.15,0.85,0.675,0.325]","","",""
"sailing-trial","123","761373","0.0-11.0-82.0","","","","false","","","","","","","","","","793","","281","","2","1","arrowright","1","arrowleft","[0.15,0.85,0.675,0.325]","","",""
"sailing-trial","124","764156","0.0-11.0-83.0","","","","false","","","","","","","","","","null","","965","","0","1","null","null","arrowup","[0.15,0.85,0.675,0.325]","","",""
"sailing-trial","125","767354","0.0-11.0-84.0","","","","false","","","","","","","","","","692","","177","","0","0","arrowleft","0","arrowleft","[0.15,0.85,0.675,0.325]","","",""
"sailing-trial","126","770749","0.0-11.0-85.0","","","","false","","","","","","","","","","null","","1161","","0","0","null","null","arrowup","[0.15,0.85,0.675,0.325]","","",""
"sailing-trial","127","773575","0.0-11.0-86.0","","","","false","","","","","","","","","","377","","157","","2","0","arrowright","1","arrowleft","[0.15,0.85,0.675,0.325]","","",""
"sailing-trial","128","776056","0.0-11.0-87.0","","","","false","","","","","","","","","","null","","909","","1","1","null","null","arrowup","[0.15,0.85,0.675,0.325]","","",""
"sailing-trial","129","778987","0.0-11.0-88.0","","","","false","","","","","","","","","","460","","163","","1","0","arrowleft","0","arrowright","[0.325,0.675,0.85,0.15]","","",""
"sailing-trial","130","781376","0.0-11.0-89.0","","","","false","","","","","","","","","","null","","851","","2","0","null","null","arrowup","[0.325,0.675,0.85,0.15]","","",""
"sailing-trial","131","784315","0.0-11.0-90.0","","","","false","","","","","","","","","","522","","135","","3","0","arrowright","1","arrowright","[0.325,0.675,0.85,0.15]","","",""
"sailing-trial","132","787705","0.0-11.0-91.0","","","","false","","","","","","","","","","null","","1837","","1","1","null","null","arrowup","[0.325,0.675,0.85,0.15]","","",""
"sailing-trial","133","791222","0.0-11.0-92.0","","","","false","","","","","","","","","","457","","159","","1","1","arrowleft","0","arrowright","[0.325,0.675,0.85,0.15]","","",""
"sailing-trial","134","794022","0.0-11.0-93.0","","","","false","","","","","","","","","","null","","936","","1","1","null","null","arrowup","[0.325,0.675,0.85,0.15]","","",""
"sailing-trial","135","797121","0.0-11.0-94.0","","","","false","","","","","","","","","","174","","79","","1","1","arrowleft","0","arrowright","[0.325,0.675,0.85,0.15]","","",""
"sailing-trial","136","799971","0.0-11.0-95.0","","","","false","","","","","","","","","","null","","1304","","1","1","null","null","arrowup","[0.325,0.675,0.85,0.15]","","",""
"sailing-trial","137","803237","0.0-11.0-96.0","","","","false","","","","","","","","","","218","","12","","1","1","arrowleft","0","arrowright","[0.325,0.675,0.85,0.15]","","",""
"sailing-trial","138","805419","0.0-11.0-97.0","","","","false","","","","","","","","","","null","","960","","3","0","null","null","arrowup","[0.325,0.675,0.85,0.15]","","",""
"sailing-trial","139","808555","0.0-11.0-98.0","","","","false","","","","","","","","","","150","","8","","1","1","arrowleft","0","arrowright","[0.325,0.675,0.85,0.15]","","",""
"sailing-trial","140","810520","0.0-11.0-99.0","","","","false","","","","","","","","","","null","","940","","0","0","null","null","arrowup","[0.325,0.675,0.85,0.15]","","",""
"sailing-trial","141","813795","0.0-11.0-100.0","","","","false","","","","","","","","","","515","","92","","1","0","arrowleft","0","arrowright","[0.325,0.675,0.85,0.15]","","",""
"sailing-trial","142","817260","0.0-11.0-101.0","","","","false","","","","","","","","","","null","","2261","","3","0","null","null","arrowup","[0.325,0.675,0.85,0.15]","","",""
"sailing-trial","143","820736","0.0-11.0-102.0","","","","false","","","","","","","","","","498","","45","","1","1","arrowleft","0","arrowright","[0.325,0.675,0.85,0.15]","","",""
"sailing-trial","144","823370","0.0-11.0-103.0","","","","false","","","","","","","","","","null","","973","","1","1","null","null","arrowup","[0.325,0.675,0.85,0.15]","","",""
"sailing-trial","145","826892","0.0-11.0-104.0","","","","false","","","","","","","","","","1184","","180","","1","0","arrowleft","0","arrowright","[0.325,0.675,0.85,0.15]","","",""
"sailing-trial","146","829352","0.0-11.0-105.0","","","","false","","","","","","","","","","null","","946","","2","1","null","null","arrowup","[0.325,0.675,0.85,0.15]","","",""
"sailing-trial","147","833120","0.0-11.0-106.0","","","","false","","","","","","","","","","795","","19","","2","1","arrowright","1","arrowleft","[0.325,0.675,0.85,0.15]","","",""
"sailing-trial","148","835553","0.0-11.0-107.0","","","","false","","","","","","","","","","null","","895","","1","1","null","null","arrowup","[0.325,0.675,0.85,0.15]","","",""
"sailing-trial","149","839152","0.0-11.0-108.0","","","","false","","","","","","","","","","568","","88","","2","1","arrowright","1","arrowleft","[0.325,0.675,0.85,0.15]","","",""
"sailing-trial","150","841602","0.0-11.0-109.0","","","","false","","","","","","","","","","null","","916","","2","1","null","null","arrowup","[0.325,0.675,0.85,0.15]","","",""
"sailing-trial","151","845220","0.0-11.0-110.0","","","","false","","","","","","","","","","495","","297","","2","1","arrowright","1","arrowleft","[0.325,0.675,0.85,0.15]","","",""
"sailing-trial","152","847868","0.0-11.0-111.0","","","","false","","","","","","","","","","null","","979","","1","1","null","null","arrowup","[0.325,0.675,0.85,0.15]","","",""
"sailing-trial","153","851779","0.0-11.0-112.0","","","","false","","","","","","","","","","1484","","120","","2","0","arrowright","1","arrowleft","[0.15,0.85,0.675,0.325]","","",""
"sailing-trial","154","854126","0.0-11.0-113.0","","","","false","","","","","","","","","","null","","1078","","3","0","null","null","arrowup","[0.15,0.85,0.675,0.325]","","",""
"sailing-trial","155","857302","0.0-11.0-114.0","","","","false","","","","","","","","","","588","","201","","2","0","arrowright","1","arrowleft","[0.15,0.85,0.675,0.325]","","",""
"sailing-trial","156","859312","0.0-11.0-115.0","","","","false","","","","","","","","","","null","","903","","3","0","null","null","arrowup","[0.15,0.85,0.675,0.325]","","",""
"sailing-trial","157","862652","0.0-11.0-116.0","","","","false","","","","","","","","","","476","","6","","1","1","arrowleft","0","arrowright","[0.15,0.85,0.675,0.325]","","",""
"sailing-trial","158","865435","0.0-11.0-117.0","","","","false","","","","","","","","","","null","","1033","","1","1","null","null","arrowup","[0.15,0.85,0.675,0.325]","","",""
"sailing-trial","159","869301","0.0-11.0-118.0","","","","false","","","","","","","","","","494","","429","","1","1","arrowleft","0","arrowright","[0.15,0.85,0.675,0.325]","","",""
"sailing-trial","160","870928","0.0-11.0-119.0","","","","false","","","","","","","","","","null","","483","","1","0","null","null","arrowup","[0.15,0.85,0.675,0.325]","","",""
"sailing-trial","161","875200","0.0-11.0-120.0","","","","false","","","","","","","","","","705","","621","","1","1","arrowleft","0","arrowright","[0.15,0.85,0.675,0.325]","","",""
"sailing-trial","162","877339","0.0-11.0-121.0","","","","false","","","","","","","","","","null","","838","","1","0","null","null","arrowup","[0.15,0.85,0.675,0.325]","","",""
"sailing-trial","163","881200","0.0-11.0-122.0","","","","false","","","","","","","","","","780","","81","","1","1","arrowleft","0","arrowright","[0.15,0.85,0.675,0.325]","","",""
"sailing-trial","164","882956","0.0-11.0-123.0","","","","false","","","","","","","","","","null","","478","","1","0","null","null","arrowup","[0.15,0.85,0.675,0.325]","","",""
"sailing-trial","165","886782","0.0-11.0-124.0","","","","false","","","","","","","","","","626","","516","","0","0","arrowleft","0","arrowleft","[0.15,0.85,0.675,0.325]","","",""
"sailing-trial","166","888871","0.0-11.0-125.0","","","","false","","","","","","","","","","null","","797","","3","0","null","null","arrowup","[0.15,0.85,0.675,0.325]","","",""
"sailing-trial","167","893034","0.0-11.0-126.0","","","","false","","","","","","","","","","1274","","1","","2","1","arrowright","1","arrowleft","[0.15,0.85,0.675,0.325]","","",""
"sailing-trial","168","895382","0.0-11.0-127.0","","","","false","","","","","","","","","","null","","819","","1","1","null","null","arrowup","[0.15,0.85,0.675,0.325]","","",""
"sailing-trial","169","898031","0.0-11.0-128.0","","","","false","","","","","","","","","","113","","144","","2","0","arrowright","1","arrowleft","[0.15,0.85,0.675,0.325]","","",""
"sailing-trial","170","900114","0.0-11.0-129.0","","","","false","","","","","","","","","","null","","996","","0","0","null","null","arrowup","[0.15,0.85,0.675,0.325]","","",""
"sailing-trial","171","903933","0.0-11.0-130.0","","","","false","","","","","","","","","","454","","81","","2","1","arrowright","1","arrowleft","[0.325,0.675,0.85,0.15]","","",""
"sailing-trial","172","906132","0.0-11.0-131.0","","","","false","","","","","","","","","","null","","512","","2","1","null","null","arrowup","[0.325,0.675,0.85,0.15]","","",""
"sailing-trial","173","909123","0.0-11.0-132.0","","","","false","","","","","","","","","","417","","202","","2","0","arrowright","1","arrowleft","[0.325,0.675,0.85,0.15]","","",""
"sailing-trial","174","911283","0.0-11.0-133.0","","","","false","","","","","","","","","","null","","854","","0","0","null","null","arrowup","[0.325,0.675,0.85,0.15]","","",""
"sailing-trial","175","915299","0.0-11.0-134.0","","","","false","","","","","","","","","","591","","164","","2","1","arrowright","1","arrowleft","[0.325,0.675,0.85,0.15]","","",""
"sailing-trial","176","917147","0.0-11.0-135.0","","","","false","","","","","","","","","","null","","822","","0","0","null","null","arrowup","[0.325,0.675,0.85,0.15]","","",""
"sailing-trial","177","920882","0.0-11.0-136.0","","","","false","","","","","","","","","","584","","462","","2","1","arrowright","1","arrowleft","[0.325,0.675,0.85,0.15]","","",""
"sailing-trial","178","923714","0.0-11.0-137.0","","","","false","","","","","","","","","","null","","1085","","2","1","null","null","arrowup","[0.325,0.675,0.85,0.15]","","",""
"sailing-trial","179","927882","0.0-11.0-138.0","","","","false","","","","","","","","","","902","","314","","2","1","arrowright","1","arrowleft","[0.325,0.675,0.85,0.15]","","",""
"sailing-trial","180","930299","0.0-11.0-139.0","","","","false","","","","","","","","","","null","","685","","1","1","null","null","arrowup","[0.325,0.675,0.85,0.15]","","",""
"sailing-trial","181","933865","0.0-11.0-140.0","","","","false","","","","","","","","","","451","","107","","2","1","arrowright","1","arrowleft","[0.325,0.675,0.85,0.15]","","",""
"sailing-trial","182","936582","0.0-11.0-141.0","","","","false","","","","","","","","","","null","","1111","","2","1","null","null","arrowup","[0.325,0.675,0.85,0.15]","","",""
"sailing-trial","183","940664","0.0-11.0-142.0","","","","false","","","","","","","","","","682","","421","","2","1","arrowright","1","arrowleft","[0.325,0.675,0.85,0.15]","","",""
"sailing-trial","184","942814","0.0-11.0-143.0","","","","false","","","","","","","","","","null","","317","","2","1","null","null","arrowup","[0.325,0.675,0.85,0.15]","","",""
"sailing-trial","185","946997","0.0-11.0-144.0","","","","false","","","","","","","","","","920","","251","","2","1","arrowright","1","arrowleft","[0.325,0.675,0.85,0.15]","","",""
"sailing-trial","186","949796","0.0-11.0-145.0","","","","false","","","","","","","","","","null","","1211","","2","1","null","null","arrowup","[0.325,0.675,0.85,0.15]","","",""
"sailing-trial","187","953296","0.0-11.0-146.0","","","","false","","","","","","","","","","359","","94","","2","1","arrowright","1","arrowleft","[0.325,0.675,0.85,0.15]","","",""
"sailing-trial","188","955229","0.0-11.0-147.0","","","","false","","","","","","","","","","null","","430","","2","0","null","null","arrowup","[0.325,0.675,0.85,0.15]","","",""
"sailing-trial","189","959396","0.0-11.0-148.0","","","","false","","","","","","","","","","834","","477","","2","1","arrowright","1","arrowleft","[0.15,0.85,0.675,0.325]","","",""
"sailing-trial","190","960911","0.0-11.0-149.0","","","","false","","","","","","","","","","null","","115","","0","0","null","null","arrowup","[0.15,0.85,0.675,0.325]","","",""
"sailing-trial","191","964177","0.0-11.0-150.0","","","","false","","","","","","","","","","617","","79","","2","0","arrowright","1","arrowleft","[0.15,0.85,0.675,0.325]","","",""
"sailing-trial","192","967045","0.0-11.0-151.0","","","","false","","","","","","","","","","null","","1052","","2","1","null","null","arrowup","[0.15,0.85,0.675,0.325]","","",""
"sailing-trial","193","970156","0.0-11.0-152.0","","","","false","","","","","","","","","","524","","111","","2","0","arrowright","1","arrowleft","[0.15,0.85,0.675,0.325]","","",""
"sailing-trial","194","972829","0.0-11.0-153.0","","","","false","","","","","","","","","","null","","1080","","2","1","null","null","arrowup","[0.15,0.85,0.675,0.325]","","",""
"sailing-trial","195","975969","0.0-11.0-154.0","","","","false","","","","","","","","","","450","","328","","1","0","arrowleft","0","arrowright","[0.15,0.85,0.675,0.325]","","",""
"sailing-trial","196","978097","0.0-11.0-155.0","","","","false","","","","","","","","","","null","","812","","1","0","null","null","arrowup","[0.15,0.85,0.675,0.325]","","",""
"sailing-trial","197","981006","0.0-11.0-156.0","","","","false","","","","","","","","","","437","","162","","0","0","arrowleft","0","arrowleft","[0.15,0.85,0.675,0.325]","","",""
"sailing-trial","198","983061","0.0-11.0-157.0","","","","false","","","","","","","","","","null","","908","","3","0","null","null","arrowup","[0.15,0.85,0.675,0.325]","","",""
"sailing-trial","199","987329","0.0-11.0-158.0","","","","false","","","","","","","","","","831","","716","","2","1","arrowright","1","arrowleft","[0.15,0.85,0.675,0.325]","","",""
"sailing-trial","200","989021","0.0-11.0-159.0","","","","false","","","","","","","","","","null","","605","","3","0","null","null","arrowup","[0.15,0.85,0.675,0.325]","","",""
"sailing-trial","201","991976","0.0-11.0-160.0","","","","false","","","","","","","","","","513","","55","","2","0","arrowright","1","arrowleft","[0.15,0.85,0.675,0.325]","","",""
"sailing-trial","202","994993","0.0-11.0-161.0","","","","false","","","","","","","","","","null","","1064","","2","1","null","null","arrowup","[0.15,0.85,0.675,0.325]","","",""
"sailing-trial","203","999928","0.0-11.0-162.0","","","","false","","","","","","","","","","829","","321","","2","1","arrowright","1","arrowleft","[0.15,0.85,0.675,0.325]","","",""
"sailing-trial","204","1002876","0.0-11.0-163.0","","","","false","","","","","","","","","","null","","1073","","1","1","null","null","arrowup","[0.15,0.85,0.675,0.325]","","",""
"sailing-trial","205","1007396","0.0-11.0-164.0","","","","false","","","","","","","","","","358","","133","","2","0","arrowright","1","arrowleft","[0.15,0.85,0.675,0.325]","","",""
"sailing-trial","206","1009823","0.0-11.0-165.0","","","","false","","","","","","","","","","null","","1065","","0","0","null","null","arrowup","[0.15,0.85,0.675,0.325]","","",""
"sailing-trial","207","1013410","0.0-11.0-166.0","","","","false","","","","","","","","","","556","","161","","1","1","arrowleft","0","arrowright","[0.325,0.675,0.85,0.15]","","",""
"sailing-trial","208","1015926","0.0-11.0-167.0","","","","false","","","","","","","","","","null","","975","","3","1","null","null","arrowup","[0.325,0.675,0.85,0.15]","","",""
"sailing-trial","209","1018538","0.0-11.0-168.0","","","","false","","","","","","","","","","327","","57","","1","0","arrowleft","0","arrowright","[0.325,0.675,0.85,0.15]","","",""
"sailing-trial","210","1021534","0.0-11.0-169.0","","","","false","","","","","","","","","","null","","563","","3","0","null","null","arrowup","[0.325,0.675,0.85,0.15]","","",""
"sailing-trial","211","1025060","0.0-11.0-170.0","","","","false","","","","","","","","","","495","","4","","2","1","arrowright","1","arrowleft","[0.325,0.675,0.85,0.15]","","",""
"sailing-trial","212","1028157","0.0-11.0-171.0","","","","false","","","","","","","","","","null","","1090","","2","1","null","null","arrowup","[0.325,0.675,0.85,0.15]","","",""
"sailing-trial","213","1032108","0.0-11.0-172.0","","","","false","","","","","","","","","","472","","647","","2","1","arrowright","1","arrowleft","[0.325,0.675,0.85,0.15]","","",""
"sailing-trial","214","1034792","0.0-11.0-173.0","","","","false","","","","","","","","","","null","","879","","1","1","null","null","arrowup","[0.325,0.675,0.85,0.15]","","",""
"sailing-trial","215","1038207","0.0-11.0-174.0","","","","false","","","","","","","","","","543","","42","","2","1","arrowright","1","arrowleft","[0.325,0.675,0.85,0.15]","","",""
"sailing-trial","216","1040858","0.0-11.0-175.0","","","","false","","","","","","","","","","null","","854","","0","1","null","null","arrowup","[0.325,0.675,0.85,0.15]","","",""
"sailing-trial","217","1044342","0.0-11.0-176.0","","","","false","","","","","","","","","","443","","92","","2","1","arrowright","1","arrowleft","[0.325,0.675,0.85,0.15]","","",""
"sailing-trial","218","1047306","0.0-11.0-177.0","","","","false","","","","","","","","","","null","","1171","","0","1","null","null","arrowup","[0.325,0.675,0.85,0.15]","","",""
"sailing-trial","219","1050924","0.0-11.0-178.0","","","","false","","","","","","","","","","602","","158","","2","1","arrowright","1","arrowleft","[0.325,0.675,0.85,0.15]","","",""
"sailing-trial","220","1054324","0.0-11.0-179.0","","","","false","","","","","","","","","","null","","2114","","3","0","null","null","arrowup","[0.325,0.675,0.85,0.15]","","",""
"sailing-trial","221","1058182","0.0-11.0-180.0","","","","false","","","","","","","","","","666","","320","","2","0","arrowright","1","arrowleft","[0.325,0.675,0.85,0.15]","","",""
"sailing-trial","222","1061603","0.0-11.0-181.0","","","","false","","","","","","","","","","null","","2268","","3","0","null","null","arrowup","[0.325,0.675,0.85,0.15]","","",""
"sailing-trial","223","1065107","0.0-11.0-182.0","","","","false","","","","","","","","","","427","","155","","1","1","arrowleft","0","arrowright","[0.675,0.325,0.15,0.85]","","",""
"sailing-trial","224","1067658","0.0-11.0-183.0","","","","false","","","","","","","","","","null","","871","","3","1","null","null","arrowup","[0.675,0.325,0.15,0.85]","","",""
"sailing-trial","225","1072840","0.0-11.0-184.0","","","","false","","","","","","","","","","954","","1394","","1","1","arrowleft","0","arrowright","[0.675,0.325,0.15,0.85]","","",""
"sailing-trial","226","1075873","0.0-11.0-185.0","","","","false","","","","","","","","","","null","","1006","","3","1","null","null","arrowup","[0.675,0.325,0.15,0.85]","","",""
"sailing-trial","227","1079525","0.0-11.0-186.0","","","","false","","","","","","","","","","670","","5","","1","0","arrowleft","0","arrowright","[0.675,0.325,0.15,0.85]","","",""
"sailing-trial","228","1081844","0.0-11.0-187.0","","","","false","","","","","","","","","","null","","880","","1","0","null","null","arrowup","[0.675,0.325,0.15,0.85]","","",""
"sailing-trial","229","1085623","0.0-11.0-188.0","","","","false","","","","","","","","","","604","","52","","3","1","arrowright","1","arrowright","[0.675,0.325,0.15,0.85]","","",""
"sailing-trial","230","1088087","0.0-11.0-189.0","","","","false","","","","","","","","","","null","","1201","","3","0","null","null","arrowup","[0.675,0.325,0.15,0.85]","","",""
"sailing-trial","231","1092138","0.0-11.0-190.0","","","","false","","","","","","","","","","1064","","225","","3","1","arrowright","1","arrowright","[0.675,0.325,0.15,0.85]","","",""
"sailing-trial","232","1094319","0.0-11.0-191.0","","","","false","","","","","","","","","","null","","1023","","0","0","null","null","arrowup","[0.675,0.325,0.15,0.85]","","",""
"sailing-trial","233","1098504","0.0-11.0-192.0","","","","false","","","","","","","","","","869","","232","","3","1","arrowright","1","arrowright","[0.675,0.325,0.15,0.85]","","",""
"sailing-trial","234","1101301","0.0-11.0-193.0","","","","false","","","","","","","","","","null","","1425","","1","0","null","null","arrowup","[0.675,0.325,0.15,0.85]","","",""
"sailing-trial","235","1105406","0.0-11.0-194.0","","","","false","","","","","","","","","","809","","219","","3","1","arrowright","1","arrowright","[0.675,0.325,0.15,0.85]","","",""
"sailing-trial","236","1108550","0.0-11.0-195.0","","","","false","","","","","","","","","","null","","1022","","2","0","null","null","arrowup","[0.675,0.325,0.15,0.85]","","",""
"sailing-trial","237","1113054","0.0-11.0-196.0","","","","false","","","","","","","","","","720","","848","","3","1","arrowright","1","arrowright","[0.675,0.325,0.15,0.85]","","",""
"sailing-trial","238","1115735","0.0-11.0-197.0","","","","false","","","","","","","","","","null","","1575","","1","0","null","null","arrowup","[0.675,0.325,0.15,0.85]","","",""
"sailing-trial","239","1119085","0.0-11.0-198.0","","","","false","","","","","","","","","","628","","263","","3","0","arrowright","1","arrowright","[0.85,0.15,0.325,0.675]","","",""
"sailing-trial","240","1121147","0.0-11.0-199.0","","","","false","","","","","","","","","","null","","1007","","1","0","null","null","arrowup","[0.85,0.15,0.325,0.675]","","",""
"sailing-trial","241","1125221","0.0-11.0-200.0","","","","false","","","","","","","","","","495","","170","","0","1","arrowleft","0","arrowleft","[0.85,0.15,0.325,0.675]","","",""
"sailing-trial","242","1127624","0.0-11.0-201.0","","","","false","","","","","","","","","","null","","828","","1","0","null","null","arrowup","[0.85,0.15,0.325,0.675]","","",""
"sailing-trial","243","1130853","0.0-11.0-202.0","","","","false","","","","","","","","","","468","","15","","0","1","arrowleft","0","arrowleft","[0.85,0.15,0.325,0.675]","","",""
"sailing-trial","244","1132970","0.0-11.0-203.0","","","","false","","","","","","","","","","null","","384","","0","1","null","null","arrowup","[0.85,0.15,0.325,0.675]","","",""
"sailing-trial","245","1138436","0.0-11.0-204.0","","","","false","","","","","","","","","","1831","","148","","0","1","arrowleft","0","arrowleft","[0.85,0.15,0.325,0.675]","","",""
"sailing-trial","246","1140815","0.0-11.0-205.0","","","","false","","","","","","","","","","null","","1003","","1","0","null","null","arrowup","[0.85,0.15,0.325,0.675]","","",""
"sailing-trial","247","1144020","0.0-11.0-206.0","","","","false","","","","","","","","","","153","","66","","0","1","arrowleft","0","arrowleft","[0.85,0.15,0.325,0.675]","","",""
"sailing-trial","248","1146754","0.0-11.0-207.0","","","","false","","","","","","","","","","null","","918","","0","1","null","null","arrowup","[0.85,0.15,0.325,0.675]","","",""
"sailing-trial","249","1150202","0.0-11.0-208.0","","","","false","","","","","","","","","","65","","60","","0","1","arrowleft","0","arrowleft","[0.85,0.15,0.325,0.675]","","",""
"sailing-trial","250","1152550","0.0-11.0-209.0","","","","false","","","","","","","","","","null","","1257","","1","0","null","null","arrowup","[0.85,0.15,0.325,0.675]","","",""
"sailing-trial","251","1155818","0.0-11.0-210.0","","","","false","","","","","","","","","","289","","238","","0","1","arrowleft","0","arrowleft","[0.85,0.15,0.325,0.675]","","",""
"sailing-trial","252","1158653","0.0-11.0-211.0","","","","false","","","","","","","","","","null","","946","","2","1","null","null","arrowup","[0.85,0.15,0.325,0.675]","","",""
"sailing-trial","253","1161718","0.0-11.0-212.0","","","","false","","","","","","","","","","210","","64","","0","1","arrowleft","0","arrowleft","[0.85,0.15,0.325,0.675]","","",""
"sailing-trial","254","1165468","0.0-11.0-213.0","","","","false","","","","","","","","","","null","","1155","","0","1","null","null","arrowup","[0.85,0.15,0.325,0.675]","","",""
"sailing-trial","255","1169869","0.0-11.0-214.0","","","","false","","","","","","","","","","1063","","245","","0","1","arrowleft","0","arrowleft","[0.675,0.325,0.15,0.85]","","",""
"sailing-trial","256","1172617","0.0-11.0-215.0","","","","false","","","","","","","","","","null","","838","","0","1","null","null","arrowup","[0.675,0.325,0.15,0.85]","","",""
"sailing-trial","257","1176579","0.0-11.0-216.0","","","","false","","","","","","","","","","26","","36","","0","0","arrowleft","0","arrowleft","[0.675,0.325,0.15,0.85]","","",""
"sailing-trial","258","1178628","0.0-11.0-217.0","","","","false","","","","","","","","","","null","","675","","2","0","null","null","arrowup","[0.675,0.325,0.15,0.85]","","",""
"sailing-trial","259","1182201","0.0-11.0-218.0","","","","false","","","","","","","","","","515","","28","","0","1","arrowleft","0","arrowleft","[0.675,0.325,0.15,0.85]","","",""
"sailing-trial","260","1184951","0.0-11.0-219.0","","","","false","","","","","","","","","","null","","1052","","0","1","null","null","arrowup","[0.675,0.325,0.15,0.85]","","",""
"sailing-trial","261","1187950","0.0-11.0-220.0","","","","false","","","","","","","","","","103","","63","","0","1","arrowleft","0","arrowleft","[0.675,0.325,0.15,0.85]","","",""
"sailing-trial","262","1191251","0.0-11.0-221.0","","","","false","","","","","","","","","","null","","1237","","0","1","null","null","arrowup","[0.675,0.325,0.15,0.85]","","",""
"sailing-trial","263","1194299","0.0-11.0-222.0","","","","false","","","","","","","","","","10","","106","","0","1","arrowleft","0","arrowleft","[0.675,0.325,0.15,0.85]","","",""
"sailing-trial","264","1196827","0.0-11.0-223.0","","","","false","","","","","","","","","","null","","1470","","0","0","null","null","arrowup","[0.675,0.325,0.15,0.85]","","",""
"sailing-trial","265","1200166","0.0-11.0-224.0","","","","false","","","","","","","","","","371","","96","","0","1","arrowleft","0","arrowleft","[0.675,0.325,0.15,0.85]","","",""
"sailing-trial","266","1201975","0.0-11.0-225.0","","","","false","","","","","","","","","","null","","713","","1","0","null","null","arrowup","[0.675,0.325,0.15,0.85]","","",""
"sailing-trial","267","1205108","0.0-11.0-226.0","","","","false","","","","","","","","","","566","","71","","0","0","arrowleft","0","arrowleft","[0.675,0.325,0.15,0.85]","","",""
"sailing-trial","268","1207616","0.0-11.0-227.0","","","","false","","","","","","","","","","null","","761","","1","1","null","null","arrowup","[0.675,0.325,0.15,0.85]","","",""
"sailing-trial","269","1211144","0.0-11.0-228.0","","","","false","","","","","","","","","","1081","","162","","1","0","arrowleft","0","arrowright","[0.675,0.325,0.15,0.85]","","",""
"sailing-trial","270","1213326","0.0-11.0-229.0","","","","false","","","","","","","","","","null","","1018","","1","0","null","null","arrowup","[0.675,0.325,0.15,0.85]","","",""
"sailing-trial","271","1216444","0.0-11.0-230.0","","","","false","","","","","","","","","","427","","173","","2","0","arrowright","1","arrowleft","[0.85,0.15,0.325,0.675]","","",""
"sailing-trial","272","1218599","0.0-11.0-231.0","","","","false","","","","","","","","","","null","","1098","","3","0","null","null","arrowup","[0.85,0.15,0.325,0.675]","","",""
"sailing-trial","273","1221798","0.0-11.0-232.0","","","","false","","","","","","","","","","677","","18","","2","0","arrowright","1","arrowleft","[0.85,0.15,0.325,0.675]","","",""
"sailing-trial","274","1224047","0.0-11.0-233.0","","","","false","","","","","","","","","","null","","823","","1","0","null","null","arrowup","[0.85,0.15,0.325,0.675]","","",""
"sailing-trial","275","1227116","0.0-11.0-234.0","","","","false","","","","","","","","","","351","","99","","0","1","arrowleft","0","arrowleft","[0.85,0.15,0.325,0.675]","","",""
"sailing-trial","276","1229065","0.0-11.0-235.0","","","","false","","","","","","","","","","null","","377","","0","1","null","null","arrowup","[0.85,0.15,0.325,0.675]","","",""
"sailing-trial","277","1232764","0.0-11.0-236.0","","","","false","","","","","","","","","","177","","399","","0","1","arrowleft","0","arrowleft","[0.85,0.15,0.325,0.675]","","",""
"sailing-trial","278","1234273","0.0-11.0-237.0","","","","false","","","","","","","","","","null","","134","","2","0","null","null","arrowup","[0.85,0.15,0.325,0.675]","","",""
"sailing-trial","279","1237149","0.0-11.0-238.0","","","","false","","","","","","","","","","70","","140","","0","1","arrowleft","0","arrowleft","[0.85,0.15,0.325,0.675]","","",""
"sailing-trial","280","1238645","0.0-11.0-239.0","","","","false","","","","","","","","","","null","","133","","2","0","null","null","arrowup","[0.85,0.15,0.325,0.675]","","",""
"sailing-trial","281","1241682","0.0-11.0-240.0","","","","false","","","","","","","","","","169","","155","","0","1","arrowleft","0","arrowleft","[0.85,0.15,0.325,0.675]","","",""
"sailing-trial","282","1243731","0.0-11.0-241.0","","","","false","","","","","","","","","","null","","139","","0","1","null","null","arrowup","[0.85,0.15,0.325,0.675]","","",""
"sailing-trial","283","1247851","0.0-11.0-242.0","","","","false","","","","","","","","","","9","","55","","0","0","arrowleft","0","arrowleft","[0.85,0.15,0.325,0.675]","","",""
"sailing-trial","284","1251130","0.0-11.0-243.0","","","","false","","","","","","","","","","null","","1259","","3","1","null","null","arrowup","[0.85,0.15,0.325,0.675]","","",""
"sailing-trial","285","1254263","0.0-11.0-244.0","","","","false","","","","","","","","","","295","","200","","0","1","arrowleft","0","arrowleft","[0.85,0.15,0.325,0.675]","","",""
"sailing-trial","286","1256264","0.0-11.0-245.0","","","","false","","","","","","","","","","null","","461","","0","1","null","null","arrowup","[0.85,0.15,0.325,0.675]","","",""
"sailing-trial","287","1259413","0.0-11.0-246.0","","","","false","","","","","","","","","","160","","69","","0","1","arrowleft","0","arrowleft","[0.675,0.325,0.15,0.85]","","",""
"sailing-trial","288","1260677","0.0-11.0-247.0","","","","false","","","","","","","","","","null","","17","","1","0","null","null","arrowup","[0.675,0.325,0.15,0.85]","","",""
"sailing-trial","289","1264013","0.0-11.0-248.0","","","","false","","","","","","","","","","237","","53","","0","1","arrowleft","0","arrowleft","[0.675,0.325,0.15,0.85]","","",""
"sailing-trial","290","1265647","0.0-11.0-249.0","","","","false","","","","","","","","","","null","","36","","3","1","null","null","arrowup","[0.675,0.325,0.15,0.85]","","",""
"sailing-trial","291","1268647","0.0-11.0-250.0","","","","false","","","","","","","","","","120","","279","","0","1","arrowleft","0","arrowleft","[0.675,0.325,0.15,0.85]","","",""
"sailing-trial","292","1270380","0.0-11.0-251.0","","","","false","","","","","","","","","","null","","67","","0","1","null","null","arrowup","[0.675,0.325,0.15,0.85]","","",""
"sailing-trial","293","1273713","0.0-11.0-252.0","","","","false","","","","","","","","","","412","","207","","0","1","arrowleft","0","arrowleft","[0.675,0.325,0.15,0.85]","","",""
"sailing-trial","294","1275146","0.0-11.0-253.0","","","","false","","","","","","","","","","null","","128","","3","0","null","null","arrowup","[0.675,0.325,0.15,0.85]","","",""
"sailing-trial","295","1278008","0.0-11.0-254.0","","","","false","","","","","","","","","","322","","231","","0","0","arrowleft","0","arrowleft","[0.675,0.325,0.15,0.85]","","",""
"sailing-trial","296","1280713","0.0-11.0-255.0","","","","false","","","","","","","","","","null","","75","","3","1","null","null","arrowup","[0.675,0.325,0.15,0.85]","","",""
"sailing-trial","297","1285181","0.0-11.0-256.0","","","","false","","","","","","","","","","95","","327","","0","0","arrowleft","0","arrowleft","[0.675,0.325,0.15,0.85]","","",""
"sailing-trial","298","1287096","0.0-11.0-257.0","","","","false","","","","","","","","","","null","","25","","3","1","null","null","arrowup","[0.675,0.325,0.15,0.85]","","",""
"sailing-trial","299","1289644","0.0-11.0-258.0","","","","false","","","","","","","","","","354","","58","","0","0","arrowleft","0","arrowleft","[0.675,0.325,0.15,0.85]","","",""
"sailing-trial","300","1291944","0.0-11.0-259.0","","","","false","","","","","","","","","","null","","723","","3","1","null","null","arrowup","[0.675,0.325,0.15,0.85]","","",""
"sailing-trial","301","1295578","0.0-11.0-260.0","","","","false","","","","","","","","","","877","","54","","3","1","arrowright","1","arrowright","[0.675,0.325,0.15,0.85]","","",""
"sailing-trial","302","1296904","0.0-11.0-261.0","","","","false","","","","","","","","","","null","","224","","3","0","null","null","arrowup","[0.675,0.325,0.15,0.85]","","",""
"sailing-trial","303","1300327","0.0-11.0-262.0","","","","false","","","","","","","","","","72","","244","","3","1","arrowright","1","arrowright","[0.675,0.325,0.15,0.85]","","",""
"sailing-trial","304","1301635","0.0-11.0-263.0","","","","false","","","","","","","","","","null","","42","","1","0","null","null","arrowup","[0.675,0.325,0.15,0.85]","","",""
"sailing-trial","305","1305328","0.0-11.0-264.0","","","","false","","","","","","","","","","192","","111","","3","1","arrowright","1","arrowright","[0.85,0.15,0.325,0.675]","","",""
"sailing-trial","306","1307360","0.0-11.0-265.0","","","","false","","","","","","","","","","null","","329","","0","1","null","null","arrowup","[0.85,0.15,0.325,0.675]","","",""
"sailing-trial","307","1309471","0.0-11.0-266.0","","","","false","","","","","","","","","","15","","13","","3","0","arrowright","1","arrowright","[0.85,0.15,0.325,0.675]","","",""
"sailing-trial","308","1310630","0.0-11.0-267.0","","","","false","","","","","","","","","","null","","84","","2","0","null","null","arrowup","[0.85,0.15,0.325,0.675]","","",""
"sailing-trial","309","1313510","0.0-11.0-268.0","","","","false","","","","","","","","","","150","","135","","3","1","arrowright","1","arrowright","[0.85,0.15,0.325,0.675]","","",""
"sailing-trial","310","1314970","0.0-11.0-269.0","","","","false","","","","","","","","","","null","","389","","1","0","null","null","arrowup","[0.85,0.15,0.325,0.675]","","",""
"sailing-trial","311","1317876","0.0-11.0-270.0","","","","false","","","","","","","","","","173","","42","","3","1","arrowright","1","arrowright","[0.85,0.15,0.325,0.675]","","",""
"sailing-trial","312","1318994","0.0-11.0-271.0","","","","false","","","","","","","","","","null","","5","","0","0","null","null","arrowup","[0.85,0.15,0.325,0.675]","","",""
"sailing-trial","313","1322327","0.0-11.0-272.0","","","","false","","","","","","","","","","544","","274","","3","1","arrowright","1","arrowright","[0.85,0.15,0.325,0.675]","","",""
"sailing-trial","314","1324009","0.0-11.0-273.0","","","","false","","","","","","","","","","null","","42","","3","1","null","null","arrowup","[0.85,0.15,0.325,0.675]","","",""
"sailing-trial","315","1327760","0.0-11.0-274.0","","","","false","","","","","","","","","","898","","262","","3","1","arrowright","1","arrowright","[0.85,0.15,0.325,0.675]","","",""
"sailing-trial","316","1329178","0.0-11.0-275.0","","","","false","","","","","","","","","","null","","222","","1","0","null","null","arrowup","[0.85,0.15,0.325,0.675]","","",""
"sailing-trial","317","1332293","0.0-11.0-276.0","","","","false","","","","","","","","","","10","","278","","3","1","arrowright","1","arrowright","[0.85,0.15,0.325,0.675]","","",""
"sailing-trial","318","1334658","0.0-11.0-277.0","","","","false","","","","","","","","","","null","","423","","0","1","null","null","arrowup","[0.85,0.15,0.325,0.675]","","",""
"sailing-trial","319","1338375","0.0-11.0-278.0","","","","false","","","","","","","","","","495","","433","","3","1","arrowright","1","arrowright","[0.85,0.15,0.325,0.675]","","",""
"sailing-trial","320","1340926","0.0-11.0-279.0","","","","false","","","","","","","","","","null","","533","","0","1","null","null","arrowup","[0.85,0.15,0.325,0.675]","","",""
"sailing-trial","321","1344708","0.0-11.0-280.0","","","","false","","","","","","","","","","690","","2","","3","1","arrowright","1","arrowright","[0.85,0.15,0.325,0.675]","","",""
"sailing-trial","322","1347259","0.0-11.0-281.0","","","","false","","","","","","","","","","null","","631","","1","1","null","null","arrowup","[0.85,0.15,0.325,0.675]","","",""
"sailing-trial","323","1350383","0.0-11.0-282.0","","","","false","","","","","","","","","","392","","78","","3","0","arrowright","1","arrowright","[0.85,0.15,0.325,0.675]","","",""
"sailing-trial","324","1352463","0.0-11.0-283.0","","","","false","","","","","","","","","","null","","901","","3","0","null","null","arrowup","[0.85,0.15,0.325,0.675]","","",""
"sailing-trial","325","1358585","0.0-11.0-284.0","","","","false","","","","","","","","","","3620","","141","","3","0","arrowright","1","arrowright","[0.325,0.675,0.85,0.15]","","",""
"sailing-trial","326","1360650","0.0-11.0-285.0","","","","false","","","","","","","","","","null","","993","","3","0","null","null","arrowup","[0.325,0.675,0.85,0.15]","","",""
"sailing-trial","327","1364563","0.0-11.0-286.0","","","","false","","","","","","","","","","728","","547","","0","0","arrowleft","0","arrowleft","[0.325,0.675,0.85,0.15]","","",""
"sailing-trial","328","1366872","0.0-11.0-287.0","","","","false","","","","","","","","","","null","","1021","","2","0","null","null","arrowup","[0.325,0.675,0.85,0.15]","","",""
"sailing-trial","329","1370065","0.0-11.0-288.0","","","","false","","","","","","","","","","699","","134","","1","0","arrowleft","0","arrowright","[0.325,0.675,0.85,0.15]","","",""
"sailing-trial","330","1372256","0.0-11.0-289.0","","","","false","","","","","","","","","","null","","983","","1","0","null","null","arrowup","[0.325,0.675,0.85,0.15]","","",""
"sailing-trial","331","1374788","0.0-11.0-290.0","","","","false","","","","","","","","","","93","","33","","3","0","arrowright","1","arrowright","[0.325,0.675,0.85,0.15]","","",""
"sailing-trial","332","1377840","0.0-11.0-291.0","","","","false","","","","","","","","","","null","","1222","","0","1","null","null","arrowup","[0.325,0.675,0.85,0.15]","","",""
"sailing-trial","333","1380840","0.0-11.0-292.0","","","","false","","","","","","","","","","105","","144","","0","1","arrowleft","0","arrowleft","[0.325,0.675,0.85,0.15]","","",""
"sailing-trial","334","1383074","0.0-11.0-293.0","","","","false","","","","","","","","","","null","","246","","2","1","null","null","arrowup","[0.325,0.675,0.85,0.15]","","",""
"sailing-trial","335","1385469","0.0-11.0-294.0","","","","false","","","","","","","","","","171","","149","","0","0","arrowleft","0","arrowleft","[0.325,0.675,0.85,0.15]","","",""
"sailing-trial","336","1387256","0.0-11.0-295.0","","","","false","","","","","","","","","","null","","202","","2","1","null","null","arrowup","[0.325,0.675,0.85,0.15]","","",""
"sailing-trial","337","1390440","0.0-11.0-296.0","","","","false","","","","","","","","","","175","","369","","0","1","arrowleft","0","arrowleft","[0.325,0.675,0.85,0.15]","","",""
"sailing-trial","338","1392440","0.0-11.0-297.0","","","","false","","","","","","","","","","null","","166","","3","1","null","null","arrowup","[0.325,0.675,0.85,0.15]","","",""
"sailing-trial","339","1395058","0.0-11.0-298.0","","","","false","","","","","","","","","","104","","307","","0","0","arrowleft","0","arrowleft","[0.325,0.675,0.85,0.15]","","",""
"sailing-trial","340","1397340","0.0-11.0-299.0","","","","false","","","","","","","","","","null","","219","","1","1","null","null","arrowup","[0.325,0.675,0.85,0.15]","","",""
"sailing-trial","341","1400504","0.0-11.0-300.0","","","","false","","","","","","","","","","397","","144","","0","0","arrowleft","0","arrowleft","[0.325,0.675,0.85,0.15]","","",""
"sailing-trial","342","1402156","0.0-11.0-301.0","","","","false","","","","","","","","","","null","","14","","0","1","null","null","arrowup","[0.325,0.675,0.85,0.15]","","",""
"sailing-trial","343","1405273","0.0-11.0-302.0","","","","false","","","","","","","","","","221","","456","","0","0","arrowleft","0","arrowleft","[0.325,0.675,0.85,0.15]","","",""
"sailing-trial","344","1408373","0.0-11.0-303.0","","","","false","","","","","","","","","","null","","74","","2","0","null","null","arrowup","[0.325,0.675,0.85,0.15]","","",""
"sailing-trial","345","1414639","0.0-11.0-304.0","","","","false","","","","","","","","","","3539","","115","","0","1","arrowleft","0","arrowleft","[0.325,0.675,0.85,0.15]","","",""
"sailing-trial","346","1415823","0.0-11.0-305.0","","","","false","","","","","","","","","","null","","114","","3","0","null","null","arrowup","[0.325,0.675,0.85,0.15]","","",""
"sailing-trial","347","1418371","0.0-11.0-306.0","","","","false","","","","","","","","","","219","","203","","0","0","arrowleft","0","arrowleft","[0.15,0.85,0.675,0.325]","","",""
"sailing-trial","348","1420238","0.0-11.0-307.0","","","","false","","","","","","","","","","null","","142","","3","1","null","null","arrowup","[0.15,0.85,0.675,0.325]","","",""
"sailing-trial","349","1423704","0.0-11.0-308.0","","","","false","","","","","","","","","","54","","273","","3","1","arrowright","1","arrowright","[0.15,0.85,0.675,0.325]","","",""
"sailing-trial","350","1424899","0.0-11.0-309.0","","","","false","","","","","","","","","","null","","24","","0","0","null","null","arrowup","[0.15,0.85,0.675,0.325]","","",""
"sailing-trial","351","1427852","0.0-11.0-310.0","","","","false","","","","","","","","","","35","","170","","3","1","arrowright","1","arrowright","[0.15,0.85,0.675,0.325]","","",""
"sailing-trial","352","1429587","0.0-11.0-311.0","","","","false","","","","","","","","","","null","","119","","1","1","null","null","arrowup","[0.15,0.85,0.675,0.325]","","",""
"sailing-trial","353","1432925","0.0-11.0-312.0","","","","false","","","","","","","","","","67","","234","","3","0","arrowright","1","arrowright","[0.15,0.85,0.675,0.325]","","",""
"sailing-trial","354","1434602","0.0-11.0-313.0","","","","false","","","","","","","","","","null","","105","","3","1","null","null","arrowup","[0.15,0.85,0.675,0.325]","","",""
"sailing-trial","355","1437341","0.0-11.0-314.0","","","","false","","","","","","","","","","98","","402","","3","0","arrowright","1","arrowright","[0.15,0.85,0.675,0.325]","","",""
"sailing-trial","356","1439182","0.0-11.0-315.0","","","","false","","","","","","","","","","null","","319","","2","0","null","null","arrowup","[0.15,0.85,0.675,0.325]","","",""
"sailing-trial","357","1442047","0.0-11.0-316.0","","","","false","","","","","","","","","","330","","15","","3","0","arrowright","1","arrowright","[0.15,0.85,0.675,0.325]","","",""
"sailing-trial","358","1443717","0.0-11.0-317.0","","","","false","","","","","","","","","","null","","138","","1","1","null","null","arrowup","[0.15,0.85,0.675,0.325]","","",""
"sailing-trial","359","1446967","0.0-11.0-318.0","","","","false","","","","","","","","","","241","","299","","3","1","arrowright","1","arrowright","[0.15,0.85,0.675,0.325]","","",""
"sailing-trial","360","1448418","0.0-11.0-319.0","","","","false","","","","","","","","","","null","","399","","0","0","null","null","arrowup","[0.15,0.85,0.675,0.325]","","",""
"sailing-trial","361","1450839","0.0-11.0-320.0","","","","false","","","","","","","","","","68","","213","","3","0","arrowright","1","arrowright","[0.15,0.85,0.675,0.325]","","",""
"sailing-trial","362","1452670","0.0-11.0-321.0","","","","false","","","","","","","","","","null","","310","","3","0","null","null","arrowup","[0.15,0.85,0.675,0.325]","","",""
"sailing-trial","363","1455291","0.0-11.0-322.0","","","","false","","","","","","","","","","307","","205","","3","0","arrowright","1","arrowright","[0.15,0.85,0.675,0.325]","","",""
"sailing-trial","364","1457329","0.0-11.0-323.0","","","","false","","","","","","","","","","null","","920","","0","0","null","null","arrowup","[0.15,0.85,0.675,0.325]","","",""
"sailing-trial","365","1461033","0.0-11.0-324.0","","","","false","","","","","","","","","","739","","283","","2","1","arrowright","1","arrowleft","[0.15,0.85,0.675,0.325]","","",""
"sailing-trial","366","1463933","0.0-11.0-325.0","","","","false","","","","","","","","","","null","","1247","","3","1","null","null","arrowup","[0.15,0.85,0.675,0.325]","","",""
"sailing-trial","367","1467600","0.0-11.0-326.0","","","","false","","","","","","","","","","571","","205","","2","1","arrowright","1","arrowleft","[0.325,0.675,0.85,0.15]","","",""
"sailing-trial","368","1469526","0.0-11.0-327.0","","","","false","","","","","","","","","","null","","872","","3","0","null","null","arrowup","[0.325,0.675,0.85,0.15]","","",""
"sailing-trial","369","1472932","0.0-11.0-328.0","","","","false","","","","","","","","","","480","","255","","2","1","arrowright","1","arrowleft","[0.325,0.675,0.85,0.15]","","",""
"sailing-trial","370","1475233","0.0-11.0-329.0","","","","false","","","","","","","","","","null","","739","","2","1","null","null","arrowup","[0.325,0.675,0.85,0.15]","","",""
"sailing-trial","371","1478814","0.0-11.0-330.0","","","","false","","","","","","","","","","205","","410","","2","1","arrowright","1","arrowleft","[0.325,0.675,0.85,0.15]","","",""
"sailing-trial","372","1481481","0.0-11.0-331.0","","","","false","","","","","","","","","","null","","719","","1","1","null","null","arrowup","[0.325,0.675,0.85,0.15]","","",""
"sailing-trial","373","1484836","0.0-11.0-332.0","","","","false","","","","","","","","","","458","","240","","2","0","arrowright","1","arrowleft","[0.325,0.675,0.85,0.15]","","",""
"sailing-trial","374","1487180","0.0-11.0-333.0","","","","false","","","","","","","","","","null","","895","","0","0","null","null","arrowup","[0.325,0.675,0.85,0.15]","","",""
"sailing-trial","375","1490848","0.0-11.0-334.0","","","","false","","","","","","","","","","769","","110","","2","1","arrowright","1","arrowleft","[0.325,0.675,0.85,0.15]","","",""
"sailing-trial","376","1492915","0.0-11.0-335.0","","","","false","","","","","","","","","","null","","182","","1","1","null","null","arrowup","[0.325,0.675,0.85,0.15]","","",""
"sailing-trial","377","1496315","0.0-11.0-336.0","","","","false","","","","","","","","","","162","","120","","2","1","arrowright","1","arrowleft","[0.325,0.675,0.85,0.15]","","",""
"sailing-trial","378","1499948","0.0-11.0-337.0","","","","false","","","","","","","","","","null","","1943","","0","1","null","null","arrowup","[0.325,0.675,0.85,0.15]","","",""
"sailing-trial","379","1503080","0.0-11.0-338.0","","","","false","","","","","","","","","","236","","72","","2","1","arrowright","1","arrowleft","[0.325,0.675,0.85,0.15]","","",""
"sailing-trial","380","1505596","0.0-11.0-339.0","","","","false","","","","","","","","","","null","","799","","2","1","null","null","arrowup","[0.325,0.675,0.85,0.15]","","",""
"sailing-trial","381","1509564","0.0-11.0-340.0","","","","false","","","","","","","","","","245","","894","","2","1","arrowright","1","arrowleft","[0.325,0.675,0.85,0.15]","","",""
"sailing-trial","382","1512280","0.0-11.0-341.0","","","","false","","","","","","","","","","null","","955","","2","1","null","null","arrowup","[0.325,0.675,0.85,0.15]","","",""
"sailing-trial","383","1516956","0.0-11.0-342.0","","","","false","","","","","","","","","","595","","187","","2","0","arrowright","1","arrowleft","[0.675,0.325,0.15,0.85]","","",""
"sailing-trial","384","1519038","0.0-11.0-343.0","","","","false","","","","","","","","","","null","","835","","2","0","null","null","arrowup","[0.675,0.325,0.15,0.85]","","",""
"sailing-trial","385","1522764","0.0-11.0-344.0","","","","false","","","","","","","","","","894","","113","","0","1","arrowleft","0","arrowleft","[0.675,0.325,0.15,0.85]","","",""
"sailing-trial","386","1524871","0.0-11.0-345.0","","","","false","","","","","","","","","","null","","1091","","2","0","null","null","arrowup","[0.675,0.325,0.15,0.85]","","",""
"sailing-trial","387","1528861","0.0-11.0-346.0","","","","false","","","","","","","","","","500","","5","","0","1","arrowleft","0","arrowleft","[0.675,0.325,0.15,0.85]","","",""
"sailing-trial","388","1530913","0.0-11.0-347.0","","","","false","","","","","","","","","","null","","104","","0","1","null","null","arrowup","[0.675,0.325,0.15,0.85]","","",""
"sailing-trial","389","1533895","0.0-11.0-348.0","","","","false","","","","","","","","","","52","","126","","0","1","arrowleft","0","arrowleft","[0.675,0.325,0.15,0.85]","","",""
"sailing-trial","390","1535829","0.0-11.0-349.0","","","","false","","","","","","","","","","null","","191","","3","1","null","null","arrowup","[0.675,0.325,0.15,0.85]","","",""
"sailing-trial","391","1539178","0.0-11.0-350.0","","","","false","","","","","","","","","","3","","744","","0","1","arrowleft","0","arrowleft","[0.675,0.325,0.15,0.85]","","",""
"sailing-trial","392","1540411","0.0-11.0-351.0","","","","false","","","","","","","","","","null","","114","","2","0","null","null","arrowup","[0.675,0.325,0.15,0.85]","","",""
"sailing-trial","393","1543557","0.0-11.0-352.0","","","","false","","","","","","","","","","99","","608","","0","0","arrowleft","0","arrowleft","[0.675,0.325,0.15,0.85]","","",""
"sailing-trial","394","1545253","0.0-11.0-353.0","","","","false","","","","","","","","","","null","","309","","0","0","null","null","arrowup","[0.675,0.325,0.15,0.85]","","",""
"sailing-trial","395","1548245","0.0-11.0-354.0","","","","false","","","","","","","","","","139","","38","","0","1","arrowleft","0","arrowleft","[0.675,0.325,0.15,0.85]","","",""
"sailing-trial","396","1549415","0.0-11.0-355.0","","","","false","","","","","","","","","","null","","66","","2","0","null","null","arrowup","[0.675,0.325,0.15,0.85]","","",""
"sailing-trial","397","1551893","0.0-11.0-356.0","","","","false","","","","","","","","","","208","","94","","0","0","arrowleft","0","arrowleft","[0.675,0.325,0.15,0.85]","","",""
"sailing-trial","398","1553065","0.0-11.0-357.0","","","","false","","","","","","","","","","null","","4","","0","0","null","null","arrowup","[0.675,0.325,0.15,0.85]","","",""
"sailing-trial","399","1557012","0.0-11.0-358.0","","","","false","","","","","","","","","","93","","934","","0","1","arrowleft","0","arrowleft","[0.675,0.325,0.15,0.85]","","",""
"sailing-trial","400","1558828","0.0-11.0-359.0","","","","false","","","","","","","","","","null","","138","","3","1","null","null","arrowup","[0.675,0.325,0.15,0.85]","","",""
"sailing-trial","401","1561795","0.0-11.0-360.0","","","","false","","","","","","","","","","216","","227","","0","1","arrowleft","0","arrowleft","[0.675,0.325,0.15,0.85]","","",""
"sailing-trial","402","1563116","0.0-11.0-361.0","","","","false","","","","","","","","","","null","","132","","2","0","null","null","arrowup","[0.675,0.325,0.15,0.85]","","",""
"sailing-trial","403","1565683","0.0-11.0-362.0","","","","false","","","","","","","","","","194","","103","","0","0","arrowleft","0","arrowleft","[0.675,0.325,0.15,0.85]","","",""
"sailing-trial","404","1566907","0.0-11.0-363.0","","","","false","","","","","","","","","","null","","95","","2","0","null","null","arrowup","[0.675,0.325,0.15,0.85]","","",""
"sailing-trial","405","1569585","0.0-11.0-364.0","","","","false","","","","","","","","","","223","","162","","0","0","arrowleft","0","arrowleft","[0.15,0.85,0.675,0.325]","","",""
"sailing-trial","406","1571160","0.0-11.0-365.0","","","","false","","","","","","","","","","null","","11","","2","1","null","null","arrowup","[0.15,0.85,0.675,0.325]","","",""
"sailing-trial","407","1573681","0.0-11.0-366.0","","","","false","","","","","","","","","","218","","150","","2","0","arrowright","1","arrowleft","[0.15,0.85,0.675,0.325]","","",""
"sailing-trial","408","1576593","0.0-11.0-367.0","","","","false","","","","","","","","","","null","","1009","","2","1","null","null","arrowup","[0.15,0.85,0.675,0.325]","","",""
"sailing-trial","409","1579593","0.0-11.0-368.0","","","","false","","","","","","","","","","218","","19","","2","1","arrowright","1","arrowleft","[0.15,0.85,0.675,0.325]","","",""
"sailing-trial","410","1582126","0.0-11.0-369.0","","","","false","","","","","","","","","","null","","940","","3","1","null","null","arrowup","[0.15,0.85,0.675,0.325]","","",""
"sailing-trial","411","1585960","0.0-11.0-370.0","","","","false","","","","","","","","","","428","","680","","2","1","arrowright","1","arrowleft","[0.15,0.85,0.675,0.325]","","",""
"sailing-trial","412","1588580","0.0-11.0-371.0","","","","false","","","","","","","","","","null","","1232","","3","0","null","null","arrowup","[0.15,0.85,0.675,0.325]","","",""
"sailing-trial","413","1591910","0.0-11.0-372.0","","","","false","","","","","","","","","","548","","170","","2","1","arrowright","1","arrowleft","[0.15,0.85,0.675,0.325]","","",""
"sailing-trial","414","1594274","0.0-11.0-373.0","","","","false","","","","","","","","","","null","","1036","","2","0","null","null","arrowup","[0.15,0.85,0.675,0.325]","","",""
"sailing-trial","415","1597231","0.0-11.0-374.0","","","","false","","","","","","","","","","543","","284","","2","0","arrowright","1","arrowleft","[0.15,0.85,0.675,0.325]","","",""
"sailing-trial","416","1599177","0.0-11.0-375.0","","","","false","","","","","","","","","","null","","777","","2","0","null","null","arrowup","[0.15,0.85,0.675,0.325]","","",""
"sailing-trial","417","1602736","0.0-11.0-376.0","","","","false","","","","","","","","","","505","","723","","3","0","arrowright","1","arrowright","[0.15,0.85,0.675,0.325]","","",""
"sailing-trial","418","1605409","0.0-11.0-377.0","","","","false","","","","","","","","","","null","","948","","1","1","null","null","arrowup","[0.15,0.85,0.675,0.325]","","",""
"sailing-trial","419","1608176","0.0-11.0-378.0","","","","false","","","","","","","","","","12","","158","","1","1","arrowleft","0","arrowright","[0.15,0.85,0.675,0.325]","","",""
"sailing-trial","420","1609961","0.0-11.0-379.0","","","","false","","","","","","","","","","null","","774","","3","0","null","null","arrowup","[0.15,0.85,0.675,0.325]","","",""
"sailing-trial","421","1613092","0.0-11.0-380.0","","","","false","","","","","","","","","","322","","123","","1","1","arrowleft","0","arrowright","[0.325,0.675,0.85,0.15]","","",""
"sailing-trial","422","1614945","0.0-11.0-381.0","","","","false","","","","","","","","","","null","","768","","0","0","null","null","arrowup","[0.325,0.675,0.85,0.15]","","",""
"sailing-trial","423","1617807","0.0-11.0-382.0","","","","false","","","","","","","","","","76","","139","","1","1","arrowleft","0","arrowright","[0.325,0.675,0.85,0.15]","","",""
"sailing-trial","424","1620474","0.0-11.0-383.0","","","","false","","","","","","","","","","null","","926","","1","1","null","null","arrowup","[0.325,0.675,0.85,0.15]","","",""
"sailing-trial","425","1624190","0.0-11.0-384.0","","","","false","","","","","","","","","","556","","97","","1","1","arrowleft","0","arrowright","[0.325,0.675,0.85,0.15]","","",""
"sailing-trial","426","1628441","0.0-11.0-385.0","","","","false","","","","","","","","","","null","","2455","","1","1","null","null","arrowup","[0.325,0.675,0.85,0.15]","","",""
"sailing-trial","427","1632199","0.0-11.0-386.0","","","","false","","","","","","","","","","951","","215","","1","0","arrowleft","0","arrowright","[0.325,0.675,0.85,0.15]","","",""
"sailing-trial","428","1634649","0.0-11.0-387.0","","","","false","","","","","","","","","","null","","911","","0","0","null","null","arrowup","[0.325,0.675,0.85,0.15]","","",""
"sailing-trial","429","1638756","0.0-11.0-388.0","","","","false","","","","","","","","","","748","","293","","1","1","arrowleft","0","arrowright","[0.325,0.675,0.85,0.15]","","",""
"sailing-trial","430","1640633","0.0-11.0-389.0","","","","false","","","","","","","","","","null","","76","","0","0","null","null","arrowup","[0.325,0.675,0.85,0.15]","","",""
"sailing-trial","431","1644239","0.0-11.0-390.0","","","","false","","","","","","","","","","860","","306","","1","0","arrowleft","0","arrowright","[0.325,0.675,0.85,0.15]","","",""
"sailing-trial","432","1646564","0.0-11.0-391.0","","","","false","","","","","","","","","","null","","859","","3","0","null","null","arrowup","[0.325,0.675,0.85,0.15]","","",""
"sailing-trial","433","1649964","0.0-11.0-392.0","","","","false","","","","","","","","","","812","","123","","0","0","arrowleft","0","arrowleft","[0.325,0.675,0.85,0.15]","","",""
"sailing-trial","434","1652152","0.0-11.0-393.0","","","","false","","","","","","","","","","null","","829","","3","0","null","null","arrowup","[0.325,0.675,0.85,0.15]","","",""
"sailing-trial","435","1656539","0.0-11.0-394.0","","","","false","","","","","","","","","","952","","790","","1","1","arrowleft","0","arrowright","[0.325,0.675,0.85,0.15]","","",""
"sailing-trial","436","1657750","0.0-11.0-395.0","","","","false","","","","","","","","","","null","","21","","1","0","null","null","arrowup","[0.325,0.675,0.85,0.15]","","",""
"sailing-trial","437","1660667","0.0-11.0-396.0","","","","false","","","","","","","","","","248","","475","","1","0","arrowleft","0","arrowright","[0.325,0.675,0.85,0.15]","","",""
"sailing-trial","438","1661921","0.0-11.0-397.0","","","","false","","","","","","","","","","null","","171","","3","0","null","null","arrowup","[0.325,0.675,0.85,0.15]","","",""
"sailing-trial","439","1664738","0.0-11.0-398.0","","","","false","","","","","","","","","","82","","29","","2","1","arrowright","1","arrowleft","[0.325,0.675,0.85,0.15]","","",""
"sailing-trial","440","1666790","0.0-11.0-399.0","","","","false","","","","","","","","","","null","","801","","0","0","null","null","arrowup","[0.325,0.675,0.85,0.15]","","",""
"instructions","441","1669792","0.0-12.0","","","","","","","","","","3002","","","","","","","","","","","","","","","","[{""page_index"":0,""viewing_time"":3001}]"
"survey-debrief","442","1765454","0.0-13.0","","","","","","","","","","95663","","","","","","","","","","","","","","{""difficulty"":""5"",""fun"":""2"",""clarity"":""5"",""strategy"":""If a house gave me gold once I would stick to that house. If the house stopped giving me gold 2 times in a row, I would go to one of the good houses I found when the fog came. Then I would repeat that."",""feedback"":""No.""}","",""
