"trial_type","trial_index","time_elapsed","internal_node_id","value","metadata","success","timeout","failed_images","failed_audio","failed_video","browser_interaction","low_quality","rt","stimulus","response","button_pressed","island_rt","island_response","boat_rt","boat_response","boat","reward","island_key","island","boat_key","reward_probabilities","responses","num_errors","view_history"
"pavlovia","0","6","0.0-0.0","","","","","","","","","","","","","","","","","","","","","","","","","",""
"call-function","1","7","0.0-1.0","","{""task_version"":""sailing_part1_v1"",""task_condition"":""good"",""boats"":[""C"",""D"",""B"",""A""],""boats_demo"":[""E"",""G"",""H"",""F""],""islands"":[""A"",""B""],""subject_id"":""14071"",""age"":""13"",""gender"":""Female""}","","","","","","","","","","","","","","","","","","","","","","","",""
"preload","2","1315","0.0-2.0","","","true","false","[]","[]","[]","[{""event"":""fullscreenenter"",""trial"":3,""time"":3190}]","false","","","","","","","","","","","","","","","","",""
"fullscreen","3","4169","0.0-3.0","","","true","","","","","","","","","","","","","","","","","","","","","","",""
"audio-keyboard-response","4","5625","0.0-4.0-0.0","","","","","","","","","","1066.6666666666667","audio/beep_loop.wav"," ","","","","","","","","","","","","","",""
"audio-test","5","7435","0.0-4.0-1.0","","","","","","","","","","null","audio/turtle.mp3","","3","","","","","","","","","","","","",""
"audio-test","6","9630","0.0-4.0-2.0","","","","","","","","","","null","audio/shark.mp3","","2","","","","","","","","","","","","",""
"sailing-instructions","7","38397","0.0-5.0-0.0-0.0","","","","","","","","","","","","","","null","null","null","null","null","null","","","","","","",""
"sailing-trial","8","59428","0.0-5.0-0.0-1.0-0.0","","","","false","","","","","","","","","","19734.900000000023","","null","","null","null","arrowleft","0","null","null","","",""
"sailing-trial","9","62218","0.0-5.0-0.0-1.0-1.0","","","","false","","","","","","","","","","1519.3999999999069","","null","","null","null","arrowright","1","null","null","","",""
"sailing-trial","10","64928","0.0-5.0-0.0-1.0-2.0","","","","false","","","","","","","","","","1605.9000000000233","","null","","null","null","arrowleft","0","null","null","","",""
"sailing-instructions","11","106792","0.0-5.0-0.0-2.0","","","","","","","","","","","","","","null","null","null","null","0","null","","","","","","",""
"sailing-trial","12","112083","0.0-5.0-0.0-3.0-0.0","","","","false","","","","","","","","","","null","","1663.5999999999767","","2","1","null","null","arrowleft","[1,1,1,1]","","",""
"sailing-trial","13","117232","0.0-5.0-0.0-3.0-1.0","","","","false","","","","","","","","","","null","","1314.4000000000233","","3","1","null","null","arrowright","[1,1,1,1]","","",""
"sailing-trial","14","121705","0.0-5.0-0.0-3.0-2.0","","","","false","","","","","","","","","","null","","1367.7000000000698","","3","0","null","null","arrowright","[0,0,0,0]","","",""
"sailing-instructions","15","129443","0.0-5.0-0.0-4.0","","","","","","","","","","","","","","null","null","null","null","null","null","","","","","","",""
"sailing-comprehension","16","146483","0.0-5.0-0.0-5.0","","","","","","","","","","15447.5","","","","","","","","","","","","","","[""true"",""true"",""false"",""true""]","0",""
"sailing-instructions","17","216487","0.0-6.0-0.0-0.0","","","","","","","","","","","","","","null","null","null","null","null","null","","","","","","",""
"sailing-comprehension","18","226584","0.0-6.0-0.0-1.0","","","","","","","","","","9064.29999999993","","","","","","","","","","","","","","[""true"",""false"",""true""]","0",""
"sailing-instructions","19","240448","0.0-7.0-0.0-0.0","","","","","","","","","","","","","","null","null","null","null","null","null","","","","","","",""
"sailing-trial","20","245536","0.0-7.0-0.0-1.0-0.0","","","","false","","","","","","","","","","null","","2440.5","","0","0","null","null","arrowup","[0.2,0.8,0.2,0.8]","","",""
"sailing-trial","21","249841","0.0-7.0-0.0-1.0-1.0","","","","false","","","","","","","","","","null","","2256.9000000000233","","1","1","null","null","arrowup","[0.2,0.8,0.2,0.8]","","",""
"sailing-trial","22","252232","0.0-7.0-0.0-1.0-2.0","","","","false","","","","","","","","","","null","","1022.6000000000931","","2","0","null","null","arrowup","[0.2,0.8,0.2,0.8]","","",""
"sailing-trial","23","255393","0.0-7.0-0.0-1.0-3.0","","","","false","","","","","","","","","","null","","1193","","3","1","null","null","arrowup","[0.2,0.8,0.2,0.8]","","",""
"sailing-comprehension","24","261323","0.0-7.0-0.0-2.0","","","","","","","","","","4703.20000000007","","","","","","","","","","","","","","[""false""]","0",""
"sailing-instructions","25","271547","0.0-8.0-0.0-0.0","","","","","","","","","","","","","","null","null","null","null","null","null","","","","","","",""
"sailing-comprehension","26","275656","0.0-8.0-0.0-1.0","","","","","","","","","","3269.0999999999767","","","","","","","","","","","","","","[""true""]","0",""
"sailing-instructions","27","309544","0.0-9.0-0.0-0.0","","","","","","","","","","","","","","null","null","null","null","null","null","","","","","","",""
"sailing-trial","28","317830","0.0-9.0-0.0-1.0-0.0","","","","false","","","","","","","","","","1644.7999999998137","","893.9000000001397","","1","1","arrowleft","0","arrowright","[0.2,0.8,0.2,0.8]","","",""
"sailing-trial","29","321868","0.0-9.0-0.0-1.0-1.0","","","","false","","","","","","","","","","765.4000000001397","","317.60000000009313","","2","0","arrowright","1","arrowleft","[0.2,0.8,0.2,0.8]","","",""
"sailing-trial","30","325328","0.0-9.0-0.0-1.0-2.0","","","","false","","","","","","","","","","null","","1639.8999999999069","","0","0","null","null","arrowup","[0.2,0.8,0.2,0.8]","","",""
"sailing-trial","31","329809","0.0-9.0-0.0-1.0-3.0","","","","false","","","","","","","","","","965.6999999999534","","382.5","","0","0","arrowleft","0","arrowleft","[0.2,0.8,0.2,0.8]","","",""
"sailing-trial","32","333782","0.0-9.0-0.0-1.0-4.0","","","","false","","","","","","","","","","null","","1461.1000000000931","","3","1","null","null","arrowup","[0.2,0.8,0.2,0.8]","","",""
"sailing-trial","33","338147","0.0-9.0-0.0-1.0-5.0","","","","false","","","","","","","","","","552.1999999999534","","553","","3","1","arrowright","1","arrowright","[0.2,0.8,0.2,0.8]","","",""
"sailing-instructions","34","367830","0.0-10.0","","","","","","","","","","","","","","null","null","null","null","null","null","","","","","","",""
"sailing-trial","35","375084","0.0-11.0-0.0","","","","false","","","","","","","","","","1934.3000000000466","","334","","2","0","arrowright","1","arrowleft","[0.85,0.15,0.325,0.675]","","",""
"sailing-trial","36","378184","0.0-11.0-1.0","","","","false","","","","","","","","","","null","","1123.1000000000931","","3","1","null","null","arrowup","[0.85,0.15,0.325,0.675]","","",""
"sailing-trial","37","382317","0.0-11.0-2.0","","","","false","","","","","","","","","","562.5","","401.5","","3","1","arrowright","1","arrowright","[0.85,0.15,0.325,0.675]","","",""
"sailing-trial","38","386311","0.0-11.0-3.0","","","","false","","","","","","","","","","null","","1973.1999999999534","","2","0","null","null","arrowup","[0.85,0.15,0.325,0.675]","","",""
"sailing-trial","39","390740","0.0-11.0-4.0","","","","false","","","","","","","","","","643.1000000000931","","114.5999999998603","","1","0","arrowleft","0","arrowright","[0.85,0.15,0.325,0.675]","","",""
"sailing-trial","40","393518","0.0-11.0-5.0","","","","false","","","","","","","","","","null","","994.5","","0","1","null","null","arrowup","[0.85,0.15,0.325,0.675]","","",""
"sailing-trial","41","397620","0.0-11.0-6.0","","","","false","","","","","","","","","","495.20000000018626","","478","","3","1","arrowright","1","arrowright","[0.85,0.15,0.325,0.675]","","",""
"sailing-trial","42","399591","0.0-11.0-7.0","","","","false","","","","","","","","","","null","","965","","2","0","null","null","arrowup","[0.85,0.15,0.325,0.675]","","",""
"sailing-trial","43","404060","0.0-11.0-8.0","","","","false","","","","","","","","","","738.6000000000931","","534.8999999999069","","3","0","arrowright","1","arrowright","[0.85,0.15,0.325,0.675]","","",""
"sailing-trial","44","407042","0.0-11.0-9.0","","","","false","","","","","","","","","","null","","1085.1999999999534","","3","0","null","null","arrowup","[0.85,0.15,0.325,0.675]","","",""
"sailing-trial","45","411471","0.0-11.0-10.0","","","","false","","","","","","","","","","662.5999999998603","","469.70000000018626","","0","1","arrowleft","0","arrowleft","[0.85,0.15,0.325,0.675]","","",""
"sailing-trial","46","415438","0.0-11.0-11.0","","","","false","","","","","","","","","","null","","2003.3999999999069","","1","1","null","null","arrowup","[0.85,0.15,0.325,0.675]","","",""
"sailing-trial","47","419772","0.0-11.0-12.0","","","","false","","","","","","","","","","656.5","","232.89999999990687","","0","1","arrowleft","0","arrowleft","[0.85,0.15,0.325,0.675]","","",""
"sailing-trial","48","422296","0.0-11.0-13.0","","","","false","","","","","","","","","","null","","924.8999999999069","","2","0","null","null","arrowup","[0.85,0.15,0.325,0.675]","","",""
"sailing-trial","49","427574","0.0-11.0-14.0","","","","false","","","","","","","","","","914.5","","463.89999999990687","","0","1","arrowleft","0","arrowleft","[0.85,0.15,0.325,0.675]","","",""
"sailing-trial","50","431666","0.0-11.0-15.0","","","","false","","","","","","","","","","null","","1224.1999999999534","","3","0","null","null","arrowup","[0.85,0.15,0.325,0.675]","","",""
"sailing-trial","51","436412","0.0-11.0-16.0","","","","false","","","","","","","","","","969.5","","350.20000000018626","","2","0","arrowright","1","arrowleft","[0.675,0.325,0.15,0.85]","","",""
"sailing-trial","52","439059","0.0-11.0-17.0","","","","false","","","","","","","","","","null","","1240.6000000000931","","1","0","null","null","arrowup","[0.675,0.325,0.15,0.85]","","",""
"sailing-trial","53","443557","0.0-11.0-18.0","","","","false","","","","","","","","","","424.79999999981374","","443.19999999995343","","3","1","arrowright","1","arrowright","[0.675,0.325,0.15,0.85]","","",""
"sailing-trial","54","446384","0.0-11.0-19.0","","","","false","","","","","","","","","","null","","1196.9000000001397","","0","0","null","null","arrowup","[0.675,0.325,0.15,0.85]","","",""
"sailing-trial","55","450839","0.0-11.0-20.0","","","","false","","","","","","","","","","987.1000000000931","","219","","3","1","arrowright","1","arrowright","[0.675,0.325,0.15,0.85]","","",""
"sailing-trial","56","453983","0.0-11.0-21.0","","","","false","","","","","","","","","","null","","1554.1999999999534","","1","0","null","null","arrowup","[0.675,0.325,0.15,0.85]","","",""
"sailing-trial","57","458224","0.0-11.0-22.0","","","","false","","","","","","","","","","633.6999999999534","","403.10000000009313","","3","1","arrowright","1","arrowright","[0.675,0.325,0.15,0.85]","","",""
"sailing-trial","58","461207","0.0-11.0-23.0","","","","false","","","","","","","","","","null","","801.7000000001863","","2","1","null","null","arrowup","[0.675,0.325,0.15,0.85]","","",""
"sailing-trial","59","467342","0.0-11.0-24.0","","","","false","","","","","","","","","","1042.6999999999534","","1513.5","","0","1","arrowleft","0","arrowleft","[0.675,0.325,0.15,0.85]","","",""
"sailing-trial","60","470458","0.0-11.0-25.0","","","","false","","","","","","","","","","null","","826.1999999999534","","0","1","null","null","arrowup","[0.675,0.325,0.15,0.85]","","",""
"sailing-trial","61","476209","0.0-11.0-26.0","","","","false","","","","","","","","","","745.1999999999534","","899.2999999998137","","0","1","arrowleft","0","arrowleft","[0.675,0.325,0.15,0.85]","","",""
"sailing-trial","62","479009","0.0-11.0-27.0","","","","false","","","","","","","","","","null","","839","","3","1","null","null","arrowup","[0.675,0.325,0.15,0.85]","","",""
"sailing-trial","63","483377","0.0-11.0-28.0","","","","false","","","","","","","","","","556.6000000000931","","215.60000000009313","","3","1","arrowright","1","arrowright","[0.675,0.325,0.15,0.85]","","",""
"sailing-trial","64","485998","0.0-11.0-29.0","","","","false","","","","","","","","","","null","","1038.7000000001863","","2","0","null","null","arrowup","[0.675,0.325,0.15,0.85]","","",""
"sailing-trial","65","489660","0.0-11.0-30.0","","","","false","","","","","","","","","","400.19999999995343","","7.300000000046566","","0","1","arrowleft","0","arrowleft","[0.675,0.325,0.15,0.85]","","",""
"sailing-trial","66","491570","0.0-11.0-31.0","","","","false","","","","","","","","","","null","","597.0999999998603","","2","0","null","null","arrowup","[0.675,0.325,0.15,0.85]","","",""
"sailing-trial","67","496253","0.0-11.0-32.0","","","","false","","","","","","","","","","877.1000000000931","","303.89999999990687","","3","0","arrowright","1","arrowright","[0.85,0.15,0.325,0.675]","","",""
"sailing-trial","68","499344","0.0-11.0-33.0","","","","false","","","","","","","","","","null","","906.8000000000466","","3","1","null","null","arrowup","[0.85,0.15,0.325,0.675]","","",""
"sailing-trial","69","503538","0.0-11.0-34.0","","","","false","","","","","","","","","","542.3000000000466","","177.39999999990687","","0","0","arrowleft","0","arrowleft","[0.85,0.15,0.325,0.675]","","",""
"sailing-trial","70","506060","0.0-11.0-35.0","","","","false","","","","","","","","","","null","","1087.8000000000466","","3","0","null","null","arrowup","[0.85,0.15,0.325,0.675]","","",""
"sailing-trial","71","510594","0.0-11.0-36.0","","","","false","","","","","","","","","","987.1999999999534","","41.5","","0","1","arrowleft","0","arrowleft","[0.85,0.15,0.325,0.675]","","",""
"sailing-trial","72","514328","0.0-11.0-37.0","","","","false","","","","","","","","","","null","","1020.6999999999534","","2","0","null","null","arrowup","[0.85,0.15,0.325,0.675]","","",""
"sailing-trial","73","518258","0.0-11.0-38.0","","","","false","","","","","","","","","","705.3000000000466","","390.60000000009313","","3","0","arrowright","1","arrowright","[0.85,0.15,0.325,0.675]","","",""
"sailing-trial","74","521378","0.0-11.0-39.0","","","","false","","","","","","","","","","null","","925.5999999998603","","2","1","null","null","arrowup","[0.85,0.15,0.325,0.675]","","",""
"sailing-trial","75","526604","0.0-11.0-40.0","","","","false","","","","","","","","","","927.3000000000466","","383.80000000004657","","2","0","arrowright","1","arrowleft","[0.85,0.15,0.325,0.675]","","",""
"sailing-trial","76","529728","0.0-11.0-41.0","","","","false","","","","","","","","","","null","","1184","","0","1","null","null","arrowup","[0.85,0.15,0.325,0.675]","","",""
"sailing-trial","77","534155","0.0-11.0-42.0","","","","false","","","","","","","","","","638.1999999999534","","389.19999999995343","","2","0","arrowright","1","arrowleft","[0.85,0.15,0.325,0.675]","","",""
"sailing-trial","78","537546","0.0-11.0-43.0","","","","false","","","","","","","","","","null","","1166.6999999999534","","2","1","null","null","arrowup","[0.85,0.15,0.325,0.675]","","",""
"sailing-trial","79","541664","0.0-11.0-44.0","","","","false","","","","","","","","","","542.1999999999534","","345.4000000001397","","3","1","arrowright","1","arrowright","[0.85,0.15,0.325,0.675]","","",""
"sailing-trial","80","544855","0.0-11.0-45.0","","","","false","","","","","","","","","","null","","1498.1999999999534","","1","0","null","null","arrowup","[0.85,0.15,0.325,0.675]","","",""
"sailing-trial","81","549131","0.0-11.0-46.0","","","","false","","","","","","","","","","524.5","","375.60000000009313","","0","1","arrowleft","0","arrowleft","[0.85,0.15,0.325,0.675]","","",""
"sailing-trial","82","551489","0.0-11.0-47.0","","","","false","","","","","","","","","","null","","673","","1","0","null","null","arrowup","[0.85,0.15,0.325,0.675]","","",""
"sailing-trial","83","558281","0.0-11.0-48.0","","","","false","","","","","","","","","","982.7999999998137","","2031.1999999999534","","0","1","arrowleft","0","arrowleft","[0.85,0.15,0.325,0.675]","","",""
"sailing-trial","84","560932","0.0-11.0-49.0","","","","false","","","","","","","","","","null","","796","","0","1","null","null","arrowup","[0.85,0.15,0.325,0.675]","","",""
"sailing-trial","85","565638","0.0-11.0-50.0","","","","false","","","","","","","","","","618.7000000001863","","229.5999999998603","","3","0","arrowright","1","arrowright","[0.85,0.15,0.325,0.675]","","",""
"sailing-trial","86","568240","0.0-11.0-51.0","","","","false","","","","","","","","","","null","","743.6999999999534","","2","0","null","null","arrowup","[0.85,0.15,0.325,0.675]","","",""
"sailing-trial","87","574822","0.0-11.0-52.0","","","","false","","","","","","","","","","2394.0999999998603","","491.89999999990687","","2","0","arrowright","1","arrowleft","[0.675,0.325,0.15,0.85]","","",""
"sailing-trial","88","577766","0.0-11.0-53.0","","","","false","","","","","","","","","","null","","813.6999999999534","","0","1","null","null","arrowup","[0.675,0.325,0.15,0.85]","","",""
"sailing-trial","89","581650","0.0-11.0-54.0","","","","false","","","","","","","","","","661.9000000001397","","217.5","","3","1","arrowright","1","arrowright","[0.675,0.325,0.15,0.85]","","",""
"sailing-trial","90","585968","0.0-11.0-55.0","","","","false","","","","","","","","","","null","","2351.6999999999534","","3","1","null","null","arrowup","[0.675,0.325,0.15,0.85]","","",""
"sailing-trial","91","590002","0.0-11.0-56.0","","","","false","","","","","","","","","","605.5","","36.300000000046566","","0","1","arrowleft","0","arrowleft","[0.675,0.325,0.15,0.85]","","",""
"sailing-trial","92","594701","0.0-11.0-57.0","","","","false","","","","","","","","","","null","","2064","","1","1","null","null","arrowup","[0.675,0.325,0.15,0.85]","","",""
"sailing-trial","93","599211","0.0-11.0-58.0","","","","false","","","","","","","","","","759","","469.19999999995343","","1","0","arrowleft","0","arrowright","[0.675,0.325,0.15,0.85]","","",""
"sailing-trial","94","602035","0.0-11.0-59.0","","","","false","","","","","","","","","","null","","906.3999999999069","","3","1","null","null","arrowup","[0.675,0.325,0.15,0.85]","","",""
"sailing-trial","95","606902","0.0-11.0-60.0","","","","false","","","","","","","","","","879.8000000000466","","242.30000000004657","","3","1","arrowright","1","arrowright","[0.675,0.325,0.15,0.85]","","",""
"sailing-trial","96","609456","0.0-11.0-61.0","","","","false","","","","","","","","","","null","","919.8999999999069","","1","0","null","null","arrowup","[0.675,0.325,0.15,0.85]","","",""
"sailing-trial","97","613685","0.0-11.0-62.0","","","","false","","","","","","","","","","466.20000000018626","","76","","0","1","arrowleft","0","arrowleft","[0.675,0.325,0.15,0.85]","","",""
"sailing-trial","98","616852","0.0-11.0-63.0","","","","false","","","","","","","","","","null","","1234.8999999999069","","3","1","null","null","arrowup","[0.675,0.325,0.15,0.85]","","",""
"sailing-trial","99","620703","0.0-11.0-64.0","","","","false","","","","","","","","","","511.89999999990687","","58.89999999990687","","0","1","arrowleft","0","arrowleft","[0.675,0.325,0.15,0.85]","","",""
"sailing-trial","100","623686","0.0-11.0-65.0","","","","false","","","","","","","","","","null","","550.7000000001863","","1","1","null","null","arrowup","[0.675,0.325,0.15,0.85]","","",""
"sailing-trial","101","628019","0.0-11.0-66.0","","","","false","","","","","","","","","","519.5","","92.5","","3","1","arrowright","1","arrowright","[0.675,0.325,0.15,0.85]","","",""
"sailing-trial","102","630529","0.0-11.0-67.0","","","","false","","","","","","","","","","null","","920.8999999999069","","1","0","null","null","arrowup","[0.675,0.325,0.15,0.85]","","",""
"sailing-trial","103","635320","0.0-11.0-68.0","","","","false","","","","","","","","","","318.69999999995343","","457.5","","0","1","arrowleft","0","arrowleft","[0.675,0.325,0.15,0.85]","","",""
"sailing-trial","104","638359","0.0-11.0-69.0","","","","false","","","","","","","","","","null","","989","","2","0","null","null","arrowup","[0.675,0.325,0.15,0.85]","","",""
"sailing-trial","105","644155","0.0-11.0-70.0","","","","false","","","","","","","","","","624.6999999999534","","513","","3","1","arrowright","1","arrowright","[0.675,0.325,0.15,0.85]","","",""
"sailing-trial","106","648138","0.0-11.0-71.0","","","","false","","","","","","","","","","null","","1916","","1","1","null","null","arrowup","[0.675,0.325,0.15,0.85]","","",""
"sailing-trial","107","652721","0.0-11.0-72.0","","","","false","","","","","","","","","","555","","508.5","","0","1","arrowleft","0","arrowleft","[0.675,0.325,0.15,0.85]","","",""
"sailing-trial","108","655939","0.0-11.0-73.0","","","","false","","","","","","","","","","null","","1518.6999999999534","","1","0","null","null","arrowup","[0.675,0.325,0.15,0.85]","","",""
"sailing-trial","109","659522","0.0-11.0-74.0","","","","false","","","","","","","","","","400.5","","166","","0","1","arrowleft","0","arrowleft","[0.85,0.15,0.325,0.675]","","",""
"sailing-trial","110","662256","0.0-11.0-75.0","","","","false","","","","","","","","","","null","","822.9000000001397","","2","1","null","null","arrowup","[0.85,0.15,0.325,0.675]","","",""
"sailing-trial","111","666902","0.0-11.0-76.0","","","","false","","","","","","","","","","892.6999999999534","","402.9000000001397","","2","0","arrowright","1","arrowleft","[0.85,0.15,0.325,0.675]","","",""
"sailing-trial","112","669655","0.0-11.0-77.0","","","","false","","","","","","","","","","null","","1031","","2","1","null","null","arrowup","[0.85,0.15,0.325,0.675]","","",""
"sailing-trial","113","674390","0.0-11.0-78.0","","","","false","","","","","","","","","","539.6999999999534","","589.3999999999069","","2","1","arrowright","1","arrowleft","[0.85,0.15,0.325,0.675]","","",""
"sailing-trial","114","677822","0.0-11.0-79.0","","","","false","","","","","","","","","","null","","1484.0999999998603","","3","1","null","null","arrowup","[0.85,0.15,0.325,0.675]","","",""
"sailing-trial","115","681970","0.0-11.0-80.0","","","","false","","","","","","","","","","513.6000000000931","","479.5","","2","0","arrowright","1","arrowleft","[0.85,0.15,0.325,0.675]","","",""
"sailing-trial","116","684837","0.0-11.0-81.0","","","","false","","","","","","","","","","null","","1437.3000000000466","","2","0","null","null","arrowup","[0.85,0.15,0.325,0.675]","","",""
"sailing-trial","117","689341","0.0-11.0-82.0","","","","false","","","","","","","","","","566.8000000000466","","345.19999999995343","","3","1","arrowright","1","arrowright","[0.85,0.15,0.325,0.675]","","",""
"sailing-trial","118","692041","0.0-11.0-83.0","","","","false","","","","","","","","","","null","","657.6000000000931","","0","1","null","null","arrowup","[0.85,0.15,0.325,0.675]","","",""
"sailing-trial","119","696241","0.0-11.0-84.0","","","","false","","","","","","","","","","845.8000000000466","","53.10000000009313","","0","1","arrowleft","0","arrowleft","[0.85,0.15,0.325,0.675]","","",""
"sailing-trial","120","699541","0.0-11.0-85.0","","","","false","","","","","","","","","","null","","1038.8999999999069","","3","1","null","null","arrowup","[0.85,0.15,0.325,0.675]","","",""
"sailing-trial","121","703593","0.0-11.0-86.0","","","","false","","","","","","","","","","607.8999999999069","","270.80000000004657","","3","1","arrowright","1","arrowright","[0.85,0.15,0.325,0.675]","","",""
"sailing-trial","122","706857","0.0-11.0-87.0","","","","false","","","","","","","","","","null","","1187.4000000001397","","1","0","null","null","arrowup","[0.85,0.15,0.325,0.675]","","",""
"sailing-trial","123","710977","0.0-11.0-88.0","","","","false","","","","","","","","","","711.5","","348.5999999998603","","0","0","arrowleft","0","arrowleft","[0.85,0.15,0.325,0.675]","","",""
"sailing-trial","124","714476","0.0-11.0-89.0","","","","false","","","","","","","","","","null","","1042.8999999999069","","2","1","null","null","arrowup","[0.85,0.15,0.325,0.675]","","",""
"sailing-trial","125","718538","0.0-11.0-90.0","","","","false","","","","","","","","","","796","","361.39999999990687","","2","0","arrowright","1","arrowleft","[0.85,0.15,0.325,0.675]","","",""
"sailing-trial","126","720858","0.0-11.0-91.0","","","","false","","","","","","","","","","null","","934.9000000001397","","1","0","null","null","arrowup","[0.85,0.15,0.325,0.675]","","",""
"sailing-trial","127","726051","0.0-11.0-92.0","","","","false","","","","","","","","","","252.69999999995343","","575.8000000000466","","3","0","arrowright","1","arrowright","[0.15,0.85,0.675,0.325]","","",""
"sailing-trial","128","728299","0.0-11.0-93.0","","","","false","","","","","","","","","","null","","1068.1999999999534","","0","0","null","null","arrowup","[0.15,0.85,0.675,0.325]","","",""
"sailing-trial","129","732626","0.0-11.0-94.0","","","","false","","","","","","","","","","1193.8999999999069","","51.699999999953434","","3","1","arrowright","1","arrowright","[0.15,0.85,0.675,0.325]","","",""
"sailing-trial","130","736710","0.0-11.0-95.0","","","","false","","","","","","","","","","null","","2253.4000000001397","","2","1","null","null","arrowup","[0.15,0.85,0.675,0.325]","","",""
"sailing-trial","131","740367","0.0-11.0-96.0","","","","false","","","","","","","","","","656.6999999999534","","7.100000000093132","","0","0","arrowleft","0","arrowleft","[0.15,0.85,0.675,0.325]","","",""
"sailing-trial","132","743798","0.0-11.0-97.0","","","","false","","","","","","","","","","null","","929.8000000000466","","0","0","null","null","arrowup","[0.15,0.85,0.675,0.325]","","",""
"sailing-trial","133","748160","0.0-11.0-98.0","","","","false","","","","","","","","","","679.1999999999534","","511.69999999995343","","0","0","arrowleft","0","arrowleft","[0.15,0.85,0.675,0.325]","","",""
"sailing-trial","134","751113","0.0-11.0-99.0","","","","false","","","","","","","","","","null","","999.3999999999069","","3","1","null","null","arrowup","[0.15,0.85,0.675,0.325]","","",""
"sailing-trial","135","756044","0.0-11.0-100.0","","","","false","","","","","","","","","","881.1999999999534","","135.69999999995343","","1","1","arrowleft","0","arrowright","[0.15,0.85,0.675,0.325]","","",""
"sailing-trial","136","759361","0.0-11.0-101.0","","","","false","","","","","","","","","","null","","1037.4000000001397","","2","1","null","null","arrowup","[0.15,0.85,0.675,0.325]","","",""
"sailing-trial","137","763246","0.0-11.0-102.0","","","","false","","","","","","","","","","561","","232.20000000018626","","1","1","arrowleft","0","arrowright","[0.15,0.85,0.675,0.325]","","",""
"sailing-trial","138","766873","0.0-11.0-103.0","","","","false","","","","","","","","","","null","","2009.3999999999069","","0","0","null","null","arrowup","[0.15,0.85,0.675,0.325]","","",""
"sailing-trial","139","771229","0.0-11.0-104.0","","","","false","","","","","","","","","","479.19999999995343","","413.9000000001397","","3","1","arrowright","1","arrowright","[0.15,0.85,0.675,0.325]","","",""
"sailing-trial","140","773606","0.0-11.0-105.0","","","","false","","","","","","","","","","null","","659.8999999999069","","0","0","null","null","arrowup","[0.15,0.85,0.675,0.325]","","",""
"sailing-trial","141","777780","0.0-11.0-106.0","","","","false","","","","","","","","","","522.8999999999069","","87.19999999995343","","1","1","arrowleft","0","arrowright","[0.15,0.85,0.675,0.325]","","",""
"sailing-trial","142","780314","0.0-11.0-107.0","","","","false","","","","","","","","","","null","","834.1999999999534","","3","0","null","null","arrowup","[0.15,0.85,0.675,0.325]","","",""
"sailing-trial","143","785497","0.0-11.0-108.0","","","","false","","","","","","","","","","681.8000000000466","","482.79999999981374","","2","1","arrowright","1","arrowleft","[0.15,0.85,0.675,0.325]","","",""
"sailing-trial","144","788681","0.0-11.0-109.0","","","","false","","","","","","","","","","null","","1322.2000000001863","","3","1","null","null","arrowup","[0.15,0.85,0.675,0.325]","","",""
"sailing-trial","145","792538","0.0-11.0-110.0","","","","false","","","","","","","","","","630.3000000000466","","418.0999999998603","","1","0","arrowleft","0","arrowright","[0.325,0.675,0.85,0.15]","","",""
"sailing-trial","146","796031","0.0-11.0-111.0","","","","false","","","","","","","","","","null","","1366.7000000001863","","2","1","null","null","arrowup","[0.325,0.675,0.85,0.15]","","",""
"sailing-trial","147","800332","0.0-11.0-112.0","","","","false","","","","","","","","","","596.5999999998603","","486.5","","2","1","arrowright","1","arrowleft","[0.325,0.675,0.85,0.15]","","",""
"sailing-trial","148","803132","0.0-11.0-113.0","","","","false","","","","","","","","","","null","","884","","0","1","null","null","arrowup","[0.325,0.675,0.85,0.15]","","",""
"sailing-trial","149","807154","0.0-11.0-114.0","","","","false","","","","","","","","","","596.8999999999069","","97.80000000004657","","1","0","arrowleft","0","arrowright","[0.325,0.675,0.85,0.15]","","",""
"sailing-trial","150","809469","0.0-11.0-115.0","","","","false","","","","","","","","","","null","","846.1000000000931","","3","0","null","null","arrowup","[0.325,0.675,0.85,0.15]","","",""
"sailing-trial","151","813450","0.0-11.0-116.0","","","","false","","","","","","","","","","295.19999999995343","","445.5","","1","1","arrowleft","0","arrowright","[0.325,0.675,0.85,0.15]","","",""
"sailing-trial","152","816312","0.0-11.0-117.0","","","","false","","","","","","","","","","null","","1282.6999999999534","","0","0","null","null","arrowup","[0.325,0.675,0.85,0.15]","","",""
"sailing-trial","153","820702","0.0-11.0-118.0","","","","false","","","","","","","","","","811.1999999999534","","506.10000000009313","","1","0","arrowleft","0","arrowright","[0.325,0.675,0.85,0.15]","","",""
"sailing-trial","154","823756","0.0-11.0-119.0","","","","false","","","","","","","","","","null","","622.3000000000466","","0","0","null","null","arrowup","[0.325,0.675,0.85,0.15]","","",""
"sailing-trial","155","828779","0.0-11.0-120.0","","","","false","","","","","","","","","","1755.1999999999534","","190.30000000004657","","1","0","arrowleft","0","arrowright","[0.325,0.675,0.85,0.15]","","",""
"sailing-trial","156","831201","0.0-11.0-121.0","","","","false","","","","","","","","","","null","","844","","3","0","null","null","arrowup","[0.325,0.675,0.85,0.15]","","",""
"sailing-trial","157","835933","0.0-11.0-122.0","","","","false","","","","","","","","","","603.1000000000931","","46.4000000001397","","2","1","arrowright","1","arrowleft","[0.325,0.675,0.85,0.15]","","",""
"sailing-trial","158","838532","0.0-11.0-123.0","","","","false","","","","","","","","","","null","","1035.8999999999069","","1","0","null","null","arrowup","[0.325,0.675,0.85,0.15]","","",""
"sailing-trial","159","842319","0.0-11.0-124.0","","","","false","","","","","","","","","","318.29999999981374","","582.0999999998603","","2","1","arrowright","1","arrowleft","[0.325,0.675,0.85,0.15]","","",""
"sailing-trial","160","845665","0.0-11.0-125.0","","","","false","","","","","","","","","","null","","1165","","0","1","null","null","arrowup","[0.325,0.675,0.85,0.15]","","",""
"sailing-trial","161","850284","0.0-11.0-126.0","","","","false","","","","","","","","","","737.6999999999534","","534.3000000000466","","2","1","arrowright","1","arrowleft","[0.15,0.85,0.675,0.325]","","",""
"sailing-trial","162","854072","0.0-11.0-127.0","","","","false","","","","","","","","","","null","","1162.3999999999069","","3","0","null","null","arrowup","[0.15,0.85,0.675,0.325]","","",""
"sailing-trial","163","858402","0.0-11.0-128.0","","","","false","","","","","","","","","","922.4000000001397","","190.5","","2","1","arrowright","1","arrowleft","[0.15,0.85,0.675,0.325]","","",""
"sailing-trial","164","860564","0.0-11.0-129.0","","","","false","","","","","","","","","","null","","892.9000000001397","","3","0","null","null","arrowup","[0.15,0.85,0.675,0.325]","","",""
"sailing-trial","165","865178","0.0-11.0-130.0","","","","false","","","","","","","","","","448.60000000009313","","69.19999999995343","","2","0","arrowright","1","arrowleft","[0.15,0.85,0.675,0.325]","","",""
"sailing-trial","166","868587","0.0-11.0-131.0","","","","false","","","","","","","","","","null","","1535.3999999999069","","3","1","null","null","arrowup","[0.15,0.85,0.675,0.325]","","",""
"sailing-trial","167","872203","0.0-11.0-132.0","","","","false","","","","","","","","","","701.1999999999534","","30.199999999953434","","3","1","arrowright","1","arrowright","[0.15,0.85,0.675,0.325]","","",""
"sailing-trial","168","877604","0.0-11.0-133.0","","","","false","","","","","","","","","","null","","3465.5","","3","1","null","null","arrowup","[0.15,0.85,0.675,0.325]","","",""
"sailing-trial","169","881620","0.0-11.0-134.0","","","","false","","","","","","","","","","290.39999999990687","","152.0999999998603","","3","0","arrowright","1","arrowright","[0.15,0.85,0.675,0.325]","","",""
"sailing-trial","170","885121","0.0-11.0-135.0","","","","false","","","","","","","","","","null","","1726.7999999998137","","2","1","null","null","arrowup","[0.15,0.85,0.675,0.325]","","",""
"sailing-trial","171","889154","0.0-11.0-136.0","","","","false","","","","","","","","","","400","","240.80000000004657","","1","1","arrowleft","0","arrowright","[0.15,0.85,0.675,0.325]","","",""
"sailing-trial","172","892454","0.0-11.0-137.0","","","","false","","","","","","","","","","null","","1016.1999999999534","","0","0","null","null","arrowup","[0.15,0.85,0.675,0.325]","","",""
"sailing-trial","173","897654","0.0-11.0-138.0","","","","false","","","","","","","","","","1192.2000000001863","","22.800000000046566","","2","1","arrowright","1","arrowleft","[0.15,0.85,0.675,0.325]","","",""
"sailing-trial","174","900688","0.0-11.0-139.0","","","","false","","","","","","","","","","null","","989","","0","1","null","null","arrowup","[0.15,0.85,0.675,0.325]","","",""
"sailing-trial","175","905672","0.0-11.0-140.0","","","","false","","","","","","","","","","659.5","","405.69999999995343","","2","1","arrowright","1","arrowleft","[0.15,0.85,0.675,0.325]","","",""
"sailing-trial","176","908723","0.0-11.0-141.0","","","","false","","","","","","","","","","null","","1185.6999999999534","","1","1","null","null","arrowup","[0.15,0.85,0.675,0.325]","","",""
"sailing-trial","177","912472","0.0-11.0-142.0","","","","false","","","","","","","","","","716.3000000000466","","9.400000000139698","","1","1","arrowleft","0","arrowright","[0.15,0.85,0.675,0.325]","","",""
"sailing-trial","178","915755","0.0-11.0-143.0","","","","false","","","","","","","","","","null","","1242.1000000000931","","2","1","null","null","arrowup","[0.15,0.85,0.675,0.325]","","",""
"sailing-trial","179","920203","0.0-11.0-144.0","","","","false","","","","","","","","","","988.3999999999069","","304.9000000001397","","1","0","arrowleft","0","arrowright","[0.85,0.15,0.325,0.675]","","",""
"sailing-trial","180","922973","0.0-11.0-145.0","","","","false","","","","","","","","","","null","","1020.6999999999534","","3","1","null","null","arrowup","[0.85,0.15,0.325,0.675]","","",""
"sailing-trial","181","927872","0.0-11.0-146.0","","","","false","","","","","","","","","","198.69999999995343","","1188.8999999999069","","1","0","arrowleft","0","arrowright","[0.85,0.15,0.325,0.675]","","",""
"sailing-trial","182","930889","0.0-11.0-147.0","","","","false","","","","","","","","","","null","","917","","2","1","null","null","arrowup","[0.85,0.15,0.325,0.675]","","",""
"sailing-trial","183","935634","0.0-11.0-148.0","","","","false","","","","","","","","","","585","","420.60000000009313","","2","0","arrowright","1","arrowleft","[0.85,0.15,0.325,0.675]","","",""
"sailing-trial","184","938541","0.0-11.0-149.0","","","","false","","","","","","","","","","null","","1086.2000000001863","","3","1","null","null","arrowup","[0.85,0.15,0.325,0.675]","","",""
"sailing-trial","185","943974","0.0-11.0-150.0","","","","false","","","","","","","","","","1312.0999999998603","","415.60000000009313","","3","1","arrowright","1","arrowright","[0.85,0.15,0.325,0.675]","","",""
"sailing-trial","186","948074","0.0-11.0-151.0","","","","false","","","","","","","","","","null","","2370.899999999907","","3","0","null","null","arrowup","[0.85,0.15,0.325,0.675]","","",""
"sailing-trial","187","955192","0.0-11.0-152.0","","","","false","","","","","","","","","","964.6000000000931","","1045.1000000000931","","3","1","arrowright","1","arrowright","[0.85,0.15,0.325,0.675]","","",""
"sailing-trial","188","960895","0.0-11.0-153.0","","","","false","","","","","","","","","","null","","3905.8000000000466","","2","0","null","null","arrowup","[0.85,0.15,0.325,0.675]","","",""
"sailing-trial","189","967443","0.0-11.0-154.0","","","","false","","","","","","","","","","1387.8999999999069","","923.8999999999069","","0","1","arrowleft","0","arrowleft","[0.85,0.15,0.325,0.675]","","",""
"sailing-trial","190","970909","0.0-11.0-155.0","","","","false","","","","","","","","","","null","","1381","","0","1","null","null","arrowup","[0.85,0.15,0.325,0.675]","","",""
"sailing-trial","191","977177","0.0-11.0-156.0","","","","false","","","","","","","","","","1410.1000000000931","","565.3999999999069","","0","1","arrowleft","0","arrowleft","[0.85,0.15,0.325,0.675]","","",""
"sailing-trial","192","980310","0.0-11.0-157.0","","","","false","","","","","","","","","","null","","1069.1000000000931","","3","1","null","null","arrowup","[0.85,0.15,0.325,0.675]","","",""
"sailing-trial","193","985277","0.0-11.0-158.0","","","","false","","","","","","","","","","713.5999999998603","","644.3999999999069","","0","1","arrowleft","0","arrowleft","[0.85,0.15,0.325,0.675]","","",""
"sailing-trial","194","988199","0.0-11.0-159.0","","","","false","","","","","","","","","","null","","1115.8000000000466","","2","0","null","null","arrowup","[0.85,0.15,0.325,0.675]","","",""
"sailing-trial","195","992243","0.0-11.0-160.0","","","","false","","","","","","","","","","845.8999999999069","","381.5","","3","0","arrowright","1","arrowright","[0.325,0.675,0.85,0.15]","","",""
"sailing-trial","196","995169","0.0-11.0-161.0","","","","false","","","","","","","","","","null","","1263.8000000000466","","0","0","null","null","arrowup","[0.325,0.675,0.85,0.15]","","",""
"sailing-trial","197","998613","0.0-11.0-162.0","","","","false","","","","","","","","","","549","","89.5","","3","0","arrowright","1","arrowright","[0.325,0.675,0.85,0.15]","","",""
"sailing-trial","198","1001615","0.0-11.0-163.0","","","","false","","","","","","","","","","null","","1645.1999999999534","","3","0","null","null","arrowup","[0.325,0.675,0.85,0.15]","","",""
"sailing-trial","199","1006512","0.0-11.0-164.0","","","","false","","","","","","","","","","595.6000000000931","","237.10000000009313","","2","1","arrowright","1","arrowleft","[0.325,0.675,0.85,0.15]","","",""
"sailing-trial","200","1009448","0.0-11.0-165.0","","","","false","","","","","","","","","","null","","898.5","","1","1","null","null","arrowup","[0.325,0.675,0.85,0.15]","","",""
"sailing-trial","201","1013382","0.0-11.0-166.0","","","","false","","","","","","","","","","503.80000000004657","","228","","2","1","arrowright","1","arrowleft","[0.325,0.675,0.85,0.15]","","",""
"sailing-trial","202","1016913","0.0-11.0-167.0","","","","false","","","","","","","","","","null","","1563.4000000001397","","1","1","null","null","arrowup","[0.325,0.675,0.85,0.15]","","",""
"sailing-trial","203","1021414","0.0-11.0-168.0","","","","false","","","","","","","","","","565","","485.89999999990687","","2","1","arrowright","1","arrowleft","[0.325,0.675,0.85,0.15]","","",""
"sailing-trial","204","1023926","0.0-11.0-169.0","","","","false","","","","","","","","","","null","","823.6999999999534","","3","0","null","null","arrowup","[0.325,0.675,0.85,0.15]","","",""
"sailing-trial","205","1028180","0.0-11.0-170.0","","","","false","","","","","","","","","","733.6999999999534","","54.699999999953434","","2","1","arrowright","1","arrowleft","[0.325,0.675,0.85,0.15]","","",""
"sailing-trial","206","1030425","0.0-11.0-171.0","","","","false","","","","","","","","","","null","","789.8999999999069","","1","0","null","null","arrowup","[0.325,0.675,0.85,0.15]","","",""
"sailing-trial","207","1033930","0.0-11.0-172.0","","","","false","","","","","","","","","","658.3000000000466","","26.300000000046566","","0","0","arrowleft","0","arrowleft","[0.325,0.675,0.85,0.15]","","",""
"sailing-trial","208","1036291","0.0-11.0-173.0","","","","false","","","","","","","","","","null","","977.8000000000466","","3","0","null","null","arrowup","[0.325,0.675,0.85,0.15]","","",""
"sailing-trial","209","1040581","0.0-11.0-174.0","","","","false","","","","","","","","","","651.5999999998603","","150.80000000004657","","0","1","arrowleft","0","arrowleft","[0.325,0.675,0.85,0.15]","","",""
"sailing-trial","210","1043417","0.0-11.0-175.0","","","","false","","","","","","","","","","null","","734.5","","3","1","null","null","arrowup","[0.325,0.675,0.85,0.15]","","",""
"sailing-trial","211","1047745","0.0-11.0-176.0","","","","false","","","","","","","","","","922.3000000000466","","95.5","","3","0","arrowright","1","arrowright","[0.325,0.675,0.85,0.15]","","",""
"sailing-trial","212","1050314","0.0-11.0-177.0","","","","false","","","","","","","","","","null","","669.9000000003725","","2","1","null","null","arrowup","[0.325,0.675,0.85,0.15]","","",""
"sailing-trial","213","1055064","0.0-11.0-178.0","","","","false","","","","","","","","","","484.70000000018626","","215.29999999981374","","3","0","arrowright","1","arrowright","[0.85,0.15,0.325,0.675]","","",""
"sailing-trial","214","1058565","0.0-11.0-179.0","","","","false","","","","","","","","","","null","","1398.0999999996275","","0","1","null","null","arrowup","[0.85,0.15,0.325,0.675]","","",""
"sailing-trial","215","1062279","0.0-11.0-180.0","","","","false","","","","","","","","","","642.7000000001863","","373.1999999997206","","2","0","arrowright","1","arrowleft","[0.85,0.15,0.325,0.675]","","",""
"sailing-trial","216","1065239","0.0-11.0-181.0","","","","false","","","","","","","","","","null","","1417.3999999999069","","2","0","null","null","arrowup","[0.85,0.15,0.325,0.675]","","",""
"sailing-trial","217","1070700","0.0-11.0-182.0","","","","false","","","","","","","","","","1161","","788.3000000002794","","0","1","arrowleft","0","arrowleft","[0.85,0.15,0.325,0.675]","","",""
"sailing-trial","218","1073622","0.0-11.0-183.0","","","","false","","","","","","","","","","null","","740.6000000000931","","0","1","null","null","arrowup","[0.85,0.15,0.325,0.675]","","",""
"sailing-trial","219","1079151","0.0-11.0-184.0","","","","false","","","","","","","","","","1527","","444.89999999990687","","0","1","arrowleft","0","arrowleft","[0.85,0.15,0.325,0.675]","","",""
"sailing-trial","220","1083250","0.0-11.0-185.0","","","","false","","","","","","","","","","null","","1780.6000000000931","","0","1","null","null","arrowup","[0.85,0.15,0.325,0.675]","","",""
"sailing-trial","221","1088151","0.0-11.0-186.0","","","","false","","","","","","","","","","694","","309.20000000018626","","0","1","arrowleft","0","arrowleft","[0.85,0.15,0.325,0.675]","","",""
"sailing-trial","222","1091306","0.0-11.0-187.0","","","","false","","","","","","","","","","null","","1117.7000000001863","","2","0","null","null","arrowup","[0.85,0.15,0.325,0.675]","","",""
"sailing-trial","223","1096318","0.0-11.0-188.0","","","","false","","","","","","","","","","887.6000000000931","","179.8000000002794","","2","1","arrowright","1","arrowleft","[0.85,0.15,0.325,0.675]","","",""
"sailing-trial","224","1099346","0.0-11.0-189.0","","","","false","","","","","","","","","","null","","1149.2000000001863","","3","0","null","null","arrowup","[0.85,0.15,0.325,0.675]","","",""
"sailing-trial","225","1102623","0.0-11.0-190.0","","","","false","","","","","","","","","","528.5","","265.60000000009313","","2","0","arrowright","1","arrowleft","[0.85,0.15,0.325,0.675]","","",""
"sailing-trial","226","1105385","0.0-11.0-191.0","","","","false","","","","","","","","","","null","","791.7999999998137","","2","0","null","null","arrowup","[0.85,0.15,0.325,0.675]","","",""
"sailing-trial","227","1109686","0.0-11.0-192.0","","","","false","","","","","","","","","","601.5","","231.39999999990687","","3","1","arrowright","1","arrowright","[0.85,0.15,0.325,0.675]","","",""
"sailing-trial","228","1112006","0.0-11.0-193.0","","","","false","","","","","","","","","","null","","901.7000000001863","","1","0","null","null","arrowup","[0.85,0.15,0.325,0.675]","","",""
"sailing-trial","229","1115876","0.0-11.0-194.0","","","","false","","","","","","","","","","596.3999999999069","","22.899999999906868","","0","0","arrowleft","0","arrowleft","[0.675,0.325,0.15,0.85]","","",""
"sailing-trial","230","1118752","0.0-11.0-195.0","","","","false","","","","","","","","","","null","","818.1999999997206","","1","1","null","null","arrowup","[0.675,0.325,0.15,0.85]","","",""
"sailing-trial","231","1122073","0.0-11.0-196.0","","","","false","","","","","","","","","","565","","202","","1","0","arrowleft","0","arrowright","[0.675,0.325,0.15,0.85]","","",""
"sailing-trial","232","1127194","0.0-11.0-197.0","","","","false","","","","","","","","","","null","","3003.600000000093","","2","0","null","null","arrowup","[0.675,0.325,0.15,0.85]","","",""
"sailing-trial","233","1131687","0.0-11.0-198.0","","","","false","","","","","","","","","","571.7999999998137","","210.20000000018626","","2","1","arrowright","1","arrowleft","[0.675,0.325,0.15,0.85]","","",""
"sailing-trial","234","1134228","0.0-11.0-199.0","","","","false","","","","","","","","","","null","","879","","2","0","null","null","arrowup","[0.675,0.325,0.15,0.85]","","",""
"sailing-trial","235","1139405","0.0-11.0-200.0","","","","false","","","","","","","","","","1263.8999999999069","","166.5","","0","1","arrowleft","0","arrowleft","[0.675,0.325,0.15,0.85]","","",""
"sailing-trial","236","1143655","0.0-11.0-201.0","","","","false","","","","","","","","","","null","","2323.1999999997206","","0","1","null","null","arrowup","[0.675,0.325,0.15,0.85]","","",""
"sailing-trial","237","1148343","0.0-11.0-202.0","","","","false","","","","","","","","","","1137.9000000003725","","340.39999999990687","","2","0","arrowright","1","arrowleft","[0.675,0.325,0.15,0.85]","","",""
"sailing-trial","238","1150988","0.0-11.0-203.0","","","","false","","","","","","","","","","null","","780.7000000001863","","0","1","null","null","arrowup","[0.675,0.325,0.15,0.85]","","",""
"sailing-trial","239","1154889","0.0-11.0-204.0","","","","false","","","","","","","","","","518.5","","160.60000000009313","","0","1","arrowleft","0","arrowleft","[0.675,0.325,0.15,0.85]","","",""
"sailing-trial","240","1158269","0.0-11.0-205.0","","","","false","","","","","","","","","","null","","1491.1000000000931","","1","0","null","null","arrowup","[0.675,0.325,0.15,0.85]","","",""
"sailing-trial","241","1162557","0.0-11.0-206.0","","","","false","","","","","","","","","","534.5","","193.39999999990687","","3","1","arrowright","1","arrowright","[0.675,0.325,0.15,0.85]","","",""
"sailing-trial","242","1165223","0.0-11.0-207.0","","","","false","","","","","","","","","","null","","769.6999999997206","","3","1","null","null","arrowup","[0.675,0.325,0.15,0.85]","","",""
"sailing-trial","243","1170288","0.0-11.0-208.0","","","","false","","","","","","","","","","575.5","","487.60000000009313","","3","1","arrowright","1","arrowright","[0.675,0.325,0.15,0.85]","","",""
"sailing-trial","244","1172791","0.0-11.0-209.0","","","","false","","","","","","","","","","null","","897.1999999997206","","1","0","null","null","arrowup","[0.675,0.325,0.15,0.85]","","",""
"sailing-trial","245","1176440","0.0-11.0-210.0","","","","false","","","","","","","","","","441.1999999997206","","659.7999999998137","","0","0","arrowleft","0","arrowleft","[0.675,0.325,0.15,0.85]","","",""
"sailing-trial","246","1179562","0.0-11.0-211.0","","","","false","","","","","","","","","","null","","1620.5999999996275","","1","0","null","null","arrowup","[0.675,0.325,0.15,0.85]","","",""
"sailing-trial","247","1183074","0.0-11.0-212.0","","","","false","","","","","","","","","","576.5","","8.399999999906868","","0","0","arrowleft","0","arrowleft","[0.675,0.325,0.15,0.85]","","",""
"sailing-trial","248","1185387","0.0-11.0-213.0","","","","false","","","","","","","","","","null","","922.7000000001863","","2","0","null","null","arrowup","[0.675,0.325,0.15,0.85]","","",""
"sailing-trial","249","1189891","0.0-11.0-214.0","","","","false","","","","","","","","","","717","","246.89999999990687","","2","0","arrowright","1","arrowleft","[0.675,0.325,0.15,0.85]","","",""
"sailing-trial","250","1192775","0.0-11.0-215.0","","","","false","","","","","","","","","","null","","757.2999999998137","","3","1","null","null","arrowup","[0.675,0.325,0.15,0.85]","","",""
"sailing-trial","251","1196692","0.0-11.0-216.0","","","","false","","","","","","","","","","653.5999999996275","","311.60000000009313","","3","1","arrowright","1","arrowright","[0.675,0.325,0.15,0.85]","","",""
"sailing-trial","252","1199792","0.0-11.0-217.0","","","","false","","","","","","","","","","null","","1382.9000000003725","","3","1","null","null","arrowup","[0.675,0.325,0.15,0.85]","","",""
"sailing-trial","253","1203708","0.0-11.0-218.0","","","","false","","","","","","","","","","578.2000000001863","","472.6999999997206","","3","0","arrowright","1","arrowright","[0.85,0.15,0.325,0.675]","","",""
"sailing-trial","254","1206041","0.0-11.0-219.0","","","","false","","","","","","","","","","null","","896.6000000000931","","1","0","null","null","arrowup","[0.85,0.15,0.325,0.675]","","",""
"sailing-trial","255","1210838","0.0-11.0-220.0","","","","false","","","","","","","","","","1817.5","","50.10000000009313","","3","0","arrowright","1","arrowright","[0.85,0.15,0.325,0.675]","","",""
"sailing-trial","256","1212943","0.0-11.0-221.0","","","","false","","","","","","","","","","null","","717.1999999997206","","1","0","null","null","arrowup","[0.85,0.15,0.325,0.675]","","",""
"sailing-trial","257","1215946","0.0-11.0-222.0","","","","false","","","","","","","","","","472.29999999981374","","108.39999999990687","","0","0","arrowleft","0","arrowleft","[0.85,0.15,0.325,0.675]","","",""
"sailing-trial","258","1219444","0.0-11.0-223.0","","","","false","","","","","","","","","","null","","1318.3999999999069","","0","1","null","null","arrowup","[0.85,0.15,0.325,0.675]","","",""
"sailing-trial","259","1223543","0.0-11.0-224.0","","","","false","","","","","","","","","","594.0999999996275","","168.5","","0","1","arrowleft","0","arrowleft","[0.85,0.15,0.325,0.675]","","",""
"sailing-trial","260","1226294","0.0-11.0-225.0","","","","false","","","","","","","","","","null","","733.2000000001863","","0","1","null","null","arrowup","[0.85,0.15,0.325,0.675]","","",""
"sailing-trial","261","1231210","0.0-11.0-226.0","","","","false","","","","","","","","","","1182.6000000000931","","131.60000000009313","","0","1","arrowleft","0","arrowleft","[0.85,0.15,0.325,0.675]","","",""
"sailing-trial","262","1233901","0.0-11.0-227.0","","","","false","","","","","","","","","","null","","1036.2000000001863","","2","0","null","null","arrowup","[0.85,0.15,0.325,0.675]","","",""
"sailing-trial","263","1237318","0.0-11.0-228.0","","","","false","","","","","","","","","","516.1000000000931","","159.5","","3","0","arrowright","1","arrowright","[0.85,0.15,0.325,0.675]","","",""
"sailing-trial","264","1240662","0.0-11.0-229.0","","","","false","","","","","","","","","","null","","1282.0999999996275","","0","1","null","null","arrowup","[0.85,0.15,0.325,0.675]","","",""
"sailing-trial","265","1244445","0.0-11.0-230.0","","","","false","","","","","","","","","","526.1999999997206","","39.60000000009313","","0","1","arrowleft","0","arrowleft","[0.85,0.15,0.325,0.675]","","",""
"sailing-trial","266","1247036","0.0-11.0-231.0","","","","false","","","","","","","","","","null","","744.5","","1","0","null","null","arrowup","[0.85,0.15,0.325,0.675]","","",""
"sailing-trial","267","1252380","0.0-11.0-232.0","","","","false","","","","","","","","","","779.2999999998137","","935","","0","1","arrowleft","0","arrowleft","[0.85,0.15,0.325,0.675]","","",""
"sailing-trial","268","1255429","0.0-11.0-233.0","","","","false","","","","","","","","","","null","","1159.5","","0","1","null","null","arrowup","[0.85,0.15,0.325,0.675]","","",""
"sailing-trial","269","1259813","0.0-11.0-234.0","","","","false","","","","","","","","","","582.2999999998137","","161.60000000009313","","0","1","arrowleft","0","arrowleft","[0.675,0.325,0.15,0.85]","","",""
"sailing-trial","270","1262697","0.0-11.0-235.0","","","","false","","","","","","","","","","null","","912.9000000003725","","3","1","null","null","arrowup","[0.675,0.325,0.15,0.85]","","",""
"sailing-trial","271","1266162","0.0-11.0-236.0","","","","false","","","","","","","","","","596.6999999997206","","147.29999999981374","","3","0","arrowright","1","arrowright","[0.675,0.325,0.15,0.85]","","",""
"sailing-trial","272","1268919","0.0-11.0-237.0","","","","false","","","","","","","","","","null","","1353.7000000001863","","2","0","null","null","arrowup","[0.675,0.325,0.15,0.85]","","",""
"sailing-trial","273","1272543","0.0-11.0-238.0","","","","false","","","","","","","","","","522.3999999999069","","410.3000000002794","","3","0","arrowright","1","arrowright","[0.675,0.325,0.15,0.85]","","",""
"sailing-trial","274","1275364","0.0-11.0-239.0","","","","false","","","","","","","","","","null","","708.6000000000931","","0","1","null","null","arrowup","[0.675,0.325,0.15,0.85]","","",""
"sailing-trial","275","1280580","0.0-11.0-240.0","","","","false","","","","","","","","","","195.70000000018626","","533.3000000002794","","0","1","arrowleft","0","arrowleft","[0.675,0.325,0.15,0.85]","","",""
"sailing-trial","276","1283090","0.0-11.0-241.0","","","","false","","","","","","","","","","null","","926.3999999999069","","2","0","null","null","arrowup","[0.675,0.325,0.15,0.85]","","",""
"sailing-trial","277","1286631","0.0-11.0-242.0","","","","false","","","","","","","","","","485.89999999990687","","134.5","","0","1","arrowleft","0","arrowleft","[0.675,0.325,0.15,0.85]","","",""
"sailing-trial","278","1290158","0.0-11.0-243.0","","","","false","","","","","","","","","","null","","1907.2999999998137","","1","0","null","null","arrowup","[0.675,0.325,0.15,0.85]","","",""
"sailing-trial","279","1293715","0.0-11.0-244.0","","","","false","","","","","","","","","","508.10000000009313","","21.200000000186265","","0","1","arrowleft","0","arrowleft","[0.675,0.325,0.15,0.85]","","",""
"sailing-trial","280","1296532","0.0-11.0-245.0","","","","false","","","","","","","","","","null","","814.6999999997206","","0","1","null","null","arrowup","[0.675,0.325,0.15,0.85]","","",""
"sailing-trial","281","1302232","0.0-11.0-246.0","","","","false","","","","","","","","","","227.10000000009313","","2174.4000000003725","","0","0","arrowleft","0","arrowleft","[0.675,0.325,0.15,0.85]","","",""
"sailing-trial","282","1305883","0.0-11.0-247.0","","","","false","","","","","","","","","","null","","1590.6000000000931","","0","1","null","null","arrowup","[0.675,0.325,0.15,0.85]","","",""
"sailing-trial","283","1310817","0.0-11.0-248.0","","","","false","","","","","","","","","","532.8999999999069","","336.79999999981374","","0","1","arrowleft","0","arrowleft","[0.675,0.325,0.15,0.85]","","",""
"sailing-trial","284","1314633","0.0-11.0-249.0","","","","false","","","","","","","","","","null","","806.7000000001863","","1","0","null","null","arrowup","[0.675,0.325,0.15,0.85]","","",""
"sailing-trial","285","1320285","0.0-11.0-250.0","","","","false","","","","","","","","","","748.8999999999069","","1319.8000000002794","","0","1","arrowleft","0","arrowleft","[0.85,0.15,0.325,0.675]","","",""
"sailing-trial","286","1323848","0.0-11.0-251.0","","","","false","","","","","","","","","","null","","1661.3999999999069","","3","1","null","null","arrowup","[0.85,0.15,0.325,0.675]","","",""
"sailing-trial","287","1327934","0.0-11.0-252.0","","","","false","","","","","","","","","","560.6000000000931","","89.70000000018626","","3","1","arrowright","1","arrowright","[0.85,0.15,0.325,0.675]","","",""
"sailing-trial","288","1331325","0.0-11.0-253.0","","","","false","","","","","","","","","","null","","1760.7000000001863","","2","0","null","null","arrowup","[0.85,0.15,0.325,0.675]","","",""
"sailing-trial","289","1336717","0.0-11.0-254.0","","","","false","","","","","","","","","","1814.2999999998137","","306.09999999962747","","3","1","arrowright","1","arrowright","[0.85,0.15,0.325,0.675]","","",""
"sailing-trial","290","1339901","0.0-11.0-255.0","","","","false","","","","","","","","","","null","","1520.3999999999069","","1","0","null","null","arrowup","[0.85,0.15,0.325,0.675]","","",""
"sailing-trial","291","1343820","0.0-11.0-256.0","","","","false","","","","","","","","","","573.3999999999069","","108.60000000009313","","3","1","arrowright","1","arrowright","[0.85,0.15,0.325,0.675]","","",""
"sailing-trial","292","1346668","0.0-11.0-257.0","","","","false","","","","","","","","","","null","","909.5","","3","1","null","null","arrowup","[0.85,0.15,0.325,0.675]","","",""
"sailing-trial","293","1350951","0.0-11.0-258.0","","","","false","","","","","","","","","","186","","515.3999999999069","","3","1","arrowright","1","arrowright","[0.85,0.15,0.325,0.675]","","",""
"sailing-trial","294","1353686","0.0-11.0-259.0","","","","false","","","","","","","","","","null","","749.3999999999069","","0","1","null","null","arrowup","[0.85,0.15,0.325,0.675]","","",""
"sailing-trial","295","1357869","0.0-11.0-260.0","","","","false","","","","","","","","","","909.2000000001863","","100","","0","1","arrowleft","0","arrowleft","[0.85,0.15,0.325,0.675]","","",""
"sailing-trial","296","1361036","0.0-11.0-261.0","","","","false","","","","","","","","","","null","","1284.1000000000931","","2","1","null","null","arrowup","[0.85,0.15,0.325,0.675]","","",""
"sailing-trial","297","1364952","0.0-11.0-262.0","","","","false","","","","","","","","","","598.1000000000931","","444.70000000018626","","2","0","arrowright","1","arrowleft","[0.85,0.15,0.325,0.675]","","",""
"sailing-trial","298","1367498","0.0-11.0-263.0","","","","false","","","","","","","","","","null","","930.8000000002794","","2","0","null","null","arrowup","[0.85,0.15,0.325,0.675]","","",""
"sailing-trial","299","1371374","0.0-11.0-264.0","","","","false","","","","","","","","","","928.5","","21.700000000186265","","3","0","arrowright","1","arrowright","[0.85,0.15,0.325,0.675]","","",""
"sailing-trial","300","1373682","0.0-11.0-265.0","","","","false","","","","","","","","","","null","","832.2999999998137","","1","0","null","null","arrowup","[0.85,0.15,0.325,0.675]","","",""
"sailing-trial","301","1377470","0.0-11.0-266.0","","","","false","","","","","","","","","","490.20000000018626","","62.10000000009313","","0","1","arrowleft","0","arrowleft","[0.85,0.15,0.325,0.675]","","",""
"sailing-trial","302","1380955","0.0-11.0-267.0","","","","false","","","","","","","","","","null","","1607.7999999998137","","0","1","null","null","arrowup","[0.85,0.15,0.325,0.675]","","",""
"sailing-trial","303","1386537","0.0-11.0-268.0","","","","false","","","","","","","","","","545.8999999999069","","925","","0","1","arrowleft","0","arrowleft","[0.675,0.325,0.15,0.85]","","",""
"sailing-trial","304","1389899","0.0-11.0-269.0","","","","false","","","","","","","","","","null","","1725.2000000001863","","1","0","null","null","arrowup","[0.675,0.325,0.15,0.85]","","",""
"sailing-trial","305","1393955","0.0-11.0-270.0","","","","false","","","","","","","","","","719.6000000000931","","83.8000000002794","","0","1","arrowleft","0","arrowleft","[0.675,0.325,0.15,0.85]","","",""
"sailing-trial","306","1398339","0.0-11.0-271.0","","","","false","","","","","","","","","","null","","2171.0999999996275","","2","1","null","null","arrowup","[0.675,0.325,0.15,0.85]","","",""
"sailing-trial","307","1403573","0.0-11.0-272.0","","","","false","","","","","","","","","","1367.8000000002794","","420.10000000009313","","2","0","arrowright","1","arrowleft","[0.675,0.325,0.15,0.85]","","",""
"sailing-trial","308","1406457","0.0-11.0-273.0","","","","false","","","","","","","","","","null","","782.7999999998137","","0","1","null","null","arrowup","[0.675,0.325,0.15,0.85]","","",""
"sailing-trial","309","1411207","0.0-11.0-274.0","","","","false","","","","","","","","","","469.10000000009313","","1017.8999999999069","","0","1","arrowleft","0","arrowleft","[0.675,0.325,0.15,0.85]","","",""
"sailing-trial","310","1415093","0.0-11.0-275.0","","","","false","","","","","","","","","","null","","2245.100000000093","","0","0","null","null","arrowup","[0.675,0.325,0.15,0.85]","","",""
"sailing-trial","311","1418656","0.0-11.0-276.0","","","","false","","","","","","","","","","619.5","","195.60000000009313","","0","0","arrowleft","0","arrowleft","[0.675,0.325,0.15,0.85]","","",""
"sailing-trial","312","1422290","0.0-11.0-277.0","","","","false","","","","","","","","","","null","","1112.1000000000931","","3","1","null","null","arrowup","[0.675,0.325,0.15,0.85]","","",""
"sailing-trial","313","1426192","0.0-11.0-278.0","","","","false","","","","","","","","","","568.8999999999069","","18.300000000279397","","3","1","arrowright","1","arrowright","[0.675,0.325,0.15,0.85]","","",""
"sailing-trial","314","1428808","0.0-11.0-279.0","","","","false","","","","","","","","","","null","","741.6999999997206","","0","1","null","null","arrowup","[0.675,0.325,0.15,0.85]","","",""
"sailing-trial","315","1432382","0.0-11.0-280.0","","","","false","","","","","","","","","","363.89999999990687","","41.700000000186265","","3","0","arrowright","1","arrowright","[0.675,0.325,0.15,0.85]","","",""
"sailing-trial","316","1434827","0.0-11.0-281.0","","","","false","","","","","","","","","","null","","1022.1000000000931","","2","0","null","null","arrowup","[0.675,0.325,0.15,0.85]","","",""
"sailing-trial","317","1437944","0.0-11.0-282.0","","","","false","","","","","","","","","","416.60000000009313","","232.40000000037253","","0","0","arrowleft","0","arrowleft","[0.675,0.325,0.15,0.85]","","",""
"sailing-trial","318","1441558","0.0-11.0-283.0","","","","false","","","","","","","","","","null","","1518.3999999999069","","2","0","null","null","arrowup","[0.675,0.325,0.15,0.85]","","",""
"sailing-trial","319","1444846","0.0-11.0-284.0","","","","false","","","","","","","","","","531.2000000001863","","49.299999999813735","","0","0","arrowleft","0","arrowleft","[0.15,0.85,0.675,0.325]","","",""
"sailing-trial","320","1447367","0.0-11.0-285.0","","","","false","","","","","","","","","","null","","1112.3999999999069","","3","0","null","null","arrowup","[0.15,0.85,0.675,0.325]","","",""
"sailing-trial","321","1452395","0.0-11.0-286.0","","","","false","","","","","","","","","","1352.9000000003725","","101.6999999997206","","1","1","arrowleft","0","arrowright","[0.15,0.85,0.675,0.325]","","",""
"sailing-trial","322","1455443","0.0-11.0-287.0","","","","false","","","","","","","","","","null","","1167.0999999996275","","1","1","null","null","arrowup","[0.15,0.85,0.675,0.325]","","",""
"sailing-trial","323","1459260","0.0-11.0-288.0","","","","false","","","","","","","","","","603.8999999999069","","47.09999999962747","","1","1","arrowleft","0","arrowright","[0.15,0.85,0.675,0.325]","","",""
"sailing-trial","324","1463428","0.0-11.0-289.0","","","","false","","","","","","","","","","null","","697.6999999997206","","1","1","null","null","arrowup","[0.15,0.85,0.675,0.325]","","",""
"sailing-trial","325","1467378","0.0-11.0-290.0","","","","false","","","","","","","","","","584.7999999998137","","176.6999999997206","","1","1","arrowleft","0","arrowright","[0.15,0.85,0.675,0.325]","","",""
"sailing-trial","326","1470211","0.0-11.0-291.0","","","","false","","","","","","","","","","null","","915.3999999999069","","2","1","null","null","arrowup","[0.15,0.85,0.675,0.325]","","",""
"sailing-trial","327","1474447","0.0-11.0-292.0","","","","false","","","","","","","","","","804.9000000003725","","6.5","","2","1","arrowright","1","arrowleft","[0.15,0.85,0.675,0.325]","","",""
"sailing-trial","328","1477294","0.0-11.0-293.0","","","","false","","","","","","","","","","null","","867.3000000002794","","0","0","null","null","arrowup","[0.15,0.85,0.675,0.325]","","",""
"sailing-trial","329","1482044","0.0-11.0-294.0","","","","false","","","","","","","","","","550.1999999997206","","762.5","","2","1","arrowright","1","arrowleft","[0.15,0.85,0.675,0.325]","","",""
"sailing-trial","330","1485078","0.0-11.0-295.0","","","","false","","","","","","","","","","null","","1076.3999999999069","","0","1","null","null","arrowup","[0.15,0.85,0.675,0.325]","","",""
"sailing-trial","331","1490112","0.0-11.0-296.0","","","","false","","","","","","","","","","624.6000000000931","","1120.8999999999069","","2","1","arrowright","1","arrowleft","[0.15,0.85,0.675,0.325]","","",""
"sailing-trial","332","1493411","0.0-11.0-297.0","","","","false","","","","","","","","","","null","","1690.6999999997206","","0","0","null","null","arrowup","[0.15,0.85,0.675,0.325]","","",""
"sailing-trial","333","1497429","0.0-11.0-298.0","","","","false","","","","","","","","","","656.0999999996275","","73.89999999990687","","2","1","arrowright","1","arrowleft","[0.15,0.85,0.675,0.325]","","",""
"sailing-trial","334","1499495","0.0-11.0-299.0","","","","false","","","","","","","","","","null","","712.1000000000931","","0","0","null","null","arrowup","[0.15,0.85,0.675,0.325]","","",""
"sailing-trial","335","1504162","0.0-11.0-300.0","","","","false","","","","","","","","","","1042.0999999996275","","687.7000000001863","","2","0","arrowright","1","arrowleft","[0.15,0.85,0.675,0.325]","","",""
"sailing-trial","336","1507014","0.0-11.0-301.0","","","","false","","","","","","","","","","null","","816.3999999999069","","2","1","null","null","arrowup","[0.15,0.85,0.675,0.325]","","",""
"sailing-trial","337","1511413","0.0-11.0-302.0","","","","false","","","","","","","","","","533","","649.2000000001863","","1","1","arrowleft","0","arrowright","[0.15,0.85,0.675,0.325]","","",""
"sailing-trial","338","1514423","0.0-11.0-303.0","","","","false","","","","","","","","","","null","","1328","","1","0","null","null","arrowup","[0.15,0.85,0.675,0.325]","","",""
"sailing-trial","339","1518264","0.0-11.0-304.0","","","","false","","","","","","","","","","655.3999999999069","","33.10000000009313","","1","1","arrowleft","0","arrowright","[0.15,0.85,0.675,0.325]","","",""
"sailing-trial","340","1521314","0.0-11.0-305.0","","","","false","","","","","","","","","","null","","861.6999999997206","","0","1","null","null","arrowup","[0.15,0.85,0.675,0.325]","","",""
"sailing-trial","341","1526514","0.0-11.0-306.0","","","","false","","","","","","","","","","1203.2999999998137","","516.5","","2","1","arrowright","1","arrowleft","[0.325,0.675,0.85,0.15]","","",""
"sailing-trial","342","1529348","0.0-11.0-307.0","","","","false","","","","","","","","","","null","","774","","1","1","null","null","arrowup","[0.325,0.675,0.85,0.15]","","",""
"sailing-trial","343","1533865","0.0-11.0-308.0","","","","false","","","","","","","","","","530.2999999998137","","8.5","","1","1","arrowleft","0","arrowright","[0.325,0.675,0.85,0.15]","","",""
"sailing-trial","344","1536965","0.0-11.0-309.0","","","","false","","","","","","","","","","null","","1199.2999999998137","","1","1","null","null","arrowup","[0.325,0.675,0.85,0.15]","","",""
"sailing-trial","345","1540434","0.0-11.0-310.0","","","","false","","","","","","","","","","658.7999999998137","","182","","1","0","arrowleft","0","arrowright","[0.325,0.675,0.85,0.15]","","",""
"sailing-trial","346","1543799","0.0-11.0-311.0","","","","false","","","","","","","","","","null","","1279","","2","1","null","null","arrowup","[0.325,0.675,0.85,0.15]","","",""
"sailing-trial","347","1548232","0.0-11.0-312.0","","","","false","","","","","","","","","","511.20000000018626","","719.7000000001863","","2","1","arrowright","1","arrowleft","[0.325,0.675,0.85,0.15]","","",""
"sailing-trial","348","1552033","0.0-11.0-313.0","","","","false","","","","","","","","","","null","","1206.7999999998137","","1","1","null","null","arrowup","[0.325,0.675,0.85,0.15]","","",""
"sailing-trial","349","1555867","0.0-11.0-314.0","","","","false","","","","","","","","","","444.3000000002794","","85.60000000009313","","1","1","arrowleft","0","arrowright","[0.325,0.675,0.85,0.15]","","",""
"sailing-trial","350","1558194","0.0-11.0-315.0","","","","false","","","","","","","","","","null","","727.6999999997206","","3","0","null","null","arrowup","[0.325,0.675,0.85,0.15]","","",""
"sailing-trial","351","1562452","0.0-11.0-316.0","","","","false","","","","","","","","","","638.2000000001863","","136.89999999990687","","1","1","arrowleft","0","arrowright","[0.325,0.675,0.85,0.15]","","",""
"sailing-trial","352","1565833","0.0-11.0-317.0","","","","false","","","","","","","","","","null","","1475.7999999998137","","2","1","null","null","arrowup","[0.325,0.675,0.85,0.15]","","",""
"sailing-trial","353","1570783","0.0-11.0-318.0","","","","false","","","","","","","","","","1517.7999999998137","","180.70000000018626","","2","0","arrowright","1","arrowleft","[0.325,0.675,0.85,0.15]","","",""
"sailing-trial","354","1574537","0.0-11.0-319.0","","","","false","","","","","","","","","","null","","1571.2000000001863","","0","1","null","null","arrowup","[0.325,0.675,0.85,0.15]","","",""
"sailing-trial","355","1579935","0.0-11.0-320.0","","","","false","","","","","","","","","","517","","1680.7000000001863","","0","1","arrowleft","0","arrowleft","[0.325,0.675,0.85,0.15]","","",""
"sailing-trial","356","1582954","0.0-11.0-321.0","","","","false","","","","","","","","","","null","","1403.3999999999069","","1","0","null","null","arrowup","[0.325,0.675,0.85,0.15]","","",""
"sailing-trial","357","1586908","0.0-11.0-322.0","","","","false","","","","","","","","","","623.0999999996275","","533.3000000002794","","0","0","arrowleft","0","arrowleft","[0.325,0.675,0.85,0.15]","","",""
"sailing-trial","358","1589279","0.0-11.0-323.0","","","","false","","","","","","","","","","null","","842.7999999998137","","3","0","null","null","arrowup","[0.325,0.675,0.85,0.15]","","",""
"sailing-trial","359","1593703","0.0-11.0-324.0","","","","false","","","","","","","","","","495.39999999990687","","493.10000000009313","","3","0","arrowright","1","arrowright","[0.325,0.675,0.85,0.15]","","",""
"sailing-trial","360","1596903","0.0-11.0-325.0","","","","false","","","","","","","","","","null","","1107.7000000001863","","2","1","null","null","arrowup","[0.325,0.675,0.85,0.15]","","",""
"sailing-trial","361","1600687","0.0-11.0-326.0","","","","false","","","","","","","","","","741.1999999997206","","252.79999999981374","","0","0","arrowleft","0","arrowleft","[0.15,0.85,0.675,0.325]","","",""
"sailing-trial","362","1604404","0.0-11.0-327.0","","","","false","","","","","","","","","","null","","1555.3999999999069","","2","1","null","null","arrowup","[0.15,0.85,0.675,0.325]","","",""
"sailing-trial","363","1608921","0.0-11.0-328.0","","","","false","","","","","","","","","","555.5999999996275","","544.1999999997206","","2","1","arrowright","1","arrowleft","[0.15,0.85,0.675,0.325]","","",""
"sailing-trial","364","1612754","0.0-11.0-329.0","","","","false","","","","","","","","","","null","","1154.3000000002794","","1","1","null","null","arrowup","[0.15,0.85,0.675,0.325]","","",""
"sailing-trial","365","1617538","0.0-11.0-330.0","","","","false","","","","","","","","","","605.6999999997206","","637.2999999998137","","2","1","arrowright","1","arrowleft","[0.15,0.85,0.675,0.325]","","",""
"sailing-trial","366","1620287","0.0-11.0-331.0","","","","false","","","","","","","","","","null","","755.7000000001863","","3","1","null","null","arrowup","[0.15,0.85,0.675,0.325]","","",""
"sailing-trial","367","1627138","0.0-11.0-332.0","","","","false","","","","","","","","","","1200.4000000003725","","1525","","1","1","arrowleft","0","arrowright","[0.15,0.85,0.675,0.325]","","",""
"sailing-trial","368","1629776","0.0-11.0-333.0","","","","false","","","","","","","","","","null","","1025.3000000002794","","3","0","null","null","arrowup","[0.15,0.85,0.675,0.325]","","",""
"sailing-trial","369","1634605","0.0-11.0-334.0","","","","false","","","","","","","","","","970.3999999999069","","93.70000000018626","","2","1","arrowright","1","arrowleft","[0.15,0.85,0.675,0.325]","","",""
"sailing-trial","370","1637322","0.0-11.0-335.0","","","","false","","","","","","","","","","null","","802.7999999998137","","3","1","null","null","arrowup","[0.15,0.85,0.675,0.325]","","",""
"sailing-trial","371","1640538","0.0-11.0-336.0","","","","false","","","","","","","","","","586.7999999998137","","33.90000000037253","","3","0","arrowright","1","arrowright","[0.15,0.85,0.675,0.325]","","",""
"sailing-trial","372","1643624","0.0-11.0-337.0","","","","false","","","","","","","","","","null","","1649","","3","0","null","null","arrowup","[0.15,0.85,0.675,0.325]","","",""
"sailing-trial","373","1648633","0.0-11.0-338.0","","","","false","","","","","","","","","","718.8999999999069","","1626.5999999996275","","3","0","arrowright","1","arrowright","[0.15,0.85,0.675,0.325]","","",""
"sailing-trial","374","1651721","0.0-11.0-339.0","","","","false","","","","","","","","","","null","","873.8999999999069","","1","1","null","null","arrowup","[0.15,0.85,0.675,0.325]","","",""
"sailing-trial","375","1656140","0.0-11.0-340.0","","","","false","","","","","","","","","","945.5","","69.09999999962747","","1","1","arrowleft","0","arrowright","[0.15,0.85,0.675,0.325]","","",""
"sailing-trial","376","1659358","0.0-11.0-341.0","","","","false","","","","","","","","","","null","","658.8000000002794","","1","1","null","null","arrowup","[0.15,0.85,0.675,0.325]","","",""
"sailing-trial","377","1664525","0.0-11.0-342.0","","","","false","","","","","","","","","","1193","","1.2000000001862645","","1","1","arrowleft","0","arrowright","[0.15,0.85,0.675,0.325]","","",""
"sailing-trial","378","1667257","0.0-11.0-343.0","","","","false","","","","","","","","","","null","","819.2999999998137","","3","1","null","null","arrowup","[0.15,0.85,0.675,0.325]","","",""
"sailing-trial","379","1671685","0.0-11.0-344.0","","","","false","","","","","","","","","","782.6999999997206","","350.90000000037253","","3","1","arrowright","1","arrowright","[0.85,0.15,0.325,0.675]","","",""
"sailing-trial","380","1674635","0.0-11.0-345.0","","","","false","","","","","","","","","","null","","1478.2999999998137","","0","0","null","null","arrowup","[0.85,0.15,0.325,0.675]","","",""
"sailing-trial","381","1678103","0.0-11.0-346.0","","","","false","","","","","","","","","","625","","60.60000000009313","","1","0","arrowleft","0","arrowright","[0.85,0.15,0.325,0.675]","","",""
"sailing-trial","382","1680315","0.0-11.0-347.0","","","","false","","","","","","","","","","null","","824.6999999997206","","1","0","null","null","arrowup","[0.85,0.15,0.325,0.675]","","",""
"sailing-trial","383","1683945","0.0-11.0-348.0","","","","false","","","","","","","","","","524.5999999996275","","215.79999999981374","","2","0","arrowright","1","arrowleft","[0.85,0.15,0.325,0.675]","","",""
"sailing-trial","384","1686112","0.0-11.0-349.0","","","","false","","","","","","","","","","null","","801","","2","0","null","null","arrowup","[0.85,0.15,0.325,0.675]","","",""
"sailing-trial","385","1689842","0.0-11.0-350.0","","","","false","","","","","","","","","","595.1000000000931","","53.60000000009313","","3","1","arrowright","1","arrowright","[0.85,0.15,0.325,0.675]","","",""
"sailing-trial","386","1692533","0.0-11.0-351.0","","","","false","","","","","","","","","","null","","1095.1999999997206","","0","0","null","null","arrowup","[0.85,0.15,0.325,0.675]","","",""
"sailing-trial","387","1697226","0.0-11.0-352.0","","","","false","","","","","","","","","","593.5","","792.8999999999069","","3","1","arrowright","1","arrowright","[0.85,0.15,0.325,0.675]","","",""
"sailing-trial","388","1700260","0.0-11.0-353.0","","","","false","","","","","","","","","","null","","1062.8000000002794","","1","1","null","null","arrowup","[0.85,0.15,0.325,0.675]","","",""
"sailing-trial","389","1705826","0.0-11.0-354.0","","","","false","","","","","","","","","","1272.6999999997206","","647.2000000001863","","3","1","arrowright","1","arrowright","[0.85,0.15,0.325,0.675]","","",""
"sailing-trial","390","1708444","0.0-11.0-355.0","","","","false","","","","","","","","","","null","","696.7000000001863","","2","1","null","null","arrowup","[0.85,0.15,0.325,0.675]","","",""
"sailing-trial","391","1712166","0.0-11.0-356.0","","","","false","","","","","","","","","","648.7999999998137","","154.39999999990687","","3","0","arrowright","1","arrowright","[0.85,0.15,0.325,0.675]","","",""
"sailing-trial","392","1714800","0.0-11.0-357.0","","","","false","","","","","","","","","","null","","1204.5","","1","0","null","null","arrowup","[0.85,0.15,0.325,0.675]","","",""
"sailing-trial","393","1719429","0.0-11.0-358.0","","","","false","","","","","","","","","","606.6000000000931","","546","","2","1","arrowright","1","arrowleft","[0.85,0.15,0.325,0.675]","","",""
"sailing-trial","394","1721997","0.0-11.0-359.0","","","","false","","","","","","","","","","null","","684.7999999998137","","3","0","null","null","arrowup","[0.85,0.15,0.325,0.675]","","",""
"sailing-trial","395","1726380","0.0-11.0-360.0","","","","false","","","","","","","","","","500.5","","916.1000000000931","","2","0","arrowright","1","arrowleft","[0.85,0.15,0.325,0.675]","","",""
"sailing-trial","396","1729875","0.0-11.0-361.0","","","","false","","","","","","","","","","null","","2062.2999999998137","","1","0","null","null","arrowup","[0.85,0.15,0.325,0.675]","","",""
"sailing-trial","397","1734012","0.0-11.0-362.0","","","","false","","","","","","","","","","1118","","112.3000000002794","","2","0","arrowright","1","arrowleft","[0.85,0.15,0.325,0.675]","","",""
"sailing-trial","398","1736679","0.0-11.0-363.0","","","","false","","","","","","","","","","null","","589.4000000003725","","2","1","null","null","arrowup","[0.85,0.15,0.325,0.675]","","",""
"sailing-trial","399","1739365","0.0-11.0-364.0","","","","false","","","","","","","","","","251.5","","67.10000000009313","","2","0","arrowright","1","arrowleft","[0.675,0.325,0.15,0.85]","","",""
"sailing-trial","400","1742712","0.0-11.0-365.0","","","","false","","","","","","","","","","null","","677.6000000000931","","3","1","null","null","arrowup","[0.675,0.325,0.15,0.85]","","",""
"sailing-trial","401","1747545","0.0-11.0-366.0","","","","false","","","","","","","","","","507.89999999990687","","1121.2000000001863","","3","1","arrowright","1","arrowright","[0.675,0.325,0.15,0.85]","","",""
"sailing-trial","402","1750255","0.0-11.0-367.0","","","","false","","","","","","","","","","null","","1106.2000000001863","","2","0","null","null","arrowup","[0.675,0.325,0.15,0.85]","","",""
"sailing-trial","403","1755914","0.0-11.0-368.0","","","","false","","","","","","","","","","1311.6000000000931","","583.5","","3","1","arrowright","1","arrowright","[0.675,0.325,0.15,0.85]","","",""
"sailing-trial","404","1758535","0.0-11.0-369.0","","","","false","","","","","","","","","","null","","1210.1000000000931","","2","0","null","null","arrowup","[0.675,0.325,0.15,0.85]","","",""
"sailing-trial","405","1762814","0.0-11.0-370.0","","","","false","","","","","","","","","","546.5","","187.10000000009313","","3","1","arrowright","1","arrowright","[0.675,0.325,0.15,0.85]","","",""
"sailing-trial","406","1766248","0.0-11.0-371.0","","","","false","","","","","","","","","","null","","1302.6999999997206","","0","1","null","null","arrowup","[0.675,0.325,0.15,0.85]","","",""
"sailing-trial","407","1771732","0.0-11.0-372.0","","","","false","","","","","","","","","","798.2999999998137","","1218.8999999999069","","3","1","arrowright","1","arrowright","[0.675,0.325,0.15,0.85]","","",""
"sailing-trial","408","1775431","0.0-11.0-373.0","","","","false","","","","","","","","","","null","","1727.6000000000931","","3","1","null","null","arrowup","[0.675,0.325,0.15,0.85]","","",""
"sailing-trial","409","1780865","0.0-11.0-374.0","","","","false","","","","","","","","","","715.8999999999069","","1447.5","","0","1","arrowleft","0","arrowleft","[0.675,0.325,0.15,0.85]","","",""
"sailing-trial","410","1784168","0.0-11.0-375.0","","","","false","","","","","","","","","","null","","1564.8999999999069","","0","0","null","null","arrowup","[0.675,0.325,0.15,0.85]","","",""
"sailing-trial","411","1789000","0.0-11.0-376.0","","","","false","","","","","","","","","","658.5999999996275","","917.8999999999069","","0","1","arrowleft","0","arrowleft","[0.675,0.325,0.15,0.85]","","",""
"sailing-trial","412","1791871","0.0-11.0-377.0","","","","false","","","","","","","","","","null","","920.6999999997206","","0","0","null","null","arrowup","[0.675,0.325,0.15,0.85]","","",""
"sailing-trial","413","1797033","0.0-11.0-378.0","","","","false","","","","","","","","","","956.7999999998137","","731.1000000000931","","0","1","arrowleft","0","arrowleft","[0.675,0.325,0.15,0.85]","","",""
"sailing-trial","414","1800116","0.0-11.0-379.0","","","","false","","","","","","","","","","null","","994.8999999999069","","0","1","null","null","arrowup","[0.675,0.325,0.15,0.85]","","",""
"sailing-trial","415","1805550","0.0-11.0-380.0","","","","false","","","","","","","","","","1048.8999999999069","","1160.5","","0","0","arrowleft","0","arrowleft","[0.675,0.325,0.15,0.85]","","",""
"sailing-trial","416","1808116","0.0-11.0-381.0","","","","false","","","","","","","","","","null","","1071.2999999998137","","1","0","null","null","arrowup","[0.675,0.325,0.15,0.85]","","",""
"sailing-trial","417","1814684","0.0-11.0-382.0","","","","false","","","","","","","","","","2384.4000000003725","","598.7999999998137","","0","0","arrowleft","0","arrowleft","[0.675,0.325,0.15,0.85]","","",""
"sailing-trial","418","1818867","0.0-11.0-383.0","","","","false","","","","","","","","","","null","","1153.5","","3","1","null","null","arrowup","[0.675,0.325,0.15,0.85]","","",""
"sailing-trial","419","1824727","0.0-11.0-384.0","","","","false","","","","","","","","","","1590","","442.89999999990687","","2","0","arrowright","1","arrowleft","[0.85,0.15,0.325,0.675]","","",""
"sailing-trial","420","1828568","0.0-11.0-385.0","","","","false","","","","","","","","","","null","","1478.1000000000931","","1","1","null","null","arrowup","[0.85,0.15,0.325,0.675]","","",""
"sailing-trial","421","1834736","0.0-11.0-386.0","","","","false","","","","","","","","","","905.3999999999069","","490.40000000037253","","3","1","arrowright","1","arrowright","[0.85,0.15,0.325,0.675]","","",""
"sailing-trial","422","1838387","0.0-11.0-387.0","","","","false","","","","","","","","","","null","","1665.2000000001863","","0","1","null","null","arrowup","[0.85,0.15,0.325,0.675]","","",""
"sailing-trial","423","1843204","0.0-11.0-388.0","","","","false","","","","","","","","","","716.7999999998137","","607.8999999999069","","0","1","arrowleft","0","arrowleft","[0.85,0.15,0.325,0.675]","","",""
"sailing-trial","424","1846420","0.0-11.0-389.0","","","","false","","","","","","","","","","null","","1254.3000000002794","","0","1","null","null","arrowup","[0.85,0.15,0.325,0.675]","","",""
"sailing-trial","425","1851720","0.0-11.0-390.0","","","","false","","","","","","","","","","1338.1999999997206","","626.1000000000931","","0","1","arrowleft","0","arrowleft","[0.85,0.15,0.325,0.675]","","",""
"sailing-trial","426","1855051","0.0-11.0-391.0","","","","false","","","","","","","","","","null","","1417.1000000000931","","1","0","null","null","arrowup","[0.85,0.15,0.325,0.675]","","",""
"sailing-trial","427","1859104","0.0-11.0-392.0","","","","false","","","","","","","","","","544.1999999997206","","207.10000000009313","","0","1","arrowleft","0","arrowleft","[0.85,0.15,0.325,0.675]","","",""
"sailing-trial","428","1862054","0.0-11.0-393.0","","","","false","","","","","","","","","","null","","758.3999999999069","","1","1","null","null","arrowup","[0.85,0.15,0.325,0.675]","","",""
"sailing-trial","429","1866668","0.0-11.0-394.0","","","","false","","","","","","","","","","1277.1000000000931","","58.10000000009313","","1","0","arrowleft","0","arrowright","[0.85,0.15,0.325,0.675]","","",""
"sailing-trial","430","1868787","0.0-11.0-395.0","","","","false","","","","","","","","","","null","","757.7999999998137","","1","0","null","null","arrowup","[0.85,0.15,0.325,0.675]","","",""
"sailing-trial","431","1873219","0.0-11.0-396.0","","","","false","","","","","","","","","","632.1000000000931","","260.3000000002794","","0","0","arrowleft","0","arrowleft","[0.85,0.15,0.325,0.675]","","",""
"sailing-trial","432","1875694","0.0-11.0-397.0","","","","false","","","","","","","","","","null","","974.5","","3","0","null","null","arrowup","[0.85,0.15,0.325,0.675]","","",""
"sailing-trial","433","1878798","0.0-11.0-398.0","","","","false","","","","","","","","","","406.10000000009313","","104.39999999990687","","2","0","arrowright","1","arrowleft","[0.85,0.15,0.325,0.675]","","",""
"sailing-trial","434","1881788","0.0-11.0-399.0","","","","false","","","","","","","","","","null","","655.1000000000931","","3","1","null","null","arrowup","[0.85,0.15,0.325,0.675]","","",""
"instructions","435","1891027","0.0-12.0","","","","","","","","","","9218.5","","","","","","","","","","","","","","","","[{""page_index"":0,""viewing_time"":9217.600000000093}]"
"survey-debrief","436","1989421","0.0-13.0","","","","","","","","","","98381.5","","","","","","","","","","","","","","{""difficulty"":""4"",""fun"":""3"",""clarity"":""5"",""strategy"":""The strategies I used was in my brain, I saw that if a shop gave me more x's than treasure in a row I wouldn't choose that one and focus on other ones."",""feedback"":""""}","",""
