"trial_type","trial_index","time_elapsed","internal_node_id","value","metadata","success","timeout","failed_images","failed_audio","failed_video","browser_interaction","low_quality","rt","stimulus","response","button_pressed","island_rt","island_response","boat_rt","boat_response","boat","reward","island_key","island","boat_key","reward_probabilities","responses","num_errors","view_history"
"pavlovia","0","5","0.0-0.0","","","","","","","","","","","","","","","","","","","","","","","","","",""
"call-function","1","6","0.0-1.0","","{""task_version"":""sailing_part1_v1"",""task_condition"":""good"",""boats"":[""D"",""A"",""C"",""B""],""boats_demo"":[""F"",""G"",""H"",""E""],""islands"":[""A"",""B""],""subject_id"":""14591"",""age"":""16"",""gender"":""Male""}","","","","","","","","","","","","","","","","","","","","","","","",""
"preload","2","3738","0.0-2.0","","","true","false","[]","[]","[]","[{""event"":""fullscreenenter"",""trial"":3,""time"":6308}]","false","","","","","","","","","","","","","","","","",""
"fullscreen","3","7260","0.0-3.0","","","true","","","","","","","","","","","","","","","","","","","","","","",""
"audio-keyboard-response","4","9974","0.0-4.0-0.0","","","","","","","","","","0","audio/beep_loop.wav"," ","","","","","","","","","","","","","",""
"audio-test","5","11707","0.0-4.0-1.0","","","","","","","","","","null","audio/turtle.mp3","","3","","","","","","","","","","","","",""
"audio-test","6","13892","0.0-4.0-2.0","","","","","","","","","","null","audio/shark.mp3","","2","","","","","","","","","","","","",""
"sailing-instructions","7","76993","0.0-5.0-0.0-0.0","","","","","","","","","","","","","","null","null","null","null","null","null","","","","","","",""
"sailing-trial","8","82040","0.0-5.0-0.0-1.0-0.0","","","","false","","","","","","","","","","3916","","null","","null","null","arrowleft","0","null","null","","",""
"sailing-trial","9","83890","0.0-5.0-0.0-1.0-1.0","","","","false","","","","","","","","","","721","","null","","null","null","arrowright","1","null","null","","",""
"sailing-trial","10","86240","0.0-5.0-0.0-1.0-2.0","","","","false","","","","","","","","","","1216","","null","","null","null","arrowleft","0","null","null","","",""
"sailing-instructions","11","127055","0.0-5.0-0.0-2.0","","","","","","","","","","","","","","null","null","null","null","0","null","","","","","","",""
"sailing-trial","12","132813","0.0-5.0-0.0-3.0-0.0","","","","false","","","","","","","","","","null","","1345","","2","1","null","null","arrowleft","[1,1,1,1]","","",""
"sailing-trial","13","137199","0.0-5.0-0.0-3.0-1.0","","","","false","","","","","","","","","","null","","970","","3","1","null","null","arrowright","[1,1,1,1]","","",""
"sailing-trial","14","141362","0.0-5.0-0.0-3.0-2.0","","","","false","","","","","","","","","","null","","601","","2","0","null","null","arrowleft","[0,0,0,0]","","",""
"sailing-instructions","15","148886","0.0-5.0-0.0-4.0","","","","","","","","","","","","","","null","null","null","null","null","null","","","","","","",""
"sailing-comprehension","16","167032","0.0-5.0-0.0-5.0","","","","","","","","","","13048","","","","","","","","","","","","","","[""true"",""true"",""false"",""true""]","0",""
"sailing-instructions","17","229609","0.0-6.0-0.0-0.0","","","","","","","","","","","","","","null","null","null","null","null","null","","","","","","",""
"sailing-comprehension","18","242886","0.0-6.0-0.0-1.0","","","","","","","","","","12085.00000000003","","","","","","","","","","","","","","[""true"",""false"",""true""]","0",""
"sailing-instructions","19","256998","0.0-7.0-0.0-0.0","","","","","","","","","","","","","","null","null","null","null","null","null","","","","","","",""
"sailing-trial","20","262298","0.0-7.0-0.0-1.0-0.0","","","","false","","","","","","","","","","null","","2272","","0","0","null","null","arrowup","[0.2,0.8,0.2,0.8]","","",""
"sailing-trial","21","266332","0.0-7.0-0.0-1.0-1.0","","","","false","","","","","","","","","","null","","1296","","1","1","null","null","arrowup","[0.2,0.8,0.2,0.8]","","",""
"sailing-trial","22","270003","0.0-7.0-0.0-1.0-2.0","","","","false","","","","","","","","","","null","","1318","","2","0","null","null","arrowup","[0.2,0.8,0.2,0.8]","","",""
"sailing-trial","23","273318","0.0-7.0-0.0-1.0-3.0","","","","false","","","","","","","","","","null","","785","","3","1","null","null","arrowup","[0.2,0.8,0.2,0.8]","","",""
"sailing-comprehension","24","281020","0.0-7.0-0.0-2.0","","","","","","","","","","6218","","","","","","","","","","","","","","[""false""]","0",""
"sailing-instructions","25","294592","0.0-8.0-0.0-0.0","","","","","","","","","","","","","","null","null","null","null","null","null","","","","","","",""
"sailing-comprehension","26","301164","0.0-8.0-0.0-1.0","","","","","","","","","","4533","","","","","","","","","","","","","","[""false""]","1",""
"sailing-instructions","27","312145","0.0-8.0-0.1-0.1","","","","","","","","","","","","","","null","null","null","null","null","null","","","","","","",""
"sailing-comprehension","28","314675","0.0-8.0-0.1-1.1","","","","","","","","","","1749","","","","","","","","","","","","","","[""true""]","0",""
"sailing-instructions","29","338566","0.0-9.0-0.0-0.0","","","","","","","","","","","","","","null","null","null","null","null","null","","","","","","",""
"sailing-trial","30","343911","0.0-9.0-0.0-1.0-0.0","","","","false","","","","","","","","","","1003","","491","","3","1","arrowright","1","arrowright","[0.2,0.8,0.2,0.8]","","",""
"sailing-trial","31","348592","0.0-9.0-0.0-1.0-1.0","","","","false","","","","","","","","","","984","","141","","3","1","arrowright","1","arrowright","[0.2,0.8,0.2,0.8]","","",""
"sailing-trial","32","352249","0.0-9.0-0.0-1.0-2.0","","","","false","","","","","","","","","","null","","2328.999999999942","","0","0","null","null","arrowup","[0.2,0.8,0.2,0.8]","","",""
"sailing-trial","33","356568","0.0-9.0-0.0-1.0-3.0","","","","false","","","","","","","","","","1119","","519.9999999999418","","0","0","arrowleft","0","arrowleft","[0.2,0.8,0.2,0.8]","","",""
"sailing-trial","34","360460","0.0-9.0-0.0-1.0-4.0","","","","false","","","","","","","","","","null","","863","","3","0","null","null","arrowup","[0.2,0.8,0.2,0.8]","","",""
"sailing-trial","35","366162","0.0-9.0-0.0-1.0-5.0","","","","false","","","","","","","","","","836","","515.0000000000582","","2","0","arrowright","1","arrowleft","[0.2,0.8,0.2,0.8]","","",""
"sailing-instructions","36","391564","0.0-10.0","","","","","","","","","","","","","","null","null","null","null","null","null","","","","","","",""
"sailing-trial","37","396931","0.0-11.0-0.0","","","","false","","","","","","","","","","938","","909","","3","1","arrowright","1","arrowright","[0.675,0.325,0.15,0.85]","","",""
"sailing-trial","38","400782","0.0-11.0-1.0","","","","false","","","","","","","","","","null","","1595","","3","1","null","null","arrowup","[0.675,0.325,0.15,0.85]","","",""
"sailing-trial","39","405232","0.0-11.0-2.0","","","","false","","","","","","","","","","626","","297","","3","1","arrowright","1","arrowright","[0.675,0.325,0.15,0.85]","","",""
"sailing-trial","40","409899","0.0-11.0-3.0","","","","false","","","","","","","","","","null","","1630.9999999999418","","2","0","null","null","arrowup","[0.675,0.325,0.15,0.85]","","",""
"sailing-trial","41","414800","0.0-11.0-4.0","","","","false","","","","","","","","","","882.9999999999418","","503","","3","1","arrowright","1","arrowright","[0.675,0.325,0.15,0.85]","","",""
"sailing-trial","42","419201","0.0-11.0-5.0","","","","false","","","","","","","","","","null","","1358","","1","0","null","null","arrowup","[0.675,0.325,0.15,0.85]","","",""
"sailing-trial","43","424501","0.0-11.0-6.0","","","","false","","","","","","","","","","766","","190.9999999999418","","3","0","arrowright","1","arrowright","[0.675,0.325,0.15,0.85]","","",""
"sailing-trial","44","428953","0.0-11.0-7.0","","","","false","","","","","","","","","","null","","1409","","1","0","null","null","arrowup","[0.675,0.325,0.15,0.85]","","",""
"sailing-trial","45","433553","0.0-11.0-8.0","","","","false","","","","","","","","","","725.0000000000582","","456","","0","1","arrowleft","0","arrowleft","[0.675,0.325,0.15,0.85]","","",""
"sailing-trial","46","437704","0.0-11.0-9.0","","","","false","","","","","","","","","","null","","1116.9999999999418","","1","0","null","null","arrowup","[0.675,0.325,0.15,0.85]","","",""
"sailing-trial","47","441487","0.0-11.0-10.0","","","","false","","","","","","","","","","550","","240.9999999999418","","0","1","arrowleft","0","arrowleft","[0.675,0.325,0.15,0.85]","","",""
"sailing-trial","48","445005","0.0-11.0-11.0","","","","false","","","","","","","","","","null","","807","","1","1","null","null","arrowup","[0.675,0.325,0.15,0.85]","","",""
"sailing-trial","49","450205","0.0-11.0-12.0","","","","false","","","","","","","","","","584.9999999999418","","1170","","0","1","arrowleft","0","arrowleft","[0.675,0.325,0.15,0.85]","","",""
"sailing-trial","50","454573","0.0-11.0-13.0","","","","false","","","","","","","","","","null","","1327","","2","0","null","null","arrowup","[0.675,0.325,0.15,0.85]","","",""
"sailing-trial","51","460573","0.0-11.0-14.0","","","","false","","","","","","","","","","807","","839.9999999999418","","0","0","arrowleft","0","arrowleft","[0.675,0.325,0.15,0.85]","","",""
"sailing-trial","52","463807","0.0-11.0-15.0","","","","false","","","","","","","","","","null","","977","","0","1","null","null","arrowup","[0.675,0.325,0.15,0.85]","","",""
"sailing-trial","53","472809","0.0-11.0-16.0","","","","false","","","","","","","","","","1446","","3182","","1","0","arrowleft","0","arrowright","[0.85,0.15,0.325,0.675]","","",""
"sailing-trial","54","476825","0.0-11.0-17.0","","","","false","","","","","","","","","","null","","979","","2","0","null","null","arrowup","[0.85,0.15,0.325,0.675]","","",""
"sailing-trial","55","481544","0.0-11.0-18.0","","","","false","","","","","","","","","","634.9999999999418","","450","","3","1","arrowright","1","arrowright","[0.85,0.15,0.325,0.675]","","",""
"sailing-trial","56","485976","0.0-11.0-19.0","","","","false","","","","","","","","","","null","","1405","","3","0","null","null","arrowup","[0.85,0.15,0.325,0.675]","","",""
"sailing-trial","57","490262","0.0-11.0-20.0","","","","false","","","","","","","","","","570","","557.9999999999418","","3","1","arrowright","1","arrowright","[0.85,0.15,0.325,0.675]","","",""
"sailing-trial","58","495011","0.0-11.0-21.0","","","","false","","","","","","","","","","null","","1222","","0","1","null","null","arrowup","[0.85,0.15,0.325,0.675]","","",""
"sailing-trial","59","499714","0.0-11.0-22.0","","","","false","","","","","","","","","","793","","41","","3","1","arrowright","1","arrowright","[0.85,0.15,0.325,0.675]","","",""
"sailing-trial","60","502997","0.0-11.0-23.0","","","","false","","","","","","","","","","null","","826","","2","1","null","null","arrowup","[0.85,0.15,0.325,0.675]","","",""
"sailing-trial","61","507581","0.0-11.0-24.0","","","","false","","","","","","","","","","654","","174.9999999999418","","3","1","arrowright","1","arrowright","[0.85,0.15,0.325,0.675]","","",""
"sailing-trial","62","510548","0.0-11.0-25.0","","","","false","","","","","","","","","","null","","1095.0000000000582","","0","1","null","null","arrowup","[0.85,0.15,0.325,0.675]","","",""
"sailing-trial","63","514832","0.0-11.0-26.0","","","","false","","","","","","","","","","552","","45.99999999994179","","3","1","arrowright","1","arrowright","[0.85,0.15,0.325,0.675]","","",""
"sailing-trial","64","520497","0.0-11.0-27.0","","","","false","","","","","","","","","","null","","2627.9999999998836","","1","0","null","null","arrowup","[0.85,0.15,0.325,0.675]","","",""
"sailing-trial","65","526451","0.0-11.0-28.0","","","","false","","","","","","","","","","561.0000000000582","","611","","3","1","arrowright","1","arrowright","[0.85,0.15,0.325,0.675]","","",""
"sailing-trial","66","531451","0.0-11.0-29.0","","","","false","","","","","","","","","","null","","1968","","2","0","null","null","arrowup","[0.85,0.15,0.325,0.675]","","",""
"sailing-trial","67","535785","0.0-11.0-30.0","","","","false","","","","","","","","","","581","","113","","3","1","arrowright","1","arrowright","[0.85,0.15,0.325,0.675]","","",""
"sailing-trial","68","539504","0.0-11.0-31.0","","","","false","","","","","","","","","","null","","1267","","0","1","null","null","arrowup","[0.85,0.15,0.325,0.675]","","",""
"sailing-trial","69","544733","0.0-11.0-32.0","","","","false","","","","","","","","","","753","","128","","3","0","arrowright","1","arrowright","[0.85,0.15,0.325,0.675]","","",""
"sailing-trial","70","548004","0.0-11.0-33.0","","","","false","","","","","","","","","","null","","1075","","1","1","null","null","arrowup","[0.85,0.15,0.325,0.675]","","",""
"sailing-trial","71","553591","0.0-11.0-34.0","","","","false","","","","","","","","","","1046.0000000001164","","256","","2","0","arrowright","1","arrowleft","[0.675,0.325,0.15,0.85]","","",""
"sailing-trial","72","557045","0.0-11.0-35.0","","","","false","","","","","","","","","","null","","1086","","0","1","null","null","arrowup","[0.675,0.325,0.15,0.85]","","",""
"sailing-trial","73","561596","0.0-11.0-36.0","","","","false","","","","","","","","","","673","","26","","3","1","arrowright","1","arrowright","[0.675,0.325,0.15,0.85]","","",""
"sailing-trial","74","565345","0.0-11.0-37.0","","","","false","","","","","","","","","","null","","1561","","0","1","null","null","arrowup","[0.675,0.325,0.15,0.85]","","",""
"sailing-trial","75","569763","0.0-11.0-38.0","","","","false","","","","","","","","","","651","","188","","3","1","arrowright","1","arrowright","[0.675,0.325,0.15,0.85]","","",""
"sailing-trial","76","573063","0.0-11.0-39.0","","","","false","","","","","","","","","","null","","1121","","3","1","null","null","arrowup","[0.675,0.325,0.15,0.85]","","",""
"sailing-trial","77","583678","0.0-11.0-40.0","","","","false","","","","","","","","","","582","","745","","3","1","arrowright","1","arrowright","[0.675,0.325,0.15,0.85]","","",""
"sailing-trial","78","588079","0.0-11.0-41.0","","","","false","","","","","","","","","","null","","1356.0000000001164","","2","0","null","null","arrowup","[0.675,0.325,0.15,0.85]","","",""
"sailing-trial","79","592597","0.0-11.0-42.0","","","","false","","","","","","","","","","587","","183","","3","1","arrowright","1","arrowright","[0.675,0.325,0.15,0.85]","","",""
"sailing-trial","80","597280","0.0-11.0-43.0","","","","false","","","","","","","","","","null","","1653","","1","0","null","null","arrowup","[0.675,0.325,0.15,0.85]","","",""
"sailing-trial","81","601696","0.0-11.0-44.0","","","","false","","","","","","","","","","579","","197","","3","1","arrowright","1","arrowright","[0.675,0.325,0.15,0.85]","","",""
"sailing-trial","82","608298","0.0-11.0-45.0","","","","false","","","","","","","","","","null","","1788","","2","1","null","null","arrowup","[0.675,0.325,0.15,0.85]","","",""
"sailing-trial","83","615281","0.0-11.0-46.0","","","","false","","","","","","","","","","1537","","1204","","3","1","arrowright","1","arrowright","[0.675,0.325,0.15,0.85]","","",""
"sailing-trial","84","623365","0.0-11.0-47.0","","","","false","","","","","","","","","","null","","5057","","3","0","null","null","arrowup","[0.675,0.325,0.15,0.85]","","",""
"sailing-trial","85","631232","0.0-11.0-48.0","","","","false","","","","","","","","","","2334","","1231","","3","1","arrowright","1","arrowright","[0.675,0.325,0.15,0.85]","","",""
"sailing-trial","86","639850","0.0-11.0-49.0","","","","false","","","","","","","","","","null","","5577","","3","0","null","null","arrowup","[0.675,0.325,0.15,0.85]","","",""
"sailing-trial","87","645402","0.0-11.0-50.0","","","","false","","","","","","","","","","1630","","316","","3","1","arrowright","1","arrowright","[0.675,0.325,0.15,0.85]","","",""
"sailing-trial","88","650033","0.0-11.0-51.0","","","","false","","","","","","","","","","null","","1591","","1","0","null","null","arrowup","[0.675,0.325,0.15,0.85]","","",""
"sailing-trial","89","655869","0.0-11.0-52.0","","","","false","","","","","","","","","","711","","785","","3","0","arrowright","1","arrowright","[0.675,0.325,0.15,0.85]","","",""
"sailing-trial","90","660270","0.0-11.0-53.0","","","","false","","","","","","","","","","null","","1363","","2","0","null","null","arrowup","[0.675,0.325,0.15,0.85]","","",""
"sailing-trial","91","665637","0.0-11.0-54.0","","","","false","","","","","","","","","","1266","","118.00000000011642","","3","1","arrowright","1","arrowright","[0.85,0.15,0.325,0.675]","","",""
"sailing-trial","92","669637","0.0-11.0-55.0","","","","false","","","","","","","","","","null","","961.9999999998836","","3","0","null","null","arrowup","[0.85,0.15,0.325,0.675]","","",""
"sailing-trial","93","675037","0.0-11.0-56.0","","","","false","","","","","","","","","","593.9999999998836","","730","","3","1","arrowright","1","arrowright","[0.85,0.15,0.325,0.675]","","",""
"sailing-trial","94","678239","0.0-11.0-57.0","","","","false","","","","","","","","","","null","","872.0000000001164","","0","1","null","null","arrowup","[0.85,0.15,0.325,0.675]","","",""
"sailing-trial","95","683689","0.0-11.0-58.0","","","","false","","","","","","","","","","979","","120","","3","0","arrowright","1","arrowright","[0.85,0.15,0.325,0.675]","","",""
"sailing-trial","96","687256","0.0-11.0-59.0","","","","false","","","","","","","","","","null","","1294.0000000001164","","0","1","null","null","arrowup","[0.85,0.15,0.325,0.675]","","",""
"sailing-trial","97","692340","0.0-11.0-60.0","","","","false","","","","","","","","","","639","","101","","3","0","arrowright","1","arrowright","[0.85,0.15,0.325,0.675]","","",""
"sailing-trial","98","696956","0.0-11.0-61.0","","","","false","","","","","","","","","","null","","1578","","1","0","null","null","arrowup","[0.85,0.15,0.325,0.675]","","",""
"sailing-trial","99","701990","0.0-11.0-62.0","","","","false","","","","","","","","","","522","","180","","3","0","arrowright","1","arrowright","[0.85,0.15,0.325,0.675]","","",""
"sailing-trial","100","705809","0.0-11.0-63.0","","","","false","","","","","","","","","","null","","1592","","3","1","null","null","arrowup","[0.85,0.15,0.325,0.675]","","",""
"sailing-trial","101","711109","0.0-11.0-64.0","","","","false","","","","","","","","","","1204.9999999998836","","173","","0","1","arrowleft","0","arrowleft","[0.85,0.15,0.325,0.675]","","",""
"sailing-trial","102","715244","0.0-11.0-65.0","","","","false","","","","","","","","","","null","","1103","","2","0","null","null","arrowup","[0.85,0.15,0.325,0.675]","","",""
"sailing-trial","103","720428","0.0-11.0-66.0","","","","false","","","","","","","","","","633","","752.9999999998836","","0","1","arrowleft","0","arrowleft","[0.85,0.15,0.325,0.675]","","",""
"sailing-trial","104","724810","0.0-11.0-67.0","","","","false","","","","","","","","","","null","","2216.9999999998836","","3","1","null","null","arrowup","[0.85,0.15,0.325,0.675]","","",""
"sailing-trial","105","730428","0.0-11.0-68.0","","","","false","","","","","","","","","","791.9999999998836","","466","","0","0","arrowleft","0","arrowleft","[0.85,0.15,0.325,0.675]","","",""
"sailing-trial","106","734212","0.0-11.0-69.0","","","","false","","","","","","","","","","null","","1607","","0","1","null","null","arrowup","[0.85,0.15,0.325,0.675]","","",""
"sailing-trial","107","738463","0.0-11.0-70.0","","","","false","","","","","","","","","","591","","218","","0","1","arrowleft","0","arrowleft","[0.85,0.15,0.325,0.675]","","",""
"sailing-trial","108","743276","0.0-11.0-71.0","","","","false","","","","","","","","","","null","","1781","","1","0","null","null","arrowup","[0.85,0.15,0.325,0.675]","","",""
"sailing-trial","109","748064","0.0-11.0-72.0","","","","false","","","","","","","","","","750","","230","","0","1","arrowleft","0","arrowleft","[0.85,0.15,0.325,0.675]","","",""
"sailing-trial","110","752538","0.0-11.0-73.0","","","","false","","","","","","","","","","null","","1811","","0","1","null","null","arrowup","[0.85,0.15,0.325,0.675]","","",""
"sailing-trial","111","760578","0.0-11.0-74.0","","","","false","","","","","","","","","","641","","3477.0000000001164","","0","1","arrowleft","0","arrowleft","[0.85,0.15,0.325,0.675]","","",""
"sailing-trial","112","765145","0.0-11.0-75.0","","","","false","","","","","","","","","","null","","1528","","1","0","null","null","arrowup","[0.85,0.15,0.325,0.675]","","",""
"sailing-trial","113","769516","0.0-11.0-76.0","","","","false","","","","","","","","","","817","","373","","0","1","arrowleft","0","arrowleft","[0.85,0.15,0.325,0.675]","","",""
"sailing-trial","114","772949","0.0-11.0-77.0","","","","false","","","","","","","","","","null","","1146","","0","1","null","null","arrowup","[0.85,0.15,0.325,0.675]","","",""
"sailing-trial","115","778198","0.0-11.0-78.0","","","","false","","","","","","","","","","1388","","269.0000000001164","","0","1","arrowleft","0","arrowleft","[0.675,0.325,0.15,0.85]","","",""
"sailing-trial","116","782500","0.0-11.0-79.0","","","","false","","","","","","","","","","null","","2000","","3","1","null","null","arrowup","[0.675,0.325,0.15,0.85]","","",""
"sailing-trial","117","787851","0.0-11.0-80.0","","","","false","","","","","","","","","","579.9999999998836","","421.9999999998836","","0","0","arrowleft","0","arrowleft","[0.675,0.325,0.15,0.85]","","",""
"sailing-trial","118","790965","0.0-11.0-81.0","","","","false","","","","","","","","","","null","","875","","2","1","null","null","arrowup","[0.675,0.325,0.15,0.85]","","",""
"sailing-trial","119","796667","0.0-11.0-82.0","","","","false","","","","","","","","","","715","","778","","0","0","arrowleft","0","arrowleft","[0.675,0.325,0.15,0.85]","","",""
"sailing-trial","120","800751","0.0-11.0-83.0","","","","false","","","","","","","","","","null","","1051.9999999998836","","0","0","null","null","arrowup","[0.675,0.325,0.15,0.85]","","",""
"sailing-trial","121","805267","0.0-11.0-84.0","","","","false","","","","","","","","","","575","","408.9999999998836","","3","1","arrowright","1","arrowright","[0.675,0.325,0.15,0.85]","","",""
"sailing-trial","122","808917","0.0-11.0-85.0","","","","false","","","","","","","","","","null","","1146.9999999998836","","2","1","null","null","arrowup","[0.675,0.325,0.15,0.85]","","",""
"sailing-trial","123","813319","0.0-11.0-86.0","","","","false","","","","","","","","","","745.9999999998836","","66","","3","1","arrowright","1","arrowright","[0.675,0.325,0.15,0.85]","","",""
"sailing-trial","124","816619","0.0-11.0-87.0","","","","false","","","","","","","","","","null","","1199","","0","1","null","null","arrowup","[0.675,0.325,0.15,0.85]","","",""
"sailing-trial","125","821536","0.0-11.0-88.0","","","","false","","","","","","","","","","459.9999999998836","","122","","3","0","arrowright","1","arrowright","[0.675,0.325,0.15,0.85]","","",""
"sailing-trial","126","824919","0.0-11.0-89.0","","","","false","","","","","","","","","","null","","1006","","3","1","null","null","arrowup","[0.675,0.325,0.15,0.85]","","",""
"sailing-trial","127","830854","0.0-11.0-90.0","","","","false","","","","","","","","","","571","","1688","","3","1","arrowright","1","arrowright","[0.675,0.325,0.15,0.85]","","",""
"sailing-trial","128","833605","0.0-11.0-91.0","","","","false","","","","","","","","","","null","","1181","","2","0","null","null","arrowup","[0.675,0.325,0.15,0.85]","","",""
"sailing-trial","129","838270","0.0-11.0-92.0","","","","false","","","","","","","","","","560.0000000001164","","243","","3","1","arrowright","1","arrowright","[0.675,0.325,0.15,0.85]","","",""
"sailing-trial","130","843088","0.0-11.0-93.0","","","","false","","","","","","","","","","null","","1776.0000000001164","","1","0","null","null","arrowup","[0.675,0.325,0.15,0.85]","","",""
"sailing-trial","131","848155","0.0-11.0-94.0","","","","false","","","","","","","","","","1173","","46","","3","1","arrowright","1","arrowright","[0.85,0.15,0.325,0.675]","","",""
"sailing-trial","132","854140","0.0-11.0-95.0","","","","false","","","","","","","","","","null","","2954","","2","0","null","null","arrowup","[0.85,0.15,0.325,0.675]","","",""
"sailing-trial","133","859407","0.0-11.0-96.0","","","","false","","","","","","","","","","1072","","559","","3","1","arrowright","1","arrowright","[0.85,0.15,0.325,0.675]","","",""
"sailing-trial","134","870557","0.0-11.0-97.0","","","","false","","","","","","","","","","null","","7332","","0","1","null","null","arrowup","[0.85,0.15,0.325,0.675]","","",""
"sailing-trial","135","875775","0.0-11.0-98.0","","","","false","","","","","","","","","","534.0000000001164","","945","","3","1","arrowright","1","arrowright","[0.85,0.15,0.325,0.675]","","",""
"sailing-trial","136","881342","0.0-11.0-99.0","","","","false","","","","","","","","","","null","","2532","","0","1","null","null","arrowup","[0.85,0.15,0.325,0.675]","","",""
"sailing-trial","137","886458","0.0-11.0-100.0","","","","false","","","","","","","","","","597","","173","","3","0","arrowright","1","arrowright","[0.85,0.15,0.325,0.675]","","",""
"sailing-trial","138","894661","0.0-11.0-101.0","","","","false","","","","","","","","","","null","","5168","","3","0","null","null","arrowup","[0.85,0.15,0.325,0.675]","","",""
"sailing-trial","139","900144","0.0-11.0-102.0","","","","false","","","","","","","","","","613","","1509","","3","1","arrowright","1","arrowright","[0.85,0.15,0.325,0.675]","","",""
"sailing-trial","140","903878","0.0-11.0-103.0","","","","false","","","","","","","","","","null","","1482","","3","1","null","null","arrowup","[0.85,0.15,0.325,0.675]","","",""
"sailing-trial","141","909245","0.0-11.0-104.0","","","","false","","","","","","","","","","756","","1092.9999999998836","","3","1","arrowright","1","arrowright","[0.85,0.15,0.325,0.675]","","",""
"sailing-trial","142","914263","0.0-11.0-105.0","","","","false","","","","","","","","","","null","","2949","","3","1","null","null","arrowup","[0.85,0.15,0.325,0.675]","","",""
"sailing-trial","143","919996","0.0-11.0-106.0","","","","false","","","","","","","","","","898.0000000001164","","485","","3","0","arrowright","1","arrowright","[0.85,0.15,0.325,0.675]","","",""
"sailing-trial","144","925113","0.0-11.0-107.0","","","","false","","","","","","","","","","null","","2092.0000000001164","","1","0","null","null","arrowup","[0.85,0.15,0.325,0.675]","","",""
"sailing-trial","145","932900","0.0-11.0-108.0","","","","false","","","","","","","","","","943","","2489","","3","0","arrowright","1","arrowright","[0.85,0.15,0.325,0.675]","","",""
"sailing-trial","146","937082","0.0-11.0-109.0","","","","false","","","","","","","","","","null","","1139","","1","0","null","null","arrowup","[0.85,0.15,0.325,0.675]","","",""
"sailing-trial","147","941534","0.0-11.0-110.0","","","","false","","","","","","","","","","726","","9.000000000116415","","3","1","arrowright","1","arrowright","[0.85,0.15,0.325,0.675]","","",""
"sailing-trial","148","946366","0.0-11.0-111.0","","","","false","","","","","","","","","","null","","2674.0000000001164","","1","1","null","null","arrowup","[0.85,0.15,0.325,0.675]","","",""
"sailing-trial","149","952268","0.0-11.0-112.0","","","","false","","","","","","","","","","1175","","1146","","3","1","arrowright","1","arrowright","[0.85,0.15,0.325,0.675]","","",""
"sailing-trial","150","955401","0.0-11.0-113.0","","","","false","","","","","","","","","","null","","835","","2","1","null","null","arrowup","[0.85,0.15,0.325,0.675]","","",""
"sailing-trial","151","960135","0.0-11.0-114.0","","","","false","","","","","","","","","","398.0000000001164","","199","","3","1","arrowright","1","arrowright","[0.85,0.15,0.325,0.675]","","",""
"sailing-trial","152","965782","0.0-11.0-115.0","","","","false","","","","","","","","","","null","","2622","","3","0","null","null","arrowup","[0.85,0.15,0.325,0.675]","","",""
"sailing-trial","153","969837","0.0-11.0-116.0","","","","false","","","","","","","","","","8.999999999883585","","404","","3","1","arrowright","1","arrowright","[0.675,0.325,0.15,0.85]","","",""
"sailing-trial","154","975417","0.0-11.0-117.0","","","","false","","","","","","","","","","null","","2553","","2","0","null","null","arrowup","[0.675,0.325,0.15,0.85]","","",""
"sailing-trial","155","980788","0.0-11.0-118.0","","","","false","","","","","","","","","","794","","243","","3","1","arrowright","1","arrowright","[0.675,0.325,0.15,0.85]","","",""
"sailing-trial","156","985137","0.0-11.0-119.0","","","","false","","","","","","","","","","null","","2080.0000000001164","","0","1","null","null","arrowup","[0.675,0.325,0.15,0.85]","","",""
"sailing-trial","157","991019","0.0-11.0-120.0","","","","false","","","","","","","","","","1337","","183","","3","0","arrowright","1","arrowright","[0.675,0.325,0.15,0.85]","","",""
"sailing-trial","158","995336","0.0-11.0-121.0","","","","false","","","","","","","","","","null","","1288","","1","0","null","null","arrowup","[0.675,0.325,0.15,0.85]","","",""
"sailing-trial","159","1000304","0.0-11.0-122.0","","","","false","","","","","","","","","","547","","68","","3","0","arrowright","1","arrowright","[0.675,0.325,0.15,0.85]","","",""
"sailing-trial","160","1004537","0.0-11.0-123.0","","","","false","","","","","","","","","","null","","1195","","1","0","null","null","arrowup","[0.675,0.325,0.15,0.85]","","",""
"sailing-trial","161","1008822","0.0-11.0-124.0","","","","false","","","","","","","","","","579","","314","","0","1","arrowleft","0","arrowleft","[0.675,0.325,0.15,0.85]","","",""
"sailing-trial","162","1012456","0.0-11.0-125.0","","","","false","","","","","","","","","","null","","1541","","0","1","null","null","arrowup","[0.675,0.325,0.15,0.85]","","",""
"sailing-trial","163","1017674","0.0-11.0-126.0","","","","false","","","","","","","","","","1187","","562.9999999998836","","0","1","arrowleft","0","arrowleft","[0.675,0.325,0.15,0.85]","","",""
"sailing-trial","164","1022173","0.0-11.0-127.0","","","","false","","","","","","","","","","null","","1463","","0","0","null","null","arrowup","[0.675,0.325,0.15,0.85]","","",""
"sailing-trial","165","1027825","0.0-11.0-128.0","","","","false","","","","","","","","","","558.0000000001164","","759.0000000001164","","0","0","arrowleft","0","arrowleft","[0.675,0.325,0.15,0.85]","","",""
"sailing-trial","166","1031942","0.0-11.0-129.0","","","","false","","","","","","","","","","null","","1078.9999999998836","","0","0","null","null","arrowup","[0.675,0.325,0.15,0.85]","","",""
"sailing-trial","167","1036359","0.0-11.0-130.0","","","","false","","","","","","","","","","500","","441","","3","1","arrowright","1","arrowright","[0.675,0.325,0.15,0.85]","","",""
"sailing-trial","168","1041359","0.0-11.0-131.0","","","","false","","","","","","","","","","null","","1315","","3","1","null","null","arrowup","[0.675,0.325,0.15,0.85]","","",""
"sailing-trial","169","1046125","0.0-11.0-132.0","","","","false","","","","","","","","","","857.9999999998836","","288","","3","1","arrowright","1","arrowright","[0.85,0.15,0.325,0.675]","","",""
"sailing-trial","170","1050944","0.0-11.0-133.0","","","","false","","","","","","","","","","null","","1777","","1","0","null","null","arrowup","[0.85,0.15,0.325,0.675]","","",""
"sailing-trial","171","1056694","0.0-11.0-134.0","","","","false","","","","","","","","","","674","","734","","3","0","arrowright","1","arrowright","[0.85,0.15,0.325,0.675]","","",""
"sailing-trial","172","1060628","0.0-11.0-135.0","","","","false","","","","","","","","","","null","","1587","","0","1","null","null","arrowup","[0.85,0.15,0.325,0.675]","","",""
"sailing-trial","173","1065260","0.0-11.0-136.0","","","","false","","","","","","","","","","644","","307","","3","1","arrowright","1","arrowright","[0.85,0.15,0.325,0.675]","","",""
"sailing-trial","174","1069344","0.0-11.0-137.0","","","","false","","","","","","","","","","null","","1043","","1","0","null","null","arrowup","[0.85,0.15,0.325,0.675]","","",""
"sailing-trial","175","1073663","0.0-11.0-138.0","","","","false","","","","","","","","","","463","","444","","3","1","arrowright","1","arrowright","[0.85,0.15,0.325,0.675]","","",""
"sailing-trial","176","1077145","0.0-11.0-139.0","","","","false","","","","","","","","","","null","","1393","","0","1","null","null","arrowup","[0.85,0.15,0.325,0.675]","","",""
"sailing-trial","177","1081329","0.0-11.0-140.0","","","","false","","","","","","","","","","590.0000000002328","","150","","0","1","arrowleft","0","arrowleft","[0.85,0.15,0.325,0.675]","","",""
"sailing-trial","178","1084613","0.0-11.0-141.0","","","","false","","","","","","","","","","null","","1134","","0","1","null","null","arrowup","[0.85,0.15,0.325,0.675]","","",""
"sailing-trial","179","1088830","0.0-11.0-142.0","","","","false","","","","","","","","","","442","","145","","0","1","arrowleft","0","arrowleft","[0.85,0.15,0.325,0.675]","","",""
"sailing-trial","180","1092564","0.0-11.0-143.0","","","","false","","","","","","","","","","null","","1593","","3","1","null","null","arrowup","[0.85,0.15,0.325,0.675]","","",""
"sailing-trial","181","1097630","0.0-11.0-144.0","","","","false","","","","","","","","","","539","","190","","3","0","arrowright","1","arrowright","[0.85,0.15,0.325,0.675]","","",""
"sailing-trial","182","1101646","0.0-11.0-145.0","","","","false","","","","","","","","","","null","","984","","0","0","null","null","arrowup","[0.85,0.15,0.325,0.675]","","",""
"sailing-trial","183","1107165","0.0-11.0-146.0","","","","false","","","","","","","","","","973.9999999997672","","181","","0","0","arrowleft","0","arrowleft","[0.85,0.15,0.325,0.675]","","",""
"sailing-trial","184","1111316","0.0-11.0-147.0","","","","false","","","","","","","","","","null","","1888","","3","1","null","null","arrowup","[0.85,0.15,0.325,0.675]","","",""
"sailing-trial","185","1116183","0.0-11.0-148.0","","","","false","","","","","","","","","","849","","247","","3","1","arrowright","1","arrowright","[0.85,0.15,0.325,0.675]","","",""
"sailing-trial","186","1120466","0.0-11.0-149.0","","","","false","","","","","","","","","","null","","1248","","1","0","null","null","arrowup","[0.85,0.15,0.325,0.675]","","",""
"sailing-trial","187","1124968","0.0-11.0-150.0","","","","false","","","","","","","","","","371","","475","","3","1","arrowright","1","arrowright","[0.85,0.15,0.325,0.675]","","",""
"sailing-trial","188","1127716","0.0-11.0-151.0","","","","false","","","","","","","","","","null","","1141","","1","0","null","null","arrowup","[0.85,0.15,0.325,0.675]","","",""
"sailing-trial","189","1132918","0.0-11.0-152.0","","","","false","","","","","","","","","","720","","139","","3","0","arrowright","1","arrowright","[0.15,0.85,0.675,0.325]","","",""
"sailing-trial","190","1136419","0.0-11.0-153.0","","","","false","","","","","","","","","","null","","1110","","2","1","null","null","arrowup","[0.15,0.85,0.675,0.325]","","",""
"sailing-trial","191","1140985","0.0-11.0-154.0","","","","false","","","","","","","","","","537","","308","","0","1","arrowleft","0","arrowleft","[0.15,0.85,0.675,0.325]","","",""
"sailing-trial","192","1144537","0.0-11.0-155.0","","","","false","","","","","","","","","","null","","1203","","2","1","null","null","arrowup","[0.15,0.85,0.675,0.325]","","",""
"sailing-trial","193","1149620","0.0-11.0-156.0","","","","false","","","","","","","","","","579","","164","","0","0","arrowleft","0","arrowleft","[0.15,0.85,0.675,0.325]","","",""
"sailing-trial","194","1153871","0.0-11.0-157.0","","","","false","","","","","","","","","","null","","1215","","3","0","null","null","arrowup","[0.15,0.85,0.675,0.325]","","",""
"sailing-trial","195","1158871","0.0-11.0-158.0","","","","false","","","","","","","","","","595","","892","","2","1","arrowright","1","arrowleft","[0.15,0.85,0.675,0.325]","","",""
"sailing-trial","196","1163272","0.0-11.0-159.0","","","","false","","","","","","","","","","null","","1363","","2","0","null","null","arrowup","[0.15,0.85,0.675,0.325]","","",""
"sailing-trial","197","1168454","0.0-11.0-160.0","","","","false","","","","","","","","","","570","","268","","0","0","arrowleft","0","arrowleft","[0.15,0.85,0.675,0.325]","","",""
"sailing-trial","198","1172657","0.0-11.0-161.0","","","","false","","","","","","","","","","null","","1171","","2","0","null","null","arrowup","[0.15,0.85,0.675,0.325]","","",""
"sailing-trial","199","1178340","0.0-11.0-162.0","","","","false","","","","","","","","","","617","","713","","2","0","arrowright","1","arrowleft","[0.15,0.85,0.675,0.325]","","",""
"sailing-trial","200","1181203","0.0-11.0-163.0","","","","false","","","","","","","","","","null","","1173","","3","0","null","null","arrowup","[0.15,0.85,0.675,0.325]","","",""
"sailing-trial","201","1186125","0.0-11.0-164.0","","","","false","","","","","","","","","","964","","299","","3","1","arrowright","1","arrowright","[0.15,0.85,0.675,0.325]","","",""
"sailing-trial","202","1189675","0.0-11.0-165.0","","","","false","","","","","","","","","","null","","1412.0000000002328","","1","1","null","null","arrowup","[0.15,0.85,0.675,0.325]","","",""
"sailing-trial","203","1195009","0.0-11.0-166.0","","","","false","","","","","","","","","","781","","207","","3","0","arrowright","1","arrowright","[0.15,0.85,0.675,0.325]","","",""
"sailing-trial","204","1200208","0.0-11.0-167.0","","","","false","","","","","","","","","","null","","2176","","0","0","null","null","arrowup","[0.15,0.85,0.675,0.325]","","",""
"sailing-trial","205","1205243","0.0-11.0-168.0","","","","false","","","","","","","","","","382.99999999976717","","303","","3","0","arrowright","1","arrowright","[0.325,0.675,0.85,0.15]","","",""
"sailing-trial","206","1209575","0.0-11.0-169.0","","","","false","","","","","","","","","","null","","1300","","0","0","null","null","arrowup","[0.325,0.675,0.85,0.15]","","",""
"sailing-trial","207","1214344","0.0-11.0-170.0","","","","false","","","","","","","","","","623","","559","","2","1","arrowright","1","arrowleft","[0.325,0.675,0.85,0.15]","","",""
"sailing-trial","208","1218759","0.0-11.0-171.0","","","","false","","","","","","","","","","null","","1382","","0","0","null","null","arrowup","[0.325,0.675,0.85,0.15]","","",""
"sailing-trial","209","1223494","0.0-11.0-172.0","","","","false","","","","","","","","","","719","","458","","2","1","arrowright","1","arrowleft","[0.325,0.675,0.85,0.15]","","",""
"sailing-trial","210","1228380","0.0-11.0-173.0","","","","false","","","","","","","","","","null","","2713","","1","1","null","null","arrowup","[0.325,0.675,0.85,0.15]","","",""
"sailing-trial","211","1233798","0.0-11.0-174.0","","","","false","","","","","","","","","","857.9999999997672","","1010","","2","1","arrowright","1","arrowleft","[0.325,0.675,0.85,0.15]","","",""
"sailing-trial","212","1237097","0.0-11.0-175.0","","","","false","","","","","","","","","","null","","1127","","2","1","null","null","arrowup","[0.325,0.675,0.85,0.15]","","",""
"sailing-trial","213","1241915","0.0-11.0-176.0","","","","false","","","","","","","","","","644","","581","","2","1","arrowright","1","arrowleft","[0.325,0.675,0.85,0.15]","","",""
"sailing-trial","214","1246095","0.0-11.0-177.0","","","","false","","","","","","","","","","null","","1154","","3","0","null","null","arrowup","[0.325,0.675,0.85,0.15]","","",""
"sailing-trial","215","1251032","0.0-11.0-178.0","","","","false","","","","","","","","","","1106","","2","","2","1","arrowright","1","arrowleft","[0.325,0.675,0.85,0.15]","","",""
"sailing-trial","216","1255330","0.0-11.0-179.0","","","","false","","","","","","","","","","null","","1269","","3","0","null","null","arrowup","[0.325,0.675,0.85,0.15]","","",""
"sailing-trial","217","1259585","0.0-11.0-180.0","","","","false","","","","","","","","","","585","","674","","2","1","arrowright","1","arrowleft","[0.325,0.675,0.85,0.15]","","",""
"sailing-trial","218","1264413","0.0-11.0-181.0","","","","false","","","","","","","","","","null","","1788","","0","0","null","null","arrowup","[0.325,0.675,0.85,0.15]","","",""
"sailing-trial","219","1268567","0.0-11.0-182.0","","","","false","","","","","","","","","","542","","2","","2","1","arrowright","1","arrowleft","[0.325,0.675,0.85,0.15]","","",""
"sailing-trial","220","1272020","0.0-11.0-183.0","","","","false","","","","","","","","","","null","","1257","","1","1","null","null","arrowup","[0.325,0.675,0.85,0.15]","","",""
"sailing-trial","221","1277036","0.0-11.0-184.0","","","","false","","","","","","","","","","1112","","525","","0","1","arrowleft","0","arrowleft","[0.325,0.675,0.85,0.15]","","",""
"sailing-trial","222","1280452","0.0-11.0-185.0","","","","false","","","","","","","","","","null","","943","","2","1","null","null","arrowup","[0.325,0.675,0.85,0.15]","","",""
"sailing-trial","223","1285516","0.0-11.0-186.0","","","","false","","","","","","","","","","567","","155.00000000023283","","2","0","arrowright","1","arrowleft","[0.675,0.325,0.15,0.85]","","",""
"sailing-trial","224","1289752","0.0-11.0-187.0","","","","false","","","","","","","","","","null","","1197","","1","0","null","null","arrowup","[0.675,0.325,0.15,0.85]","","",""
"sailing-trial","225","1294751","0.0-11.0-188.0","","","","false","","","","","","","","","","649","","9","","0","0","arrowleft","0","arrowleft","[0.675,0.325,0.15,0.85]","","",""
"sailing-trial","226","1298700","0.0-11.0-189.0","","","","false","","","","","","","","","","null","","913","","0","0","null","null","arrowup","[0.675,0.325,0.15,0.85]","","",""
"sailing-trial","227","1304621","0.0-11.0-190.0","","","","false","","","","","","","","","","1238","","1226","","1","1","arrowleft","0","arrowright","[0.675,0.325,0.15,0.85]","","",""
"sailing-trial","228","1308753","0.0-11.0-191.0","","","","false","","","","","","","","","","null","","1092","","3","0","null","null","arrowup","[0.675,0.325,0.15,0.85]","","",""
"sailing-trial","229","1313868","0.0-11.0-192.0","","","","false","","","","","","","","","","705","","51","","1","0","arrowleft","0","arrowright","[0.675,0.325,0.15,0.85]","","",""
"sailing-trial","230","1318965","0.0-11.0-193.0","","","","false","","","","","","","","","","null","","1908","","1","0","null","null","arrowup","[0.675,0.325,0.15,0.85]","","",""
"sailing-trial","231","1324404","0.0-11.0-194.0","","","","false","","","","","","","","","","987","","85","","0","0","arrowleft","0","arrowleft","[0.675,0.325,0.15,0.85]","","",""
"sailing-trial","232","1328587","0.0-11.0-195.0","","","","false","","","","","","","","","","null","","1156.9999999997672","","2","0","null","null","arrowup","[0.675,0.325,0.15,0.85]","","",""
"sailing-trial","233","1335107","0.0-11.0-196.0","","","","false","","","","","","","","","","646","","1514","","3","0","arrowright","1","arrowright","[0.675,0.325,0.15,0.85]","","",""
"sailing-trial","234","1342240","0.0-11.0-197.0","","","","false","","","","","","","","","","null","","2059","","1","1","null","null","arrowup","[0.675,0.325,0.15,0.85]","","",""
"sailing-trial","235","1348507","0.0-11.0-198.0","","","","false","","","","","","","","","","2296","","323","","3","1","arrowright","1","arrowright","[0.675,0.325,0.15,0.85]","","",""
"sailing-trial","236","1352756","0.0-11.0-199.0","","","","false","","","","","","","","","","null","","1380","","1","1","null","null","arrowup","[0.675,0.325,0.15,0.85]","","",""
"sailing-trial","237","1357741","0.0-11.0-200.0","","","","false","","","","","","","","","","1267","","142","","3","1","arrowright","1","arrowright","[0.675,0.325,0.15,0.85]","","",""
"sailing-trial","238","1361905","0.0-11.0-201.0","","","","false","","","","","","","","","","null","","1530","","0","1","null","null","arrowup","[0.675,0.325,0.15,0.85]","","",""
"sailing-trial","239","1367953","0.0-11.0-202.0","","","","false","","","","","","","","","","1014","","1072","","0","1","arrowleft","0","arrowleft","[0.85,0.15,0.325,0.675]","","",""
"sailing-trial","240","1371441","0.0-11.0-203.0","","","","false","","","","","","","","","","null","","1317","","0","1","null","null","arrowup","[0.85,0.15,0.325,0.675]","","",""
"sailing-trial","241","1376694","0.0-11.0-204.0","","","","false","","","","","","","","","","693","","440","","0","1","arrowleft","0","arrowleft","[0.85,0.15,0.325,0.675]","","",""
"sailing-trial","242","1380508","0.0-11.0-205.0","","","","false","","","","","","","","","","null","","2167","","2","0","null","null","arrowup","[0.85,0.15,0.325,0.675]","","",""
"sailing-trial","243","1384728","0.0-11.0-206.0","","","","false","","","","","","","","","","728","","56","","0","1","arrowleft","0","arrowleft","[0.85,0.15,0.325,0.675]","","",""
"sailing-trial","244","1388661","0.0-11.0-207.0","","","","false","","","","","","","","","","null","","1341","","3","1","null","null","arrowup","[0.85,0.15,0.325,0.675]","","",""
"sailing-trial","245","1393345","0.0-11.0-208.0","","","","false","","","","","","","","","","791","","143","","3","1","arrowright","1","arrowright","[0.85,0.15,0.325,0.675]","","",""
"sailing-trial","246","1398079","0.0-11.0-209.0","","","","false","","","","","","","","","","null","","2596","","0","1","null","null","arrowup","[0.85,0.15,0.325,0.675]","","",""
"sailing-trial","247","1404878","0.0-11.0-210.0","","","","false","","","","","","","","","","652","","1804","","3","0","arrowright","1","arrowright","[0.85,0.15,0.325,0.675]","","",""
"sailing-trial","248","1409263","0.0-11.0-211.0","","","","false","","","","","","","","","","null","","1357","","1","0","null","null","arrowup","[0.85,0.15,0.325,0.675]","","",""
"sailing-trial","249","1414697","0.0-11.0-212.0","","","","false","","","","","","","","","","1325","","246","","0","1","arrowleft","0","arrowleft","[0.85,0.15,0.325,0.675]","","",""
"sailing-trial","250","1421864","0.0-11.0-213.0","","","","false","","","","","","","","","","null","","4130.999999999767","","1","0","null","null","arrowup","[0.85,0.15,0.325,0.675]","","",""
"sailing-trial","251","1426316","0.0-11.0-214.0","","","","false","","","","","","","","","","971","","339","","3","1","arrowright","1","arrowright","[0.85,0.15,0.325,0.675]","","",""
"sailing-trial","252","1431183","0.0-11.0-215.0","","","","false","","","","","","","","","","null","","1831","","2","0","null","null","arrowup","[0.85,0.15,0.325,0.675]","","",""
"sailing-trial","253","1435600","0.0-11.0-216.0","","","","false","","","","","","","","","","731","","70","","0","1","arrowleft","0","arrowleft","[0.85,0.15,0.325,0.675]","","",""
"sailing-trial","254","1443617","0.0-11.0-217.0","","","","false","","","","","","","","","","null","","4986","","1","0","null","null","arrowup","[0.85,0.15,0.325,0.675]","","",""
"sailing-trial","255","1449402","0.0-11.0-218.0","","","","false","","","","","","","","","","1363","","649","","3","1","arrowright","1","arrowright","[0.85,0.15,0.325,0.675]","","",""
"sailing-trial","256","1455082","0.0-11.0-219.0","","","","false","","","","","","","","","","null","","2648","","3","0","null","null","arrowup","[0.85,0.15,0.325,0.675]","","",""
"sailing-trial","257","1461410","0.0-11.0-220.0","","","","false","","","","","","","","","","1459","","504","","3","0","arrowright","1","arrowright","[0.325,0.675,0.85,0.15]","","",""
"sailing-trial","258","1466292","0.0-11.0-221.0","","","","false","","","","","","","","","","null","","1853","","0","0","null","null","arrowup","[0.325,0.675,0.85,0.15]","","",""
"sailing-trial","259","1470442","0.0-11.0-222.0","","","","false","","","","","","","","","","504.00000000023283","","6","","0","1","arrowleft","0","arrowleft","[0.325,0.675,0.85,0.15]","","",""
"sailing-trial","260","1474473","0.0-11.0-223.0","","","","false","","","","","","","","","","null","","1273","","2","1","null","null","arrowup","[0.325,0.675,0.85,0.15]","","",""
"sailing-trial","261","1479433","0.0-11.0-224.0","","","","false","","","","","","","","","","1416.0000000002328","","432.00000000023283","","0","0","arrowleft","0","arrowleft","[0.325,0.675,0.85,0.15]","","",""
"sailing-trial","262","1483939","0.0-11.0-225.0","","","","false","","","","","","","","","","null","","1479","","3","0","null","null","arrowup","[0.325,0.675,0.85,0.15]","","",""
"sailing-trial","263","1489620","0.0-11.0-226.0","","","","false","","","","","","","","","","1011","","316","","0","0","arrowleft","0","arrowleft","[0.325,0.675,0.85,0.15]","","",""
"sailing-trial","264","1493804","0.0-11.0-227.0","","","","false","","","","","","","","","","null","","1146","","2","0","null","null","arrowup","[0.325,0.675,0.85,0.15]","","",""
"sailing-trial","265","1499336","0.0-11.0-228.0","","","","false","","","","","","","","","","727","","452","","3","0","arrowright","1","arrowright","[0.325,0.675,0.85,0.15]","","",""
"sailing-trial","266","1503371","0.0-11.0-229.0","","","","false","","","","","","","","","","null","","998","","3","0","null","null","arrowup","[0.325,0.675,0.85,0.15]","","",""
"sailing-trial","267","1508075","0.0-11.0-230.0","","","","false","","","","","","","","","","550.0000000002328","","354","","2","1","arrowright","1","arrowleft","[0.325,0.675,0.85,0.15]","","",""
"sailing-trial","268","1512121","0.0-11.0-231.0","","","","false","","","","","","","","","","null","","1016","","3","0","null","null","arrowup","[0.325,0.675,0.85,0.15]","","",""
"sailing-trial","269","1517175","0.0-11.0-232.0","","","","false","","","","","","","","","","625","","352.00000000023283","","2","1","arrowright","1","arrowleft","[0.325,0.675,0.85,0.15]","","",""
"sailing-trial","270","1521440","0.0-11.0-233.0","","","","false","","","","","","","","","","null","","1235","","2","0","null","null","arrowup","[0.325,0.675,0.85,0.15]","","",""
"sailing-trial","271","1527457","0.0-11.0-234.0","","","","false","","","","","","","","","","671","","1000","","2","0","arrowright","1","arrowleft","[0.325,0.675,0.85,0.15]","","",""
"sailing-trial","272","1530623","0.0-11.0-235.0","","","","false","","","","","","","","","","null","","1043","","2","1","null","null","arrowup","[0.325,0.675,0.85,0.15]","","",""
"sailing-trial","273","1535057","0.0-11.0-236.0","","","","false","","","","","","","","","","736","","204","","3","1","arrowright","1","arrowright","[0.15,0.85,0.675,0.325]","","",""
"sailing-trial","274","1538225","0.0-11.0-237.0","","","","false","","","","","","","","","","null","","1015","","1","1","null","null","arrowup","[0.15,0.85,0.675,0.325]","","",""
"sailing-trial","275","1543491","0.0-11.0-238.0","","","","false","","","","","","","","","","735","","187","","3","0","arrowright","1","arrowright","[0.15,0.85,0.675,0.325]","","",""
"sailing-trial","276","1547507","0.0-11.0-239.0","","","","false","","","","","","","","","","null","","985","","2","0","null","null","arrowup","[0.15,0.85,0.675,0.325]","","",""
"sailing-trial","277","1552891","0.0-11.0-240.0","","","","false","","","","","","","","","","535","","502","","3","0","arrowright","1","arrowright","[0.15,0.85,0.675,0.325]","","",""
"sailing-trial","278","1556943","0.0-11.0-241.0","","","","false","","","","","","","","","","null","","1019","","3","0","null","null","arrowup","[0.15,0.85,0.675,0.325]","","",""
"sailing-trial","279","1563077","0.0-11.0-242.0","","","","false","","","","","","","","","","544","","1242","","2","0","arrowright","1","arrowleft","[0.15,0.85,0.675,0.325]","","",""
"sailing-trial","280","1567510","0.0-11.0-243.0","","","","false","","","","","","","","","","null","","1395","","0","0","null","null","arrowup","[0.15,0.85,0.675,0.325]","","",""
"sailing-trial","281","1573795","0.0-11.0-244.0","","","","false","","","","","","","","","","961","","1265","","0","1","arrowleft","0","arrowleft","[0.15,0.85,0.675,0.325]","","",""
"sailing-trial","282","1580194","0.0-11.0-245.0","","","","false","","","","","","","","","","null","","3364","","0","0","null","null","arrowup","[0.15,0.85,0.675,0.325]","","",""
"sailing-trial","283","1585348","0.0-11.0-246.0","","","","false","","","","","","","","","","545.9999999997672","","253","","0","0","arrowleft","0","arrowleft","[0.15,0.85,0.675,0.325]","","",""
"sailing-trial","284","1589764","0.0-11.0-247.0","","","","false","","","","","","","","","","null","","1376.9999999997672","","3","0","null","null","arrowup","[0.15,0.85,0.675,0.325]","","",""
"sailing-trial","285","1594630","0.0-11.0-248.0","","","","false","","","","","","","","","","1322","","38.00000000023283","","1","1","arrowleft","0","arrowright","[0.15,0.85,0.675,0.325]","","",""
"sailing-trial","286","1599080","0.0-11.0-249.0","","","","false","","","","","","","","","","null","","1695","","2","1","null","null","arrowup","[0.15,0.85,0.675,0.325]","","",""
"sailing-trial","287","1604947","0.0-11.0-250.0","","","","false","","","","","","","","","","1558","","511","","1","1","arrowleft","0","arrowright","[0.15,0.85,0.675,0.325]","","",""
"sailing-trial","288","1608314","0.0-11.0-251.0","","","","false","","","","","","","","","","null","","1145","","2","1","null","null","arrowup","[0.15,0.85,0.675,0.325]","","",""
"sailing-trial","289","1614630","0.0-11.0-252.0","","","","false","","","","","","","","","","1234","","719.9999999997672","","1","0","arrowleft","0","arrowright","[0.325,0.675,0.85,0.15]","","",""
"sailing-trial","290","1618898","0.0-11.0-253.0","","","","false","","","","","","","","","","null","","1231","","3","0","null","null","arrowup","[0.325,0.675,0.85,0.15]","","",""
"sailing-trial","291","1624448","0.0-11.0-254.0","","","","false","","","","","","","","","","882.0000000002328","","317","","0","0","arrowleft","0","arrowleft","[0.325,0.675,0.85,0.15]","","",""
"sailing-trial","292","1628848","0.0-11.0-255.0","","","","false","","","","","","","","","","null","","1364","","3","0","null","null","arrowup","[0.325,0.675,0.85,0.15]","","",""
"sailing-trial","293","1634150","0.0-11.0-256.0","","","","false","","","","","","","","","","659.9999999997672","","304","","3","0","arrowright","1","arrowright","[0.325,0.675,0.85,0.15]","","",""
"sailing-trial","294","1638267","0.0-11.0-257.0","","","","false","","","","","","","","","","null","","1085","","0","0","null","null","arrowup","[0.325,0.675,0.85,0.15]","","",""
"sailing-trial","295","1642652","0.0-11.0-258.0","","","","false","","","","","","","","","","613.9999999997672","","286","","2","1","arrowright","1","arrowleft","[0.325,0.675,0.85,0.15]","","",""
"sailing-trial","296","1645886","0.0-11.0-259.0","","","","false","","","","","","","","","","null","","1134","","2","1","null","null","arrowup","[0.325,0.675,0.85,0.15]","","",""
"sailing-trial","297","1651035","0.0-11.0-260.0","","","","false","","","","","","","","","","1628","","83.99999999976717","","2","1","arrowright","1","arrowleft","[0.325,0.675,0.85,0.15]","","",""
"sailing-trial","298","1655236","0.0-11.0-261.0","","","","false","","","","","","","","","","null","","1166.0000000002328","","0","0","null","null","arrowup","[0.325,0.675,0.85,0.15]","","",""
"sailing-trial","299","1659953","0.0-11.0-262.0","","","","false","","","","","","","","","","678","","555","","2","1","arrowright","1","arrowleft","[0.325,0.675,0.85,0.15]","","",""
"sailing-trial","300","1664236","0.0-11.0-263.0","","","","false","","","","","","","","","","null","","1257","","3","0","null","null","arrowup","[0.325,0.675,0.85,0.15]","","",""
"sailing-trial","301","1668704","0.0-11.0-264.0","","","","false","","","","","","","","","","1341","","119","","2","1","arrowright","1","arrowleft","[0.325,0.675,0.85,0.15]","","",""
"sailing-trial","302","1672221","0.0-11.0-265.0","","","","false","","","","","","","","","","null","","1281","","1","1","null","null","arrowup","[0.325,0.675,0.85,0.15]","","",""
"sailing-trial","303","1677471","0.0-11.0-266.0","","","","false","","","","","","","","","","1132","","494","","2","1","arrowright","1","arrowleft","[0.325,0.675,0.85,0.15]","","",""
"sailing-trial","304","1680539","0.0-11.0-267.0","","","","false","","","","","","","","","","null","","985","","2","1","null","null","arrowup","[0.325,0.675,0.85,0.15]","","",""
"sailing-trial","305","1686239","0.0-11.0-268.0","","","","false","","","","","","","","","","862","","483","","2","0","arrowright","1","arrowleft","[0.675,0.325,0.15,0.85]","","",""
"sailing-trial","306","1690373","0.0-11.0-269.0","","","","false","","","","","","","","","","null","","1103.0000000002328","","2","0","null","null","arrowup","[0.675,0.325,0.15,0.85]","","",""
"sailing-trial","307","1696224","0.0-11.0-270.0","","","","false","","","","","","","","","","523","","262","","3","1","arrowright","1","arrowright","[0.675,0.325,0.15,0.85]","","",""
"sailing-trial","308","1700891","0.0-11.0-271.0","","","","false","","","","","","","","","","null","","1632","","2","0","null","null","arrowup","[0.675,0.325,0.15,0.85]","","",""
"sailing-trial","309","1705892","0.0-11.0-272.0","","","","false","","","","","","","","","","843.9999999997672","","633","","3","1","arrowright","1","arrowright","[0.675,0.325,0.15,0.85]","","",""
"sailing-trial","310","1711610","0.0-11.0-273.0","","","","false","","","","","","","","","","null","","3477","","3","1","null","null","arrowup","[0.675,0.325,0.15,0.85]","","",""
"sailing-trial","311","1716376","0.0-11.0-274.0","","","","false","","","","","","","","","","757","","526","","3","1","arrowright","1","arrowright","[0.675,0.325,0.15,0.85]","","",""
"sailing-trial","312","1719977","0.0-11.0-275.0","","","","false","","","","","","","","","","null","","1327","","1","1","null","null","arrowup","[0.675,0.325,0.15,0.85]","","",""
"sailing-trial","313","1724226","0.0-11.0-276.0","","","","false","","","","","","","","","","709","","66","","3","1","arrowright","1","arrowright","[0.675,0.325,0.15,0.85]","","",""
"sailing-trial","314","1728461","0.0-11.0-277.0","","","","false","","","","","","","","","","null","","2059.999999999767","","0","1","null","null","arrowup","[0.675,0.325,0.15,0.85]","","",""
"sailing-trial","315","1733863","0.0-11.0-278.0","","","","false","","","","","","","","","","702","","349.00000000023283","","3","0","arrowright","1","arrowright","[0.675,0.325,0.15,0.85]","","",""
"sailing-trial","316","1738329","0.0-11.0-279.0","","","","false","","","","","","","","","","null","","1438","","2","0","null","null","arrowup","[0.675,0.325,0.15,0.85]","","",""
"sailing-trial","317","1743097","0.0-11.0-280.0","","","","false","","","","","","","","","","603","","340.00000000023283","","0","1","arrowleft","0","arrowleft","[0.675,0.325,0.15,0.85]","","",""
"sailing-trial","318","1747480","0.0-11.0-281.0","","","","false","","","","","","","","","","null","","1340.0000000002328","","0","0","null","null","arrowup","[0.675,0.325,0.15,0.85]","","",""
"sailing-trial","319","1752048","0.0-11.0-282.0","","","","false","","","","","","","","","","932","","111.99999999976717","","1","1","arrowleft","0","arrowright","[0.675,0.325,0.15,0.85]","","",""
"sailing-trial","320","1755298","0.0-11.0-283.0","","","","false","","","","","","","","","","null","","1076","","1","1","null","null","arrowup","[0.675,0.325,0.15,0.85]","","",""
"sailing-trial","321","1761811","0.0-11.0-284.0","","","","false","","","","","","","","","","738","","1933","","1","1","arrowleft","0","arrowright","[0.675,0.325,0.15,0.85]","","",""
"sailing-trial","322","1765632","0.0-11.0-285.0","","","","false","","","","","","","","","","null","","1623.0000000002328","","1","1","null","null","arrowup","[0.675,0.325,0.15,0.85]","","",""
"sailing-trial","323","1770966","0.0-11.0-286.0","","","","false","","","","","","","","","","1012","","780","","1","1","arrowleft","0","arrowright","[0.15,0.85,0.675,0.325]","","",""
"sailing-trial","324","1774433","0.0-11.0-287.0","","","","false","","","","","","","","","","null","","1205","","3","1","null","null","arrowup","[0.15,0.85,0.675,0.325]","","",""
"sailing-trial","325","1778984","0.0-11.0-288.0","","","","false","","","","","","","","","","888.9999999997672","","55","","1","1","arrowleft","0","arrowright","[0.15,0.85,0.675,0.325]","","",""
"sailing-trial","326","1783067","0.0-11.0-289.0","","","","false","","","","","","","","","","null","","1043","","0","0","null","null","arrowup","[0.15,0.85,0.675,0.325]","","",""
"sailing-trial","327","1787585","0.0-11.0-290.0","","","","false","","","","","","","","","","837","","207","","1","1","arrowleft","0","arrowright","[0.15,0.85,0.675,0.325]","","",""
"sailing-trial","328","1790985","0.0-11.0-291.0","","","","false","","","","","","","","","","null","","977","","3","1","null","null","arrowup","[0.15,0.85,0.675,0.325]","","",""
"sailing-trial","329","1796119","0.0-11.0-292.0","","","","false","","","","","","","","","","1400.0000000002328","","353.99999999976717","","1","1","arrowleft","0","arrowright","[0.15,0.85,0.675,0.325]","","",""
"sailing-trial","330","1799704","0.0-11.0-293.0","","","","false","","","","","","","","","","null","","1395","","3","1","null","null","arrowup","[0.15,0.85,0.675,0.325]","","",""
"sailing-trial","331","1805421","0.0-11.0-294.0","","","","false","","","","","","","","","","945","","1078.9999999997672","","1","1","arrowleft","0","arrowright","[0.15,0.85,0.675,0.325]","","",""
"sailing-trial","332","1808704","0.0-11.0-295.0","","","","false","","","","","","","","","","null","","1124","","3","1","null","null","arrowup","[0.15,0.85,0.675,0.325]","","",""
"sailing-trial","333","1814338","0.0-11.0-296.0","","","","false","","","","","","","","","","1121","","1286","","1","1","arrowleft","0","arrowright","[0.15,0.85,0.675,0.325]","","",""
"sailing-trial","334","1818038","0.0-11.0-297.0","","","","false","","","","","","","","","","null","","1462","","2","1","null","null","arrowup","[0.15,0.85,0.675,0.325]","","",""
"sailing-trial","335","1823523","0.0-11.0-298.0","","","","false","","","","","","","","","","1153.9999999997672","","709","","1","1","arrowleft","0","arrowright","[0.15,0.85,0.675,0.325]","","",""
"sailing-trial","336","1828385","0.0-11.0-299.0","","","","false","","","","","","","","","","null","","1837","","2","0","null","null","arrowup","[0.15,0.85,0.675,0.325]","","",""
"sailing-trial","337","1833757","0.0-11.0-300.0","","","","false","","","","","","","","","","1180","","612","","1","1","arrowleft","0","arrowright","[0.15,0.85,0.675,0.325]","","",""
"sailing-trial","338","1837858","0.0-11.0-301.0","","","","false","","","","","","","","","","null","","1041.9999999997672","","0","0","null","null","arrowup","[0.15,0.85,0.675,0.325]","","",""
"sailing-trial","339","1843597","0.0-11.0-302.0","","","","false","","","","","","","","","","709","","195","","1","1","arrowleft","0","arrowright","[0.15,0.85,0.675,0.325]","","",""
"sailing-trial","340","1847055","0.0-11.0-303.0","","","","false","","","","","","","","","","null","","1233","","3","1","null","null","arrowup","[0.15,0.85,0.675,0.325]","","",""
"sailing-trial","341","1851256","0.0-11.0-304.0","","","","false","","","","","","","","","","846.9999999997672","","66","","3","1","arrowright","1","arrowright","[0.15,0.85,0.675,0.325]","","",""
"sailing-trial","342","1855790","0.0-11.0-305.0","","","","false","","","","","","","","","","null","","1493.9999999997672","","3","0","null","null","arrowup","[0.15,0.85,0.675,0.325]","","",""
"sailing-trial","343","1861006","0.0-11.0-306.0","","","","false","","","","","","","","","","575","","314","","3","0","arrowright","1","arrowright","[0.325,0.675,0.85,0.15]","","",""
"sailing-trial","344","1864410","0.0-11.0-307.0","","","","false","","","","","","","","","","null","","1037.0000000002328","","3","1","null","null","arrowup","[0.325,0.675,0.85,0.15]","","",""
"sailing-trial","345","1869634","0.0-11.0-308.0","","","","false","","","","","","","","","","994","","340.99999999976717","","0","1","arrowleft","0","arrowleft","[0.325,0.675,0.85,0.15]","","",""
"sailing-trial","346","1873807","0.0-11.0-309.0","","","","false","","","","","","","","","","null","","1139","","1","0","null","null","arrowup","[0.325,0.675,0.85,0.15]","","",""
"sailing-trial","347","1878554","0.0-11.0-310.0","","","","false","","","","","","","","","","572.0000000002328","","468.99999999976717","","0","1","arrowleft","0","arrowleft","[0.325,0.675,0.85,0.15]","","",""
"sailing-trial","348","1882792","0.0-11.0-311.0","","","","false","","","","","","","","","","null","","1202","","1","0","null","null","arrowup","[0.325,0.675,0.85,0.15]","","",""
"sailing-trial","349","1888477","0.0-11.0-312.0","","","","false","","","","","","","","","","594.9999999997672","","1228","","0","1","arrowleft","0","arrowleft","[0.325,0.675,0.85,0.15]","","",""
"sailing-trial","350","1892038","0.0-11.0-313.0","","","","false","","","","","","","","","","null","","1013","","2","1","null","null","arrowup","[0.325,0.675,0.85,0.15]","","",""
"sailing-trial","351","1896999","0.0-11.0-314.0","","","","false","","","","","","","","","","765","","433","","0","1","arrowleft","0","arrowleft","[0.325,0.675,0.85,0.15]","","",""
"sailing-trial","352","1901194","0.0-11.0-315.0","","","","false","","","","","","","","","","null","","1164","","3","0","null","null","arrowup","[0.325,0.675,0.85,0.15]","","",""
"sailing-trial","353","1907227","0.0-11.0-316.0","","","","false","","","","","","","","","","599","","1088.0000000002328","","0","0","arrowleft","0","arrowleft","[0.325,0.675,0.85,0.15]","","",""
"sailing-trial","354","1910844","0.0-11.0-317.0","","","","false","","","","","","","","","","null","","1072","","1","1","null","null","arrowup","[0.325,0.675,0.85,0.15]","","",""
"sailing-trial","355","1916124","0.0-11.0-318.0","","","","false","","","","","","","","","","958","","310","","1","1","arrowleft","0","arrowright","[0.325,0.675,0.85,0.15]","","",""
"sailing-trial","356","1920580","0.0-11.0-319.0","","","","false","","","","","","","","","","null","","1414","","0","0","null","null","arrowup","[0.325,0.675,0.85,0.15]","","",""
"sailing-trial","357","1925748","0.0-11.0-320.0","","","","false","","","","","","","","","","925","","792","","1","1","arrowleft","0","arrowright","[0.325,0.675,0.85,0.15]","","",""
"sailing-trial","358","1930079","0.0-11.0-321.0","","","","false","","","","","","","","","","null","","1300.0000000002328","","3","0","null","null","arrowup","[0.325,0.675,0.85,0.15]","","",""
"sailing-trial","359","1935501","0.0-11.0-322.0","","","","false","","","","","","","","","","1333","","250","","1","1","arrowleft","0","arrowright","[0.15,0.85,0.675,0.325]","","",""
"sailing-trial","360","1939354","0.0-11.0-323.0","","","","false","","","","","","","","","","null","","1475.9999999997672","","2","1","null","null","arrowup","[0.15,0.85,0.675,0.325]","","",""
"sailing-trial","361","1944482","0.0-11.0-324.0","","","","false","","","","","","","","","","823","","88","","2","0","arrowright","1","arrowleft","[0.15,0.85,0.675,0.325]","","",""
"sailing-trial","362","1948615","0.0-11.0-325.0","","","","false","","","","","","","","","","null","","1094","","1","0","null","null","arrowup","[0.15,0.85,0.675,0.325]","","",""
"sailing-trial","363","1954083","0.0-11.0-326.0","","","","false","","","","","","","","","","609","","520.0000000002328","","0","0","arrowleft","0","arrowleft","[0.15,0.85,0.675,0.325]","","",""
"sailing-trial","364","1957951","0.0-11.0-327.0","","","","false","","","","","","","","","","null","","1165","","2","1","null","null","arrowup","[0.15,0.85,0.675,0.325]","","",""
"sailing-trial","365","1963151","0.0-11.0-328.0","","","","false","","","","","","","","","","719.9999999997672","","130.99999999976717","","2","0","arrowright","1","arrowleft","[0.15,0.85,0.675,0.325]","","",""
"sailing-trial","366","1967017","0.0-11.0-329.0","","","","false","","","","","","","","","","null","","832","","0","0","null","null","arrowup","[0.15,0.85,0.675,0.325]","","",""
"sailing-trial","367","1972018","0.0-11.0-330.0","","","","false","","","","","","","","","","622","","45","","3","0","arrowright","1","arrowright","[0.15,0.85,0.675,0.325]","","",""
"sailing-trial","368","1976102","0.0-11.0-331.0","","","","false","","","","","","","","","","null","","1052.9999999997672","","0","0","null","null","arrowup","[0.15,0.85,0.675,0.325]","","",""
"sailing-trial","369","1981487","0.0-11.0-332.0","","","","false","","","","","","","","","","593","","455.99999999976717","","0","0","arrowleft","0","arrowleft","[0.15,0.85,0.675,0.325]","","",""
"sailing-trial","370","1985802","0.0-11.0-333.0","","","","false","","","","","","","","","","null","","1264","","1","1","null","null","arrowup","[0.15,0.85,0.675,0.325]","","",""
"sailing-trial","371","1990353","0.0-11.0-334.0","","","","false","","","","","","","","","","924","","142","","1","1","arrowleft","0","arrowright","[0.15,0.85,0.675,0.325]","","",""
"sailing-trial","372","1994505","0.0-11.0-335.0","","","","false","","","","","","","","","","null","","1109","","1","0","null","null","arrowup","[0.15,0.85,0.675,0.325]","","",""
"sailing-trial","373","1998787","0.0-11.0-336.0","","","","false","","","","","","","","","","749","","111.99999999976717","","1","1","arrowleft","0","arrowright","[0.15,0.85,0.675,0.325]","","",""
"sailing-trial","374","2003121","0.0-11.0-337.0","","","","false","","","","","","","","","","null","","1914","","1","1","null","null","arrowup","[0.15,0.85,0.675,0.325]","","",""
"sailing-trial","375","2007456","0.0-11.0-338.0","","","","false","","","","","","","","","","596","","380","","1","1","arrowleft","0","arrowright","[0.15,0.85,0.675,0.325]","","",""
"sailing-trial","376","2013173","0.0-11.0-339.0","","","","false","","","","","","","","","","null","","3381","","2","1","null","null","arrowup","[0.15,0.85,0.675,0.325]","","",""
"sailing-trial","377","2018157","0.0-11.0-340.0","","","","false","","","","","","","","","","870.0000000002328","","758","","1","1","arrowleft","0","arrowright","[0.15,0.85,0.675,0.325]","","",""
"sailing-trial","378","2022540","0.0-11.0-341.0","","","","false","","","","","","","","","","null","","1351","","0","0","null","null","arrowup","[0.15,0.85,0.675,0.325]","","",""
"sailing-trial","379","2028009","0.0-11.0-342.0","","","","false","","","","","","","","","","640","","493.99999999976717","","1","0","arrowleft","0","arrowright","[0.675,0.325,0.15,0.85]","","",""
"sailing-trial","380","2032090","0.0-11.0-343.0","","","","false","","","","","","","","","","null","","1042","","3","0","null","null","arrowup","[0.675,0.325,0.15,0.85]","","",""
"sailing-trial","381","2037025","0.0-11.0-344.0","","","","false","","","","","","","","","","809.0000000002328","","623","","0","1","arrowleft","0","arrowleft","[0.675,0.325,0.15,0.85]","","",""
"sailing-trial","382","2041624","0.0-11.0-345.0","","","","false","","","","","","","","","","null","","1569","","1","0","null","null","arrowup","[0.675,0.325,0.15,0.85]","","",""
"sailing-trial","383","2046059","0.0-11.0-346.0","","","","false","","","","","","","","","","683","","45","","0","1","arrowleft","0","arrowleft","[0.675,0.325,0.15,0.85]","","",""
"sailing-trial","384","2050276","0.0-11.0-347.0","","","","false","","","","","","","","","","null","","1608.0000000002328","","3","1","null","null","arrowup","[0.675,0.325,0.15,0.85]","","",""
"sailing-trial","385","2056543","0.0-11.0-348.0","","","","false","","","","","","","","","","1054.0000000002328","","866.9999999995343","","0","0","arrowleft","0","arrowleft","[0.675,0.325,0.15,0.85]","","",""
"sailing-trial","386","2060811","0.0-11.0-349.0","","","","false","","","","","","","","","","null","","1226.9999999997672","","2","0","null","null","arrowup","[0.675,0.325,0.15,0.85]","","",""
"sailing-trial","387","2065812","0.0-11.0-350.0","","","","false","","","","","","","","","","85.00000000023283","","569","","3","0","arrowright","1","arrowright","[0.675,0.325,0.15,0.85]","","",""
"sailing-trial","388","2070245","0.0-11.0-351.0","","","","false","","","","","","","","","","null","","1404.9999999997672","","1","0","null","null","arrowup","[0.675,0.325,0.15,0.85]","","",""
"sailing-trial","389","2074512","0.0-11.0-352.0","","","","false","","","","","","","","","","595.0000000002328","","250","","2","1","arrowright","1","arrowleft","[0.675,0.325,0.15,0.85]","","",""
"sailing-trial","390","2078746","0.0-11.0-353.0","","","","false","","","","","","","","","","null","","1193.0000000002328","","2","0","null","null","arrowup","[0.675,0.325,0.15,0.85]","","",""
"sailing-trial","391","2082152","0.0-11.0-354.0","","","","false","","","","","","","","","","614","","132.99999999976717","","2","0","arrowright","1","arrowleft","[0.675,0.325,0.15,0.85]","","",""
"sailing-trial","392","2086731","0.0-11.0-355.0","","","","false","","","","","","","","","","null","","1543.9999999997672","","2","0","null","null","arrowup","[0.675,0.325,0.15,0.85]","","",""
"sailing-trial","393","2091764","0.0-11.0-356.0","","","","false","","","","","","","","","","516.9999999997672","","101.99999999976717","","0","0","arrowleft","0","arrowleft","[0.675,0.325,0.15,0.85]","","",""
"sailing-trial","394","2095999","0.0-11.0-357.0","","","","false","","","","","","","","","","null","","1475.0000000004657","","3","1","null","null","arrowup","[0.675,0.325,0.15,0.85]","","",""
"sailing-trial","395","2101483","0.0-11.0-358.0","","","","false","","","","","","","","","","1015","","121","","1","0","arrowleft","0","arrowright","[0.675,0.325,0.15,0.85]","","",""
"sailing-trial","396","2106265","0.0-11.0-359.0","","","","false","","","","","","","","","","null","","1751","","0","0","null","null","arrowup","[0.675,0.325,0.15,0.85]","","",""
"sailing-trial","397","2110601","0.0-11.0-360.0","","","","false","","","","","","","","","","724","","16","","3","1","arrowright","1","arrowright","[0.675,0.325,0.15,0.85]","","",""
"sailing-trial","398","2115732","0.0-11.0-361.0","","","","false","","","","","","","","","","null","","2102","","2","0","null","null","arrowup","[0.675,0.325,0.15,0.85]","","",""
"sailing-trial","399","2120881","0.0-11.0-362.0","","","","false","","","","","","","","","","576","","234.99999999953434","","3","0","arrowright","1","arrowright","[0.675,0.325,0.15,0.85]","","",""
"sailing-trial","400","2124303","0.0-11.0-363.0","","","","false","","","","","","","","","","null","","1147","","1","1","null","null","arrowup","[0.675,0.325,0.15,0.85]","","",""
"sailing-trial","401","2128854","0.0-11.0-364.0","","","","false","","","","","","","","","","790.9999999995343","","353","","2","1","arrowright","1","arrowleft","[0.85,0.15,0.325,0.675]","","",""
"sailing-trial","402","2133252","0.0-11.0-365.0","","","","false","","","","","","","","","","null","","1222","","2","0","null","null","arrowup","[0.85,0.15,0.325,0.675]","","",""
"sailing-trial","403","2137538","0.0-11.0-366.0","","","","false","","","","","","","","","","518","","229","","3","1","arrowright","1","arrowright","[0.85,0.15,0.325,0.675]","","",""
"sailing-trial","404","2141871","0.0-11.0-367.0","","","","false","","","","","","","","","","null","","1419","","3","1","null","null","arrowup","[0.85,0.15,0.325,0.675]","","",""
"sailing-trial","405","2146548","0.0-11.0-368.0","","","","false","","","","","","","","","","549","","177","","3","1","arrowright","1","arrowright","[0.85,0.15,0.325,0.675]","","",""
"sailing-trial","406","2149956","0.0-11.0-369.0","","","","false","","","","","","","","","","null","","984.0000000004657","","3","1","null","null","arrowup","[0.85,0.15,0.325,0.675]","","",""
"sailing-trial","407","2154789","0.0-11.0-370.0","","","","false","","","","","","","","","","536","","1078","","3","1","arrowright","1","arrowright","[0.85,0.15,0.325,0.675]","","",""
"sailing-trial","408","2158903","0.0-11.0-371.0","","","","false","","","","","","","","","","null","","1078.0000000004657","","1","0","null","null","arrowup","[0.85,0.15,0.325,0.675]","","",""
"sailing-trial","409","2165058","0.0-11.0-372.0","","","","false","","","","","","","","","","619","","219","","2","1","arrowright","1","arrowleft","[0.85,0.15,0.325,0.675]","","",""
"sailing-trial","410","2169672","0.0-11.0-373.0","","","","false","","","","","","","","","","null","","1577","","1","0","null","null","arrowup","[0.85,0.15,0.325,0.675]","","",""
"sailing-trial","411","2173890","0.0-11.0-374.0","","","","false","","","","","","","","","","681","","2","","0","1","arrowleft","0","arrowleft","[0.85,0.15,0.325,0.675]","","",""
"sailing-trial","412","2177009","0.0-11.0-375.0","","","","false","","","","","","","","","","null","","983","","0","1","null","null","arrowup","[0.85,0.15,0.325,0.675]","","",""
"sailing-trial","413","2182624","0.0-11.0-376.0","","","","false","","","","","","","","","","1147","","381.00000000046566","","0","1","arrowleft","0","arrowleft","[0.85,0.15,0.325,0.675]","","",""
"sailing-trial","414","2186973","0.0-11.0-377.0","","","","false","","","","","","","","","","null","","1311","","1","0","null","null","arrowup","[0.85,0.15,0.325,0.675]","","",""
"sailing-trial","415","2192091","0.0-11.0-378.0","","","","false","","","","","","","","","","781","","437","","0","1","arrowleft","0","arrowleft","[0.85,0.15,0.325,0.675]","","",""
"sailing-trial","416","2197642","0.0-11.0-379.0","","","","false","","","","","","","","","","null","","1950","","0","1","null","null","arrowup","[0.85,0.15,0.325,0.675]","","",""
"sailing-trial","417","2202626","0.0-11.0-380.0","","","","false","","","","","","","","","","671","","902","","0","1","arrowleft","0","arrowleft","[0.85,0.15,0.325,0.675]","","",""
"sailing-trial","418","2206826","0.0-11.0-381.0","","","","false","","","","","","","","","","null","","1989","","1","1","null","null","arrowup","[0.85,0.15,0.325,0.675]","","",""
"sailing-trial","419","2211426","0.0-11.0-382.0","","","","false","","","","","","","","","","591","","400","","0","1","arrowleft","0","arrowleft","[0.675,0.325,0.15,0.85]","","",""
"sailing-trial","420","2215575","0.0-11.0-383.0","","","","false","","","","","","","","","","null","","1110","","2","0","null","null","arrowup","[0.675,0.325,0.15,0.85]","","",""
"sailing-trial","421","2220810","0.0-11.0-384.0","","","","false","","","","","","","","","","553","","337","","0","0","arrowleft","0","arrowleft","[0.675,0.325,0.15,0.85]","","",""
"sailing-trial","422","2224727","0.0-11.0-385.0","","","","false","","","","","","","","","","null","","1478","","2","1","null","null","arrowup","[0.675,0.325,0.15,0.85]","","",""
"sailing-trial","423","2229695","0.0-11.0-386.0","","","","false","","","","","","","","","","566.0000000004657","","56","","2","0","arrowright","1","arrowleft","[0.675,0.325,0.15,0.85]","","",""
"sailing-trial","424","2233794","0.0-11.0-387.0","","","","false","","","","","","","","","","null","","1071","","0","0","null","null","arrowup","[0.675,0.325,0.15,0.85]","","",""
"sailing-trial","425","2239879","0.0-11.0-388.0","","","","false","","","","","","","","","","1061","","674","","3","0","arrowright","1","arrowright","[0.675,0.325,0.15,0.85]","","",""
"sailing-trial","426","2243362","0.0-11.0-389.0","","","","false","","","","","","","","","","null","","1080.0000000004657","","3","1","null","null","arrowup","[0.675,0.325,0.15,0.85]","","",""
"sailing-trial","427","2247804","0.0-11.0-390.0","","","","false","","","","","","","","","","781","","121","","3","1","arrowright","1","arrowright","[0.675,0.325,0.15,0.85]","","",""
"sailing-trial","428","2252048","0.0-11.0-391.0","","","","false","","","","","","","","","","null","","1209.9999999995343","","0","0","null","null","arrowup","[0.675,0.325,0.15,0.85]","","",""
"sailing-trial","429","2256714","0.0-11.0-392.0","","","","false","","","","","","","","","","534","","496","","3","1","arrowright","1","arrowright","[0.675,0.325,0.15,0.85]","","",""
"sailing-trial","430","2260356","0.0-11.0-393.0","","","","false","","","","","","","","","","null","","1004","","0","1","null","null","arrowup","[0.675,0.325,0.15,0.85]","","",""
"sailing-trial","431","2265071","0.0-11.0-394.0","","","","false","","","","","","","","","","513","","506","","0","1","arrowleft","0","arrowleft","[0.675,0.325,0.15,0.85]","","",""
"sailing-trial","432","2268989","0.0-11.0-395.0","","","","false","","","","","","","","","","null","","1447","","3","1","null","null","arrowup","[0.675,0.325,0.15,0.85]","","",""
"sailing-trial","433","2274100","0.0-11.0-396.0","","","","false","","","","","","","","","","792","","100","","3","0","arrowright","1","arrowright","[0.675,0.325,0.15,0.85]","","",""
"sailing-trial","434","2278667","0.0-11.0-397.0","","","","false","","","","","","","","","","null","","1551","","2","0","null","null","arrowup","[0.675,0.325,0.15,0.85]","","",""
"sailing-trial","435","2283884","0.0-11.0-398.0","","","","false","","","","","","","","","","607","","274","","0","0","arrowleft","0","arrowleft","[0.675,0.325,0.15,0.85]","","",""
"sailing-trial","436","2287916","0.0-11.0-399.0","","","","false","","","","","","","","","","null","","1000","","3","0","null","null","arrowup","[0.675,0.325,0.15,0.85]","","",""
"instructions","437","2291430","0.0-12.0","","","","","","","","","","3514","","","","","","","","","","","","","","","","[{""page_index"":0,""viewing_time"":3514}]"
"survey-debrief","438","2317954","0.0-13.0","","","","","","","","","","26524","","","","","","","","","","","","","","{""difficulty"":""4"",""fun"":""3"",""clarity"":""5"",""strategy"":""just used previous X and gold to make decisions on future ones"",""feedback"":""""}","",""
