"trial_type","trial_index","time_elapsed","internal_node_id","value","metadata","success","timeout","failed_images","failed_audio","failed_video","browser_interaction","low_quality","rt","stimulus","response","button_pressed","island_rt","island_response","boat_rt","boat_response","boat","reward","island_key","island","boat_key","reward_probabilities","responses","num_errors","view_history"
"pavlovia","0","2","0.0-0.0","","","","","","","","","","","","","","","","","","","","","","","","","",""
"call-function","1","2","0.0-1.0","","{""task_version"":""sailing_part1_v1"",""task_condition"":""good"",""boats"":[""B"",""A"",""C"",""D""],""boats_demo"":[""H"",""E"",""G"",""F""],""islands"":[""B"",""A""],""subject_id"":""14365"",""age"":""8"",""gender"":""Male""}","","","","","","","","","","","","","","","","","","","","","","","",""
"preload","2","3059","0.0-2.0","","","true","false","[]","[]","[]","[{""event"":""fullscreenenter"",""trial"":3,""time"":6169}]","false","","","","","","","","","","","","","","","","",""
"fullscreen","3","7167","0.0-3.0","","","true","","","","","","","","","","","","","","","","","","","","","","",""
"audio-keyboard-response","4","9057","0.0-4.0-0.0","","","","","","","","","","1861.3333333333333","audio/beep_loop.wav","audiovolumedown","","","","","","","","","","","","","",""
"audio-test","5","11231","0.0-4.0-1.0","","","","","","","","","","null","audio/turtle.mp3","","3","","","","","","","","","","","","",""
"audio-test","6","13988","0.0-4.0-2.0","","","","","","","","","","null","audio/shark.mp3","","2","","","","","","","","","","","","",""
"sailing-instructions","7","51637","0.0-5.0-0.0-0.0","","","","","","","","","","","","","","null","null","null","null","null","null","","","","","","",""
"sailing-trial","8","59771","0.0-5.0-0.0-1.0-0.0","","","","false","","","","","","","","","","7011.5999999940395","","null","","null","null","arrowleft","0","null","null","","",""
"sailing-trial","9","62156","0.0-5.0-0.0-1.0-1.0","","","","false","","","","","","","","","","1263.2000000178814","","null","","null","null","arrowright","1","null","null","","",""
"sailing-trial","10","63859","0.0-5.0-0.0-1.0-2.0","","","","false","","","","","","","","","","588.7000000178814","","null","","null","null","arrowleft","0","null","null","","",""
"sailing-instructions","11","113168","0.0-5.0-0.0-2.0","","","","","","","","","","","","","","null","null","null","null","0","null","","","","","","",""
"sailing-trial","12","123243","0.0-5.0-0.0-3.0-0.0","","","","false","","","","","","","","","","null","","4745","","2","1","null","null","arrowleft","[1,1,1,1]","","",""
"sailing-trial","13","128367","0.0-5.0-0.0-3.0-1.0","","","","false","","","","","","","","","","null","","1449.5999999940395","","3","1","null","null","arrowright","[1,1,1,1]","","",""
"sailing-trial","14","136542","0.0-5.0-0.0-3.0-2.0","","","","false","","","","","","","","","","null","","4636","","3","0","null","null","arrowright","[0,0,0,0]","","",""
"sailing-instructions","15","145605","0.0-5.0-0.0-4.0","","","","","","","","","","","","","","null","null","null","null","null","null","","","","","","",""
"sailing-comprehension","16","254187","0.0-5.0-0.0-5.0","","","","","","","","","","35104.5","","","","","","","","","","","","","","[""true"",""false"",""false"",""true""]","1",""
"sailing-instructions","17","297062","0.0-5.0-0.1-0.1","","","","","","","","","","","","","","null","null","null","null","null","null","","","","","","",""
"sailing-trial","18","299916","0.0-5.0-0.1-1.1-0.1","","","","false","","","","","","","","","","1736.2999999821186","","null","","null","null","arrowleft","0","null","null","","",""
"sailing-trial","19","301846","0.0-5.0-0.1-1.1-1.1","","","","false","","","","","","","","","","814.6999999880791","","null","","null","null","arrowright","1","null","null","","",""
"sailing-trial","20","307427","0.0-5.0-0.1-1.1-2.1","","","","false","","","","","","","","","","4459.399999976158","","null","","null","null","arrowright","1","null","null","","",""
"sailing-instructions","21","358463","0.0-5.0-0.1-2.1","","","","","","","","","","","","","","null","null","null","null","0","null","","","","","","",""
"sailing-trial","22","364178","0.0-5.0-0.1-3.1-0.1","","","","false","","","","","","","","","","null","","1989.800000011921","","2","1","null","null","arrowleft","[1,1,1,1]","","",""
"sailing-trial","23","367121","0.0-5.0-0.1-3.1-1.1","","","","false","","","","","","","","","","null","","310.7000000178814","","3","1","null","null","arrowright","[1,1,1,1]","","",""
"sailing-trial","24","372664","0.0-5.0-0.1-3.1-2.1","","","","false","","","","","","","","","","null","","2017.0999999940395","","2","0","null","null","arrowleft","[0,0,0,0]","","",""
"sailing-instructions","25","382169","0.0-5.0-0.1-4.1","","","","","","","","","","","","","","null","null","null","null","null","null","","","","","","",""
"sailing-comprehension","26","483905","0.0-5.0-0.1-5.1","","","","","","","","","","89620.20000001788","","","","","","","","","","","","","","[""true"",""true"",""false"",""true""]","0",""
"sailing-instructions","27","569569","0.0-6.0-0.0-0.0","","","","","","","","","","","","","","null","null","null","null","null","null","","","","","","",""
"sailing-comprehension","28","601472","0.0-6.0-0.0-1.0","","","","","","","","","","29848.40000000596","","","","","","","","","","","","","","[""true"",""false"",""true""]","0",""
"sailing-instructions","29","621930","0.0-7.0-0.0-0.0","","","","","","","","","","","","","","null","null","null","null","null","null","","","","","","",""
"sailing-trial","30","629206","0.0-7.0-0.0-1.0-0.0","","","","false","","","","","","","","","","null","","4233.5","","0","0","null","null","arrowup","[0.2,0.8,0.2,0.8]","","",""
"sailing-trial","31","634046","0.0-7.0-0.0-1.0-1.0","","","","false","","","","","","","","","","null","","2180.7999999821186","","1","0","null","null","arrowup","[0.2,0.8,0.2,0.8]","","",""
"sailing-trial","32","638612","0.0-7.0-0.0-1.0-2.0","","","","false","","","","","","","","","","null","","1903","","2","0","null","null","arrowup","[0.2,0.8,0.2,0.8]","","",""
"sailing-trial","33","647503","0.0-7.0-0.0-1.0-3.0","","","","false","","","","","","","","","","null","","3788.300000011921","","3","1","null","null","arrowup","[0.2,0.8,0.2,0.8]","","",""
"sailing-comprehension","34","667747","0.0-7.0-0.0-2.0","","","","","","","","","","17828.90000000596","","","","","","","","","","","","","","[""false""]","0",""
"sailing-instructions","35","678796","0.0-8.0-0.0-0.0","","","","","","","","","","","","","","null","null","null","null","null","null","","","","","","",""
"sailing-comprehension","36","685199","0.0-8.0-0.0-1.0","","","","","","","","","","4772.700000017881","","","","","","","","","","","","","","[""true""]","0",""
"sailing-instructions","37","716369","0.0-9.0-0.0-0.0","","","","","","","","","","","","","","null","null","null","null","null","null","","","","","","",""
"sailing-trial","38","727751","0.0-9.0-0.0-1.0-0.0","","","","false","","","","","","","","","","2590.9000000059605","","4086.7000000178814","","3","1","arrowright","1","arrowright","[0.2,0.8,0.2,0.8]","","",""
"sailing-trial","39","738532","0.0-9.0-0.0-1.0-1.0","","","","false","","","","","","","","","","2443.5999999940395","","3355.300000011921","","3","1","arrowright","1","arrowright","[0.2,0.8,0.2,0.8]","","",""
"sailing-trial","40","744135","0.0-9.0-0.0-1.0-2.0","","","","false","","","","","","","","","","null","","3018","","0","0","null","null","arrowup","[0.2,0.8,0.2,0.8]","","",""
"sailing-trial","41","751133","0.0-9.0-0.0-1.0-3.0","","","","false","","","","","","","","","","1548.0999999940395","","1256.0999999940395","","3","1","arrowright","1","arrowright","[0.2,0.8,0.2,0.8]","","",""
"sailing-trial","42","755983","0.0-9.0-0.0-1.0-4.0","","","","false","","","","","","","","","","null","","1987.1000000238419","","3","1","null","null","arrowup","[0.2,0.8,0.2,0.8]","","",""
"sailing-trial","43","763743","0.0-9.0-0.0-1.0-5.0","","","","false","","","","","","","","","","1981.8999999761581","","1749.1000000238419","","3","1","arrowright","1","arrowright","[0.2,0.8,0.2,0.8]","","",""
"sailing-instructions","44","789859","0.0-10.0","","","","","","","","","","","","","","null","null","null","null","null","null","","","","","","",""
"sailing-trial","45","799618","0.0-11.0-0.0","","","","false","","","","","","","","","","3148.5","","2437.899999976158","","2","1","arrowright","1","arrowleft","[0.325,0.675,0.85,0.15]","","",""
"sailing-trial","46","804468","0.0-11.0-1.0","","","","false","","","","","","","","","","null","","2567","","1","0","null","null","arrowup","[0.325,0.675,0.85,0.15]","","",""
"sailing-trial","47","811021","0.0-11.0-2.0","","","","false","","","","","","","","","","1572.199999988079","","1000.8000000119209","","2","1","arrowright","1","arrowleft","[0.325,0.675,0.85,0.15]","","",""
"sailing-trial","48","816604","0.0-11.0-3.0","","","","false","","","","","","","","","","null","","3141.199999988079","","2","0","null","null","arrowup","[0.325,0.675,0.85,0.15]","","",""
"sailing-trial","49","823334","0.0-11.0-4.0","","","","false","","","","","","","","","","2086.2000000178814","","1371.699999988079","","0","0","arrowleft","0","arrowleft","[0.325,0.675,0.85,0.15]","","",""
"sailing-trial","50","830012","0.0-11.0-5.0","","","","false","","","","","","","","","","null","","2258.399999976158","","1","1","null","null","arrowup","[0.325,0.675,0.85,0.15]","","",""
"sailing-trial","51","838097","0.0-11.0-6.0","","","","false","","","","","","","","","","1698.199999988079","","2096.5999999940395","","2","1","arrowright","1","arrowleft","[0.325,0.675,0.85,0.15]","","",""
"sailing-trial","52","843045","0.0-11.0-7.0","","","","false","","","","","","","","","","null","","2168.5","","0","1","null","null","arrowup","[0.325,0.675,0.85,0.15]","","",""
"sailing-trial","53","852217","0.0-11.0-8.0","","","","false","","","","","","","","","","3525.899999976158","","2046.9000000059605","","2","0","arrowright","1","arrowleft","[0.325,0.675,0.85,0.15]","","",""
"sailing-trial","54","857179","0.0-11.0-9.0","","","","false","","","","","","","","","","null","","2353.800000011921","","3","1","null","null","arrowup","[0.325,0.675,0.85,0.15]","","",""
"sailing-trial","55","865334","0.0-11.0-10.0","","","","false","","","","","","","","","","2413.699999988079","","1728.7999999821186","","3","0","arrowright","1","arrowright","[0.325,0.675,0.85,0.15]","","",""
"sailing-trial","56","870762","0.0-11.0-11.0","","","","false","","","","","","","","","","null","","2943.9000000059605","","3","0","null","null","arrowup","[0.325,0.675,0.85,0.15]","","",""
"sailing-trial","57","882744","0.0-11.0-12.0","","","","false","","","","","","","","","","5333.600000023842","","3250.100000023842","","1","0","arrowleft","0","arrowright","[0.325,0.675,0.85,0.15]","","",""
"sailing-trial","58","887712","0.0-11.0-13.0","","","","false","","","","","","","","","","null","","1960.9000000059605","","3","0","null","null","arrowup","[0.325,0.675,0.85,0.15]","","",""
"sailing-trial","59","893715","0.0-11.0-14.0","","","","false","","","","","","","","","","1266.7999999821186","","1010.0999999940395","","0","0","arrowleft","0","arrowleft","[0.325,0.675,0.85,0.15]","","",""
"sailing-trial","60","897872","0.0-11.0-15.0","","","","false","","","","","","","","","","null","","1954.5999999940395","","0","1","null","null","arrowup","[0.325,0.675,0.85,0.15]","","",""
"sailing-trial","61","906237","0.0-11.0-16.0","","","","false","","","","","","","","","","2419.9000000059605","","2027.7000000178814","","1","1","arrowleft","0","arrowright","[0.325,0.675,0.85,0.15]","","",""
"sailing-trial","62","917062","0.0-11.0-17.0","","","","false","","","","","","","","","","null","","8420.5","","2","1","null","null","arrowup","[0.325,0.675,0.85,0.15]","","",""
"sailing-trial","63","923033","0.0-11.0-18.0","","","","false","","","","","","","","","","2272.4000000059605","","406.09999999403954","","1","1","arrowleft","0","arrowright","[0.325,0.675,0.85,0.15]","","",""
"sailing-trial","64","927483","0.0-11.0-19.0","","","","false","","","","","","","","","","null","","1818.7000000178814","","2","1","null","null","arrowup","[0.325,0.675,0.85,0.15]","","",""
"sailing-trial","65","936880","0.0-11.0-20.0","","","","false","","","","","","","","","","3594.5","","2041.9000000059605","","1","0","arrowleft","0","arrowright","[0.675,0.325,0.15,0.85]","","",""
"sailing-trial","66","941947","0.0-11.0-21.0","","","","false","","","","","","","","","","null","","2228.2999999821186","","0","1","null","null","arrowup","[0.675,0.325,0.15,0.85]","","",""
"sailing-trial","67","949165","0.0-11.0-22.0","","","","false","","","","","","","","","","3583.699999988079","","691.1000000238419","","2","0","arrowright","1","arrowleft","[0.675,0.325,0.15,0.85]","","",""
"sailing-trial","68","952644","0.0-11.0-23.0","","","","false","","","","","","","","","","null","","1646.0999999940395","","2","0","null","null","arrowup","[0.675,0.325,0.15,0.85]","","",""
"sailing-trial","69","958230","0.0-11.0-24.0","","","","false","","","","","","","","","","1553.699999988079","","312.69999998807907","","3","0","arrowright","1","arrowright","[0.675,0.325,0.15,0.85]","","",""
"sailing-trial","70","962104","0.0-11.0-25.0","","","","false","","","","","","","","","","null","","1889.800000011921","","1","0","null","null","arrowup","[0.675,0.325,0.15,0.85]","","",""
"sailing-trial","71","966958","0.0-11.0-26.0","","","","false","","","","","","","","","","1790.5","","361.7999999821186","","1","0","arrowleft","0","arrowright","[0.675,0.325,0.15,0.85]","","",""
"sailing-trial","72","970790","0.0-11.0-27.0","","","","false","","","","","","","","","","null","","1501.7000000178814","","3","1","null","null","arrowup","[0.675,0.325,0.15,0.85]","","",""
"sailing-trial","73","976314","0.0-11.0-28.0","","","","false","","","","","","","","","","2032.4000000059605","","1003.7999999821186","","1","0","arrowleft","0","arrowright","[0.675,0.325,0.15,0.85]","","",""
"sailing-trial","74","979542","0.0-11.0-29.0","","","","false","","","","","","","","","","null","","1396.7000000178814","","0","1","null","null","arrowup","[0.675,0.325,0.15,0.85]","","",""
"sailing-trial","75","983349","0.0-11.0-30.0","","","","false","","","","","","","","","","1253.800000011921","","166.7999999821186","","0","0","arrowleft","0","arrowleft","[0.675,0.325,0.15,0.85]","","",""
"sailing-trial","76","987244","0.0-11.0-31.0","","","","false","","","","","","","","","","null","","1608.4000000059605","","3","1","null","null","arrowup","[0.675,0.325,0.15,0.85]","","",""
"sailing-trial","77","993501","0.0-11.0-32.0","","","","false","","","","","","","","","","2416.0999999940395","","415.40000000596046","","2","0","arrowright","1","arrowleft","[0.675,0.325,0.15,0.85]","","",""
"sailing-trial","78","996625","0.0-11.0-33.0","","","","false","","","","","","","","","","null","","1208.4000000059605","","1","1","null","null","arrowup","[0.675,0.325,0.15,0.85]","","",""
"sailing-trial","79","1000752","0.0-11.0-34.0","","","","false","","","","","","","","","","1128.4000000059605","","99.59999999403954","","3","1","arrowright","1","arrowright","[0.675,0.325,0.15,0.85]","","",""
"sailing-trial","80","1004141","0.0-11.0-35.0","","","","false","","","","","","","","","","null","","1460.5999999940395","","0","1","null","null","arrowup","[0.675,0.325,0.15,0.85]","","",""
"sailing-trial","81","1008590","0.0-11.0-36.0","","","","false","","","","","","","","","","1352.9000000059605","","101.80000001192093","","3","1","arrowright","1","arrowright","[0.85,0.15,0.325,0.675]","","",""
"sailing-trial","82","1011702","0.0-11.0-37.0","","","","false","","","","","","","","","","null","","1297.5","","2","0","null","null","arrowup","[0.85,0.15,0.325,0.675]","","",""
"sailing-trial","83","1018555","0.0-11.0-38.0","","","","false","","","","","","","","","","1931.0999999940395","","238.5","","3","1","arrowright","1","arrowright","[0.85,0.15,0.325,0.675]","","",""
"sailing-trial","84","1022955","0.0-11.0-39.0","","","","false","","","","","","","","","","null","","1456.7999999821186","","3","1","null","null","arrowup","[0.85,0.15,0.325,0.675]","","",""
"sailing-trial","85","1028398","0.0-11.0-40.0","","","","false","","","","","","","","","","1523.5","","446.39999997615814","","3","0","arrowright","1","arrowright","[0.85,0.15,0.325,0.675]","","",""
"sailing-trial","86","1031591","0.0-11.0-41.0","","","","false","","","","","","","","","","null","","1334","","0","1","null","null","arrowup","[0.85,0.15,0.325,0.675]","","",""
"sailing-trial","87","1036913","0.0-11.0-42.0","","","","false","","","","","","","","","","1103.800000011921","","1026.9000000059605","","0","1","arrowleft","0","arrowleft","[0.85,0.15,0.325,0.675]","","",""
"sailing-trial","88","1040920","0.0-11.0-43.0","","","","false","","","","","","","","","","null","","1559.9000000059605","","1","0","null","null","arrowup","[0.85,0.15,0.325,0.675]","","",""
"sailing-trial","89","1045564","0.0-11.0-44.0","","","","false","","","","","","","","","","793.5999999940395","","588.3999999761581","","0","1","arrowleft","0","arrowleft","[0.85,0.15,0.325,0.675]","","",""
"sailing-trial","90","1049318","0.0-11.0-45.0","","","","false","","","","","","","","","","null","","1291.699999988079","","2","1","null","null","arrowup","[0.85,0.15,0.325,0.675]","","",""
"sailing-trial","91","1054429","0.0-11.0-46.0","","","","false","","","","","","","","","","1200.7999999821186","","265","","0","1","arrowleft","0","arrowleft","[0.85,0.15,0.325,0.675]","","",""
"sailing-trial","92","1057347","0.0-11.0-47.0","","","","false","","","","","","","","","","null","","1442.2000000178814","","2","0","null","null","arrowup","[0.85,0.15,0.325,0.675]","","",""
"sailing-trial","93","1062041","0.0-11.0-48.0","","","","false","","","","","","","","","","1391","","61.400000005960464","","0","1","arrowleft","0","arrowleft","[0.85,0.15,0.325,0.675]","","",""
"sailing-trial","94","1066595","0.0-11.0-49.0","","","","false","","","","","","","","","","null","","1565.4000000059605","","2","0","null","null","arrowup","[0.85,0.15,0.325,0.675]","","",""
"sailing-trial","95","1071866","0.0-11.0-50.0","","","","false","","","","","","","","","","1684.800000011921","","294.90000000596046","","0","1","arrowleft","0","arrowleft","[0.85,0.15,0.325,0.675]","","",""
"sailing-trial","96","1075704","0.0-11.0-51.0","","","","false","","","","","","","","","","null","","1595.5999999940395","","2","0","null","null","arrowup","[0.85,0.15,0.325,0.675]","","",""
"sailing-trial","97","1080262","0.0-11.0-52.0","","","","false","","","","","","","","","","1364.699999988079","","3","","0","1","arrowleft","0","arrowleft","[0.85,0.15,0.325,0.675]","","",""
"sailing-trial","98","1083900","0.0-11.0-53.0","","","","false","","","","","","","","","","null","","1316.2000000178814","","3","0","null","null","arrowup","[0.85,0.15,0.325,0.675]","","",""
"sailing-trial","99","1090400","0.0-11.0-54.0","","","","false","","","","","","","","","","2141.2000000178814","","973.5999999940395","","0","1","arrowleft","0","arrowleft","[0.675,0.325,0.15,0.85]","","",""
"sailing-trial","100","1095525","0.0-11.0-55.0","","","","false","","","","","","","","","","null","","2585.100000023842","","0","1","null","null","arrowup","[0.675,0.325,0.15,0.85]","","",""
"sailing-trial","101","1101517","0.0-11.0-56.0","","","","false","","","","","","","","","","1437.7999999821186","","563.8999999761581","","0","1","arrowleft","0","arrowleft","[0.675,0.325,0.15,0.85]","","",""
"sailing-trial","102","1107860","0.0-11.0-57.0","","","","false","","","","","","","","","","null","","4135.5","","2","0","null","null","arrowup","[0.675,0.325,0.15,0.85]","","",""
"sailing-trial","103","1113632","0.0-11.0-58.0","","","","false","","","","","","","","","","1806.199999988079","","527","","0","1","arrowleft","0","arrowleft","[0.675,0.325,0.15,0.85]","","",""
"sailing-trial","104","1118821","0.0-11.0-59.0","","","","false","","","","","","","","","","null","","1447","","1","1","null","null","arrowup","[0.675,0.325,0.15,0.85]","","",""
"sailing-trial","105","1125848","0.0-11.0-60.0","","","","false","","","","","","","","","","2499.4000000059605","","925","","0","0","arrowleft","0","arrowleft","[0.675,0.325,0.15,0.85]","","",""
"sailing-trial","106","1129402","0.0-11.0-61.0","","","","false","","","","","","","","","","null","","1359.7000000178814","","3","1","null","null","arrowup","[0.675,0.325,0.15,0.85]","","",""
"sailing-trial","107","1134875","0.0-11.0-62.0","","","","false","","","","","","","","","","1668.9000000059605","","528.5999999940395","","3","1","arrowright","1","arrowright","[0.675,0.325,0.15,0.85]","","",""
"sailing-trial","108","1138868","0.0-11.0-63.0","","","","false","","","","","","","","","","null","","1906.7000000178814","","1","0","null","null","arrowup","[0.675,0.325,0.15,0.85]","","",""
"sailing-trial","109","1144185","0.0-11.0-64.0","","","","false","","","","","","","","","","1206.5","","332.40000000596046","","3","1","arrowright","1","arrowright","[0.675,0.325,0.15,0.85]","","",""
"sailing-trial","110","1149311","0.0-11.0-65.0","","","","false","","","","","","","","","","null","","2111.5999999940395","","3","1","null","null","arrowup","[0.675,0.325,0.15,0.85]","","",""
"sailing-trial","111","1153835","0.0-11.0-66.0","","","","false","","","","","","","","","","655.7000000178814","","106","","3","1","arrowright","1","arrowright","[0.675,0.325,0.15,0.85]","","",""
"sailing-trial","112","1157660","0.0-11.0-67.0","","","","false","","","","","","","","","","null","","1350.5","","3","1","null","null","arrowup","[0.675,0.325,0.15,0.85]","","",""
"sailing-trial","113","1163143","0.0-11.0-68.0","","","","false","","","","","","","","","","854.5","","631.7000000178814","","3","0","arrowright","1","arrowright","[0.675,0.325,0.15,0.85]","","",""
"sailing-trial","114","1166729","0.0-11.0-69.0","","","","false","","","","","","","","","","null","","1596.5999999940395","","0","0","null","null","arrowup","[0.675,0.325,0.15,0.85]","","",""
"sailing-trial","115","1172125","0.0-11.0-70.0","","","","false","","","","","","","","","","1497.0999999940395","","256.40000000596046","","3","1","arrowright","1","arrowright","[0.85,0.15,0.325,0.675]","","",""
"sailing-trial","116","1175505","0.0-11.0-71.0","","","","false","","","","","","","","","","null","","1307.4000000059605","","2","0","null","null","arrowup","[0.85,0.15,0.325,0.675]","","",""
"sailing-trial","117","1181007","0.0-11.0-72.0","","","","false","","","","","","","","","","1457.199999988079","","516.8000000119209","","3","1","arrowright","1","arrowright","[0.85,0.15,0.325,0.675]","","",""
"sailing-trial","118","1186136","0.0-11.0-73.0","","","","false","","","","","","","","","","null","","2783","","0","1","null","null","arrowup","[0.85,0.15,0.325,0.675]","","",""
"sailing-trial","119","1194674","0.0-11.0-74.0","","","","false","","","","","","","","","","4446.5999999940395","","27.80000001192093","","0","0","arrowleft","0","arrowleft","[0.85,0.15,0.325,0.675]","","",""
"sailing-trial","120","1199783","0.0-11.0-75.0","","","","false","","","","","","","","","","null","","2100.2999999821186","","2","0","null","null","arrowup","[0.85,0.15,0.325,0.675]","","",""
"sailing-trial","121","1207209","0.0-11.0-76.0","","","","false","","","","","","","","","","3241","","573.5","","3","0","arrowright","1","arrowright","[0.85,0.15,0.325,0.675]","","",""
"sailing-trial","122","1210371","0.0-11.0-77.0","","","","false","","","","","","","","","","null","","1607.5","","1","0","null","null","arrowup","[0.85,0.15,0.325,0.675]","","",""
"sailing-trial","123","1214428","0.0-11.0-78.0","","","","false","","","","","","","","","","917.8999999761581","","839.3000000119209","","1","0","arrowleft","0","arrowright","[0.85,0.15,0.325,0.675]","","",""
"sailing-trial","124","1217494","0.0-11.0-79.0","","","","false","","","","","","","","","","null","","1517.800000011921","","0","1","null","null","arrowup","[0.85,0.15,0.325,0.675]","","",""
"sailing-trial","125","1227890","0.0-11.0-80.0","","","","false","","","","","","","","","","1263.7000000178814","","1969.5999999940395","","3","1","arrowright","1","arrowright","[0.85,0.15,0.325,0.675]","","",""
"sailing-trial","126","1231303","0.0-11.0-81.0","","","","false","","","","","","","","","","null","","1334.7000000178814","","0","1","null","null","arrowup","[0.85,0.15,0.325,0.675]","","",""
"sailing-trial","127","1236274","0.0-11.0-82.0","","","","false","","","","","","","","","","1029.2999999821186","","572","","3","1","arrowright","1","arrowright","[0.85,0.15,0.325,0.675]","","",""
"sailing-trial","128","1240401","0.0-11.0-83.0","","","","false","","","","","","","","","","null","","1481.0999999940395","","3","1","null","null","arrowup","[0.85,0.15,0.325,0.675]","","",""
"sailing-trial","129","1247755","0.0-11.0-84.0","","","","false","","","","","","","","","","3043.9000000059605","","618","","3","1","arrowright","1","arrowright","[0.85,0.15,0.325,0.675]","","",""
"sailing-trial","130","1251632","0.0-11.0-85.0","","","","false","","","","","","","","","","null","","1329.2000000178814","","3","1","null","null","arrowup","[0.85,0.15,0.325,0.675]","","",""
"sailing-trial","131","1257583","0.0-11.0-86.0","","","","false","","","","","","","","","","1373.5999999940395","","866.7000000178814","","3","1","arrowright","1","arrowright","[0.15,0.85,0.675,0.325]","","",""
"sailing-trial","132","1261480","0.0-11.0-87.0","","","","false","","","","","","","","","","null","","1450.8999999761581","","1","0","null","null","arrowup","[0.15,0.85,0.675,0.325]","","",""
"sailing-trial","133","1268155","0.0-11.0-88.0","","","","false","","","","","","","","","","1441.4000000059605","","2284.5999999940395","","3","1","arrowright","1","arrowright","[0.15,0.85,0.675,0.325]","","",""
"sailing-trial","134","1271113","0.0-11.0-89.0","","","","false","","","","","","","","","","null","","1346.2999999821186","","1","1","null","null","arrowup","[0.15,0.85,0.675,0.325]","","",""
"sailing-trial","135","1274438","0.0-11.0-90.0","","","","false","","","","","","","","","","561.4000000059605","","49.29999998211861","","3","1","arrowright","1","arrowright","[0.15,0.85,0.675,0.325]","","",""
"sailing-trial","136","1277462","0.0-11.0-91.0","","","","false","","","","","","","","","","null","","1247.8999999761581","","2","0","null","null","arrowup","[0.15,0.85,0.675,0.325]","","",""
"sailing-trial","137","1280867","0.0-11.0-92.0","","","","false","","","","","","","","","","845.8000000119209","","250.5","","3","0","arrowright","1","arrowright","[0.15,0.85,0.675,0.325]","","",""
"sailing-trial","138","1284044","0.0-11.0-93.0","","","","false","","","","","","","","","","null","","1450.800000011921","","2","0","null","null","arrowup","[0.15,0.85,0.675,0.325]","","",""
"sailing-trial","139","1288057","0.0-11.0-94.0","","","","false","","","","","","","","","","685.6999999880791","","146.80000001192093","","3","0","arrowright","1","arrowright","[0.15,0.85,0.675,0.325]","","",""
"sailing-trial","140","1291568","0.0-11.0-95.0","","","","false","","","","","","","","","","null","","1287","","3","1","null","null","arrowup","[0.15,0.85,0.675,0.325]","","",""
"sailing-trial","141","1295500","0.0-11.0-96.0","","","","false","","","","","","","","","","1443.3999999761581","","204.2999999821186","","0","0","arrowleft","0","arrowleft","[0.15,0.85,0.675,0.325]","","",""
"sailing-trial","142","1298384","0.0-11.0-97.0","","","","false","","","","","","","","","","null","","1553.7999999821186","","0","0","null","null","arrowup","[0.15,0.85,0.675,0.325]","","",""
"sailing-trial","143","1302493","0.0-11.0-98.0","","","","false","","","","","","","","","","1000.4000000059605","","950.7000000178814","","3","0","arrowright","1","arrowright","[0.15,0.85,0.675,0.325]","","",""
"sailing-trial","144","1306570","0.0-11.0-99.0","","","","false","","","","","","","","","","null","","1529.6000000238419","","1","1","null","null","arrowup","[0.15,0.85,0.675,0.325]","","",""
"sailing-trial","145","1312681","0.0-11.0-100.0","","","","false","","","","","","","","","","1541.9000000059605","","456","","2","1","arrowright","1","arrowleft","[0.15,0.85,0.675,0.325]","","",""
"sailing-trial","146","1316199","0.0-11.0-101.0","","","","false","","","","","","","","","","null","","1250.800000011921","","1","1","null","null","arrowup","[0.15,0.85,0.675,0.325]","","",""
"sailing-trial","147","1322031","0.0-11.0-102.0","","","","false","","","","","","","","","","2017.5999999940395","","368","","2","1","arrowright","1","arrowleft","[0.325,0.675,0.85,0.15]","","",""
"sailing-trial","148","1324687","0.0-11.0-103.0","","","","false","","","","","","","","","","null","","1641.4000000059605","","0","0","null","null","arrowup","[0.325,0.675,0.85,0.15]","","",""
"sailing-trial","149","1329890","0.0-11.0-104.0","","","","false","","","","","","","","","","1953","","684.7000000178814","","2","1","arrowright","1","arrowleft","[0.325,0.675,0.85,0.15]","","",""
"sailing-trial","150","1333136","0.0-11.0-105.0","","","","false","","","","","","","","","","null","","1435.5999999940395","","0","1","null","null","arrowup","[0.325,0.675,0.85,0.15]","","",""
"sailing-trial","151","1337748","0.0-11.0-106.0","","","","false","","","","","","","","","","1663.5","","383","","2","1","arrowright","1","arrowleft","[0.325,0.675,0.85,0.15]","","",""
"sailing-trial","152","1342367","0.0-11.0-107.0","","","","false","","","","","","","","","","null","","3099.699999988079","","0","0","null","null","arrowup","[0.325,0.675,0.85,0.15]","","",""
"sailing-trial","153","1346096","0.0-11.0-108.0","","","","false","","","","","","","","","","1084.300000011921","","45.70000001788139","","2","1","arrowright","1","arrowleft","[0.325,0.675,0.85,0.15]","","",""
"sailing-trial","154","1349520","0.0-11.0-109.0","","","","false","","","","","","","","","","null","","2178.0999999940395","","0","0","null","null","arrowup","[0.325,0.675,0.85,0.15]","","",""
"sailing-trial","155","1354467","0.0-11.0-110.0","","","","false","","","","","","","","","","1128.9000000059605","","57.099999994039536","","2","1","arrowright","1","arrowleft","[0.325,0.675,0.85,0.15]","","",""
"sailing-trial","156","1357657","0.0-11.0-111.0","","","","false","","","","","","","","","","null","","2104.300000011921","","1","0","null","null","arrowup","[0.325,0.675,0.85,0.15]","","",""
"sailing-trial","157","1368676","0.0-11.0-112.0","","","","false","","","","","","","","","","1611.699999988079","","1079.2999999821186","","2","1","arrowright","1","arrowleft","[0.325,0.675,0.85,0.15]","","",""
"sailing-trial","158","1373826","0.0-11.0-113.0","","","","false","","","","","","","","","","null","","2928.4000000059605","","2","1","null","null","arrowup","[0.325,0.675,0.85,0.15]","","",""
"sailing-trial","159","1379503","0.0-11.0-114.0","","","","false","","","","","","","","","","1544.2999999821186","","576","","2","1","arrowright","1","arrowleft","[0.325,0.675,0.85,0.15]","","",""
"sailing-trial","160","1383192","0.0-11.0-115.0","","","","false","","","","","","","","","","null","","1297.7000000178814","","2","1","null","null","arrowup","[0.325,0.675,0.85,0.15]","","",""
"sailing-trial","161","1387925","0.0-11.0-116.0","","","","false","","","","","","","","","","1407.5","","176.90000000596046","","2","1","arrowright","1","arrowleft","[0.325,0.675,0.85,0.15]","","",""
"sailing-trial","162","1393114","0.0-11.0-117.0","","","","false","","","","","","","","","","null","","3088.300000011921","","2","1","null","null","arrowup","[0.325,0.675,0.85,0.15]","","",""
"sailing-trial","163","1398441","0.0-11.0-118.0","","","","false","","","","","","","","","","1211.0999999940395","","1139.5999999940395","","2","1","arrowright","1","arrowleft","[0.325,0.675,0.85,0.15]","","",""
"sailing-trial","164","1401096","0.0-11.0-119.0","","","","false","","","","","","","","","","null","","1358.5","","0","0","null","null","arrowup","[0.325,0.675,0.85,0.15]","","",""
"sailing-trial","165","1406939","0.0-11.0-120.0","","","","false","","","","","","","","","","1355.0999999940395","","366.90000000596046","","2","1","arrowright","1","arrowleft","[0.325,0.675,0.85,0.15]","","",""
"sailing-trial","166","1410023","0.0-11.0-121.0","","","","false","","","","","","","","","","null","","1309.4000000059605","","0","0","null","null","arrowup","[0.325,0.675,0.85,0.15]","","",""
"sailing-trial","167","1413875","0.0-11.0-122.0","","","","false","","","","","","","","","","1032.0999999940395","","26.69999998807907","","2","1","arrowright","1","arrowleft","[0.15,0.85,0.675,0.325]","","",""
"sailing-trial","168","1417090","0.0-11.0-123.0","","","","false","","","","","","","","","","null","","1256.199999988079","","3","0","null","null","arrowup","[0.15,0.85,0.675,0.325]","","",""
"sailing-trial","169","1421965","0.0-11.0-124.0","","","","false","","","","","","","","","","1351.5","","913.7999999821186","","2","1","arrowright","1","arrowleft","[0.15,0.85,0.675,0.325]","","",""
"sailing-trial","170","1425992","0.0-11.0-125.0","","","","false","","","","","","","","","","null","","1383.5","","3","1","null","null","arrowup","[0.15,0.85,0.675,0.325]","","",""
"sailing-trial","171","1431379","0.0-11.0-126.0","","","","false","","","","","","","","","","1545.9000000059605","","743.3000000119209","","2","1","arrowright","1","arrowleft","[0.15,0.85,0.675,0.325]","","",""
"sailing-trial","172","1433749","0.0-11.0-127.0","","","","false","","","","","","","","","","null","","1276.5","","3","0","null","null","arrowup","[0.15,0.85,0.675,0.325]","","",""
"sailing-trial","173","1438779","0.0-11.0-128.0","","","","false","","","","","","","","","","1086.5999999940395","","48.79999998211861","","2","0","arrowright","1","arrowleft","[0.15,0.85,0.675,0.325]","","",""
"sailing-trial","174","1445124","0.0-11.0-129.0","","","","false","","","","","","","","","","null","","3573.2999999821186","","3","1","null","null","arrowup","[0.15,0.85,0.675,0.325]","","",""
"sailing-trial","175","1454486","0.0-11.0-130.0","","","","false","","","","","","","","","","5823.5","","650.5","","2","1","arrowright","1","arrowleft","[0.15,0.85,0.675,0.325]","","",""
"sailing-trial","176","1457789","0.0-11.0-131.0","","","","false","","","","","","","","","","null","","1434.800000011921","","2","1","null","null","arrowup","[0.15,0.85,0.675,0.325]","","",""
"sailing-trial","177","1461500","0.0-11.0-132.0","","","","false","","","","","","","","","","654.2000000178814","","652.4000000059605","","2","0","arrowright","1","arrowleft","[0.15,0.85,0.675,0.325]","","",""
"sailing-trial","178","1466521","0.0-11.0-133.0","","","","false","","","","","","","","","","null","","1489.2000000178814","","0","1","null","null","arrowup","[0.15,0.85,0.675,0.325]","","",""
"sailing-trial","179","1472652","0.0-11.0-134.0","","","","false","","","","","","","","","","1656.5","","1252.4000000059605","","0","1","arrowleft","0","arrowleft","[0.15,0.85,0.675,0.325]","","",""
"sailing-trial","180","1475743","0.0-11.0-135.0","","","","false","","","","","","","","","","null","","1450.5","","2","1","null","null","arrowup","[0.15,0.85,0.675,0.325]","","",""
"sailing-trial","181","1480655","0.0-11.0-136.0","","","","false","","","","","","","","","","1729","","275.30000001192093","","1","0","arrowleft","0","arrowright","[0.15,0.85,0.675,0.325]","","",""
"sailing-trial","182","1484773","0.0-11.0-137.0","","","","false","","","","","","","","","","null","","1277.5999999940395","","1","1","null","null","arrowup","[0.15,0.85,0.675,0.325]","","",""
"sailing-trial","183","1489278","0.0-11.0-138.0","","","","false","","","","","","","","","","1306.5999999940395","","221.40000000596046","","2","1","arrowright","1","arrowleft","[0.325,0.675,0.85,0.15]","","",""
"sailing-trial","184","1493138","0.0-11.0-139.0","","","","false","","","","","","","","","","null","","1512.0999999940395","","2","1","null","null","arrowup","[0.325,0.675,0.85,0.15]","","",""
"sailing-trial","185","1499535","0.0-11.0-140.0","","","","false","","","","","","","","","","1473.3999999761581","","910.0999999940395","","2","0","arrowright","1","arrowleft","[0.325,0.675,0.85,0.15]","","",""
"sailing-trial","186","1503546","0.0-11.0-141.0","","","","false","","","","","","","","","","null","","1512.2999999821186","","2","0","null","null","arrowup","[0.325,0.675,0.85,0.15]","","",""
"sailing-trial","187","1508105","0.0-11.0-142.0","","","","false","","","","","","","","","","1483.5999999940395","","34.599999994039536","","3","0","arrowright","1","arrowright","[0.325,0.675,0.85,0.15]","","",""
"sailing-trial","188","1512159","0.0-11.0-143.0","","","","false","","","","","","","","","","null","","1374.5","","1","1","null","null","arrowup","[0.325,0.675,0.85,0.15]","","",""
"sailing-trial","189","1517283","0.0-11.0-144.0","","","","false","","","","","","","","","","649.5","","460.59999999403954","","1","0","arrowleft","0","arrowright","[0.325,0.675,0.85,0.15]","","",""
"sailing-trial","190","1520915","0.0-11.0-145.0","","","","false","","","","","","","","","","null","","1802.800000011921","","3","1","null","null","arrowup","[0.325,0.675,0.85,0.15]","","",""
"sailing-trial","191","1526806","0.0-11.0-146.0","","","","false","","","","","","","","","","2159.5","","1055.7999999821186","","1","0","arrowleft","0","arrowright","[0.325,0.675,0.85,0.15]","","",""
"sailing-trial","192","1531524","0.0-11.0-147.0","","","","false","","","","","","","","","","null","","2420.4000000059605","","0","1","null","null","arrowup","[0.325,0.675,0.85,0.15]","","",""
"sailing-trial","193","1535777","0.0-11.0-148.0","","","","false","","","","","","","","","","739.4000000059605","","653.3000000119209","","2","1","arrowright","1","arrowleft","[0.325,0.675,0.85,0.15]","","",""
"sailing-trial","194","1540110","0.0-11.0-149.0","","","","false","","","","","","","","","","null","","2060.899999976158","","0","1","null","null","arrowup","[0.325,0.675,0.85,0.15]","","",""
"sailing-trial","195","1545900","0.0-11.0-150.0","","","","false","","","","","","","","","","1181.2999999821186","","1874.0999999940395","","2","1","arrowright","1","arrowleft","[0.325,0.675,0.85,0.15]","","",""
"sailing-trial","196","1548876","0.0-11.0-151.0","","","","false","","","","","","","","","","null","","1358.9000000059605","","0","0","null","null","arrowup","[0.325,0.675,0.85,0.15]","","",""
"sailing-trial","197","1553755","0.0-11.0-152.0","","","","false","","","","","","","","","","1303.7999999821186","","718.0999999940395","","2","1","arrowright","1","arrowleft","[0.325,0.675,0.85,0.15]","","",""
"sailing-trial","198","1557333","0.0-11.0-153.0","","","","false","","","","","","","","","","null","","1581.300000011921","","1","1","null","null","arrowup","[0.325,0.675,0.85,0.15]","","",""
"sailing-trial","199","1561732","0.0-11.0-154.0","","","","false","","","","","","","","","","1406.5","","200.19999998807907","","3","0","arrowright","1","arrowright","[0.325,0.675,0.85,0.15]","","",""
"sailing-trial","200","1566155","0.0-11.0-155.0","","","","false","","","","","","","","","","null","","3091.399999976158","","0","0","null","null","arrowup","[0.325,0.675,0.85,0.15]","","",""
"sailing-trial","201","1572574","0.0-11.0-156.0","","","","false","","","","","","","","","","2536.9000000059605","","808.8000000119209","","3","0","arrowright","1","arrowright","[0.325,0.675,0.85,0.15]","","",""
"sailing-trial","202","1575147","0.0-11.0-157.0","","","","false","","","","","","","","","","null","","1418.2000000178814","","3","0","null","null","arrowup","[0.325,0.675,0.85,0.15]","","",""
"sailing-trial","203","1578830","0.0-11.0-158.0","","","","false","","","","","","","","","","1056.800000011921","","198.09999999403954","","2","0","arrowright","1","arrowleft","[0.85,0.15,0.325,0.675]","","",""
"sailing-trial","204","1583276","0.0-11.0-159.0","","","","false","","","","","","","","","","null","","1801.5","","3","1","null","null","arrowup","[0.85,0.15,0.325,0.675]","","",""
"sailing-trial","205","1591387","0.0-11.0-160.0","","","","false","","","","","","","","","","3853.5999999940395","","1027","","0","1","arrowleft","0","arrowleft","[0.85,0.15,0.325,0.675]","","",""
"sailing-trial","206","1595550","0.0-11.0-161.0","","","","false","","","","","","","","","","null","","1155.5","","3","0","null","null","arrowup","[0.85,0.15,0.325,0.675]","","",""
"sailing-trial","207","1600096","0.0-11.0-162.0","","","","false","","","","","","","","","","1490.699999988079","","3.199999988079071","","1","0","arrowleft","0","arrowright","[0.85,0.15,0.325,0.675]","","",""
"sailing-trial","208","1603193","0.0-11.0-163.0","","","","false","","","","","","","","","","null","","1420.4000000059605","","2","1","null","null","arrowup","[0.85,0.15,0.325,0.675]","","",""
"sailing-trial","209","1607439","0.0-11.0-164.0","","","","false","","","","","","","","","","1176.0999999940395","","181","","2","1","arrowright","1","arrowleft","[0.85,0.15,0.325,0.675]","","",""
"sailing-trial","210","1611620","0.0-11.0-165.0","","","","false","","","","","","","","","","null","","2312","","3","0","null","null","arrowup","[0.85,0.15,0.325,0.675]","","",""
"sailing-trial","211","1617007","0.0-11.0-166.0","","","","false","","","","","","","","","","1789.7000000178814","","265.90000000596046","","2","1","arrowright","1","arrowleft","[0.85,0.15,0.325,0.675]","","",""
"sailing-trial","212","1625616","0.0-11.0-167.0","","","","false","","","","","","","","","","null","","1776.5999999940395","","0","1","null","null","arrowup","[0.85,0.15,0.325,0.675]","","",""
"sailing-trial","213","1633933","0.0-11.0-168.0","","","","false","","","","","","","","","","3229.2000000178814","","1856.5999999940395","","1","0","arrowleft","0","arrowright","[0.85,0.15,0.325,0.675]","","",""
"sailing-trial","214","1637132","0.0-11.0-169.0","","","","false","","","","","","","","","","null","","1807.199999988079","","1","0","null","null","arrowup","[0.85,0.15,0.325,0.675]","","",""
"sailing-trial","215","1643187","0.0-11.0-170.0","","","","false","","","","","","","","","","703.4000000059605","","1878.7000000178814","","3","1","arrowright","1","arrowright","[0.85,0.15,0.325,0.675]","","",""
"sailing-trial","216","1646568","0.0-11.0-171.0","","","","false","","","","","","","","","","null","","1804","","0","1","null","null","arrowup","[0.85,0.15,0.325,0.675]","","",""
"sailing-trial","217","1651355","0.0-11.0-172.0","","","","false","","","","","","","","","","1664.699999988079","","590.5999999940395","","3","1","arrowright","1","arrowright","[0.85,0.15,0.325,0.675]","","",""
"sailing-trial","218","1655229","0.0-11.0-173.0","","","","false","","","","","","","","","","null","","1374.5","","3","1","null","null","arrowup","[0.85,0.15,0.325,0.675]","","",""
"sailing-trial","219","1659170","0.0-11.0-174.0","","","","false","","","","","","","","","","1185.0999999940395","","190.2999999821186","","3","1","arrowright","1","arrowright","[0.85,0.15,0.325,0.675]","","",""
"sailing-trial","220","1662065","0.0-11.0-175.0","","","","false","","","","","","","","","","null","","1429.5999999940395","","3","0","null","null","arrowup","[0.85,0.15,0.325,0.675]","","",""
"sailing-trial","221","1667546","0.0-11.0-176.0","","","","false","","","","","","","","","","2147.5999999940395","","321.19999998807907","","2","0","arrowright","1","arrowleft","[0.85,0.15,0.325,0.675]","","",""
"sailing-trial","222","1672139","0.0-11.0-177.0","","","","false","","","","","","","","","","null","","1582.300000011921","","1","0","null","null","arrowup","[0.85,0.15,0.325,0.675]","","",""
"sailing-trial","223","1677449","0.0-11.0-178.0","","","","false","","","","","","","","","","1593.7999999821186","","878.9000000059605","","2","0","arrowright","1","arrowleft","[0.675,0.325,0.15,0.85]","","",""
"sailing-trial","224","1681339","0.0-11.0-179.0","","","","false","","","","","","","","","","null","","2315.7999999821186","","1","0","null","null","arrowup","[0.675,0.325,0.15,0.85]","","",""
"sailing-trial","225","1686973","0.0-11.0-180.0","","","","false","","","","","","","","","","1601.0999999940395","","924.9000000059605","","3","1","arrowright","1","arrowright","[0.675,0.325,0.15,0.85]","","",""
"sailing-trial","226","1690602","0.0-11.0-181.0","","","","false","","","","","","","","","","null","","1302.800000011921","","0","1","null","null","arrowup","[0.675,0.325,0.15,0.85]","","",""
"sailing-trial","227","1695946","0.0-11.0-182.0","","","","false","","","","","","","","","","1625.2999999821186","","711","","0","0","arrowleft","0","arrowleft","[0.675,0.325,0.15,0.85]","","",""
"sailing-trial","228","1699329","0.0-11.0-183.0","","","","false","","","","","","","","","","null","","1514.2000000178814","","2","0","null","null","arrowup","[0.675,0.325,0.15,0.85]","","",""
"sailing-trial","229","1705315","0.0-11.0-184.0","","","","false","","","","","","","","","","2169.399999976158","","394.40000000596046","","3","1","arrowright","1","arrowright","[0.675,0.325,0.15,0.85]","","",""
"sailing-trial","230","1708533","0.0-11.0-185.0","","","","false","","","","","","","","","","null","","1590.5","","1","0","null","null","arrowup","[0.675,0.325,0.15,0.85]","","",""
"sailing-trial","231","1713556","0.0-11.0-186.0","","","","false","","","","","","","","","","1248.5999999940395","","927.9000000059605","","2","0","arrowright","1","arrowleft","[0.675,0.325,0.15,0.85]","","",""
"sailing-trial","232","1716725","0.0-11.0-187.0","","","","false","","","","","","","","","","null","","1285.2999999821186","","1","1","null","null","arrowup","[0.675,0.325,0.15,0.85]","","",""
"sailing-trial","233","1721872","0.0-11.0-188.0","","","","false","","","","","","","","","","1480.199999988079","","204","","3","1","arrowright","1","arrowright","[0.675,0.325,0.15,0.85]","","",""
"sailing-trial","234","1725566","0.0-11.0-189.0","","","","false","","","","","","","","","","null","","1357.5","","1","0","null","null","arrowup","[0.675,0.325,0.15,0.85]","","",""
"sailing-trial","235","1729943","0.0-11.0-190.0","","","","false","","","","","","","","","","1074.0999999940395","","445.30000001192093","","3","1","arrowright","1","arrowright","[0.675,0.325,0.15,0.85]","","",""
"sailing-trial","236","1733943","0.0-11.0-191.0","","","","false","","","","","","","","","","null","","2546.699999988079","","0","0","null","null","arrowup","[0.675,0.325,0.15,0.85]","","",""
"sailing-trial","237","1737471","0.0-11.0-192.0","","","","false","","","","","","","","","","950.8000000119209","","143.90000000596046","","2","0","arrowright","1","arrowleft","[0.675,0.325,0.15,0.85]","","",""
"sailing-trial","238","1741545","0.0-11.0-193.0","","","","false","","","","","","","","","","null","","1625.300000011921","","2","1","null","null","arrowup","[0.675,0.325,0.15,0.85]","","",""
"sailing-trial","239","1745728","0.0-11.0-194.0","","","","false","","","","","","","","","","1343.2999999821186","","156.69999998807907","","3","1","arrowright","1","arrowright","[0.675,0.325,0.15,0.85]","","",""
"sailing-trial","240","1749972","0.0-11.0-195.0","","","","false","","","","","","","","","","null","","1257.1000000238419","","0","1","null","null","arrowup","[0.675,0.325,0.15,0.85]","","",""
"sailing-trial","241","1753894","0.0-11.0-196.0","","","","false","","","","","","","","","","1086.5","","218.59999999403954","","3","0","arrowright","1","arrowright","[0.85,0.15,0.325,0.675]","","",""
"sailing-trial","242","1757610","0.0-11.0-197.0","","","","false","","","","","","","","","","null","","1479.300000011921","","2","0","null","null","arrowup","[0.85,0.15,0.325,0.675]","","",""
"sailing-trial","243","1761886","0.0-11.0-198.0","","","","false","","","","","","","","","","549.9000000059605","","228.2999999821186","","3","1","arrowright","1","arrowright","[0.85,0.15,0.325,0.675]","","",""
"sailing-trial","244","1765725","0.0-11.0-199.0","","","","false","","","","","","","","","","null","","1210.0999999940395","","3","1","null","null","arrowup","[0.85,0.15,0.325,0.675]","","",""
"sailing-trial","245","1771190","0.0-11.0-200.0","","","","false","","","","","","","","","","1579.2999999821186","","358.59999999403954","","2","1","arrowright","1","arrowleft","[0.85,0.15,0.325,0.675]","","",""
"sailing-trial","246","1774927","0.0-11.0-201.0","","","","false","","","","","","","","","","null","","1359.0999999940395","","2","0","null","null","arrowup","[0.85,0.15,0.325,0.675]","","",""
"sailing-trial","247","1778281","0.0-11.0-202.0","","","","false","","","","","","","","","","774.5","","446.60000002384186","","2","0","arrowright","1","arrowleft","[0.85,0.15,0.325,0.675]","","",""
"sailing-trial","248","1781860","0.0-11.0-203.0","","","","false","","","","","","","","","","null","","1267.300000011921","","1","0","null","null","arrowup","[0.85,0.15,0.325,0.675]","","",""
"sailing-trial","249","1786870","0.0-11.0-204.0","","","","false","","","","","","","","","","1192.7000000178814","","1116.6000000238419","","0","0","arrowleft","0","arrowleft","[0.85,0.15,0.325,0.675]","","",""
"sailing-trial","250","1791931","0.0-11.0-205.0","","","","false","","","","","","","","","","null","","1490.4000000059605","","2","1","null","null","arrowup","[0.85,0.15,0.325,0.675]","","",""
"sailing-trial","251","1795464","0.0-11.0-206.0","","","","false","","","","","","","","","","776.5999999940395","","384.2000000178814","","2","0","arrowright","1","arrowleft","[0.85,0.15,0.325,0.675]","","",""
"sailing-trial","252","1798215","0.0-11.0-207.0","","","","false","","","","","","","","","","null","","1359.800000011921","","2","0","null","null","arrowup","[0.85,0.15,0.325,0.675]","","",""
"sailing-trial","253","1803510","0.0-11.0-208.0","","","","false","","","","","","","","","","1752.0999999940395","","698.3000000119209","","2","1","arrowright","1","arrowleft","[0.85,0.15,0.325,0.675]","","",""
"sailing-trial","254","1807016","0.0-11.0-209.0","","","","false","","","","","","","","","","null","","1335.0999999940395","","1","0","null","null","arrowup","[0.85,0.15,0.325,0.675]","","",""
"sailing-trial","255","1812025","0.0-11.0-210.0","","","","false","","","","","","","","","","1086.699999988079","","626.2000000178814","","3","1","arrowright","1","arrowright","[0.85,0.15,0.325,0.675]","","",""
"sailing-trial","256","1815906","0.0-11.0-211.0","","","","false","","","","","","","","","","null","","2674.199999988079","","1","0","null","null","arrowup","[0.85,0.15,0.325,0.675]","","",""
"sailing-trial","257","1820002","0.0-11.0-212.0","","","","false","","","","","","","","","","972","","38.79999998211861","","3","0","arrowright","1","arrowright","[0.85,0.15,0.325,0.675]","","",""
"sailing-trial","258","1826594","0.0-11.0-213.0","","","","false","","","","","","","","","","null","","5134.5999999940395","","2","0","null","null","arrowup","[0.85,0.15,0.325,0.675]","","",""
"sailing-trial","259","1831684","0.0-11.0-214.0","","","","false","","","","","","","","","","1033.5","","692.1999999880791","","3","1","arrowright","1","arrowright","[0.675,0.325,0.15,0.85]","","",""
"sailing-trial","260","1834121","0.0-11.0-215.0","","","","false","","","","","","","","","","null","","1225.1000000238419","","2","0","null","null","arrowup","[0.675,0.325,0.15,0.85]","","",""
"sailing-trial","261","1838799","0.0-11.0-216.0","","","","false","","","","","","","","","","1237.4000000059605","","575.1999999880791","","3","1","arrowright","1","arrowright","[0.675,0.325,0.15,0.85]","","",""
"sailing-trial","262","1842167","0.0-11.0-217.0","","","","false","","","","","","","","","","null","","1209.8999999761581","","2","0","null","null","arrowup","[0.675,0.325,0.15,0.85]","","",""
"sailing-trial","263","1846528","0.0-11.0-218.0","","","","false","","","","","","","","","","1600.0999999940395","","490.90000000596046","","2","0","arrowright","1","arrowleft","[0.675,0.325,0.15,0.85]","","",""
"sailing-trial","264","1851713","0.0-11.0-219.0","","","","false","","","","","","","","","","null","","2586","","1","1","null","null","arrowup","[0.675,0.325,0.15,0.85]","","",""
"sailing-trial","265","1858636","0.0-11.0-220.0","","","","false","","","","","","","","","","988.9000000059605","","2974.4000000059605","","3","1","arrowright","1","arrowright","[0.675,0.325,0.15,0.85]","","",""
"sailing-trial","266","1862782","0.0-11.0-221.0","","","","false","","","","","","","","","","null","","3076","","2","0","null","null","arrowup","[0.675,0.325,0.15,0.85]","","",""
"sailing-trial","267","1868298","0.0-11.0-222.0","","","","false","","","","","","","","","","1326","","991.7000000178814","","2","0","arrowright","1","arrowleft","[0.675,0.325,0.15,0.85]","","",""
"sailing-trial","268","1871712","0.0-11.0-223.0","","","","false","","","","","","","","","","null","","2077.5","","1","0","null","null","arrowup","[0.675,0.325,0.15,0.85]","","",""
"sailing-trial","269","1875575","0.0-11.0-224.0","","","","false","","","","","","","","","","1528.4000000059605","","115.30000001192093","","2","0","arrowright","1","arrowleft","[0.675,0.325,0.15,0.85]","","",""
"sailing-trial","270","1880569","0.0-11.0-225.0","","","","false","","","","","","","","","","null","","2141.5","","0","1","null","null","arrowup","[0.675,0.325,0.15,0.85]","","",""
"sailing-trial","271","1886287","0.0-11.0-226.0","","","","false","","","","","","","","","","2640.699999988079","","537.6000000238419","","2","0","arrowright","1","arrowleft","[0.675,0.325,0.15,0.85]","","",""
"sailing-trial","272","1894970","0.0-11.0-227.0","","","","false","","","","","","","","","","null","","6572.5","","3","1","null","null","arrowup","[0.675,0.325,0.15,0.85]","","",""
"sailing-trial","273","1901649","0.0-11.0-228.0","","","","false","","","","","","","","","","1594","","406.7000000178814","","3","1","arrowright","1","arrowright","[0.675,0.325,0.15,0.85]","","",""
"sailing-trial","274","1905306","0.0-11.0-229.0","","","","false","","","","","","","","","","null","","2381.699999988079","","0","0","null","null","arrowup","[0.675,0.325,0.15,0.85]","","",""
"sailing-trial","275","1912010","0.0-11.0-230.0","","","","false","","","","","","","","","","1314.1000000238419","","890.1999999880791","","3","1","arrowright","1","arrowright","[0.675,0.325,0.15,0.85]","","",""
"sailing-trial","276","1917136","0.0-11.0-231.0","","","","false","","","","","","","","","","null","","3008.0999999940395","","3","1","null","null","arrowup","[0.675,0.325,0.15,0.85]","","",""
"sailing-trial","277","1926509","0.0-11.0-232.0","","","","false","","","","","","","","","","5525.699999988079","","466.30000001192093","","3","1","arrowright","1","arrowright","[0.675,0.325,0.15,0.85]","","",""
"sailing-trial","278","1932441","0.0-11.0-233.0","","","","false","","","","","","","","","","null","","2446.0999999940395","","3","1","null","null","arrowup","[0.675,0.325,0.15,0.85]","","",""
"sailing-trial","279","1935881","0.0-11.0-234.0","","","","false","","","","","","","","","","744.2999999821186","","433","","3","0","arrowright","1","arrowright","[0.675,0.325,0.15,0.85]","","",""
"sailing-trial","280","1939682","0.0-11.0-235.0","","","","false","","","","","","","","","","null","","1523.800000011921","","3","1","null","null","arrowup","[0.675,0.325,0.15,0.85]","","",""
"sailing-trial","281","1943853","0.0-11.0-236.0","","","","false","","","","","","","","","","1251.5","","355.90000000596046","","2","1","arrowright","1","arrowleft","[0.85,0.15,0.325,0.675]","","",""
"sailing-trial","282","1946728","0.0-11.0-237.0","","","","false","","","","","","","","","","null","","1596.2999999821186","","1","0","null","null","arrowup","[0.85,0.15,0.325,0.675]","","",""
"sailing-trial","283","1952919","0.0-11.0-238.0","","","","false","","","","","","","","","","2536.5999999940395","","1107.8999999761581","","0","1","arrowleft","0","arrowleft","[0.85,0.15,0.325,0.675]","","",""
"sailing-trial","284","1956779","0.0-11.0-239.0","","","","false","","","","","","","","","","null","","1867.0999999940395","","1","0","null","null","arrowup","[0.85,0.15,0.325,0.675]","","",""
"sailing-trial","285","1961201","0.0-11.0-240.0","","","","false","","","","","","","","","","1078.3999999761581","","101.80000001192093","","0","1","arrowleft","0","arrowleft","[0.85,0.15,0.325,0.675]","","",""
"sailing-trial","286","1963908","0.0-11.0-241.0","","","","false","","","","","","","","","","null","","1589","","0","0","null","null","arrowup","[0.85,0.15,0.325,0.675]","","",""
"sailing-trial","287","1969009","0.0-11.0-242.0","","","","false","","","","","","","","","","1476.4000000059605","","1237.4000000059605","","2","0","arrowright","1","arrowleft","[0.85,0.15,0.325,0.675]","","",""
"sailing-trial","288","1972107","0.0-11.0-243.0","","","","false","","","","","","","","","","null","","1299.0999999940395","","2","0","null","null","arrowup","[0.85,0.15,0.325,0.675]","","",""
"sailing-trial","289","1976288","0.0-11.0-244.0","","","","false","","","","","","","","","","1136","","136.2999999821186","","0","1","arrowleft","0","arrowleft","[0.85,0.15,0.325,0.675]","","",""
"sailing-trial","290","1980401","0.0-11.0-245.0","","","","false","","","","","","","","","","null","","1595.300000011921","","3","1","null","null","arrowup","[0.85,0.15,0.325,0.675]","","",""
"sailing-trial","291","1984815","0.0-11.0-246.0","","","","false","","","","","","","","","","1261.5999999940395","","79.2999999821186","","3","1","arrowright","1","arrowright","[0.85,0.15,0.325,0.675]","","",""
"sailing-trial","292","1988226","0.0-11.0-247.0","","","","false","","","","","","","","","","null","","1213.7999999821186","","0","1","null","null","arrowup","[0.85,0.15,0.325,0.675]","","",""
"sailing-trial","293","1992920","0.0-11.0-248.0","","","","false","","","","","","","","","","757","","579.5999999940395","","3","1","arrowright","1","arrowright","[0.85,0.15,0.325,0.675]","","",""
"sailing-trial","294","1995864","0.0-11.0-249.0","","","","false","","","","","","","","","","null","","1204.2000000178814","","2","1","null","null","arrowup","[0.85,0.15,0.325,0.675]","","",""
"sailing-trial","295","1999156","0.0-11.0-250.0","","","","false","","","","","","","","","","474.69999998807907","","202.2999999821186","","3","1","arrowright","1","arrowright","[0.85,0.15,0.325,0.675]","","",""
"sailing-trial","296","2002295","0.0-11.0-251.0","","","","false","","","","","","","","","","null","","477.09999999403954","","3","1","null","null","arrowup","[0.85,0.15,0.325,0.675]","","",""
"sailing-trial","297","2006333","0.0-11.0-252.0","","","","false","","","","","","","","","","874.2000000178814","","280.40000000596046","","3","1","arrowright","1","arrowright","[0.675,0.325,0.15,0.85]","","",""
"sailing-trial","298","2009154","0.0-11.0-253.0","","","","false","","","","","","","","","","null","","490.90000000596046","","3","1","null","null","arrowup","[0.675,0.325,0.15,0.85]","","",""
"sailing-trial","299","2013575","0.0-11.0-254.0","","","","false","","","","","","","","","","1542.3999999761581","","278","","3","1","arrowright","1","arrowright","[0.675,0.325,0.15,0.85]","","",""
"sailing-trial","300","2016946","0.0-11.0-255.0","","","","false","","","","","","","","","","null","","1743.5999999940395","","0","1","null","null","arrowup","[0.675,0.325,0.15,0.85]","","",""
"sailing-trial","301","2025488","0.0-11.0-256.0","","","","false","","","","","","","","","","4375.299999982119","","532.6000000238419","","3","1","arrowright","1","arrowright","[0.675,0.325,0.15,0.85]","","",""
"sailing-trial","302","2029637","0.0-11.0-257.0","","","","false","","","","","","","","","","null","","2831.9000000059605","","2","0","null","null","arrowup","[0.675,0.325,0.15,0.85]","","",""
"sailing-trial","303","2033771","0.0-11.0-258.0","","","","false","","","","","","","","","","1170.0999999940395","","237.10000002384186","","3","1","arrowright","1","arrowright","[0.675,0.325,0.15,0.85]","","",""
"sailing-trial","304","2036362","0.0-11.0-259.0","","","","false","","","","","","","","","","null","","1335.5","","2","0","null","null","arrowup","[0.675,0.325,0.15,0.85]","","",""
"sailing-trial","305","2040382","0.0-11.0-260.0","","","","false","","","","","","","","","","1071.2000000178814","","84","","3","1","arrowright","1","arrowright","[0.675,0.325,0.15,0.85]","","",""
"sailing-trial","306","2043923","0.0-11.0-261.0","","","","false","","","","","","","","","","null","","1397.5999999940395","","2","0","null","null","arrowup","[0.675,0.325,0.15,0.85]","","",""
"sailing-trial","307","2048994","0.0-11.0-262.0","","","","false","","","","","","","","","","1235.3999999761581","","559.9000000059605","","0","1","arrowleft","0","arrowleft","[0.675,0.325,0.15,0.85]","","",""
"sailing-trial","308","2053292","0.0-11.0-263.0","","","","false","","","","","","","","","","null","","1387.9000000059605","","1","1","null","null","arrowup","[0.675,0.325,0.15,0.85]","","",""
"sailing-trial","309","2058512","0.0-11.0-264.0","","","","false","","","","","","","","","","2013.2999999821186","","428.7999999821186","","3","1","arrowright","1","arrowright","[0.675,0.325,0.15,0.85]","","",""
"sailing-trial","310","2062668","0.0-11.0-265.0","","","","false","","","","","","","","","","null","","1894.9000000059605","","3","1","null","null","arrowup","[0.675,0.325,0.15,0.85]","","",""
"sailing-trial","311","2067536","0.0-11.0-266.0","","","","false","","","","","","","","","","1405.300000011921","","929.7000000178814","","0","1","arrowleft","0","arrowleft","[0.675,0.325,0.15,0.85]","","",""
"sailing-trial","312","2071775","0.0-11.0-267.0","","","","false","","","","","","","","","","null","","1887.5999999940395","","2","0","null","null","arrowup","[0.675,0.325,0.15,0.85]","","",""
"sailing-trial","313","2077605","0.0-11.0-268.0","","","","false","","","","","","","","","","1576.4000000059605","","378.59999999403954","","3","0","arrowright","1","arrowright","[0.85,0.15,0.325,0.675]","","",""
"sailing-trial","314","2080885","0.0-11.0-269.0","","","","false","","","","","","","","","","null","","1511.800000011921","","2","0","null","null","arrowup","[0.85,0.15,0.325,0.675]","","",""
"sailing-trial","315","2086501","0.0-11.0-270.0","","","","false","","","","","","","","","","1067.0999999940395","","1133.2000000178814","","0","1","arrowleft","0","arrowleft","[0.85,0.15,0.325,0.675]","","",""
"sailing-trial","316","2090737","0.0-11.0-271.0","","","","false","","","","","","","","","","null","","1227.800000011921","","3","0","null","null","arrowup","[0.85,0.15,0.325,0.675]","","",""
"sailing-trial","317","2097029","0.0-11.0-272.0","","","","false","","","","","","","","","","2636","","782.2000000178814","","2","0","arrowright","1","arrowleft","[0.85,0.15,0.325,0.675]","","",""
"sailing-trial","318","2099326","0.0-11.0-273.0","","","","false","","","","","","","","","","null","","1237.7999999821186","","0","0","null","null","arrowup","[0.85,0.15,0.325,0.675]","","",""
"sailing-trial","319","2103789","0.0-11.0-274.0","","","","false","","","","","","","","","","1298.699999988079","","636.9000000059605","","3","0","arrowright","1","arrowright","[0.85,0.15,0.325,0.675]","","",""
"sailing-trial","320","2107477","0.0-11.0-275.0","","","","false","","","","","","","","","","null","","1528.5","","0","1","null","null","arrowup","[0.85,0.15,0.325,0.675]","","",""
"sailing-trial","321","2117172","0.0-11.0-276.0","","","","false","","","","","","","","","","2543.699999988079","","2652.5","","0","1","arrowleft","0","arrowleft","[0.85,0.15,0.325,0.675]","","",""
"sailing-trial","322","2120530","0.0-11.0-277.0","","","","false","","","","","","","","","","null","","1417.5","","1","0","null","null","arrowup","[0.85,0.15,0.325,0.675]","","",""
"sailing-trial","323","2124176","0.0-11.0-278.0","","","","false","","","","","","","","","","739.2999999821186","","254.40000000596046","","2","0","arrowright","1","arrowleft","[0.85,0.15,0.325,0.675]","","",""
"sailing-trial","324","2127909","0.0-11.0-279.0","","","","false","","","","","","","","","","null","","1926.300000011921","","0","1","null","null","arrowup","[0.85,0.15,0.325,0.675]","","",""
"sailing-trial","325","2132911","0.0-11.0-280.0","","","","false","","","","","","","","","","2137.5","","829.5999999940395","","1","0","arrowleft","0","arrowright","[0.85,0.15,0.325,0.675]","","",""
"sailing-trial","326","2137666","0.0-11.0-281.0","","","","false","","","","","","","","","","null","","3745","","1","0","null","null","arrowup","[0.85,0.15,0.325,0.675]","","",""
"sailing-trial","327","2144387","0.0-11.0-282.0","","","","false","","","","","","","","","","2685","","781.5","","3","1","arrowright","1","arrowright","[0.85,0.15,0.325,0.675]","","",""
"sailing-trial","328","2148475","0.0-11.0-283.0","","","","false","","","","","","","","","","null","","1377.199999988079","","3","1","null","null","arrowup","[0.85,0.15,0.325,0.675]","","",""
"sailing-trial","329","2153799","0.0-11.0-284.0","","","","false","","","","","","","","","","724.5","","1095.800000011921","","0","1","arrowleft","0","arrowleft","[0.85,0.15,0.325,0.675]","","",""
"sailing-trial","330","2156971","0.0-11.0-285.0","","","","false","","","","","","","","","","null","","1312.0999999940395","","1","0","null","null","arrowup","[0.85,0.15,0.325,0.675]","","",""
"sailing-trial","331","2161344","0.0-11.0-286.0","","","","false","","","","","","","","","","1696.5999999940395","","15.5","","3","1","arrowright","1","arrowright","[0.675,0.325,0.15,0.85]","","",""
"sailing-trial","332","2164357","0.0-11.0-287.0","","","","false","","","","","","","","","","null","","1401.6000000238419","","0","1","null","null","arrowup","[0.675,0.325,0.15,0.85]","","",""
"sailing-trial","333","2167220","0.0-11.0-288.0","","","","false","","","","","","","","","","232.80000001192093","","106.7000000178814","","3","1","arrowright","1","arrowright","[0.675,0.325,0.15,0.85]","","",""
"sailing-trial","334","2169820","0.0-11.0-289.0","","","","false","","","","","","","","","","null","","1056.0999999940395","","1","1","null","null","arrowup","[0.675,0.325,0.15,0.85]","","",""
"sailing-trial","335","2172809","0.0-11.0-290.0","","","","false","","","","","","","","","","341.39999997615814","","31.69999998807907","","3","1","arrowright","1","arrowright","[0.675,0.325,0.15,0.85]","","",""
"sailing-trial","336","2175592","0.0-11.0-291.0","","","","false","","","","","","","","","","null","","1070.7000000178814","","0","1","null","null","arrowup","[0.675,0.325,0.15,0.85]","","",""
"sailing-trial","337","2180443","0.0-11.0-292.0","","","","false","","","","","","","","","","1819.5999999940395","","217","","3","1","arrowright","1","arrowright","[0.675,0.325,0.15,0.85]","","",""
"sailing-trial","338","2182822","0.0-11.0-293.0","","","","false","","","","","","","","","","null","","1159.5","","3","0","null","null","arrowup","[0.675,0.325,0.15,0.85]","","",""
"sailing-trial","339","2186354","0.0-11.0-294.0","","","","false","","","","","","","","","","822.5999999940395","","178.89999997615814","","3","1","arrowright","1","arrowright","[0.675,0.325,0.15,0.85]","","",""
"sailing-trial","340","2188548","0.0-11.0-295.0","","","","false","","","","","","","","","","null","","1073.5","","2","0","null","null","arrowup","[0.675,0.325,0.15,0.85]","","",""
"sailing-trial","341","2191594","0.0-11.0-296.0","","","","false","","","","","","","","","","397.5","","59.20000001788139","","3","1","arrowright","1","arrowright","[0.675,0.325,0.15,0.85]","","",""
"sailing-trial","342","2194597","0.0-11.0-297.0","","","","false","","","","","","","","","","null","","1208","","1","0","null","null","arrowup","[0.675,0.325,0.15,0.85]","","",""
"sailing-trial","343","2198703","0.0-11.0-298.0","","","","false","","","","","","","","","","736.8000000119209","","806.8000000119209","","3","1","arrowright","1","arrowright","[0.675,0.325,0.15,0.85]","","",""
"sailing-trial","344","2202592","0.0-11.0-299.0","","","","false","","","","","","","","","","null","","2728.5","","1","0","null","null","arrowup","[0.675,0.325,0.15,0.85]","","",""
"sailing-trial","345","2207186","0.0-11.0-300.0","","","","false","","","","","","","","","","1184.7999999821186","","744","","3","1","arrowright","1","arrowright","[0.675,0.325,0.15,0.85]","","",""
"sailing-trial","346","2210854","0.0-11.0-301.0","","","","false","","","","","","","","","","null","","2387","","1","0","null","null","arrowup","[0.675,0.325,0.15,0.85]","","",""
"sailing-trial","347","2214499","0.0-11.0-302.0","","","","false","","","","","","","","","","1015.4000000059605","","291.59999999403954","","0","0","arrowleft","0","arrowleft","[0.15,0.85,0.675,0.325]","","",""
"sailing-trial","348","2217123","0.0-11.0-303.0","","","","false","","","","","","","","","","null","","1439.800000011921","","3","0","null","null","arrowup","[0.15,0.85,0.675,0.325]","","",""
"sailing-trial","349","2222168","0.0-11.0-304.0","","","","false","","","","","","","","","","1331.8999999761581","","197.40000000596046","","3","0","arrowright","1","arrowright","[0.15,0.85,0.675,0.325]","","",""
"sailing-trial","350","2226213","0.0-11.0-305.0","","","","false","","","","","","","","","","null","","1498.199999988079","","3","0","null","null","arrowup","[0.15,0.85,0.675,0.325]","","",""
"sailing-trial","351","2231047","0.0-11.0-306.0","","","","false","","","","","","","","","","1301.800000011921","","47.30000001192093","","2","1","arrowright","1","arrowleft","[0.15,0.85,0.675,0.325]","","",""
"sailing-trial","352","2238423","0.0-11.0-307.0","","","","false","","","","","","","","","","null","","1067","","1","1","null","null","arrowup","[0.15,0.85,0.675,0.325]","","",""
"sailing-trial","353","2242611","0.0-11.0-308.0","","","","false","","","","","","","","","","1309.5","","295.7999999821186","","2","0","arrowright","1","arrowleft","[0.15,0.85,0.675,0.325]","","",""
"sailing-trial","354","2245921","0.0-11.0-309.0","","","","false","","","","","","","","","","null","","1931.800000011921","","0","0","null","null","arrowup","[0.15,0.85,0.675,0.325]","","",""
"sailing-trial","355","2250106","0.0-11.0-310.0","","","","false","","","","","","","","","","804.5","","364.59999999403954","","3","0","arrowright","1","arrowright","[0.15,0.85,0.675,0.325]","","",""
"sailing-trial","356","2254789","0.0-11.0-311.0","","","","false","","","","","","","","","","null","","1674.300000011921","","3","0","null","null","arrowup","[0.15,0.85,0.675,0.325]","","",""
"sailing-trial","357","2259717","0.0-11.0-312.0","","","","false","","","","","","","","","","2157.5999999940395","","189.09999999403954","","0","0","arrowleft","0","arrowleft","[0.15,0.85,0.675,0.325]","","",""
"sailing-trial","358","2262246","0.0-11.0-313.0","","","","false","","","","","","","","","","null","","1488.5","","3","0","null","null","arrowup","[0.15,0.85,0.675,0.325]","","",""
"sailing-trial","359","2266927","0.0-11.0-314.0","","","","false","","","","","","","","","","1226.699999988079","","25.19999998807907","","1","1","arrowleft","0","arrowright","[0.15,0.85,0.675,0.325]","","",""
"sailing-trial","360","2270200","0.0-11.0-315.0","","","","false","","","","","","","","","","null","","1369.3999999761581","","1","0","null","null","arrowup","[0.15,0.85,0.675,0.325]","","",""
"sailing-trial","361","2275523","0.0-11.0-316.0","","","","false","","","","","","","","","","1414.699999988079","","240.60000002384186","","3","1","arrowright","1","arrowright","[0.15,0.85,0.675,0.325]","","",""
"sailing-trial","362","2278550","0.0-11.0-317.0","","","","false","","","","","","","","","","null","","1371.9000000059605","","3","0","null","null","arrowup","[0.15,0.85,0.675,0.325]","","",""
"sailing-trial","363","2282708","0.0-11.0-318.0","","","","false","","","","","","","","","","909.7999999821186","","350.09999999403954","","3","1","arrowright","1","arrowright","[0.675,0.325,0.15,0.85]","","",""
"sailing-trial","364","2286369","0.0-11.0-319.0","","","","false","","","","","","","","","","null","","1257.800000011921","","3","1","null","null","arrowup","[0.675,0.325,0.15,0.85]","","",""
"sailing-trial","365","2291435","0.0-11.0-320.0","","","","false","","","","","","","","","","1379.5","","249.5","","3","1","arrowright","1","arrowright","[0.675,0.325,0.15,0.85]","","",""
"sailing-trial","366","2294397","0.0-11.0-321.0","","","","false","","","","","","","","","","null","","1434.199999988079","","0","1","null","null","arrowup","[0.675,0.325,0.15,0.85]","","",""
"sailing-trial","367","2299598","0.0-11.0-322.0","","","","false","","","","","","","","","","1785.9000000059605","","336.09999999403954","","3","1","arrowright","1","arrowright","[0.675,0.325,0.15,0.85]","","",""
"sailing-trial","368","2304326","0.0-11.0-323.0","","","","false","","","","","","","","","","null","","3317.800000011921","","3","0","null","null","arrowup","[0.675,0.325,0.15,0.85]","","",""
"sailing-trial","369","2311708","0.0-11.0-324.0","","","","false","","","","","","","","","","1383.4000000059605","","3234.5","","3","0","arrowright","1","arrowright","[0.675,0.325,0.15,0.85]","","",""
"sailing-trial","370","2314472","0.0-11.0-325.0","","","","false","","","","","","","","","","null","","1508.800000011921","","2","0","null","null","arrowup","[0.675,0.325,0.15,0.85]","","",""
"sailing-trial","371","2319115","0.0-11.0-326.0","","","","false","","","","","","","","","","1186.4000000059605","","50.099999994039536","","3","0","arrowright","1","arrowright","[0.675,0.325,0.15,0.85]","","",""
"sailing-trial","372","2322386","0.0-11.0-327.0","","","","false","","","","","","","","","","null","","1226.199999988079","","0","1","null","null","arrowup","[0.675,0.325,0.15,0.85]","","",""
"sailing-trial","373","2328736","0.0-11.0-328.0","","","","false","","","","","","","","","","2441.2999999821186","","294.69999998807907","","3","1","arrowright","1","arrowright","[0.675,0.325,0.15,0.85]","","",""
"sailing-trial","374","2332675","0.0-11.0-329.0","","","","false","","","","","","","","","","null","","1224.800000011921","","1","0","null","null","arrowup","[0.675,0.325,0.15,0.85]","","",""
"sailing-trial","375","2336943","0.0-11.0-330.0","","","","false","","","","","","","","","","979.4000000059605","","80.7999999821186","","3","1","arrowright","1","arrowright","[0.675,0.325,0.15,0.85]","","",""
"sailing-trial","376","2340932","0.0-11.0-331.0","","","","false","","","","","","","","","","null","","2365.0999999940395","","2","0","null","null","arrowup","[0.675,0.325,0.15,0.85]","","",""
"sailing-trial","377","2345568","0.0-11.0-332.0","","","","false","","","","","","","","","","1306.9000000059605","","516.8000000119209","","3","0","arrowright","1","arrowright","[0.675,0.325,0.15,0.85]","","",""
"sailing-trial","378","2349811","0.0-11.0-333.0","","","","false","","","","","","","","","","null","","1537.7000000178814","","3","1","null","null","arrowup","[0.675,0.325,0.15,0.85]","","",""
"sailing-trial","379","2354556","0.0-11.0-334.0","","","","false","","","","","","","","","","1256.800000011921","","199.59999999403954","","0","1","arrowleft","0","arrowleft","[0.675,0.325,0.15,0.85]","","",""
"sailing-trial","380","2359824","0.0-11.0-335.0","","","","false","","","","","","","","","","null","","3124.2999999821186","","2","0","null","null","arrowup","[0.675,0.325,0.15,0.85]","","",""
"sailing-trial","381","2365210","0.0-11.0-336.0","","","","false","","","","","","","","","","1753.5999999940395","","280.40000000596046","","0","1","arrowleft","0","arrowleft","[0.85,0.15,0.325,0.675]","","",""
"sailing-trial","382","2367627","0.0-11.0-337.0","","","","false","","","","","","","","","","null","","1322.9000000059605","","3","0","null","null","arrowup","[0.85,0.15,0.325,0.675]","","",""
"sailing-trial","383","2373375","0.0-11.0-338.0","","","","false","","","","","","","","","","1374.800000011921","","908.8000000119209","","3","1","arrowright","1","arrowright","[0.85,0.15,0.325,0.675]","","",""
"sailing-trial","384","2376602","0.0-11.0-339.0","","","","false","","","","","","","","","","null","","1243.9000000059605","","0","1","null","null","arrowup","[0.85,0.15,0.325,0.675]","","",""
"sailing-trial","385","2381495","0.0-11.0-340.0","","","","false","","","","","","","","","","1285.699999988079","","19.599999994039536","","3","1","arrowright","1","arrowright","[0.85,0.15,0.325,0.675]","","",""
"sailing-trial","386","2384130","0.0-11.0-341.0","","","","false","","","","","","","","","","null","","1256.0999999940395","","3","0","null","null","arrowup","[0.85,0.15,0.325,0.675]","","",""
"sailing-trial","387","2390553","0.0-11.0-342.0","","","","false","","","","","","","","","","2960.4000000059605","","398.2999999821186","","3","1","arrowright","1","arrowright","[0.85,0.15,0.325,0.675]","","",""
"sailing-trial","388","2394059","0.0-11.0-343.0","","","","false","","","","","","","","","","null","","1804.7999999821186","","2","0","null","null","arrowup","[0.85,0.15,0.325,0.675]","","",""
"sailing-trial","389","2401324","0.0-11.0-344.0","","","","false","","","","","","","","","","1647.7000000178814","","2153.9000000059605","","3","1","arrowright","1","arrowright","[0.85,0.15,0.325,0.675]","","",""
"sailing-trial","390","2404514","0.0-11.0-345.0","","","","false","","","","","","","","","","null","","1171.0999999940395","","0","1","null","null","arrowup","[0.85,0.15,0.325,0.675]","","",""
"sailing-trial","391","2409128","0.0-11.0-346.0","","","","false","","","","","","","","","","1418.5","","235.2000000178814","","3","1","arrowright","1","arrowright","[0.85,0.15,0.325,0.675]","","",""
"sailing-trial","392","2412682","0.0-11.0-347.0","","","","false","","","","","","","","","","null","","1276.7000000178814","","2","1","null","null","arrowup","[0.85,0.15,0.325,0.675]","","",""
"sailing-trial","393","2418561","0.0-11.0-348.0","","","","false","","","","","","","","","","1541.5","","324.5","","3","0","arrowright","1","arrowright","[0.85,0.15,0.325,0.675]","","",""
"sailing-trial","394","2422784","0.0-11.0-349.0","","","","false","","","","","","","","","","null","","1910.6000000238419","","2","0","null","null","arrowup","[0.85,0.15,0.325,0.675]","","",""
"sailing-trial","395","2427389","0.0-11.0-350.0","","","","false","","","","","","","","","","995","","216.40000000596046","","3","1","arrowright","1","arrowright","[0.85,0.15,0.325,0.675]","","",""
"sailing-trial","396","2430425","0.0-11.0-351.0","","","","false","","","","","","","","","","null","","1199.4000000059605","","1","0","null","null","arrowup","[0.85,0.15,0.325,0.675]","","",""
"sailing-trial","397","2435277","0.0-11.0-352.0","","","","false","","","","","","","","","","1350.7999999821186","","174.80000001192093","","3","1","arrowright","1","arrowright","[0.85,0.15,0.325,0.675]","","",""
"sailing-trial","398","2438527","0.0-11.0-353.0","","","","false","","","","","","","","","","null","","1077.4000000059605","","2","1","null","null","arrowup","[0.85,0.15,0.325,0.675]","","",""
"sailing-trial","399","2442893","0.0-11.0-354.0","","","","false","","","","","","","","","","934.2000000178814","","244.19999998807907","","0","1","arrowleft","0","arrowleft","[0.675,0.325,0.15,0.85]","","",""
"sailing-trial","400","2445787","0.0-11.0-355.0","","","","false","","","","","","","","","","null","","1332.2999999821186","","0","1","null","null","arrowup","[0.675,0.325,0.15,0.85]","","",""
"sailing-trial","401","2450838","0.0-11.0-356.0","","","","false","","","","","","","","","","1354.9000000059605","","724.6000000238419","","0","1","arrowleft","0","arrowleft","[0.675,0.325,0.15,0.85]","","",""
"sailing-trial","402","2455176","0.0-11.0-357.0","","","","false","","","","","","","","","","null","","1329.800000011921","","3","0","null","null","arrowup","[0.675,0.325,0.15,0.85]","","",""
"sailing-trial","403","2460720","0.0-11.0-358.0","","","","false","","","","","","","","","","1769.9000000059605","","332.5","","3","1","arrowright","1","arrowright","[0.675,0.325,0.15,0.85]","","",""
"sailing-trial","404","2463709","0.0-11.0-359.0","","","","false","","","","","","","","","","null","","1539.2999999821186","","0","0","null","null","arrowup","[0.675,0.325,0.15,0.85]","","",""
"sailing-trial","405","2469436","0.0-11.0-360.0","","","","false","","","","","","","","","","1787.199999988079","","613.5999999940395","","3","1","arrowright","1","arrowright","[0.675,0.325,0.15,0.85]","","",""
"sailing-trial","406","2472338","0.0-11.0-361.0","","","","false","","","","","","","","","","null","","1057","","0","1","null","null","arrowup","[0.675,0.325,0.15,0.85]","","",""
"sailing-trial","407","2478266","0.0-11.0-362.0","","","","false","","","","","","","","","","1211.0999999940395","","481","","3","1","arrowright","1","arrowright","[0.675,0.325,0.15,0.85]","","",""
"sailing-trial","408","2481278","0.0-11.0-363.0","","","","false","","","","","","","","","","null","","1305.699999988079","","1","0","null","null","arrowup","[0.675,0.325,0.15,0.85]","","",""
"sailing-trial","409","2485887","0.0-11.0-364.0","","","","false","","","","","","","","","","1301.9000000059605","","37.20000001788139","","3","1","arrowright","1","arrowright","[0.675,0.325,0.15,0.85]","","",""
"sailing-trial","410","2489457","0.0-11.0-365.0","","","","false","","","","","","","","","","null","","1044.9000000059605","","1","1","null","null","arrowup","[0.675,0.325,0.15,0.85]","","",""
"sailing-trial","411","2493676","0.0-11.0-366.0","","","","false","","","","","","","","","","598.1999999880791","","591.0999999940395","","0","1","arrowleft","0","arrowleft","[0.675,0.325,0.15,0.85]","","",""
"sailing-trial","412","2496774","0.0-11.0-367.0","","","","false","","","","","","","","","","null","","1258.5","","0","1","null","null","arrowup","[0.675,0.325,0.15,0.85]","","",""
"sailing-trial","413","2503412","0.0-11.0-368.0","","","","false","","","","","","","","","","1160.2000000178814","","1318.5999999940395","","3","1","arrowright","1","arrowright","[0.675,0.325,0.15,0.85]","","",""
"sailing-trial","414","2506290","0.0-11.0-369.0","","","","false","","","","","","","","","","null","","1049","","0","1","null","null","arrowup","[0.675,0.325,0.15,0.85]","","",""
"sailing-trial","415","2510973","0.0-11.0-370.0","","","","false","","","","","","","","","","1167.699999988079","","174.19999998807907","","3","1","arrowright","1","arrowright","[0.675,0.325,0.15,0.85]","","",""
"sailing-trial","416","2514226","0.0-11.0-371.0","","","","false","","","","","","","","","","null","","1800.300000011921","","1","0","null","null","arrowup","[0.675,0.325,0.15,0.85]","","",""
"sailing-trial","417","2520227","0.0-11.0-372.0","","","","false","","","","","","","","","","1278.300000011921","","707.0999999940395","","3","1","arrowright","1","arrowright","[0.675,0.325,0.15,0.85]","","",""
"sailing-trial","418","2523009","0.0-11.0-373.0","","","","false","","","","","","","","","","null","","1394.7000000178814","","2","0","null","null","arrowup","[0.675,0.325,0.15,0.85]","","",""
"sailing-trial","419","2528936","0.0-11.0-374.0","","","","false","","","","","","","","","","1573.9000000059605","","315.90000000596046","","3","1","arrowright","1","arrowright","[0.675,0.325,0.15,0.85]","","",""
"sailing-trial","420","2533004","0.0-11.0-375.0","","","","false","","","","","","","","","","null","","2157.2000000178814","","3","1","null","null","arrowup","[0.675,0.325,0.15,0.85]","","",""
"sailing-trial","421","2538529","0.0-11.0-376.0","","","","false","","","","","","","","","","1085.4000000059605","","427.7999999821186","","3","0","arrowright","1","arrowright","[0.325,0.675,0.85,0.15]","","",""
"sailing-trial","422","2541369","0.0-11.0-377.0","","","","false","","","","","","","","","","null","","1293.0999999940395","","3","0","null","null","arrowup","[0.325,0.675,0.85,0.15]","","",""
"sailing-trial","423","2545714","0.0-11.0-378.0","","","","false","","","","","","","","","","1127","","171.2999999821186","","0","1","arrowleft","0","arrowleft","[0.325,0.675,0.85,0.15]","","",""
"sailing-trial","424","2548877","0.0-11.0-379.0","","","","false","","","","","","","","","","null","","1291.699999988079","","1","1","null","null","arrowup","[0.325,0.675,0.85,0.15]","","",""
"sailing-trial","425","2554149","0.0-11.0-380.0","","","","false","","","","","","","","","","1008.0999999940395","","250.59999999403954","","3","0","arrowright","1","arrowright","[0.325,0.675,0.85,0.15]","","",""
"sailing-trial","426","2557608","0.0-11.0-381.0","","","","false","","","","","","","","","","null","","1472.2999999821186","","1","1","null","null","arrowup","[0.325,0.675,0.85,0.15]","","",""
"sailing-trial","427","2561267","0.0-11.0-382.0","","","","false","","","","","","","","","","626.5","","150","","1","1","arrowleft","0","arrowright","[0.325,0.675,0.85,0.15]","","",""
"sailing-trial","428","2564448","0.0-11.0-383.0","","","","false","","","","","","","","","","null","","1255.2999999821186","","3","1","null","null","arrowup","[0.325,0.675,0.85,0.15]","","",""
"sailing-trial","429","2568880","0.0-11.0-384.0","","","","false","","","","","","","","","","1183.800000011921","","79.19999998807907","","1","0","arrowleft","0","arrowright","[0.325,0.675,0.85,0.15]","","",""
"sailing-trial","430","2571715","0.0-11.0-385.0","","","","false","","","","","","","","","","null","","1319.9000000059605","","1","1","null","null","arrowup","[0.325,0.675,0.85,0.15]","","",""
"sailing-trial","431","2575740","0.0-11.0-386.0","","","","false","","","","","","","","","","829.5999999940395","","255.10000002384186","","0","1","arrowleft","0","arrowleft","[0.325,0.675,0.85,0.15]","","",""
"sailing-trial","432","2578972","0.0-11.0-387.0","","","","false","","","","","","","","","","null","","1187.300000011921","","1","1","null","null","arrowup","[0.325,0.675,0.85,0.15]","","",""
"sailing-trial","433","2583633","0.0-11.0-388.0","","","","false","","","","","","","","","","636.8000000119209","","13.199999988079071","","3","0","arrowright","1","arrowright","[0.325,0.675,0.85,0.15]","","",""
"sailing-trial","434","2586614","0.0-11.0-389.0","","","","false","","","","","","","","","","null","","1313.4000000059605","","1","0","null","null","arrowup","[0.325,0.675,0.85,0.15]","","",""
"sailing-trial","435","2591883","0.0-11.0-390.0","","","","false","","","","","","","","","","1987.800000011921","","486","","0","0","arrowleft","0","arrowleft","[0.325,0.675,0.85,0.15]","","",""
"sailing-trial","436","2596133","0.0-11.0-391.0","","","","false","","","","","","","","","","null","","1817.4000000059605","","0","0","null","null","arrowup","[0.325,0.675,0.85,0.15]","","",""
"sailing-trial","437","2602664","0.0-11.0-392.0","","","","false","","","","","","","","","","1981.9000000059605","","542.5999999940395","","0","0","arrowleft","0","arrowleft","[0.325,0.675,0.85,0.15]","","",""
"sailing-trial","438","2606202","0.0-11.0-393.0","","","","false","","","","","","","","","","null","","1322.9000000059605","","2","1","null","null","arrowup","[0.325,0.675,0.85,0.15]","","",""
"sailing-trial","439","2611830","0.0-11.0-394.0","","","","false","","","","","","","","","","1227.3999999761581","","398.30000001192093","","3","0","arrowright","1","arrowright","[0.325,0.675,0.85,0.15]","","",""
"sailing-trial","440","2617059","0.0-11.0-395.0","","","","false","","","","","","","","","","null","","2856.5999999940395","","0","0","null","null","arrowup","[0.325,0.675,0.85,0.15]","","",""
"sailing-trial","441","2622438","0.0-11.0-396.0","","","","false","","","","","","","","","","2429.9000000059605","","259.40000000596046","","0","0","arrowleft","0","arrowleft","[0.325,0.675,0.85,0.15]","","",""
"sailing-trial","442","2625618","0.0-11.0-397.0","","","","false","","","","","","","","","","null","","1202.2000000178814","","2","1","null","null","arrowup","[0.325,0.675,0.85,0.15]","","",""
"sailing-trial","443","2629617","0.0-11.0-398.0","","","","false","","","","","","","","","","1036.199999988079","","47.69999998807907","","2","1","arrowright","1","arrowleft","[0.325,0.675,0.85,0.15]","","",""
"sailing-trial","444","2632741","0.0-11.0-399.0","","","","false","","","","","","","","","","null","","1145.8999999761581","","1","1","null","null","arrowup","[0.325,0.675,0.85,0.15]","","",""
"instructions","445","2639842","0.0-12.0","","","","","","","","","","7100.199999988079","","","","","","","","","","","","","","","","[{""page_index"":0,""viewing_time"":7099}]"
"survey-debrief","446","2672982","0.0-13.0","","","","","","","","","","33147.09999999404","","","","","","","","","","","","","","{""difficulty"":""2"",""fun"":""4"",""clarity"":""4"",""strategy"":"""",""feedback"":""""}","",""
