"trial_type","trial_index","time_elapsed","internal_node_id","value","metadata","success","timeout","failed_images","failed_audio","failed_video","browser_interaction","low_quality","rt","stimulus","response","button_pressed","island_rt","island_response","boat_rt","boat_response","boat","reward","island_key","island","boat_key","reward_probabilities","responses","num_errors","view_history"
"pavlovia","0","3","0.0-0.0","","","","","","","","","","","","","","","","","","","","","","","","","",""
"call-function","1","3","0.0-1.0","","{""task_version"":""sailing_part1_v1"",""task_condition"":""good"",""boats"":[""B"",""D"",""A"",""C""],""boats_demo"":[""H"",""E"",""F"",""G""],""islands"":[""B"",""A""],""subject_id"":""14569"",""age"":""20"",""gender"":""Female""}","","","","","","","","","","","","","","","","","","","","","","","",""
"preload","2","3266","0.0-2.0","","","true","false","[]","[]","[]","[{""event"":""fullscreenenter"",""trial"":3,""time"":6242}]","false","","","","","","","","","","","","","","","","",""
"fullscreen","3","7222","0.0-3.0","","","true","","","","","","","","","","","","","","","","","","","","","","",""
"audio-keyboard-response","4","9994","0.0-4.0-0.0","","","","","","","","","","2770.666666666666","audio/beep_loop.wav"," ","","","","","","","","","","","","","",""
"audio-test","5","12612","0.0-4.0-1.0","","","","","","","","","","null","audio/turtle.mp3","","3","","","","","","","","","","","","",""
"audio-test","6","16210","0.0-4.0-2.0","","","","","","","","","","null","audio/shark.mp3","","2","","","","","","","","","","","","",""
"sailing-instructions","7","49684","0.0-5.0-0.0-0.0","","","","","","","","","","","","","","null","null","null","null","null","null","","","","","","",""
"sailing-trial","8","56479","0.0-5.0-0.0-1.0-0.0","","","","false","","","","","","","","","","5700.800000011921","","null","","null","null","arrowleft","0","null","null","","",""
"sailing-trial","9","58815","0.0-5.0-0.0-1.0-1.0","","","","false","","","","","","","","","","1215.8999999761581","","null","","null","null","arrowright","1","null","null","","",""
"sailing-trial","10","62183","0.0-5.0-0.0-1.0-2.0","","","","false","","","","","","","","","","2257.400000035763","","null","","null","null","arrowleft","0","null","null","","",""
"sailing-instructions","11","102907","0.0-5.0-0.0-2.0","","","","","","","","","","","","","","null","null","null","null","0","null","","","","","","",""
"sailing-trial","12","111219","0.0-5.0-0.0-3.0-0.0","","","","false","","","","","","","","","","null","","4274.199999988079","","2","1","null","null","arrowleft","[1,1,1,1]","","",""
"sailing-trial","13","117108","0.0-5.0-0.0-3.0-1.0","","","","false","","","","","","","","","","null","","2537.400000035763","","3","1","null","null","arrowright","[1,1,1,1]","","",""
"sailing-trial","14","122495","0.0-5.0-0.0-3.0-2.0","","","","false","","","","","","","","","","null","","2381.300000011921","","3","0","null","null","arrowright","[0,0,0,0]","","",""
"sailing-instructions","15","129902","0.0-5.0-0.0-4.0","","","","","","","","","","","","","","null","null","null","null","null","null","","","","","","",""
"sailing-comprehension","16","149960","0.0-5.0-0.0-5.0","","","","","","","","","","17314.19999998808","","","","","","","","","","","","","","[""true"",""true"",""false"",""true""]","0",""
"sailing-instructions","17","215907","0.0-6.0-0.0-0.0","","","","","","","","","","","","","","null","null","null","null","null","null","","","","","","",""
"sailing-comprehension","18","232489","0.0-6.0-0.0-1.0","","","","","","","","","","15393.600000023842","","","","","","","","","","","","","","[""true"",""false"",""true""]","0",""
"sailing-instructions","19","246263","0.0-7.0-0.0-0.0","","","","","","","","","","","","","","null","null","null","null","null","null","","","","","","",""
"sailing-trial","20","252419","0.0-7.0-0.0-1.0-0.0","","","","false","","","","","","","","","","null","","3123","","0","0","null","null","arrowup","[0.2,0.8,0.2,0.8]","","",""
"sailing-trial","21","257055","0.0-7.0-0.0-1.0-1.0","","","","false","","","","","","","","","","null","","2398.600000023842","","1","1","null","null","arrowup","[0.2,0.8,0.2,0.8]","","",""
"sailing-trial","22","261459","0.0-7.0-0.0-1.0-2.0","","","","false","","","","","","","","","","null","","2489.600000023842","","2","0","null","null","arrowup","[0.2,0.8,0.2,0.8]","","",""
"sailing-trial","23","266178","0.0-7.0-0.0-1.0-3.0","","","","false","","","","","","","","","","null","","1922.5","","3","1","null","null","arrowup","[0.2,0.8,0.2,0.8]","","",""
"sailing-comprehension","24","281874","0.0-7.0-0.0-2.0","","","","","","","","","","5946","","","","","","","","","","","","","","[""true""]","1",""
"sailing-instructions","25","300075","0.0-7.0-0.1-0.1","","","","","","","","","","","","","","null","null","null","null","null","null","","","","","","",""
"sailing-trial","26","303688","0.0-7.0-0.1-1.1-0.1","","","","false","","","","","","","","","","null","","1682.3999999761581","","0","0","null","null","arrowup","[0.2,0.8,0.2,0.8]","","",""
"sailing-trial","27","305305","0.0-7.0-0.1-1.1-1.1","","","","false","","","","","","","","","","null","","300.5","","1","0","null","null","arrowup","[0.2,0.8,0.2,0.8]","","",""
"sailing-trial","28","307123","0.0-7.0-0.1-1.1-2.1","","","","false","","","","","","","","","","null","","455.30000001192093","","2","0","null","null","arrowup","[0.2,0.8,0.2,0.8]","","",""
"sailing-trial","29","308808","0.0-7.0-0.1-1.1-3.1","","","","false","","","","","","","","","","null","","516.7000000476837","","3","0","null","null","arrowup","[0.2,0.8,0.2,0.8]","","",""
"sailing-comprehension","30","313015","0.0-7.0-0.1-2.1","","","","","","","","","","3099.899999976158","","","","","","","","","","","","","","[""false""]","0",""
"sailing-instructions","31","324072","0.0-8.0-0.0-0.0","","","","","","","","","","","","","","null","null","null","null","null","null","","","","","","",""
"sailing-comprehension","32","328270","0.0-8.0-0.0-1.0","","","","","","","","","","3048","","","","","","","","","","","","","","[""true""]","0",""
"sailing-instructions","33","361967","0.0-9.0-0.0-0.0","","","","","","","","","","","","","","null","null","null","null","null","null","","","","","","",""
"sailing-trial","34","369383","0.0-9.0-0.0-1.0-0.0","","","","false","","","","","","","","","","1764.4000000357628","","1772.5999999642372","","1","1","arrowleft","0","arrowright","[0.2,0.8,0.2,0.8]","","",""
"sailing-trial","35","373929","0.0-9.0-0.0-1.0-1.0","","","","false","","","","","","","","","","1158.800000011921","","215.70000004768372","","2","0","arrowright","1","arrowleft","[0.2,0.8,0.2,0.8]","","",""
"sailing-trial","36","379477","0.0-9.0-0.0-1.0-2.0","","","","false","","","","","","","","","","null","","3120.300000011921","","0","0","null","null","arrowup","[0.2,0.8,0.2,0.8]","","",""
"sailing-trial","37","383882","0.0-9.0-0.0-1.0-3.0","","","","false","","","","","","","","","","852","","323.10000002384186","","3","1","arrowright","1","arrowright","[0.2,0.8,0.2,0.8]","","",""
"sailing-trial","38","387482","0.0-9.0-0.0-1.0-4.0","","","","false","","","","","","","","","","null","","1244.699999988079","","3","1","null","null","arrowup","[0.2,0.8,0.2,0.8]","","",""
"sailing-trial","39","392369","0.0-9.0-0.0-1.0-5.0","","","","false","","","","","","","","","","1124.699999988079","","344.30000001192093","","1","1","arrowleft","0","arrowright","[0.2,0.8,0.2,0.8]","","",""
"sailing-instructions","40","418818","0.0-10.0","","","","","","","","","","","","","","null","null","null","null","null","null","","","","","","",""
"sailing-trial","41","424659","0.0-11.0-0.0","","","","false","","","","","","","","","","1585.0999999642372","","324.7000000476837","","3","1","arrowright","1","arrowright","[0.15,0.85,0.325,0.675]","","",""
"sailing-trial","42","427444","0.0-11.0-1.0","","","","false","","","","","","","","","","null","","974.3000000119209","","3","0","null","null","arrowup","[0.15,0.85,0.325,0.675]","","",""
"sailing-trial","43","432315","0.0-11.0-2.0","","","","false","","","","","","","","","","1332.0999999642372","","332.10000002384186","","0","1","arrowleft","0","arrowleft","[0.15,0.85,0.325,0.675]","","",""
"sailing-trial","44","435584","0.0-11.0-3.0","","","","false","","","","","","","","","","null","","1172.199999988079","","1","1","null","null","arrowup","[0.15,0.85,0.325,0.675]","","",""
"sailing-trial","45","440070","0.0-11.0-4.0","","","","false","","","","","","","","","","919.8000000119209","","432.5","","3","1","arrowright","1","arrowright","[0.15,0.85,0.325,0.675]","","",""
"sailing-trial","46","442453","0.0-11.0-5.0","","","","false","","","","","","","","","","null","","770.3000000119209","","0","0","null","null","arrowup","[0.15,0.85,0.325,0.675]","","",""
"sailing-trial","47","446290","0.0-11.0-6.0","","","","false","","","","","","","","","","751.6000000238419","","411.10000002384186","","0","0","arrowleft","0","arrowleft","[0.15,0.85,0.325,0.675]","","",""
"sailing-trial","48","449168","0.0-11.0-7.0","","","","false","","","","","","","","","","null","","1251.0999999642372","","2","0","null","null","arrowup","[0.15,0.85,0.325,0.675]","","",""
"sailing-trial","49","453696","0.0-11.0-8.0","","","","false","","","","","","","","","","1289.9000000357628","","200.19999998807907","","1","1","arrowleft","0","arrowright","[0.15,0.85,0.325,0.675]","","",""
"sailing-trial","50","458234","0.0-11.0-9.0","","","","false","","","","","","","","","","null","","2300.699999988079","","1","1","null","null","arrowup","[0.15,0.85,0.325,0.675]","","",""
"sailing-trial","51","462620","0.0-11.0-10.0","","","","false","","","","","","","","","","1247.699999988079","","131.69999998807907","","3","1","arrowright","1","arrowright","[0.15,0.85,0.325,0.675]","","",""
"sailing-trial","52","465339","0.0-11.0-11.0","","","","false","","","","","","","","","","null","","732.1999999880791","","1","1","null","null","arrowup","[0.15,0.85,0.325,0.675]","","",""
"sailing-trial","53","468991","0.0-11.0-12.0","","","","false","","","","","","","","","","651.3000000119209","","90.5","","3","1","arrowright","1","arrowright","[0.15,0.85,0.325,0.675]","","",""
"sailing-trial","54","472359","0.0-11.0-13.0","","","","false","","","","","","","","","","null","","1390.300000011921","","3","1","null","null","arrowup","[0.15,0.85,0.325,0.675]","","",""
"sailing-trial","55","476563","0.0-11.0-14.0","","","","false","","","","","","","","","","757.6999999880791","","481.89999997615814","","1","1","arrowleft","0","arrowright","[0.15,0.85,0.325,0.675]","","",""
"sailing-trial","56","478379","0.0-11.0-15.0","","","","false","","","","","","","","","","null","","498.80000001192093","","0","0","null","null","arrowup","[0.15,0.85,0.325,0.675]","","",""
"sailing-trial","57","482860","0.0-11.0-16.0","","","","false","","","","","","","","","","1126.6000000238419","","787.6999999880791","","2","0","arrowright","1","arrowleft","[0.15,0.85,0.325,0.675]","","",""
"sailing-trial","58","485492","0.0-11.0-17.0","","","","false","","","","","","","","","","null","","862","","0","0","null","null","arrowup","[0.15,0.85,0.325,0.675]","","",""
"sailing-trial","59","489406","0.0-11.0-18.0","","","","false","","","","","","","","","","629.7000000476837","","284.5999999642372","","3","1","arrowright","1","arrowright","[0.15,0.85,0.325,0.675]","","",""
"sailing-trial","60","491909","0.0-11.0-19.0","","","","false","","","","","","","","","","null","","471.10000002384186","","2","1","null","null","arrowup","[0.15,0.85,0.325,0.675]","","",""
"sailing-trial","61","495549","0.0-11.0-20.0","","","","false","","","","","","","","","","547.5","","326.69999998807907","","1","0","arrowleft","0","arrowright","[0.85,0.15,0.675,0.325]","","",""
"sailing-trial","62","497732","0.0-11.0-21.0","","","","false","","","","","","","","","","null","","845.8000000119209","","0","0","null","null","arrowup","[0.85,0.15,0.675,0.325]","","",""
"sailing-trial","63","501981","0.0-11.0-22.0","","","","false","","","","","","","","","","373.30000001192093","","444.30000001192093","","2","1","arrowright","1","arrowleft","[0.85,0.15,0.675,0.325]","","",""
"sailing-trial","64","504001","0.0-11.0-23.0","","","","false","","","","","","","","","","null","","630.9000000357628","","3","0","null","null","arrowup","[0.85,0.15,0.675,0.325]","","",""
"sailing-trial","65","507502","0.0-11.0-24.0","","","","false","","","","","","","","","","432","","4.800000011920929","","2","1","arrowright","1","arrowleft","[0.85,0.15,0.675,0.325]","","",""
"sailing-trial","66","510339","0.0-11.0-25.0","","","","false","","","","","","","","","","null","","715","","0","1","null","null","arrowup","[0.85,0.15,0.675,0.325]","","",""
"sailing-trial","67","514573","0.0-11.0-26.0","","","","false","","","","","","","","","","548.3000000119209","","832.8999999761581","","0","1","arrowleft","0","arrowleft","[0.85,0.15,0.675,0.325]","","",""
"sailing-trial","68","516771","0.0-11.0-27.0","","","","false","","","","","","","","","","null","","775.1999999880791","","3","0","null","null","arrowup","[0.85,0.15,0.675,0.325]","","",""
"sailing-trial","69","520596","0.0-11.0-28.0","","","","false","","","","","","","","","","764.8999999761581","","438.89999997615814","","2","0","arrowright","1","arrowleft","[0.85,0.15,0.675,0.325]","","",""
"sailing-trial","70","523185","0.0-11.0-29.0","","","","false","","","","","","","","","","null","","1048.7999999523163","","1","0","null","null","arrowup","[0.85,0.15,0.675,0.325]","","",""
"sailing-trial","71","526635","0.0-11.0-30.0","","","","false","","","","","","","","","","686.0999999642372","","501.30000001192093","","3","0","arrowright","1","arrowright","[0.85,0.15,0.675,0.325]","","",""
"sailing-trial","72","528460","0.0-11.0-31.0","","","","false","","","","","","","","","","null","","522.3999999761581","","3","0","null","null","arrowup","[0.85,0.15,0.675,0.325]","","",""
"sailing-trial","73","532502","0.0-11.0-32.0","","","","false","","","","","","","","","","669.1000000238419","","545.1000000238419","","0","1","arrowleft","0","arrowleft","[0.85,0.15,0.675,0.325]","","",""
"sailing-trial","74","534740","0.0-11.0-33.0","","","","false","","","","","","","","","","null","","803.8999999761581","","3","0","null","null","arrowup","[0.85,0.15,0.675,0.325]","","",""
"sailing-trial","75","538729","0.0-11.0-34.0","","","","false","","","","","","","","","","521.6000000238419","","327.60000002384186","","0","0","arrowleft","0","arrowleft","[0.85,0.15,0.675,0.325]","","",""
"sailing-trial","76","541228","0.0-11.0-35.0","","","","false","","","","","","","","","","null","","615.3000000119209","","1","0","null","null","arrowup","[0.85,0.15,0.675,0.325]","","",""
"sailing-trial","77","544024","0.0-11.0-36.0","","","","false","","","","","","","","","","435.60000002384186","","139.60000002384186","","1","0","arrowleft","0","arrowright","[0.675,0.325,0.85,0.15]","","",""
"sailing-trial","78","546070","0.0-11.0-37.0","","","","false","","","","","","","","","","null","","816.5","","2","0","null","null","arrowup","[0.675,0.325,0.85,0.15]","","",""
"sailing-trial","79","549384","0.0-11.0-38.0","","","","false","","","","","","","","","","355.4000000357628","","206.30000001192093","","0","1","arrowleft","0","arrowleft","[0.675,0.325,0.85,0.15]","","",""
"sailing-trial","80","551700","0.0-11.0-39.0","","","","false","","","","","","","","","","null","","447.5","","2","1","null","null","arrowup","[0.675,0.325,0.85,0.15]","","",""
"sailing-trial","81","555086","0.0-11.0-40.0","","","","false","","","","","","","","","","317","","272.80000001192093","","2","1","arrowright","1","arrowleft","[0.675,0.325,0.85,0.15]","","",""
"sailing-trial","82","556936","0.0-11.0-41.0","","","","false","","","","","","","","","","null","","511.80000001192093","","2","0","null","null","arrowup","[0.675,0.325,0.85,0.15]","","",""
"sailing-trial","83","559800","0.0-11.0-42.0","","","","false","","","","","","","","","","391.10000002384186","","230.10000002384186","","0","0","arrowleft","0","arrowleft","[0.675,0.325,0.85,0.15]","","",""
"sailing-trial","84","562777","0.0-11.0-43.0","","","","false","","","","","","","","","","null","","785.5999999642372","","1","0","null","null","arrowup","[0.675,0.325,0.85,0.15]","","",""
"sailing-trial","85","566260","0.0-11.0-44.0","","","","false","","","","","","","","","","397.80000001192093","","326.10000002384186","","2","1","arrowright","1","arrowleft","[0.675,0.325,0.85,0.15]","","",""
"sailing-trial","86","568612","0.0-11.0-45.0","","","","false","","","","","","","","","","null","","367.80000001192093","","2","1","null","null","arrowup","[0.675,0.325,0.85,0.15]","","",""
"sailing-trial","87","571982","0.0-11.0-46.0","","","","false","","","","","","","","","","298.9000000357628","","139.69999998807907","","2","1","arrowright","1","arrowleft","[0.675,0.325,0.85,0.15]","","",""
"sailing-trial","88","574318","0.0-11.0-47.0","","","","false","","","","","","","","","","null","","883.8000000119209","","1","0","null","null","arrowup","[0.675,0.325,0.85,0.15]","","",""
"sailing-trial","89","577435","0.0-11.0-48.0","","","","false","","","","","","","","","","298.69999998807907","","96.10000002384186","","2","1","arrowright","1","arrowleft","[0.675,0.325,0.85,0.15]","","",""
"sailing-trial","90","579819","0.0-11.0-49.0","","","","false","","","","","","","","","","null","","350.10000002384186","","2","1","null","null","arrowup","[0.675,0.325,0.85,0.15]","","",""
"sailing-trial","91","583489","0.0-11.0-50.0","","","","false","","","","","","","","","","366.89999997615814","","546.3000000119209","","2","1","arrowright","1","arrowleft","[0.675,0.325,0.85,0.15]","","",""
"sailing-trial","92","586710","0.0-11.0-51.0","","","","false","","","","","","","","","","null","","894.5999999642372","","0","1","null","null","arrowup","[0.675,0.325,0.85,0.15]","","",""
"sailing-trial","93","590312","0.0-11.0-52.0","","","","false","","","","","","","","","","497.80000001192093","","313.80000001192093","","0","1","arrowleft","0","arrowleft","[0.85,0.15,0.675,0.325]","","",""
"sailing-trial","94","592879","0.0-11.0-53.0","","","","false","","","","","","","","","","null","","679.6999999880791","","0","1","null","null","arrowup","[0.85,0.15,0.675,0.325]","","",""
"sailing-trial","95","597169","0.0-11.0-54.0","","","","false","","","","","","","","","","498.60000002384186","","1332.4000000357628","","0","0","arrowleft","0","arrowleft","[0.85,0.15,0.675,0.325]","","",""
"sailing-trial","96","600570","0.0-11.0-55.0","","","","false","","","","","","","","","","null","","670.8999999761581","","2","1","null","null","arrowup","[0.85,0.15,0.675,0.325]","","",""
"sailing-trial","97","603635","0.0-11.0-56.0","","","","false","","","","","","","","","","398.5","","393.69999998807907","","2","0","arrowright","1","arrowleft","[0.85,0.15,0.675,0.325]","","",""
"sailing-trial","98","605940","0.0-11.0-57.0","","","","false","","","","","","","","","","null","","504.80000001192093","","0","1","null","null","arrowup","[0.85,0.15,0.675,0.325]","","",""
"sailing-trial","99","609223","0.0-11.0-58.0","","","","false","","","","","","","","","","382.19999998807907","","179.69999998807907","","0","1","arrowleft","0","arrowleft","[0.85,0.15,0.675,0.325]","","",""
"sailing-trial","100","611943","0.0-11.0-59.0","","","","false","","","","","","","","","","null","","466.80000001192093","","0","1","null","null","arrowup","[0.85,0.15,0.675,0.325]","","",""
"sailing-trial","101","615212","0.0-11.0-60.0","","","","false","","","","","","","","","","663","","299.80000001192093","","0","0","arrowleft","0","arrowleft","[0.85,0.15,0.675,0.325]","","",""
"sailing-trial","102","617496","0.0-11.0-61.0","","","","false","","","","","","","","","","null","","467.5","","0","1","null","null","arrowup","[0.85,0.15,0.675,0.325]","","",""
"sailing-trial","103","621150","0.0-11.0-62.0","","","","false","","","","","","","","","","803.8999999761581","","105.60000002384186","","2","1","arrowright","1","arrowleft","[0.85,0.15,0.675,0.325]","","",""
"sailing-trial","104","623108","0.0-11.0-63.0","","","","false","","","","","","","","","","null","","719.8000000119209","","1","0","null","null","arrowup","[0.85,0.15,0.675,0.325]","","",""
"sailing-trial","105","626055","0.0-11.0-64.0","","","","false","","","","","","","","","","491.10000002384186","","222.30000001192093","","2","0","arrowright","1","arrowleft","[0.85,0.15,0.675,0.325]","","",""
"sailing-trial","106","627903","0.0-11.0-65.0","","","","false","","","","","","","","","","null","","626","","3","0","null","null","arrowup","[0.85,0.15,0.675,0.325]","","",""
"sailing-trial","107","631007","0.0-11.0-66.0","","","","false","","","","","","","","","","183.89999997615814","","324.5","","0","1","arrowleft","0","arrowleft","[0.85,0.15,0.675,0.325]","","",""
"sailing-trial","108","633808","0.0-11.0-67.0","","","","false","","","","","","","","","","null","","1037.5999999642372","","0","1","null","null","arrowup","[0.85,0.15,0.675,0.325]","","",""
"sailing-trial","109","638145","0.0-11.0-68.0","","","","false","","","","","","","","","","641.0999999642372","","852.1999999880791","","0","1","arrowleft","0","arrowleft","[0.85,0.15,0.675,0.325]","","",""
"sailing-trial","110","641582","0.0-11.0-69.0","","","","false","","","","","","","","","","null","","922.6999999880791","","3","1","null","null","arrowup","[0.85,0.15,0.675,0.325]","","",""
"sailing-trial","111","646336","0.0-11.0-70.0","","","","false","","","","","","","","","","1332.800000011921","","657.5","","3","1","arrowright","1","arrowright","[0.85,0.15,0.675,0.325]","","",""
"sailing-trial","112","649285","0.0-11.0-71.0","","","","false","","","","","","","","","","null","","1073.2000000476837","","2","1","null","null","arrowup","[0.85,0.15,0.675,0.325]","","",""
"sailing-trial","113","652936","0.0-11.0-72.0","","","","false","","","","","","","","","","1249","","136.5","","3","0","arrowright","1","arrowright","[0.675,0.325,0.85,0.15]","","",""
"sailing-trial","114","654707","0.0-11.0-73.0","","","","false","","","","","","","","","","null","","585.7999999523163","","0","0","null","null","arrowup","[0.675,0.325,0.85,0.15]","","",""
"sailing-trial","115","657875","0.0-11.0-74.0","","","","false","","","","","","","","","","381.7000000476837","","109.5","","2","1","arrowright","1","arrowleft","[0.675,0.325,0.85,0.15]","","",""
"sailing-trial","116","659775","0.0-11.0-75.0","","","","false","","","","","","","","","","null","","376.10000002384186","","3","0","null","null","arrowup","[0.675,0.325,0.85,0.15]","","",""
"sailing-trial","117","662888","0.0-11.0-76.0","","","","false","","","","","","","","","","441.69999998807907","","83.60000002384186","","2","0","arrowright","1","arrowleft","[0.675,0.325,0.85,0.15]","","",""
"sailing-trial","118","664679","0.0-11.0-77.0","","","","false","","","","","","","","","","null","","253","","2","1","null","null","arrowup","[0.675,0.325,0.85,0.15]","","",""
"sailing-trial","119","667900","0.0-11.0-78.0","","","","false","","","","","","","","","","0.19999998807907104","","504.10000002384186","","0","1","arrowleft","0","arrowleft","[0.675,0.325,0.85,0.15]","","",""
"sailing-trial","120","670201","0.0-11.0-79.0","","","","false","","","","","","","","","","null","","1019.4000000357628","","1","0","null","null","arrowup","[0.675,0.325,0.85,0.15]","","",""
"sailing-trial","121","673803","0.0-11.0-80.0","","","","false","","","","","","","","","","660.0999999642372","","252.30000001192093","","2","1","arrowright","1","arrowleft","[0.675,0.325,0.85,0.15]","","",""
"sailing-trial","122","675821","0.0-11.0-81.0","","","","false","","","","","","","","","","null","","435.0999999642372","","2","1","null","null","arrowup","[0.675,0.325,0.85,0.15]","","",""
"sailing-trial","123","678870","0.0-11.0-82.0","","","","false","","","","","","","","","","122.89999997615814","","760.6000000238419","","0","0","arrowleft","0","arrowleft","[0.675,0.325,0.85,0.15]","","",""
"sailing-trial","124","680399","0.0-11.0-83.0","","","","false","","","","","","","","","","null","","261.5999999642372","","2","0","null","null","arrowup","[0.675,0.325,0.85,0.15]","","",""
"sailing-trial","125","683373","0.0-11.0-84.0","","","","false","","","","","","","","","","270.89999997615814","","171.39999997615814","","2","0","arrowright","1","arrowleft","[0.675,0.325,0.85,0.15]","","",""
"sailing-trial","126","686044","0.0-11.0-85.0","","","","false","","","","","","","","","","null","","925.3000000119209","","2","1","null","null","arrowup","[0.675,0.325,0.85,0.15]","","",""
"sailing-trial","127","689093","0.0-11.0-86.0","","","","false","","","","","","","","","","665.3999999761581","","177.5","","1","0","arrowleft","0","arrowright","[0.675,0.325,0.85,0.15]","","",""
"sailing-trial","128","691617","0.0-11.0-87.0","","","","false","","","","","","","","","","null","","411","","2","1","null","null","arrowup","[0.675,0.325,0.85,0.15]","","",""
"sailing-trial","129","695156","0.0-11.0-88.0","","","","false","","","","","","","","","","274.30000001192093","","362.4000000357628","","2","1","arrowright","1","arrowleft","[0.675,0.325,0.85,0.15]","","",""
"sailing-trial","130","697136","0.0-11.0-89.0","","","","false","","","","","","","","","","null","","744.9000000357628","","2","0","null","null","arrowup","[0.675,0.325,0.85,0.15]","","",""
"sailing-trial","131","700289","0.0-11.0-90.0","","","","false","","","","","","","","","","290.60000002384186","","169.69999998807907","","2","1","arrowright","1","arrowleft","[0.675,0.325,0.85,0.15]","","",""
"sailing-trial","132","702559","0.0-11.0-91.0","","","","false","","","","","","","","","","null","","84.59999996423721","","2","1","null","null","arrowup","[0.675,0.325,0.85,0.15]","","",""
"sailing-trial","133","706495","0.0-11.0-92.0","","","","false","","","","","","","","","","277.4000000357628","","234.30000001192093","","2","1","arrowright","1","arrowleft","[0.85,0.15,0.675,0.325]","","",""
"sailing-trial","134","708454","0.0-11.0-93.0","","","","false","","","","","","","","","","null","","272.39999997615814","","3","0","null","null","arrowup","[0.85,0.15,0.675,0.325]","","",""
"sailing-trial","135","711649","0.0-11.0-94.0","","","","false","","","","","","","","","","164.19999998807907","","42.30000001192093","","2","1","arrowright","1","arrowleft","[0.85,0.15,0.675,0.325]","","",""
"sailing-trial","136","713898","0.0-11.0-95.0","","","","false","","","","","","","","","","null","","329.69999998807907","","0","1","null","null","arrowup","[0.85,0.15,0.675,0.325]","","",""
"sailing-trial","137","716967","0.0-11.0-96.0","","","","false","","","","","","","","","","202.30000001192093","","206.29999995231628","","0","1","arrowleft","0","arrowleft","[0.85,0.15,0.675,0.325]","","",""
"sailing-trial","138","718931","0.0-11.0-97.0","","","","false","","","","","","","","","","null","","773.0999999642372","","1","0","null","null","arrowup","[0.85,0.15,0.675,0.325]","","",""
"sailing-trial","139","722054","0.0-11.0-98.0","","","","false","","","","","","","","","","275.10000002384186","","162.80000001192093","","0","1","arrowleft","0","arrowleft","[0.85,0.15,0.675,0.325]","","",""
"sailing-trial","140","724622","0.0-11.0-99.0","","","","false","","","","","","","","","","null","","61.40000003576279","","0","1","null","null","arrowup","[0.85,0.15,0.675,0.325]","","",""
"sailing-trial","141","728159","0.0-11.0-100.0","","","","false","","","","","","","","","","423.19999998807907","","203.4000000357628","","0","1","arrowleft","0","arrowleft","[0.85,0.15,0.675,0.325]","","",""
"sailing-trial","142","729772","0.0-11.0-101.0","","","","false","","","","","","","","","","null","","382.10000002384186","","3","0","null","null","arrowup","[0.85,0.15,0.675,0.325]","","",""
"sailing-trial","143","733496","0.0-11.0-102.0","","","","false","","","","","","","","","","229.60000002384186","","311.5","","0","1","arrowleft","0","arrowleft","[0.85,0.15,0.675,0.325]","","",""
"sailing-trial","144","735513","0.0-11.0-103.0","","","","false","","","","","","","","","","null","","334.80000001192093","","0","1","null","null","arrowup","[0.85,0.15,0.675,0.325]","","",""
"sailing-trial","145","739333","0.0-11.0-104.0","","","","false","","","","","","","","","","7.200000047683716","","374.10000002384186","","0","1","arrowleft","0","arrowleft","[0.85,0.15,0.675,0.325]","","",""
"sailing-trial","146","741983","0.0-11.0-105.0","","","","false","","","","","","","","","","null","","1141","","1","0","null","null","arrowup","[0.85,0.15,0.675,0.325]","","",""
"sailing-trial","147","745103","0.0-11.0-106.0","","","","false","","","","","","","","","","144.60000002384186","","198.9000000357628","","0","1","arrowleft","0","arrowleft","[0.85,0.15,0.675,0.325]","","",""
"sailing-trial","148","747789","0.0-11.0-107.0","","","","false","","","","","","","","","","null","","912.7999999523163","","0","1","null","null","arrowup","[0.85,0.15,0.675,0.325]","","",""
"sailing-trial","149","751525","0.0-11.0-108.0","","","","false","","","","","","","","","","380.10000002384186","","677.3000000119209","","0","1","arrowleft","0","arrowleft","[0.325,0.675,0.15,0.85]","","",""
"sailing-trial","150","753991","0.0-11.0-109.0","","","","false","","","","","","","","","","null","","1038.699999988079","","2","0","null","null","arrowup","[0.325,0.675,0.15,0.85]","","",""
"sailing-trial","151","757164","0.0-11.0-110.0","","","","false","","","","","","","","","","259.2000000476837","","603.6999999880791","","0","0","arrowleft","0","arrowleft","[0.325,0.675,0.15,0.85]","","",""
"sailing-trial","152","759597","0.0-11.0-111.0","","","","false","","","","","","","","","","null","","620.3999999761581","","3","1","null","null","arrowup","[0.325,0.675,0.15,0.85]","","",""
"sailing-trial","153","763199","0.0-11.0-112.0","","","","false","","","","","","","","","","437.19999998807907","","384.39999997615814","","3","1","arrowright","1","arrowright","[0.325,0.675,0.15,0.85]","","",""
"sailing-trial","154","765602","0.0-11.0-113.0","","","","false","","","","","","","","","","null","","713.6999999880791","","3","1","null","null","arrowup","[0.325,0.675,0.15,0.85]","","",""
"sailing-trial","155","769387","0.0-11.0-114.0","","","","false","","","","","","","","","","484.0999999642372","","433.60000002384186","","3","1","arrowright","1","arrowright","[0.325,0.675,0.15,0.85]","","",""
"sailing-trial","156","773007","0.0-11.0-115.0","","","","false","","","","","","","","","","null","","622.6999999880791","","0","0","null","null","arrowup","[0.325,0.675,0.15,0.85]","","",""
"sailing-trial","157","776620","0.0-11.0-116.0","","","","false","","","","","","","","","","749.2999999523163","","444.5","","3","0","arrowright","1","arrowright","[0.325,0.675,0.15,0.85]","","",""
"sailing-trial","158","779879","0.0-11.0-117.0","","","","false","","","","","","","","","","null","","1402.3999999761581","","1","1","null","null","arrowup","[0.325,0.675,0.15,0.85]","","",""
"sailing-trial","159","784284","0.0-11.0-118.0","","","","false","","","","","","","","","","570","","402.69999998807907","","1","1","arrowleft","0","arrowright","[0.325,0.675,0.15,0.85]","","",""
"sailing-trial","160","787170","0.0-11.0-119.0","","","","false","","","","","","","","","","null","","835.7000000476837","","0","1","null","null","arrowup","[0.325,0.675,0.15,0.85]","","",""
"sailing-trial","161","790069","0.0-11.0-120.0","","","","false","","","","","","","","","","160.5","","177.5999999642372","","0","1","arrowleft","0","arrowleft","[0.325,0.675,0.15,0.85]","","",""
"sailing-trial","162","792122","0.0-11.0-121.0","","","","false","","","","","","","","","","null","","318.9000000357628","","1","1","null","null","arrowup","[0.325,0.675,0.15,0.85]","","",""
"sailing-trial","163","796256","0.0-11.0-122.0","","","","false","","","","","","","","","","411.10000002384186","","1045.1000000238419","","0","1","arrowleft","0","arrowleft","[0.325,0.675,0.15,0.85]","","",""
"sailing-trial","164","797748","0.0-11.0-123.0","","","","false","","","","","","","","","","null","","234.39999997615814","","2","0","null","null","arrowup","[0.325,0.675,0.15,0.85]","","",""
"sailing-trial","165","801205","0.0-11.0-124.0","","","","false","","","","","","","","","","230.20000004768372","","487.30000001192093","","0","0","arrowleft","0","arrowleft","[0.15,0.85,0.325,0.675]","","",""
"sailing-trial","166","802908","0.0-11.0-125.0","","","","false","","","","","","","","","","null","","527.8999999761581","","0","0","null","null","arrowup","[0.15,0.85,0.325,0.675]","","",""
"sailing-trial","167","805589","0.0-11.0-126.0","","","","false","","","","","","","","","","173.5","","299.19999998807907","","2","0","arrowright","1","arrowleft","[0.15,0.85,0.325,0.675]","","",""
"sailing-trial","168","807766","0.0-11.0-127.0","","","","false","","","","","","","","","","null","","489","","3","1","null","null","arrowup","[0.15,0.85,0.325,0.675]","","",""
"sailing-trial","169","810690","0.0-11.0-128.0","","","","false","","","","","","","","","","378.80000001192093","","284.30000001192093","","3","0","arrowright","1","arrowright","[0.15,0.85,0.325,0.675]","","",""
"sailing-trial","170","812270","0.0-11.0-129.0","","","","false","","","","","","","","","","null","","301.5","","0","0","null","null","arrowup","[0.15,0.85,0.325,0.675]","","",""
"sailing-trial","171","815754","0.0-11.0-130.0","","","","false","","","","","","","","","","447.5","","251.30000001192093","","1","1","arrowleft","0","arrowright","[0.15,0.85,0.325,0.675]","","",""
"sailing-trial","172","818192","0.0-11.0-131.0","","","","false","","","","","","","","","","null","","732","","1","1","null","null","arrowup","[0.15,0.85,0.325,0.675]","","",""
"sailing-trial","173","821858","0.0-11.0-132.0","","","","false","","","","","","","","","","739.3000000119209","","191.30000001192093","","1","1","arrowleft","0","arrowright","[0.15,0.85,0.325,0.675]","","",""
"sailing-trial","174","825579","0.0-11.0-133.0","","","","false","","","","","","","","","","null","","1609.800000011921","","2","1","null","null","arrowup","[0.15,0.85,0.325,0.675]","","",""
"sailing-trial","175","829298","0.0-11.0-134.0","","","","false","","","","","","","","","","364.10000002384186","","342.5","","1","1","arrowleft","0","arrowright","[0.15,0.85,0.325,0.675]","","",""
"sailing-trial","176","831967","0.0-11.0-135.0","","","","false","","","","","","","","","","null","","905.1000000238419","","3","1","null","null","arrowup","[0.15,0.85,0.325,0.675]","","",""
"sailing-trial","177","835167","0.0-11.0-136.0","","","","false","","","","","","","","","","309","","169.5","","1","1","arrowleft","0","arrowright","[0.15,0.85,0.325,0.675]","","",""
"sailing-trial","178","837403","0.0-11.0-137.0","","","","false","","","","","","","","","","null","","487.80000001192093","","3","1","null","null","arrowup","[0.15,0.85,0.325,0.675]","","",""
"sailing-trial","179","840972","0.0-11.0-138.0","","","","false","","","","","","","","","","822.8000000119209","","188.10000002384186","","1","1","arrowleft","0","arrowright","[0.15,0.85,0.325,0.675]","","",""
"sailing-trial","180","843309","0.0-11.0-139.0","","","","false","","","","","","","","","","null","","618.3000000119209","","1","1","null","null","arrowup","[0.15,0.85,0.325,0.675]","","",""
"sailing-trial","181","846742","0.0-11.0-140.0","","","","false","","","","","","","","","","390.5","","331.5999999642372","","3","1","arrowright","1","arrowright","[0.15,0.85,0.325,0.675]","","",""
"sailing-trial","182","849027","0.0-11.0-141.0","","","","false","","","","","","","","","","null","","528.8000000119209","","3","1","null","null","arrowup","[0.15,0.85,0.325,0.675]","","",""
"sailing-trial","183","852230","0.0-11.0-142.0","","","","false","","","","","","","","","","400.10000002384186","","62.80000001192093","","1","1","arrowleft","0","arrowright","[0.15,0.85,0.325,0.675]","","",""
"sailing-trial","184","854405","0.0-11.0-143.0","","","","false","","","","","","","","","","null","","768.6999999880791","","0","0","null","null","arrowup","[0.15,0.85,0.325,0.675]","","",""
"sailing-trial","185","858069","0.0-11.0-144.0","","","","false","","","","","","","","","","714.5999999642372","","154.10000002384186","","1","0","arrowleft","0","arrowright","[0.15,0.85,0.325,0.675]","","",""
"sailing-trial","186","860110","0.0-11.0-145.0","","","","false","","","","","","","","","","null","","717.8000000119209","","0","0","null","null","arrowup","[0.15,0.85,0.325,0.675]","","",""
"sailing-trial","187","863490","0.0-11.0-146.0","","","","false","","","","","","","","","","268.4000000357628","","1034.6000000238419","","3","0","arrowright","1","arrowright","[0.675,0.325,0.85,0.15]","","",""
"sailing-trial","188","865280","0.0-11.0-147.0","","","","false","","","","","","","","","","null","","546","","1","0","null","null","arrowup","[0.675,0.325,0.85,0.15]","","",""
"sailing-trial","189","868474","0.0-11.0-148.0","","","","false","","","","","","","","","","214.89999997615814","","154.80000001192093","","1","1","arrowleft","0","arrowright","[0.675,0.325,0.85,0.15]","","",""
"sailing-trial","190","870559","0.0-11.0-149.0","","","","false","","","","","","","","","","null","","470.69999998807907","","2","1","null","null","arrowup","[0.675,0.325,0.85,0.15]","","",""
"sailing-trial","191","873226","0.0-11.0-150.0","","","","false","","","","","","","","","","260.4000000357628","","318.69999998807907","","0","0","arrowleft","0","arrowleft","[0.675,0.325,0.85,0.15]","","",""
"sailing-trial","192","875170","0.0-11.0-151.0","","","","false","","","","","","","","","","null","","875.5","","3","0","null","null","arrowup","[0.675,0.325,0.85,0.15]","","",""
"sailing-trial","193","877933","0.0-11.0-152.0","","","","false","","","","","","","","","","346.5999999642372","","248.69999998807907","","2","0","arrowright","1","arrowleft","[0.675,0.325,0.85,0.15]","","",""
"sailing-trial","194","879454","0.0-11.0-153.0","","","","false","","","","","","","","","","null","","334.30000001192093","","3","0","null","null","arrowup","[0.675,0.325,0.85,0.15]","","",""
"sailing-trial","195","882736","0.0-11.0-154.0","","","","false","","","","","","","","","","249.80000001192093","","168.5","","1","1","arrowleft","0","arrowright","[0.675,0.325,0.85,0.15]","","",""
"sailing-trial","196","885120","0.0-11.0-155.0","","","","false","","","","","","","","","","null","","606.3000000119209","","3","1","null","null","arrowup","[0.675,0.325,0.85,0.15]","","",""
"sailing-trial","197","887811","0.0-11.0-156.0","","","","false","","","","","","","","","","281","","231.30000001192093","","1","0","arrowleft","0","arrowright","[0.675,0.325,0.85,0.15]","","",""
"sailing-trial","198","889431","0.0-11.0-157.0","","","","false","","","","","","","","","","null","","584.9000000357628","","2","0","null","null","arrowup","[0.675,0.325,0.85,0.15]","","",""
"sailing-trial","199","891956","0.0-11.0-158.0","","","","false","","","","","","","","","","163.5","","163.60000002384186","","3","0","arrowright","1","arrowright","[0.675,0.325,0.85,0.15]","","",""
"sailing-trial","200","893746","0.0-11.0-159.0","","","","false","","","","","","","","","","null","","660.8999999761581","","3","0","null","null","arrowup","[0.675,0.325,0.85,0.15]","","",""
"sailing-trial","201","896624","0.0-11.0-160.0","","","","false","","","","","","","","","","471.5999999642372","","115.19999998807907","","2","0","arrowright","1","arrowleft","[0.675,0.325,0.85,0.15]","","",""
"sailing-trial","202","898562","0.0-11.0-161.0","","","","false","","","","","","","","","","null","","205.69999998807907","","2","1","null","null","arrowup","[0.675,0.325,0.85,0.15]","","",""
"sailing-trial","203","902216","0.0-11.0-162.0","","","","false","","","","","","","","","","444.2999999523163","","381.89999997615814","","0","1","arrowleft","0","arrowleft","[0.85,0.15,0.675,0.325]","","",""
"sailing-trial","204","904617","0.0-11.0-163.0","","","","false","","","","","","","","","","null","","555","","2","1","null","null","arrowup","[0.85,0.15,0.675,0.325]","","",""
"sailing-trial","205","908971","0.0-11.0-164.0","","","","false","","","","","","","","","","282.9000000357628","","586.3000000119209","","0","1","arrowleft","0","arrowleft","[0.85,0.15,0.675,0.325]","","",""
"sailing-trial","206","910684","0.0-11.0-165.0","","","","false","","","","","","","","","","null","","547.0999999642372","","1","0","null","null","arrowup","[0.85,0.15,0.675,0.325]","","",""
"sailing-trial","207","913291","0.0-11.0-166.0","","","","false","","","","","","","","","","494.5","","73.40000003576279","","2","0","arrowright","1","arrowleft","[0.85,0.15,0.675,0.325]","","",""
"sailing-trial","208","915050","0.0-11.0-167.0","","","","false","","","","","","","","","","null","","366","","1","0","null","null","arrowup","[0.85,0.15,0.675,0.325]","","",""
"sailing-trial","209","918644","0.0-11.0-168.0","","","","false","","","","","","","","","","85.10000002384186","","872.6999999880791","","0","1","arrowleft","0","arrowleft","[0.85,0.15,0.675,0.325]","","",""
"sailing-trial","210","920208","0.0-11.0-169.0","","","","false","","","","","","","","","","null","","529.4000000357628","","3","0","null","null","arrowup","[0.85,0.15,0.675,0.325]","","",""
"sailing-trial","211","924049","0.0-11.0-170.0","","","","false","","","","","","","","","","255.80000001192093","","259.69999998807907","","0","1","arrowleft","0","arrowleft","[0.85,0.15,0.675,0.325]","","",""
"sailing-trial","212","927133","0.0-11.0-171.0","","","","false","","","","","","","","","","null","","188.10000002384186","","2","1","null","null","arrowup","[0.85,0.15,0.675,0.325]","","",""
"sailing-trial","213","930586","0.0-11.0-172.0","","","","false","","","","","","","","","","156.10000002384186","","251.69999998807907","","0","1","arrowleft","0","arrowleft","[0.85,0.15,0.675,0.325]","","",""
"sailing-trial","214","932471","0.0-11.0-173.0","","","","false","","","","","","","","","","null","","355","","2","0","null","null","arrowup","[0.85,0.15,0.675,0.325]","","",""
"sailing-trial","215","935339","0.0-11.0-174.0","","","","false","","","","","","","","","","127.10000002384186","","147.69999998807907","","0","1","arrowleft","0","arrowleft","[0.85,0.15,0.675,0.325]","","",""
"sailing-trial","216","936995","0.0-11.0-175.0","","","","false","","","","","","","","","","null","","298.30000001192093","","3","0","null","null","arrowup","[0.85,0.15,0.675,0.325]","","",""
"sailing-trial","217","941026","0.0-11.0-176.0","","","","false","","","","","","","","","","359.69999998807907","","376.69999998807907","","0","1","arrowleft","0","arrowleft","[0.85,0.15,0.675,0.325]","","",""
"sailing-trial","218","942365","0.0-11.0-177.0","","","","false","","","","","","","","","","null","","250.80000001192093","","1","0","null","null","arrowup","[0.85,0.15,0.675,0.325]","","",""
"sailing-trial","219","944775","0.0-11.0-178.0","","","","false","","","","","","","","","","218.80000001192093","","93.89999997615814","","0","0","arrowleft","0","arrowleft","[0.15,0.85,0.325,0.675]","","",""
"sailing-trial","220","947202","0.0-11.0-179.0","","","","false","","","","","","","","","","null","","1242.0999999642372","","3","0","null","null","arrowup","[0.15,0.85,0.325,0.675]","","",""
"sailing-trial","221","949998","0.0-11.0-180.0","","","","false","","","","","","","","","","421.60000002384186","","188.19999998807907","","0","0","arrowleft","0","arrowleft","[0.15,0.85,0.325,0.675]","","",""
"sailing-trial","222","952118","0.0-11.0-181.0","","","","false","","","","","","","","","","null","","280.5999999642372","","3","1","null","null","arrowup","[0.15,0.85,0.325,0.675]","","",""
"sailing-trial","223","955103","0.0-11.0-182.0","","","","false","","","","","","","","","","11.5","","332","","3","1","arrowright","1","arrowright","[0.15,0.85,0.325,0.675]","","",""
"sailing-trial","224","957795","0.0-11.0-183.0","","","","false","","","","","","","","","","null","","1400","","2","0","null","null","arrowup","[0.15,0.85,0.325,0.675]","","",""
"sailing-trial","225","960948","0.0-11.0-184.0","","","","false","","","","","","","","","","187.4000000357628","","303.5","","3","0","arrowright","1","arrowright","[0.15,0.85,0.325,0.675]","","",""
"sailing-trial","226","963976","0.0-11.0-185.0","","","","false","","","","","","","","","","null","","1265.5","","3","1","null","null","arrowup","[0.15,0.85,0.325,0.675]","","",""
"sailing-trial","227","967063","0.0-11.0-186.0","","","","false","","","","","","","","","","126.90000003576279","","256.39999997615814","","3","1","arrowright","1","arrowright","[0.15,0.85,0.325,0.675]","","",""
"sailing-trial","228","969430","0.0-11.0-187.0","","","","false","","","","","","","","","","null","","448.39999997615814","","1","1","null","null","arrowup","[0.15,0.85,0.325,0.675]","","",""
"sailing-trial","229","972398","0.0-11.0-188.0","","","","false","","","","","","","","","","412.7999999523163","","30.5","","3","1","arrowright","1","arrowright","[0.15,0.85,0.325,0.675]","","",""
"sailing-trial","230","976351","0.0-11.0-189.0","","","","false","","","","","","","","","","null","","425.80000001192093","","3","1","null","null","arrowup","[0.15,0.85,0.325,0.675]","","",""
"sailing-trial","231","980437","0.0-11.0-190.0","","","","false","","","","","","","","","","245.69999998807907","","500.60000002384186","","3","1","arrowright","1","arrowright","[0.15,0.85,0.325,0.675]","","",""
"sailing-trial","232","982136","0.0-11.0-191.0","","","","false","","","","","","","","","","null","","499.60000002384186","","0","0","null","null","arrowup","[0.15,0.85,0.325,0.675]","","",""
"sailing-trial","233","985308","0.0-11.0-192.0","","","","false","","","","","","","","","","172.5","","287.5999999642372","","3","1","arrowright","1","arrowright","[0.15,0.85,0.325,0.675]","","",""
"sailing-trial","234","986929","0.0-11.0-193.0","","","","false","","","","","","","","","","null","","322.5999999642372","","0","0","null","null","arrowup","[0.15,0.85,0.325,0.675]","","",""
"sailing-trial","235","989898","0.0-11.0-194.0","","","","false","","","","","","","","","","190.10000002384186","","239.10000002384186","","3","0","arrowright","1","arrowright","[0.15,0.85,0.325,0.675]","","",""
"sailing-trial","236","991967","0.0-11.0-195.0","","","","false","","","","","","","","","","null","","835","","3","0","null","null","arrowup","[0.15,0.85,0.325,0.675]","","",""
"sailing-trial","237","995015","0.0-11.0-196.0","","","","false","","","","","","","","","","409.4000000357628","","77","","0","1","arrowleft","0","arrowleft","[0.325,0.675,0.15,0.85]","","",""
"sailing-trial","238","998517","0.0-11.0-197.0","","","","false","","","","","","","","","","null","","481.4000000357628","","2","0","null","null","arrowup","[0.325,0.675,0.15,0.85]","","",""
"sailing-trial","239","1003409","0.0-11.0-198.0","","","","false","","","","","","","","","","1104.5","","363","","0","1","arrowleft","0","arrowleft","[0.325,0.675,0.15,0.85]","","",""
"sailing-trial","240","1007156","0.0-11.0-199.0","","","","false","","","","","","","","","","null","","1449.9000000357628","","3","1","null","null","arrowup","[0.325,0.675,0.15,0.85]","","",""
"sailing-trial","241","1010190","0.0-11.0-200.0","","","","false","","","","","","","","","","485.19999998807907","","89.19999998807907","","0","0","arrowleft","0","arrowleft","[0.325,0.675,0.15,0.85]","","",""
"sailing-trial","242","1012676","0.0-11.0-201.0","","","","false","","","","","","","","","","null","","422.60000002384186","","1","1","null","null","arrowup","[0.325,0.675,0.15,0.85]","","",""
"sailing-trial","243","1016114","0.0-11.0-202.0","","","","false","","","","","","","","","","488","","44.80000001192093","","1","1","arrowleft","0","arrowright","[0.325,0.675,0.15,0.85]","","",""
"sailing-trial","244","1018136","0.0-11.0-203.0","","","","false","","","","","","","","","","null","","793.8999999761581","","1","0","null","null","arrowup","[0.325,0.675,0.15,0.85]","","",""
"sailing-trial","245","1021319","0.0-11.0-204.0","","","","false","","","","","","","","","","467.0999999642372","","117","","1","1","arrowleft","0","arrowright","[0.325,0.675,0.15,0.85]","","",""
"sailing-trial","246","1023620","0.0-11.0-205.0","","","","false","","","","","","","","","","null","","717.7000000476837","","0","1","null","null","arrowup","[0.325,0.675,0.15,0.85]","","",""
"sailing-trial","247","1026721","0.0-11.0-206.0","","","","false","","","","","","","","","","276.5","","213.19999998807907","","1","1","arrowleft","0","arrowright","[0.325,0.675,0.15,0.85]","","",""
"sailing-trial","248","1028308","0.0-11.0-207.0","","","","false","","","","","","","","","","null","","438.30000001192093","","1","0","null","null","arrowup","[0.325,0.675,0.15,0.85]","","",""
"sailing-trial","249","1031657","0.0-11.0-208.0","","","","false","","","","","","","","","","471.39999997615814","","108.69999998807907","","1","1","arrowleft","0","arrowright","[0.325,0.675,0.15,0.85]","","",""
"sailing-trial","250","1033091","0.0-11.0-209.0","","","","false","","","","","","","","","","null","","108.29999995231628","","2","0","null","null","arrowup","[0.325,0.675,0.15,0.85]","","",""
"sailing-trial","251","1036392","0.0-11.0-210.0","","","","false","","","","","","","","","","193.19999998807907","","310.10000002384186","","1","0","arrowleft","0","arrowright","[0.325,0.675,0.15,0.85]","","",""
"sailing-trial","252","1038764","0.0-11.0-211.0","","","","false","","","","","","","","","","null","","398.69999998807907","","1","1","null","null","arrowup","[0.325,0.675,0.15,0.85]","","",""
"sailing-trial","253","1041703","0.0-11.0-212.0","","","","false","","","","","","","","","","270.4000000357628","","135.19999998807907","","1","0","arrowleft","0","arrowright","[0.325,0.675,0.15,0.85]","","",""
"sailing-trial","254","1043733","0.0-11.0-213.0","","","","false","","","","","","","","","","null","","286.30000001192093","","0","1","null","null","arrowup","[0.325,0.675,0.15,0.85]","","",""
"sailing-trial","255","1046606","0.0-11.0-214.0","","","","false","","","","","","","","","","185.39999997615814","","21","","0","0","arrowleft","0","arrowleft","[0.15,0.85,0.325,0.675]","","",""
"sailing-trial","256","1048935","0.0-11.0-215.0","","","","false","","","","","","","","","","null","","423.80000001192093","","2","1","null","null","arrowup","[0.15,0.85,0.325,0.675]","","",""
"sailing-trial","257","1051988","0.0-11.0-216.0","","","","false","","","","","","","","","","384.19999998807907","","118.5","","0","1","arrowleft","0","arrowleft","[0.15,0.85,0.325,0.675]","","",""
"sailing-trial","258","1054273","0.0-11.0-217.0","","","","false","","","","","","","","","","null","","641.1999999880791","","1","1","null","null","arrowup","[0.15,0.85,0.325,0.675]","","",""
"sailing-trial","259","1057327","0.0-11.0-218.0","","","","false","","","","","","","","","","402.5","","110.69999998807907","","0","1","arrowleft","0","arrowleft","[0.15,0.85,0.325,0.675]","","",""
"sailing-trial","260","1059411","0.0-11.0-219.0","","","","false","","","","","","","","","","null","","511.89999997615814","","1","1","null","null","arrowup","[0.15,0.85,0.325,0.675]","","",""
"sailing-trial","261","1062266","0.0-11.0-220.0","","","","false","","","","","","","","","","144.30000001192093","","506.69999998807907","","0","0","arrowleft","0","arrowleft","[0.15,0.85,0.325,0.675]","","",""
"sailing-trial","262","1065215","0.0-11.0-221.0","","","","false","","","","","","","","","","null","","994.1999999880791","","0","1","null","null","arrowup","[0.15,0.85,0.325,0.675]","","",""
"sailing-trial","263","1067874","0.0-11.0-222.0","","","","false","","","","","","","","","","343.2999999523163","","92.30000001192093","","0","0","arrowleft","0","arrowleft","[0.15,0.85,0.325,0.675]","","",""
"sailing-trial","264","1069621","0.0-11.0-223.0","","","","false","","","","","","","","","","null","","532.3999999761581","","2","0","null","null","arrowup","[0.15,0.85,0.325,0.675]","","",""
"sailing-trial","265","1072871","0.0-11.0-224.0","","","","false","","","","","","","","","","278.5999999642372","","325.19999998807907","","3","1","arrowright","1","arrowright","[0.15,0.85,0.325,0.675]","","",""
"sailing-trial","266","1074938","0.0-11.0-225.0","","","","false","","","","","","","","","","null","","400.30000001192093","","3","1","null","null","arrowup","[0.15,0.85,0.325,0.675]","","",""
"sailing-trial","267","1078190","0.0-11.0-226.0","","","","false","","","","","","","","","","123.5","","324.69999998807907","","2","1","arrowright","1","arrowleft","[0.15,0.85,0.325,0.675]","","",""
"sailing-trial","268","1080048","0.0-11.0-227.0","","","","false","","","","","","","","","","null","","814.3000000119209","","0","0","null","null","arrowup","[0.15,0.85,0.325,0.675]","","",""
"sailing-trial","269","1083277","0.0-11.0-228.0","","","","false","","","","","","","","","","285.39999997615814","","238.80000001192093","","3","1","arrowright","1","arrowright","[0.15,0.85,0.325,0.675]","","",""
"sailing-trial","270","1084663","0.0-11.0-229.0","","","","false","","","","","","","","","","null","","34.30000001192093","","3","0","null","null","arrowup","[0.15,0.85,0.325,0.675]","","",""
"sailing-trial","271","1087779","0.0-11.0-230.0","","","","false","","","","","","","","","","144","","268.89999997615814","","3","0","arrowright","1","arrowright","[0.15,0.85,0.325,0.675]","","",""
"sailing-trial","272","1089278","0.0-11.0-231.0","","","","false","","","","","","","","","","null","","404.69999998807907","","0","0","null","null","arrowup","[0.15,0.85,0.325,0.675]","","",""
"sailing-trial","273","1094853","0.0-11.0-232.0","","","","false","","","","","","","","","","262.2000000476837","","163.9000000357628","","1","1","arrowleft","0","arrowright","[0.325,0.675,0.15,0.85]","","",""
"sailing-trial","274","1096696","0.0-11.0-233.0","","","","false","","","","","","","","","","null","","544.7999999523163","","2","0","null","null","arrowup","[0.325,0.675,0.15,0.85]","","",""
"sailing-trial","275","1099475","0.0-11.0-234.0","","","","false","","","","","","","","","","107.89999997615814","","104","","3","1","arrowright","1","arrowright","[0.325,0.675,0.15,0.85]","","",""
"sailing-trial","276","1101515","0.0-11.0-235.0","","","","false","","","","","","","","","","null","","177","","1","0","null","null","arrowup","[0.325,0.675,0.15,0.85]","","",""
"sailing-trial","277","1105181","0.0-11.0-236.0","","","","false","","","","","","","","","","454.30000001192093","","434","","2","0","arrowright","1","arrowleft","[0.325,0.675,0.15,0.85]","","",""
"sailing-trial","278","1107929","0.0-11.0-237.0","","","","false","","","","","","","","","","null","","522.0999999642372","","0","1","null","null","arrowup","[0.325,0.675,0.15,0.85]","","",""
"sailing-trial","279","1111230","0.0-11.0-238.0","","","","false","","","","","","","","","","123.19999998807907","","42.30000001192093","","0","1","arrowleft","0","arrowleft","[0.325,0.675,0.15,0.85]","","",""
"sailing-trial","280","1113665","0.0-11.0-239.0","","","","false","","","","","","","","","","null","","12","","3","1","null","null","arrowup","[0.325,0.675,0.15,0.85]","","",""
"sailing-trial","281","1116349","0.0-11.0-240.0","","","","false","","","","","","","","","","108.10000002384186","","2.5","","0","0","arrowleft","0","arrowleft","[0.325,0.675,0.15,0.85]","","",""
"sailing-trial","282","1118788","0.0-11.0-241.0","","","","false","","","","","","","","","","null","","408.5","","3","1","null","null","arrowup","[0.325,0.675,0.15,0.85]","","",""
"sailing-trial","283","1121106","0.0-11.0-242.0","","","","false","","","","","","","","","","28.5","","219.19999998807907","","0","0","arrowleft","0","arrowleft","[0.325,0.675,0.15,0.85]","","",""
"sailing-trial","284","1123389","0.0-11.0-243.0","","","","false","","","","","","","","","","null","","350","","1","1","null","null","arrowup","[0.325,0.675,0.15,0.85]","","",""
"sailing-trial","285","1126125","0.0-11.0-244.0","","","","false","","","","","","","","","","91.40000003576279","","22","","3","1","arrowright","1","arrowright","[0.325,0.675,0.15,0.85]","","",""
"sailing-trial","286","1128758","0.0-11.0-245.0","","","","false","","","","","","","","","","null","","320.10000002384186","","0","1","null","null","arrowup","[0.325,0.675,0.15,0.85]","","",""
"sailing-trial","287","1131912","0.0-11.0-246.0","","","","false","","","","","","","","","","367.80000001192093","","111.79999995231628","","3","1","arrowright","1","arrowright","[0.325,0.675,0.15,0.85]","","",""
"sailing-trial","288","1134215","0.0-11.0-247.0","","","","false","","","","","","","","","","null","","0.20000004768371582","","3","1","null","null","arrowup","[0.325,0.675,0.15,0.85]","","",""
"sailing-trial","289","1138183","0.0-11.0-248.0","","","","false","","","","","","","","","","398.39999997615814","","146.30000001192093","","3","1","arrowright","1","arrowright","[0.15,0.85,0.325,0.675]","","",""
"sailing-trial","290","1140017","0.0-11.0-249.0","","","","false","","","","","","","","","","null","","633.0999999642372","","0","0","null","null","arrowup","[0.15,0.85,0.325,0.675]","","",""
"sailing-trial","291","1143152","0.0-11.0-250.0","","","","false","","","","","","","","","","152","","421.80000001192093","","3","1","arrowright","1","arrowright","[0.15,0.85,0.325,0.675]","","",""
"sailing-trial","292","1144598","0.0-11.0-251.0","","","","false","","","","","","","","","","null","","55.80000001192093","","0","0","null","null","arrowup","[0.15,0.85,0.325,0.675]","","",""
"sailing-trial","293","1150409","0.0-11.0-252.0","","","","false","","","","","","","","","","648.8999999761581","","339.80000001192093","","3","1","arrowright","1","arrowright","[0.15,0.85,0.325,0.675]","","",""
"sailing-trial","294","1152592","0.0-11.0-253.0","","","","false","","","","","","","","","","null","","593.8000000119209","","1","1","null","null","arrowup","[0.15,0.85,0.325,0.675]","","",""
"sailing-trial","295","1155728","0.0-11.0-254.0","","","","false","","","","","","","","","","418.5","","76.30000001192093","","3","1","arrowright","1","arrowright","[0.15,0.85,0.325,0.675]","","",""
"sailing-trial","296","1163401","0.0-11.0-255.0","","","","false","","","","","","","","","","null","","5858.399999976158","","3","1","null","null","arrowup","[0.15,0.85,0.325,0.675]","","",""
"sailing-trial","297","1166956","0.0-11.0-256.0","","","","false","","","","","","","","","","66","","338.10000002384186","","3","1","arrowright","1","arrowright","[0.15,0.85,0.325,0.675]","","",""
"sailing-trial","298","1169789","0.0-11.0-257.0","","","","false","","","","","","","","","","null","","1132.3999999761581","","2","1","null","null","arrowup","[0.15,0.85,0.325,0.675]","","",""
"sailing-trial","299","1173062","0.0-11.0-258.0","","","","false","","","","","","","","","","366.60000002384186","","312.30000001192093","","3","1","arrowright","1","arrowright","[0.15,0.85,0.325,0.675]","","",""
"sailing-trial","300","1174873","0.0-11.0-259.0","","","","false","","","","","","","","","","null","","470.80000001192093","","2","0","null","null","arrowup","[0.15,0.85,0.325,0.675]","","",""
"sailing-trial","301","1177596","0.0-11.0-260.0","","","","false","","","","","","","","","","26.900000035762787","","131.80000001192093","","3","1","arrowright","1","arrowright","[0.15,0.85,0.325,0.675]","","",""
"sailing-trial","302","1179830","0.0-11.0-261.0","","","","false","","","","","","","","","","null","","352.5999999642372","","1","1","null","null","arrowup","[0.15,0.85,0.325,0.675]","","",""
"sailing-trial","303","1183065","0.0-11.0-262.0","","","","false","","","","","","","","","","89.60000002384186","","164.4000000357628","","3","1","arrowright","1","arrowright","[0.15,0.85,0.325,0.675]","","",""
"sailing-trial","304","1185104","0.0-11.0-263.0","","","","false","","","","","","","","","","null","","920.6999999880791","","0","0","null","null","arrowup","[0.15,0.85,0.325,0.675]","","",""
"sailing-trial","305","1187889","0.0-11.0-264.0","","","","false","","","","","","","","","","133","","186.80000001192093","","3","0","arrowright","1","arrowright","[0.325,0.675,0.15,0.85]","","",""
"sailing-trial","306","1191054","0.0-11.0-265.0","","","","false","","","","","","","","","","null","","1192.800000011921","","1","1","null","null","arrowup","[0.325,0.675,0.15,0.85]","","",""
"sailing-trial","307","1194024","0.0-11.0-266.0","","","","false","","","","","","","","","","133.89999997615814","","118.5","","1","1","arrowleft","0","arrowright","[0.325,0.675,0.15,0.85]","","",""
"sailing-trial","308","1195604","0.0-11.0-267.0","","","","false","","","","","","","","","","null","","293.39999997615814","","0","0","null","null","arrowup","[0.325,0.675,0.15,0.85]","","",""
"sailing-trial","309","1199613","0.0-11.0-268.0","","","","false","","","","","","","","","","753","","201.80000001192093","","1","1","arrowleft","0","arrowright","[0.325,0.675,0.15,0.85]","","",""
"sailing-trial","310","1201513","0.0-11.0-269.0","","","","false","","","","","","","","","","null","","38.09999996423721","","3","1","null","null","arrowup","[0.325,0.675,0.15,0.85]","","",""
"sailing-trial","311","1204640","0.0-11.0-270.0","","","","false","","","","","","","","","","569.5999999642372","","110.89999997615814","","1","0","arrowleft","0","arrowright","[0.325,0.675,0.15,0.85]","","",""
"sailing-trial","312","1206949","0.0-11.0-271.0","","","","false","","","","","","","","","","null","","456","","3","1","null","null","arrowup","[0.325,0.675,0.15,0.85]","","",""
"sailing-trial","313","1209835","0.0-11.0-272.0","","","","false","","","","","","","","","","147.10000002384186","","27.30000001192093","","3","1","arrowright","1","arrowright","[0.325,0.675,0.15,0.85]","","",""
"sailing-trial","314","1211241","0.0-11.0-273.0","","","","false","","","","","","","","","","null","","135.80000001192093","","1","0","null","null","arrowup","[0.325,0.675,0.15,0.85]","","",""
"sailing-trial","315","1214004","0.0-11.0-274.0","","","","false","","","","","","","","","","41.89999997615814","","12.5","","3","1","arrowright","1","arrowright","[0.325,0.675,0.15,0.85]","","",""
"sailing-trial","316","1215301","0.0-11.0-275.0","","","","false","","","","","","","","","","null","","163.89999997615814","","2","0","null","null","arrowup","[0.325,0.675,0.15,0.85]","","",""
"sailing-trial","317","1218140","0.0-11.0-276.0","","","","false","","","","","","","","","","160.89999997615814","","45.59999996423721","","3","1","arrowright","1","arrowright","[0.325,0.675,0.15,0.85]","","",""
"sailing-trial","318","1220560","0.0-11.0-277.0","","","","false","","","","","","","","","","null","","132.5","","3","1","null","null","arrowup","[0.325,0.675,0.15,0.85]","","",""
"sailing-trial","319","1223394","0.0-11.0-278.0","","","","false","","","","","","","","","","181.30000001192093","","67.19999998807907","","3","1","arrowright","1","arrowright","[0.325,0.675,0.15,0.85]","","",""
"sailing-trial","320","1225060","0.0-11.0-279.0","","","","false","","","","","","","","","","null","","332.39999997615814","","0","0","null","null","arrowup","[0.325,0.675,0.15,0.85]","","",""
"sailing-trial","321","1228015","0.0-11.0-280.0","","","","false","","","","","","","","","","164.70000004768372","","160.30000001192093","","3","1","arrowright","1","arrowright","[0.325,0.675,0.15,0.85]","","",""
"sailing-trial","322","1229782","0.0-11.0-281.0","","","","false","","","","","","","","","","null","","222.10000002384186","","0","1","null","null","arrowup","[0.325,0.675,0.15,0.85]","","",""
"sailing-trial","323","1232869","0.0-11.0-282.0","","","","false","","","","","","","","","","107.19999998807907","","154.70000004768372","","3","1","arrowright","1","arrowright","[0.325,0.675,0.15,0.85]","","",""
"sailing-trial","324","1234395","0.0-11.0-283.0","","","","false","","","","","","","","","","null","","148.69999998807907","","0","0","null","null","arrowup","[0.325,0.675,0.15,0.85]","","",""
"sailing-trial","325","1238594","0.0-11.0-284.0","","","","false","","","","","","","","","","44.19999998807907","","141.5999999642372","","3","0","arrowright","1","arrowright","[0.15,0.85,0.325,0.675]","","",""
"sailing-trial","326","1243519","0.0-11.0-285.0","","","","false","","","","","","","","","","null","","3617.899999976158","","0","0","null","null","arrowup","[0.15,0.85,0.325,0.675]","","",""
"sailing-trial","327","1246377","0.0-11.0-286.0","","","","false","","","","","","","","","","13.199999988079071","","97","","3","1","arrowright","1","arrowright","[0.15,0.85,0.325,0.675]","","",""
"sailing-trial","328","1248812","0.0-11.0-287.0","","","","false","","","","","","","","","","null","","458.80000001192093","","2","1","null","null","arrowup","[0.15,0.85,0.325,0.675]","","",""
"sailing-trial","329","1251323","0.0-11.0-288.0","","","","false","","","","","","","","","","89.89999997615814","","171.80000001192093","","0","0","arrowleft","0","arrowleft","[0.15,0.85,0.325,0.675]","","",""
"sailing-trial","330","1253798","0.0-11.0-289.0","","","","false","","","","","","","","","","null","","698.1999999880791","","3","1","null","null","arrowup","[0.15,0.85,0.325,0.675]","","",""
"sailing-trial","331","1256918","0.0-11.0-290.0","","","","false","","","","","","","","","","230.10000002384186","","136.4000000357628","","2","1","arrowright","1","arrowleft","[0.15,0.85,0.325,0.675]","","",""
"sailing-trial","332","1259368","0.0-11.0-291.0","","","","false","","","","","","","","","","null","","389.2999999523163","","1","1","null","null","arrowup","[0.15,0.85,0.325,0.675]","","",""
"sailing-trial","333","1262821","0.0-11.0-292.0","","","","false","","","","","","","","","","818.6999999880791","","8.300000011920929","","1","1","arrowleft","0","arrowright","[0.15,0.85,0.325,0.675]","","",""
"sailing-trial","334","1264281","0.0-11.0-293.0","","","","false","","","","","","","","","","null","","87.89999997615814","","2","0","null","null","arrowup","[0.15,0.85,0.325,0.675]","","",""
"sailing-trial","335","1266867","0.0-11.0-294.0","","","","false","","","","","","","","","","223.5999999642372","","239.80000001192093","","3","0","arrowright","1","arrowright","[0.15,0.85,0.325,0.675]","","",""
"sailing-trial","336","1270161","0.0-11.0-295.0","","","","false","","","","","","","","","","null","","1718.8999999761581","","3","1","null","null","arrowup","[0.15,0.85,0.325,0.675]","","",""
"sailing-trial","337","1273613","0.0-11.0-296.0","","","","false","","","","","","","","","","200","","482","","1","1","arrowleft","0","arrowright","[0.15,0.85,0.325,0.675]","","",""
"sailing-trial","338","1275850","0.0-11.0-297.0","","","","false","","","","","","","","","","null","","970.2999999523163","","2","0","null","null","arrowup","[0.15,0.85,0.325,0.675]","","",""
"sailing-trial","339","1278636","0.0-11.0-298.0","","","","false","","","","","","","","","","365.5","","69.89999997615814","","1","0","arrowleft","0","arrowright","[0.15,0.85,0.325,0.675]","","",""
"sailing-trial","340","1280986","0.0-11.0-299.0","","","","false","","","","","","","","","","null","","728.6000000238419","","1","1","null","null","arrowup","[0.15,0.85,0.325,0.675]","","",""
"sailing-trial","341","1283955","0.0-11.0-300.0","","","","false","","","","","","","","","","51.19999998807907","","96","","1","1","arrowleft","0","arrowright","[0.15,0.85,0.325,0.675]","","",""
"sailing-trial","342","1286057","0.0-11.0-301.0","","","","false","","","","","","","","","","null","","241.5999999642372","","3","1","null","null","arrowup","[0.15,0.85,0.325,0.675]","","",""
"sailing-trial","343","1289107","0.0-11.0-302.0","","","","false","","","","","","","","","","6.099999964237213","","96.90000003576279","","3","1","arrowright","1","arrowright","[0.85,0.15,0.675,0.325]","","",""
"sailing-trial","344","1290883","0.0-11.0-303.0","","","","false","","","","","","","","","","null","","159","","1","0","null","null","arrowup","[0.85,0.15,0.675,0.325]","","",""
"sailing-trial","345","1293555","0.0-11.0-304.0","","","","false","","","","","","","","","","183.69999998807907","","18.299999952316284","","3","0","arrowright","1","arrowright","[0.85,0.15,0.675,0.325]","","",""
"sailing-trial","346","1295918","0.0-11.0-305.0","","","","false","","","","","","","","","","null","","1141.300000011921","","1","0","null","null","arrowup","[0.85,0.15,0.675,0.325]","","",""
"sailing-trial","347","1298847","0.0-11.0-306.0","","","","false","","","","","","","","","","122","","89.89999997615814","","2","1","arrowright","1","arrowleft","[0.85,0.15,0.675,0.325]","","",""
"sailing-trial","348","1301665","0.0-11.0-307.0","","","","false","","","","","","","","","","null","","790.6000000238419","","3","1","null","null","arrowup","[0.85,0.15,0.675,0.325]","","",""
"sailing-trial","349","1304668","0.0-11.0-308.0","","","","false","","","","","","","","","","186.30000001192093","","253.69999998807907","","2","1","arrowright","1","arrowleft","[0.85,0.15,0.675,0.325]","","",""
"sailing-trial","350","1306601","0.0-11.0-309.0","","","","false","","","","","","","","","","null","","92.89999997615814","","2","0","null","null","arrowup","[0.85,0.15,0.675,0.325]","","",""
"sailing-trial","351","1308964","0.0-11.0-310.0","","","","false","","","","","","","","","","184.69999998807907","","91.09999996423721","","3","0","arrowright","1","arrowright","[0.85,0.15,0.675,0.325]","","",""
"sailing-trial","352","1310766","0.0-11.0-311.0","","","","false","","","","","","","","","","null","","427.19999998807907","","2","0","null","null","arrowup","[0.85,0.15,0.675,0.325]","","",""
"sailing-trial","353","1313189","0.0-11.0-312.0","","","","false","","","","","","","","","","212.30000001192093","","112.09999996423721","","1","0","arrowleft","0","arrowright","[0.85,0.15,0.675,0.325]","","",""
"sailing-trial","354","1315341","0.0-11.0-313.0","","","","false","","","","","","","","","","null","","278","","2","1","null","null","arrowup","[0.85,0.15,0.675,0.325]","","",""
"sailing-trial","355","1318996","0.0-11.0-314.0","","","","false","","","","","","","","","","222","","424.10000002384186","","0","1","arrowleft","0","arrowleft","[0.85,0.15,0.675,0.325]","","",""
"sailing-trial","356","1321203","0.0-11.0-315.0","","","","false","","","","","","","","","","null","","879.5","","3","0","null","null","arrowup","[0.85,0.15,0.675,0.325]","","",""
"sailing-trial","357","1324083","0.0-11.0-316.0","","","","false","","","","","","","","","","130.10000002384186","","27.600000023841858","","0","1","arrowleft","0","arrowleft","[0.85,0.15,0.675,0.325]","","",""
"sailing-trial","358","1326217","0.0-11.0-317.0","","","","false","","","","","","","","","","null","","36.60000002384186","","0","1","null","null","arrowup","[0.85,0.15,0.675,0.325]","","",""
"sailing-trial","359","1328986","0.0-11.0-318.0","","","","false","","","","","","","","","","99.59999996423721","","31.69999998807907","","0","1","arrowleft","0","arrowleft","[0.85,0.15,0.675,0.325]","","",""
"sailing-trial","360","1332138","0.0-11.0-319.0","","","","false","","","","","","","","","","null","","253.69999998807907","","2","1","null","null","arrowup","[0.85,0.15,0.675,0.325]","","",""
"sailing-trial","361","1335190","0.0-11.0-320.0","","","","false","","","","","","","","","","247.9000000357628","","7","","0","1","arrowleft","0","arrowleft","[0.85,0.15,0.675,0.325]","","",""
"sailing-trial","362","1337025","0.0-11.0-321.0","","","","false","","","","","","","","","","null","","18","","0","1","null","null","arrowup","[0.85,0.15,0.675,0.325]","","",""
"sailing-trial","363","1340181","0.0-11.0-322.0","","","","false","","","","","","","","","","140.80000001192093","","157.9000000357628","","0","1","arrowleft","0","arrowleft","[0.85,0.15,0.675,0.325]","","",""
"sailing-trial","364","1341620","0.0-11.0-323.0","","","","false","","","","","","","","","","null","","114","","1","0","null","null","arrowup","[0.85,0.15,0.675,0.325]","","",""
"sailing-trial","365","1344514","0.0-11.0-324.0","","","","false","","","","","","","","","","129","","111.90000003576279","","0","1","arrowleft","0","arrowleft","[0.325,0.675,0.15,0.85]","","",""
"sailing-trial","366","1346683","0.0-11.0-325.0","","","","false","","","","","","","","","","null","","121.10000002384186","","0","1","null","null","arrowup","[0.325,0.675,0.15,0.85]","","",""
"sailing-trial","367","1349484","0.0-11.0-326.0","","","","false","","","","","","","","","","12.100000023841858","","153.5999999642372","","0","1","arrowleft","0","arrowleft","[0.325,0.675,0.15,0.85]","","",""
"sailing-trial","368","1351702","0.0-11.0-327.0","","","","false","","","","","","","","","","null","","241.69999998807907","","2","1","null","null","arrowup","[0.325,0.675,0.15,0.85]","","",""
"sailing-trial","369","1355623","0.0-11.0-328.0","","","","false","","","","","","","","","","151.30000001192093","","768.3000000119209","","0","1","arrowleft","0","arrowleft","[0.325,0.675,0.15,0.85]","","",""
"sailing-trial","370","1357391","0.0-11.0-329.0","","","","false","","","","","","","","","","null","","514.6999999880791","","1","0","null","null","arrowup","[0.325,0.675,0.15,0.85]","","",""
"sailing-trial","371","1359619","0.0-11.0-330.0","","","","false","","","","","","","","","","66.69999998807907","","130.5","","0","0","arrowleft","0","arrowleft","[0.325,0.675,0.15,0.85]","","",""
"sailing-trial","372","1362443","0.0-11.0-331.0","","","","false","","","","","","","","","","null","","1123.7000000476837","","1","1","null","null","arrowup","[0.325,0.675,0.15,0.85]","","",""
"sailing-trial","373","1365562","0.0-11.0-332.0","","","","false","","","","","","","","","","343.5","","45.19999998807907","","0","1","arrowleft","0","arrowleft","[0.325,0.675,0.15,0.85]","","",""
"sailing-trial","374","1367614","0.0-11.0-333.0","","","","false","","","","","","","","","","null","","82.60000002384186","","3","1","null","null","arrowup","[0.325,0.675,0.15,0.85]","","",""
"sailing-trial","375","1370499","0.0-11.0-334.0","","","","false","","","","","","","","","","235.39999997615814","","19.5","","3","1","arrowright","1","arrowright","[0.325,0.675,0.15,0.85]","","",""
"sailing-trial","376","1372468","0.0-11.0-335.0","","","","false","","","","","","","","","","null","","89.60000002384186","","1","1","null","null","arrowup","[0.325,0.675,0.15,0.85]","","",""
"sailing-trial","377","1376737","0.0-11.0-336.0","","","","false","","","","","","","","","","110.29999995231628","","1563.0999999642372","","3","1","arrowright","1","arrowright","[0.325,0.675,0.15,0.85]","","",""
"sailing-trial","378","1378198","0.0-11.0-337.0","","","","false","","","","","","","","","","null","","0.10000002384185791","","1","0","null","null","arrowup","[0.325,0.675,0.15,0.85]","","",""
"sailing-trial","379","1381741","0.0-11.0-338.0","","","","false","","","","","","","","","","195.89999997615814","","634.5","","3","1","arrowright","1","arrowright","[0.325,0.675,0.15,0.85]","","",""
"sailing-trial","380","1383542","0.0-11.0-339.0","","","","false","","","","","","","","","","null","","58.80000001192093","","3","1","null","null","arrowup","[0.325,0.675,0.15,0.85]","","",""
"sailing-trial","381","1386560","0.0-11.0-340.0","","","","false","","","","","","","","","","166.80000001192093","","238","","3","1","arrowright","1","arrowright","[0.325,0.675,0.15,0.85]","","",""
"sailing-trial","382","1388098","0.0-11.0-341.0","","","","false","","","","","","","","","","null","","273.80000001192093","","1","0","null","null","arrowup","[0.325,0.675,0.15,0.85]","","",""
"sailing-trial","383","1390947","0.0-11.0-342.0","","","","false","","","","","","","","","","17.899999976158142","","104.20000004768372","","3","1","arrowright","1","arrowright","[0.325,0.675,0.15,0.85]","","",""
"sailing-trial","384","1393414","0.0-11.0-343.0","","","","false","","","","","","","","","","null","","106","","0","0","null","null","arrowup","[0.325,0.675,0.15,0.85]","","",""
"sailing-trial","385","1396334","0.0-11.0-344.0","","","","false","","","","","","","","","","147.60000002384186","","26.900000035762787","","3","1","arrowright","1","arrowright","[0.325,0.675,0.15,0.85]","","",""
"sailing-trial","386","1398629","0.0-11.0-345.0","","","","false","","","","","","","","","","null","","39.10000002384186","","2","0","null","null","arrowup","[0.325,0.675,0.15,0.85]","","",""
"sailing-trial","387","1401889","0.0-11.0-346.0","","","","false","","","","","","","","","","121.70000004768372","","134.5","","3","0","arrowright","1","arrowright","[0.325,0.675,0.15,0.85]","","",""
"sailing-trial","388","1405556","0.0-11.0-347.0","","","","false","","","","","","","","","","null","","1535","","1","1","null","null","arrowup","[0.325,0.675,0.15,0.85]","","",""
"sailing-trial","389","1408071","0.0-11.0-348.0","","","","false","","","","","","","","","","183.5999999642372","","97.80000001192093","","1","0","arrowleft","0","arrowright","[0.15,0.85,0.325,0.675]","","",""
"sailing-trial","390","1410460","0.0-11.0-349.0","","","","false","","","","","","","","","","null","","749.8999999761581","","3","1","null","null","arrowup","[0.15,0.85,0.325,0.675]","","",""
"sailing-trial","391","1413713","0.0-11.0-350.0","","","","false","","","","","","","","","","234","","117.19999998807907","","3","1","arrowright","1","arrowright","[0.15,0.85,0.325,0.675]","","",""
"sailing-trial","392","1416320","0.0-11.0-351.0","","","","false","","","","","","","","","","null","","275.9000000357628","","2","0","null","null","arrowup","[0.15,0.85,0.325,0.675]","","",""
"sailing-trial","393","1418778","0.0-11.0-352.0","","","","false","","","","","","","","","","127.19999998807907","","83.5","","3","0","arrowright","1","arrowright","[0.15,0.85,0.325,0.675]","","",""
"sailing-trial","394","1422319","0.0-11.0-353.0","","","","false","","","","","","","","","","null","","1513.300000011921","","2","1","null","null","arrowup","[0.15,0.85,0.325,0.675]","","",""
"sailing-trial","395","1425337","0.0-11.0-354.0","","","","false","","","","","","","","","","376.10000002384186","","8.100000023841858","","2","1","arrowright","1","arrowleft","[0.15,0.85,0.325,0.675]","","",""
"sailing-trial","396","1427939","0.0-11.0-355.0","","","","false","","","","","","","","","","null","","597.1000000238419","","1","1","null","null","arrowup","[0.15,0.85,0.325,0.675]","","",""
"sailing-trial","397","1431125","0.0-11.0-356.0","","","","false","","","","","","","","","","428","","140.30000001192093","","1","1","arrowleft","0","arrowright","[0.15,0.85,0.325,0.675]","","",""
"sailing-trial","398","1433325","0.0-11.0-357.0","","","","false","","","","","","","","","","null","","461.39999997615814","","1","1","null","null","arrowup","[0.15,0.85,0.325,0.675]","","",""
"sailing-trial","399","1436562","0.0-11.0-358.0","","","","false","","","","","","","","","","198.5","","372.10000002384186","","1","1","arrowleft","0","arrowright","[0.15,0.85,0.325,0.675]","","",""
"sailing-trial","400","1440027","0.0-11.0-359.0","","","","false","","","","","","","","","","null","","536.3999999761581","","0","0","null","null","arrowup","[0.15,0.85,0.325,0.675]","","",""
"sailing-trial","401","1442689","0.0-11.0-360.0","","","","false","","","","","","","","","","474.60000002384186","","128.10000002384186","","2","0","arrowright","1","arrowleft","[0.15,0.85,0.325,0.675]","","",""
"sailing-trial","402","1444495","0.0-11.0-361.0","","","","false","","","","","","","","","","null","","622","","0","0","null","null","arrowup","[0.15,0.85,0.325,0.675]","","",""
"sailing-trial","403","1447503","0.0-11.0-362.0","","","","false","","","","","","","","","","205.30000001192093","","228.80000001192093","","3","1","arrowright","1","arrowright","[0.15,0.85,0.325,0.675]","","",""
"sailing-trial","404","1449621","0.0-11.0-363.0","","","","false","","","","","","","","","","null","","353.60000002384186","","2","1","null","null","arrowup","[0.15,0.85,0.325,0.675]","","",""
"sailing-trial","405","1452675","0.0-11.0-364.0","","","","false","","","","","","","","","","118.19999998807907","","174","","1","1","arrowleft","0","arrowright","[0.325,0.675,0.15,0.85]","","",""
"sailing-trial","406","1454258","0.0-11.0-365.0","","","","false","","","","","","","","","","null","","361.89999997615814","","0","0","null","null","arrowup","[0.325,0.675,0.15,0.85]","","",""
"sailing-trial","407","1457460","0.0-11.0-366.0","","","","false","","","","","","","","","","232.0999999642372","","376.89999997615814","","3","1","arrowright","1","arrowright","[0.325,0.675,0.15,0.85]","","",""
"sailing-trial","408","1458794","0.0-11.0-367.0","","","","false","","","","","","","","","","null","","134.0999999642372","","0","0","null","null","arrowup","[0.325,0.675,0.15,0.85]","","",""
"sailing-trial","409","1462164","0.0-11.0-368.0","","","","false","","","","","","","","","","168.20000004768372","","273.7999999523163","","3","1","arrowright","1","arrowright","[0.325,0.675,0.15,0.85]","","",""
"sailing-trial","410","1465209","0.0-11.0-369.0","","","","false","","","","","","","","","","null","","1803.3999999761581","","0","0","null","null","arrowup","[0.325,0.675,0.15,0.85]","","",""
"sailing-trial","411","1468486","0.0-11.0-370.0","","","","false","","","","","","","","","","237.60000002384186","","166.89999997615814","","3","1","arrowright","1","arrowright","[0.325,0.675,0.15,0.85]","","",""
"sailing-trial","412","1471087","0.0-11.0-371.0","","","","false","","","","","","","","","","null","","512.7999999523163","","1","1","null","null","arrowup","[0.325,0.675,0.15,0.85]","","",""
"sailing-trial","413","1474473","0.0-11.0-372.0","","","","false","","","","","","","","","","216.30000001192093","","333.4000000357628","","3","1","arrowright","1","arrowright","[0.325,0.675,0.15,0.85]","","",""
"sailing-trial","414","1477942","0.0-11.0-373.0","","","","false","","","","","","","","","","null","","1740.5999999642372","","3","1","null","null","arrowup","[0.325,0.675,0.15,0.85]","","",""
"sailing-trial","415","1481329","0.0-11.0-374.0","","","","false","","","","","","","","","","183.89999997615814","","618.1000000238419","","3","1","arrowright","1","arrowright","[0.325,0.675,0.15,0.85]","","",""
"sailing-trial","416","1483631","0.0-11.0-375.0","","","","false","","","","","","","","","","null","","653.2999999523163","","1","1","null","null","arrowup","[0.325,0.675,0.15,0.85]","","",""
"sailing-trial","417","1486632","0.0-11.0-376.0","","","","false","","","","","","","","","","280.69999998807907","","58.60000002384186","","3","1","arrowright","1","arrowright","[0.325,0.675,0.15,0.85]","","",""
"sailing-trial","418","1488916","0.0-11.0-377.0","","","","false","","","","","","","","","","null","","657.4000000357628","","2","1","null","null","arrowup","[0.325,0.675,0.15,0.85]","","",""
"sailing-trial","419","1492018","0.0-11.0-378.0","","","","false","","","","","","","","","","405.2000000476837","","22.19999998807907","","3","1","arrowright","1","arrowright","[0.325,0.675,0.15,0.85]","","",""
"sailing-trial","420","1493756","0.0-11.0-379.0","","","","false","","","","","","","","","","null","","56.09999996423721","","0","0","null","null","arrowup","[0.325,0.675,0.15,0.85]","","",""
"sailing-trial","421","1496453","0.0-11.0-380.0","","","","false","","","","","","","","","","66.09999996423721","","84.39999997615814","","3","1","arrowright","1","arrowright","[0.325,0.675,0.15,0.85]","","",""
"sailing-trial","422","1497860","0.0-11.0-381.0","","","","false","","","","","","","","","","null","","190.9000000357628","","1","0","null","null","arrowup","[0.325,0.675,0.15,0.85]","","",""
"sailing-trial","423","1501223","0.0-11.0-382.0","","","","false","","","","","","","","","","19.30000001192093","","388.5","","3","1","arrowright","1","arrowright","[0.15,0.85,0.325,0.675]","","",""
"sailing-trial","424","1503544","0.0-11.0-383.0","","","","false","","","","","","","","","","null","","320.89999997615814","","1","1","null","null","arrowup","[0.15,0.85,0.325,0.675]","","",""
"sailing-trial","425","1507895","0.0-11.0-384.0","","","","false","","","","","","","","","","590.9000000357628","","388.89999997615814","","3","1","arrowright","1","arrowright","[0.15,0.85,0.325,0.675]","","",""
"sailing-trial","426","1510349","0.0-11.0-385.0","","","","false","","","","","","","","","","null","","425.0999999642372","","2","1","null","null","arrowup","[0.15,0.85,0.325,0.675]","","",""
"sailing-trial","427","1514368","0.0-11.0-386.0","","","","false","","","","","","","","","","482.89999997615814","","170.9000000357628","","3","1","arrowright","1","arrowright","[0.15,0.85,0.325,0.675]","","",""
"sailing-trial","428","1516259","0.0-11.0-387.0","","","","false","","","","","","","","","","null","","255.5","","3","0","null","null","arrowup","[0.15,0.85,0.325,0.675]","","",""
"sailing-trial","429","1519304","0.0-11.0-388.0","","","","false","","","","","","","","","","166.10000002384186","","307.0999999642372","","3","1","arrowright","1","arrowright","[0.15,0.85,0.325,0.675]","","",""
"sailing-trial","430","1521639","0.0-11.0-389.0","","","","false","","","","","","","","","","null","","488.39999997615814","","2","1","null","null","arrowup","[0.15,0.85,0.325,0.675]","","",""
"sailing-trial","431","1524672","0.0-11.0-390.0","","","","false","","","","","","","","","","37.40000003576279","","865.8999999761581","","2","0","arrowright","1","arrowleft","[0.15,0.85,0.325,0.675]","","",""
"sailing-trial","432","1526442","0.0-11.0-391.0","","","","false","","","","","","","","","","null","","634.1999999880791","","3","0","null","null","arrowup","[0.15,0.85,0.325,0.675]","","",""
"sailing-trial","433","1530012","0.0-11.0-392.0","","","","false","","","","","","","","","","252.30000001192093","","366","","1","1","arrowleft","0","arrowright","[0.15,0.85,0.325,0.675]","","",""
"sailing-trial","434","1532205","0.0-11.0-393.0","","","","false","","","","","","","","","","null","","640.8000000119209","","3","0","null","null","arrowup","[0.15,0.85,0.325,0.675]","","",""
"sailing-trial","435","1535464","0.0-11.0-394.0","","","","false","","","","","","","","","","360.5999999642372","","348.19999998807907","","1","1","arrowleft","0","arrowright","[0.15,0.85,0.325,0.675]","","",""
"sailing-trial","436","1537087","0.0-11.0-395.0","","","","false","","","","","","","","","","null","","384.30000001192093","","2","0","null","null","arrowup","[0.15,0.85,0.325,0.675]","","",""
"sailing-trial","437","1540046","0.0-11.0-396.0","","","","false","","","","","","","","","","170.80000001192093","","378.2999999523163","","1","0","arrowleft","0","arrowright","[0.15,0.85,0.325,0.675]","","",""
"sailing-trial","438","1542603","0.0-11.0-397.0","","","","false","","","","","","","","","","null","","921.3999999761581","","1","1","null","null","arrowup","[0.15,0.85,0.325,0.675]","","",""
"sailing-trial","439","1545958","0.0-11.0-398.0","","","","false","","","","","","","","","","439.19999998807907","","374.5","","1","1","arrowleft","0","arrowright","[0.15,0.85,0.325,0.675]","","",""
"sailing-trial","440","1548425","0.0-11.0-399.0","","","","false","","","","","","","","","","null","","732.3999999761581","","0","1","null","null","arrowup","[0.15,0.85,0.325,0.675]","","",""
"instructions","441","1553771","0.0-12.0","","","","","","","","","","5345.899999976158","","","","","","","","","","","","","","","","[{""page_index"":0,""viewing_time"":5345.699999988079}]"
"survey-debrief","442","1576385","0.0-13.0","","","","","","","","","","22611.5","","","","","","","","","","","","","","{""difficulty"":""5"",""fun"":""2"",""clarity"":""5"",""strategy"":""no"",""feedback"":""no""}","",""
