"trial_type","trial_index","time_elapsed","internal_node_id","value","metadata","success","timeout","failed_images","failed_audio","failed_video","browser_interaction","low_quality","rt","stimulus","response","button_pressed","island_rt","island_response","boat_rt","boat_response","boat","reward","island_key","island","boat_key","reward_probabilities","responses","num_errors","view_history"
"pavlovia","0","5","0.0-0.0","","","","","","","","","","","","","","","","","","","","","","","","","",""
"call-function","1","6","0.0-1.0","","{""task_version"":""sailing_part1_v1"",""task_condition"":""good"",""boats"":[""B"",""A"",""C"",""D""],""boats_demo"":[""G"",""F"",""H"",""E""],""islands"":[""A"",""B""],""subject_id"":""13793"",""age"":""8"",""gender"":""Male""}","","","","","","","","","","","","","","","","","","","","","","","",""
"preload","2","5315","0.0-2.0","","","true","false","[]","[]","[]","[{""event"":""fullscreenenter"",""trial"":3,""time"":12042}]","false","","","","","","","","","","","","","","","","",""
"fullscreen","3","13038","0.0-3.0","","","true","","","","","","","","","","","","","","","","","","","","","","",""
"audio-keyboard-response","4","15857","0.0-4.0-0.0","","","","","","","","","","2130.6666666666665","audio/beep_loop.wav"," ","","","","","","","","","","","","","",""
"audio-test","5","24521","0.0-4.0-1.0","","","","","","","","","","null","audio/turtle.mp3","","3","","","","","","","","","","","","",""
"audio-test","6","27409","0.0-4.0-2.0","","","","","","","","","","null","audio/shark.mp3","","2","","","","","","","","","","","","",""
"sailing-instructions","7","58117","0.0-5.0-0.0-0.0","","","","","","","","","","","","","","null","null","null","null","null","null","","","","","","",""
"sailing-trial","8","63348","0.0-5.0-0.0-1.0-0.0","","","","false","","","","","","","","","","4097.60000000149","","null","","null","null","arrowleft","0","null","null","","",""
"sailing-trial","9","65732","0.0-5.0-0.0-1.0-1.0","","","","false","","","","","","","","","","1275.2000000029802","","null","","null","null","arrowright","1","null","null","","",""
"sailing-trial","10","73210","0.0-5.0-0.0-1.0-2.0","","","","false","","","","","","","","","","6333.5","","null","","null","null","arrowleft","0","null","null","","",""
"sailing-instructions","11","116516","0.0-5.0-0.0-2.0","","","","","","","","","","","","","","null","null","null","null","0","null","","","","","","",""
"sailing-trial","12","126650","0.0-5.0-0.0-3.0-0.0","","","","false","","","","","","","","","","null","","3680.60000000149","","2","1","null","null","arrowleft","[1,1,1,1]","","",""
"sailing-trial","13","135924","0.0-5.0-0.0-3.0-1.0","","","","false","","","","","","","","","","null","","4356.5","","3","1","null","null","arrowright","[1,1,1,1]","","",""
"sailing-trial","14","142407","0.0-5.0-0.0-3.0-2.0","","","","false","","","","","","","","","","null","","2951.6999999955297","","3","0","null","null","arrowright","[0,0,0,0]","","",""
"sailing-instructions","15","150053","0.0-5.0-0.0-4.0","","","","","","","","","","","","","","null","null","null","null","null","null","","","","","","",""
"sailing-comprehension","16","202917","0.0-5.0-0.0-5.0","","","","","","","","","","49447.89999999851","","","","","","","","","","","","","","[""true"",""true"",""false"",""true""]","0",""
"sailing-instructions","17","267938","0.0-6.0-0.0-0.0","","","","","","","","","","","","","","null","null","null","null","null","null","","","","","","",""
"sailing-comprehension","18","297425","0.0-6.0-0.0-1.0","","","","","","","","","","26981.5","","","","","","","","","","","","","","[""true"",""false"",""true""]","0",""
"sailing-instructions","19","312260","0.0-7.0-0.0-0.0","","","","","","","","","","","","","","null","null","null","null","null","null","","","","","","",""
"sailing-trial","20","318882","0.0-7.0-0.0-1.0-0.0","","","","false","","","","","","","","","","null","","3576.1999999955297","","0","0","null","null","arrowup","[0.2,0.8,0.2,0.8]","","",""
"sailing-trial","21","323238","0.0-7.0-0.0-1.0-1.0","","","","false","","","","","","","","","","null","","2767.39999999851","","1","1","null","null","arrowup","[0.2,0.8,0.2,0.8]","","",""
"sailing-trial","22","326328","0.0-7.0-0.0-1.0-2.0","","","","false","","","","","","","","","","null","","24.69999999552965","","2","0","null","null","arrowup","[0.2,0.8,0.2,0.8]","","",""
"sailing-trial","23","329278","0.0-7.0-0.0-1.0-3.0","","","","false","","","","","","","","","","null","","262","","3","1","null","null","arrowup","[0.2,0.8,0.2,0.8]","","",""
"sailing-comprehension","24","342374","0.0-7.0-0.0-2.0","","","","","","","","","","7882","","","","","","","","","","","","","","[""false""]","0",""
"sailing-instructions","25","352386","0.0-8.0-0.0-0.0","","","","","","","","","","","","","","null","null","null","null","null","null","","","","","","",""
"sailing-comprehension","26","365587","0.0-8.0-0.0-1.0","","","","","","","","","","10918.60000000149","","","","","","","","","","","","","","[""true""]","0",""
"sailing-instructions","27","403138","0.0-9.0-0.0-0.0","","","","","","","","","","","","","","null","null","null","null","null","null","","","","","","",""
"sailing-trial","28","409551","0.0-9.0-0.0-1.0-0.0","","","","false","","","","","","","","","","1227.6000000014901","","746.2000000029802","","2","0","arrowright","1","arrowleft","[0.2,0.8,0.2,0.8]","","",""
"sailing-trial","29","417864","0.0-9.0-0.0-1.0-1.0","","","","false","","","","","","","","","","2175.6999999955297","","622.8000000044703","","1","1","arrowleft","0","arrowright","[0.2,0.8,0.2,0.8]","","",""
"sailing-trial","30","423194","0.0-9.0-0.0-1.0-2.0","","","","false","","","","","","","","","","null","","2344.6999999955297","","0","0","null","null","arrowup","[0.2,0.8,0.2,0.8]","","",""
"sailing-trial","31","430775","0.0-9.0-0.0-1.0-3.0","","","","false","","","","","","","","","","1735.5","","934.1000000014901","","3","1","arrowright","1","arrowright","[0.2,0.8,0.2,0.8]","","",""
"sailing-trial","32","435356","0.0-9.0-0.0-1.0-4.0","","","","false","","","","","","","","","","null","","1957","","3","1","null","null","arrowup","[0.2,0.8,0.2,0.8]","","",""
"sailing-trial","33","440722","0.0-9.0-0.0-1.0-5.0","","","","false","","","","","","","","","","1103.7000000029802","","547.3999999985099","","3","1","arrowright","1","arrowright","[0.2,0.8,0.2,0.8]","","",""
"sailing-instructions","34","466073","0.0-10.0","","","","","","","","","","","","","","null","null","null","null","null","null","","","","","","",""
"sailing-trial","35","475201","0.0-11.0-0.0","","","","false","","","","","","","","","","2537.5","","680.7000000029802","","2","1","arrowright","1","arrowleft","[0.675,0.325,0.85,0.15]","","",""
"sailing-trial","36","479550","0.0-11.0-1.0","","","","false","","","","","","","","","","null","","1580.3000000044703","","1","1","null","null","arrowup","[0.675,0.325,0.85,0.15]","","",""
"sailing-trial","37","485521","0.0-11.0-2.0","","","","false","","","","","","","","","","1151.1000000014901","","1084.8000000044703","","0","0","arrowleft","0","arrowleft","[0.675,0.325,0.85,0.15]","","",""
"sailing-trial","38","489259","0.0-11.0-3.0","","","","false","","","","","","","","","","null","","1180.6000000014901","","2","1","null","null","arrowup","[0.675,0.325,0.85,0.15]","","",""
"sailing-trial","39","493890","0.0-11.0-4.0","","","","false","","","","","","","","","","903.6000000014901","","600.6999999955297","","3","0","arrowright","1","arrowright","[0.675,0.325,0.85,0.15]","","",""
"sailing-trial","40","498205","0.0-11.0-5.0","","","","false","","","","","","","","","","null","","1930.6999999955297","","2","1","null","null","arrowup","[0.675,0.325,0.85,0.15]","","",""
"sailing-trial","41","504189","0.0-11.0-6.0","","","","false","","","","","","","","","","1825.0999999940395","","724.7999999970198","","2","1","arrowright","1","arrowleft","[0.675,0.325,0.85,0.15]","","",""
"sailing-trial","42","508667","0.0-11.0-7.0","","","","false","","","","","","","","","","null","","2370.2000000029802","","2","1","null","null","arrowup","[0.675,0.325,0.85,0.15]","","",""
"sailing-trial","43","513458","0.0-11.0-8.0","","","","false","","","","","","","","","","1059.5","","833.8999999985099","","1","0","arrowleft","0","arrowright","[0.675,0.325,0.85,0.15]","","",""
"sailing-trial","44","517967","0.0-11.0-9.0","","","","false","","","","","","","","","","null","","1976.6999999955297","","0","1","null","null","arrowup","[0.675,0.325,0.85,0.15]","","",""
"sailing-trial","45","523478","0.0-11.0-10.0","","","","false","","","","","","","","","","1055","","1190.8000000044703","","0","1","arrowleft","0","arrowleft","[0.675,0.325,0.85,0.15]","","",""
"sailing-trial","46","527209","0.0-11.0-11.0","","","","false","","","","","","","","","","null","","1329.2000000029802","","1","1","null","null","arrowup","[0.675,0.325,0.85,0.15]","","",""
"sailing-trial","47","531775","0.0-11.0-12.0","","","","false","","","","","","","","","","800.8999999985099","","514.8000000044703","","2","1","arrowright","1","arrowleft","[0.675,0.325,0.85,0.15]","","",""
"sailing-trial","48","535673","0.0-11.0-13.0","","","","false","","","","","","","","","","null","","1840.2999999970198","","2","1","null","null","arrowup","[0.675,0.325,0.85,0.15]","","",""
"sailing-trial","49","541553","0.0-11.0-14.0","","","","false","","","","","","","","","","1428.2000000029802","","1194.0999999940395","","0","1","arrowleft","0","arrowleft","[0.675,0.325,0.85,0.15]","","",""
"sailing-trial","50","544845","0.0-11.0-15.0","","","","false","","","","","","","","","","null","","1788.8999999985099","","3","0","null","null","arrowup","[0.675,0.325,0.85,0.15]","","",""
"sailing-trial","51","550979","0.0-11.0-16.0","","","","false","","","","","","","","","","1696.8000000044703","","1398.2000000029802","","0","1","arrowleft","0","arrowleft","[0.675,0.325,0.85,0.15]","","",""
"sailing-trial","52","554526","0.0-11.0-17.0","","","","false","","","","","","","","","","null","","1514","","0","1","null","null","arrowup","[0.675,0.325,0.85,0.15]","","",""
"sailing-trial","53","558823","0.0-11.0-18.0","","","","false","","","","","","","","","","846.1000000014901","","364.6000000014901","","2","1","arrowright","1","arrowleft","[0.675,0.325,0.85,0.15]","","",""
"sailing-trial","54","562109","0.0-11.0-19.0","","","","false","","","","","","","","","","null","","1142.8000000044703","","2","1","null","null","arrowup","[0.675,0.325,0.85,0.15]","","",""
"sailing-trial","55","566786","0.0-11.0-20.0","","","","false","","","","","","","","","","1343.9000000059605","","297.8999999985099","","2","1","arrowright","1","arrowleft","[0.675,0.325,0.85,0.15]","","",""
"sailing-trial","56","570655","0.0-11.0-21.0","","","","false","","","","","","","","","","null","","2264.60000000149","","2","0","null","null","arrowup","[0.675,0.325,0.85,0.15]","","",""
"sailing-trial","57","575552","0.0-11.0-22.0","","","","false","","","","","","","","","","1521.1000000014901","","225.70000000298023","","3","0","arrowright","1","arrowright","[0.675,0.325,0.85,0.15]","","",""
"sailing-trial","58","580667","0.0-11.0-23.0","","","","false","","","","","","","","","","null","","2704.10000000149","","0","1","null","null","arrowup","[0.675,0.325,0.85,0.15]","","",""
"sailing-trial","59","586207","0.0-11.0-24.0","","","","false","","","","","","","","","","1444.2999999970198","","1207.6000000014901","","0","0","arrowleft","0","arrowleft","[0.15,0.85,0.325,0.675]","","",""
"sailing-trial","60","590909","0.0-11.0-25.0","","","","false","","","","","","","","","","null","","2049.5","","2","1","null","null","arrowup","[0.15,0.85,0.325,0.675]","","",""
"sailing-trial","61","595647","0.0-11.0-26.0","","","","false","","","","","","","","","","1394.3000000044703","","854.3999999985099","","0","0","arrowleft","0","arrowleft","[0.15,0.85,0.325,0.675]","","",""
"sailing-trial","62","600420","0.0-11.0-27.0","","","","false","","","","","","","","","","null","","1407.2999999970198","","2","1","null","null","arrowup","[0.15,0.85,0.325,0.675]","","",""
"sailing-trial","63","606119","0.0-11.0-28.0","","","","false","","","","","","","","","","1209.5999999940395","","1189","","1","1","arrowleft","0","arrowright","[0.15,0.85,0.325,0.675]","","",""
"sailing-trial","64","610281","0.0-11.0-29.0","","","","false","","","","","","","","","","null","","1487.7999999970198","","3","1","null","null","arrowup","[0.15,0.85,0.325,0.675]","","",""
"sailing-trial","65","617398","0.0-11.0-30.0","","","","false","","","","","","","","","","1589.6000000014901","","1679.8000000044703","","1","1","arrowleft","0","arrowright","[0.15,0.85,0.325,0.675]","","",""
"sailing-trial","66","621840","0.0-11.0-31.0","","","","false","","","","","","","","","","null","","2180.7999999970198","","0","0","null","null","arrowup","[0.15,0.85,0.325,0.675]","","",""
"sailing-trial","67","626722","0.0-11.0-32.0","","","","false","","","","","","","","","","1342.7999999970198","","115.69999999552965","","1","1","arrowleft","0","arrowright","[0.15,0.85,0.325,0.675]","","",""
"sailing-trial","68","630224","0.0-11.0-33.0","","","","false","","","","","","","","","","null","","1786.5","","0","0","null","null","arrowup","[0.15,0.85,0.325,0.675]","","",""
"sailing-trial","69","635338","0.0-11.0-34.0","","","","false","","","","","","","","","","925.6000000014901","","871.1000000014901","","3","1","arrowright","1","arrowright","[0.15,0.85,0.325,0.675]","","",""
"sailing-trial","70","639002","0.0-11.0-35.0","","","","false","","","","","","","","","","null","","1702.6000000014901","","1","1","null","null","arrowup","[0.15,0.85,0.325,0.675]","","",""
"sailing-trial","71","644036","0.0-11.0-36.0","","","","false","","","","","","","","","","723.5","","262.1000000014901","","3","0","arrowright","1","arrowright","[0.15,0.85,0.325,0.675]","","",""
"sailing-trial","72","648717","0.0-11.0-37.0","","","","false","","","","","","","","","","null","","2071","","2","0","null","null","arrowup","[0.15,0.85,0.325,0.675]","","",""
"sailing-trial","73","654412","0.0-11.0-38.0","","","","false","","","","","","","","","","927.3000000044703","","699.7999999970198","","1","1","arrowleft","0","arrowright","[0.15,0.85,0.325,0.675]","","",""
"sailing-trial","74","658790","0.0-11.0-39.0","","","","false","","","","","","","","","","null","","1906.2000000029802","","3","1","null","null","arrowup","[0.15,0.85,0.325,0.675]","","",""
"sailing-trial","75","667995","0.0-11.0-40.0","","","","false","","","","","","","","","","2612.39999999851","","3037.89999999851","","3","1","arrowright","1","arrowright","[0.325,0.675,0.15,0.85]","","",""
"sailing-trial","76","671200","0.0-11.0-41.0","","","","false","","","","","","","","","","null","","1428.0999999940395","","0","0","null","null","arrowup","[0.325,0.675,0.15,0.85]","","",""
"sailing-trial","77","675763","0.0-11.0-42.0","","","","false","","","","","","","","","","1016.1000000014901","","258.19999999552965","","3","1","arrowright","1","arrowright","[0.325,0.675,0.15,0.85]","","",""
"sailing-trial","78","679447","0.0-11.0-43.0","","","","false","","","","","","","","","","null","","1485.7999999970198","","1","1","null","null","arrowup","[0.325,0.675,0.15,0.85]","","",""
"sailing-trial","79","684411","0.0-11.0-44.0","","","","false","","","","","","","","","","1190.1999999955297","","454.5","","1","1","arrowleft","0","arrowright","[0.325,0.675,0.15,0.85]","","",""
"sailing-trial","80","688825","0.0-11.0-45.0","","","","false","","","","","","","","","","null","","1646.2999999970198","","3","1","null","null","arrowup","[0.325,0.675,0.15,0.85]","","",""
"sailing-trial","81","694088","0.0-11.0-46.0","","","","false","","","","","","","","","","823.0999999940395","","721.8999999985099","","3","1","arrowright","1","arrowright","[0.325,0.675,0.15,0.85]","","",""
"sailing-trial","82","696919","0.0-11.0-47.0","","","","false","","","","","","","","","","null","","1315.5","","0","0","null","null","arrowup","[0.325,0.675,0.15,0.85]","","",""
"sailing-trial","83","702402","0.0-11.0-48.0","","","","false","","","","","","","","","","1526.5999999940395","","564.5999999940395","","1","1","arrowleft","0","arrowright","[0.325,0.675,0.15,0.85]","","",""
"sailing-trial","84","719211","0.0-11.0-49.0","","","","true","","","","","","","","","","null","","1801.1999999955297","","0","1","null","null","arrowup","[0.325,0.675,0.15,0.85]","","",""
"sailing-trial","85","724958","0.0-11.0-50.0","","","","false","","","","","","","","","","1729","","556.5","","3","1","arrowright","1","arrowright","[0.325,0.675,0.15,0.85]","","",""
"sailing-trial","86","728607","0.0-11.0-51.0","","","","false","","","","","","","","","","null","","1710.7999999970198","","0","0","null","null","arrowup","[0.325,0.675,0.15,0.85]","","",""
"sailing-trial","87","734481","0.0-11.0-52.0","","","","false","","","","","","","","","","1249.5","","1373.6999999955297","","1","0","arrowleft","0","arrowright","[0.325,0.675,0.15,0.85]","","",""
"sailing-trial","88","738880","0.0-11.0-53.0","","","","false","","","","","","","","","","null","","2382.3000000044703","","0","0","null","null","arrowup","[0.325,0.675,0.15,0.85]","","",""
"sailing-trial","89","744931","0.0-11.0-54.0","","","","false","","","","","","","","","","1469.6000000014901","","221.40000000596046","","3","1","arrowright","1","arrowright","[0.325,0.675,0.15,0.85]","","",""
"sailing-trial","90","750335","0.0-11.0-55.0","","","","false","","","","","","","","","","null","","3413.1999999955297","","2","0","null","null","arrowup","[0.325,0.675,0.15,0.85]","","",""
"sailing-trial","91","756439","0.0-11.0-56.0","","","","false","","","","","","","","","","2015.8999999985099","","754.7999999970198","","1","1","arrowleft","0","arrowright","[0.15,0.85,0.325,0.675]","","",""
"sailing-trial","92","761728","0.0-11.0-57.0","","","","false","","","","","","","","","","null","","2965.10000000149","","3","0","null","null","arrowup","[0.15,0.85,0.325,0.675]","","",""
"sailing-trial","93","768285","0.0-11.0-58.0","","","","false","","","","","","","","","","2010.1000000014901","","483.30000000447035","","2","0","arrowright","1","arrowleft","[0.15,0.85,0.325,0.675]","","",""
"sailing-trial","94","772032","0.0-11.0-59.0","","","","false","","","","","","","","","","null","","2031.2000000029802","","1","0","null","null","arrowup","[0.15,0.85,0.325,0.675]","","",""
"sailing-trial","95","777518","0.0-11.0-60.0","","","","false","","","","","","","","","","1705.1000000014901","","281.69999999552965","","3","0","arrowright","1","arrowright","[0.15,0.85,0.325,0.675]","","",""
"sailing-trial","96","783808","0.0-11.0-61.0","","","","false","","","","","","","","","","null","","3697.89999999851","","1","1","null","null","arrowup","[0.15,0.85,0.325,0.675]","","",""
"sailing-trial","97","790088","0.0-11.0-62.0","","","","false","","","","","","","","","","1805.8999999985099","","962.7999999970198","","2","1","arrowright","1","arrowleft","[0.15,0.85,0.325,0.675]","","",""
"sailing-trial","98","794873","0.0-11.0-63.0","","","","false","","","","","","","","","","null","","1776.6000000014901","","2","0","null","null","arrowup","[0.15,0.85,0.325,0.675]","","",""
"sailing-trial","99","802559","0.0-11.0-64.0","","","","false","","","","","","","","","","3925.2000000029802","","843.7000000029802","","3","0","arrowright","1","arrowright","[0.15,0.85,0.325,0.675]","","",""
"sailing-trial","100","806945","0.0-11.0-65.0","","","","false","","","","","","","","","","null","","2272.5","","3","0","null","null","arrowup","[0.15,0.85,0.325,0.675]","","",""
"sailing-trial","101","819106","0.0-11.0-66.0","","","","false","","","","","","","","","","7149","","779.8999999985099","","1","1","arrowleft","0","arrowright","[0.15,0.85,0.325,0.675]","","",""
"sailing-trial","102","832152","0.0-11.0-67.0","","","","false","","","","","","","","","","null","","6441.20000000298","","3","1","null","null","arrowup","[0.15,0.85,0.325,0.675]","","",""
"sailing-trial","103","845841","0.0-11.0-68.0","","","","false","","","","","","","","","","1059.1999999955297","","2027.3000000044703","","2","1","arrowright","1","arrowleft","[0.15,0.85,0.325,0.675]","","",""
"sailing-trial","104","850788","0.0-11.0-69.0","","","","false","","","","","","","","","","null","","2202.60000000149","","1","1","null","null","arrowup","[0.15,0.85,0.325,0.675]","","",""
"sailing-trial","105","858620","0.0-11.0-70.0","","","","false","","","","","","","","","","1763.5","","1199","","1","1","arrowleft","0","arrowright","[0.15,0.85,0.325,0.675]","","",""
"sailing-trial","106","867549","0.0-11.0-71.0","","","","false","","","","[{""event"":""fullscreenenter"",""trial"":3,""time"":12042},{""event"":""fullscreenexit"",""trial"":107,""time"":889311}]","false","","","","","null","","5905.5999999940395","","1","0","null","null","arrowup","[0.15,0.85,0.325,0.675]","","",""
"sailing-trial","107","893836","0.0-11.0-72.0","","","","true","","","","","","","","","","2400.2999999970198","","7872.69999999553","","1","1","arrowleft","0","arrowright","[0.325,0.675,0.15,0.85]","","",""
"sailing-trial","108","900013","0.0-11.0-73.0","","","","false","","","","","","","","","","null","","4751.80000000447","","2","0","null","null","arrowup","[0.325,0.675,0.15,0.85]","","",""
"sailing-trial","109","907077","0.0-11.0-74.0","","","","false","","","","","","","","","","2960.6999999955297","","340.80000000447035","","2","1","arrowright","1","arrowleft","[0.325,0.675,0.15,0.85]","","",""
"sailing-trial","110","912494","0.0-11.0-75.0","","","","false","","","","","","","","","","null","","2646.5","","0","1","null","null","arrowup","[0.325,0.675,0.15,0.85]","","",""
"sailing-trial","111","921108","0.0-11.0-76.0","","","","false","","","","","","","","","","2716.10000000149","","2005.2999999970198","","3","1","arrowright","1","arrowright","[0.325,0.675,0.15,0.85]","","",""
"sailing-trial","112","926254","0.0-11.0-77.0","","","","false","","","","","","","","","","null","","2359.10000000149","","3","1","null","null","arrowup","[0.325,0.675,0.15,0.85]","","",""
"sailing-trial","113","935562","0.0-11.0-78.0","","","","false","","","","","","","","","","3517.89999999851","","2658.89999999851","","3","1","arrowright","1","arrowright","[0.325,0.675,0.15,0.85]","","",""
"sailing-trial","114","939996","0.0-11.0-79.0","","","","false","","","","","","","","","","null","","1267.1999999955297","","3","1","null","null","arrowup","[0.325,0.675,0.15,0.85]","","",""
"sailing-trial","115","947472","0.0-11.0-80.0","","","","false","","","","","","","","","","1682.5","","1611.8999999985099","","1","1","arrowleft","0","arrowright","[0.325,0.675,0.15,0.85]","","",""
"sailing-trial","116","952816","0.0-11.0-81.0","","","","false","","","","","","","","","","null","","3407.60000000149","","0","0","null","null","arrowup","[0.325,0.675,0.15,0.85]","","",""
"sailing-trial","117","961537","0.0-11.0-82.0","","","","false","","","","","","","","","","3276.10000000149","","1397.7999999970198","","2","0","arrowright","1","arrowleft","[0.325,0.675,0.15,0.85]","","",""
"sailing-trial","118","976080","0.0-11.0-83.0","","","","false","","","","","","","","","","null","","6104.89999999851","","0","1","null","null","arrowup","[0.325,0.675,0.15,0.85]","","",""
"sailing-trial","119","982487","0.0-11.0-84.0","","","","false","","","","","","","","","","1419.3999999985099","","1032.1000000014901","","3","1","arrowright","1","arrowright","[0.325,0.675,0.15,0.85]","","",""
"sailing-trial","120","988941","0.0-11.0-85.0","","","","false","","","","","","","","","","null","","4727.5","","3","0","null","null","arrowup","[0.325,0.675,0.15,0.85]","","",""
"sailing-trial","121","995884","0.0-11.0-86.0","","","","false","","","","","","","","","","2257","","1002","","0","1","arrowleft","0","arrowleft","[0.325,0.675,0.15,0.85]","","",""
"sailing-trial","122","1000945","0.0-11.0-87.0","","","","false","","","","","","","","","","null","","2637","","2","0","null","null","arrowup","[0.325,0.675,0.15,0.85]","","",""
"sailing-trial","123","1007792","0.0-11.0-88.0","","","","false","","","","","","","","","","2139.89999999851","","563.7000000029802","","3","1","arrowright","1","arrowright","[0.15,0.85,0.325,0.675]","","",""
"sailing-trial","124","1014058","0.0-11.0-89.0","","","","false","","","","","","","","","","null","","2380.9000000059605","","3","1","null","null","arrowup","[0.15,0.85,0.325,0.675]","","",""
"sailing-trial","125","1020398","0.0-11.0-90.0","","","","false","","","","","","","","","","1695.2000000029802","","895.6000000014901","","2","0","arrowright","1","arrowleft","[0.15,0.85,0.325,0.675]","","",""
"sailing-trial","126","1024669","0.0-11.0-91.0","","","","false","","","","","","","","","","null","","2144.5","","3","1","null","null","arrowup","[0.15,0.85,0.325,0.675]","","",""
"sailing-trial","127","1029946","0.0-11.0-92.0","","","","false","","","","","","","","","","1358.3999999985099","","443.1000000014901","","3","1","arrowright","1","arrowright","[0.15,0.85,0.325,0.675]","","",""
"sailing-trial","128","1035470","0.0-11.0-93.0","","","","false","","","","","","","","","","null","","4435.30000000447","","3","0","null","null","arrowup","[0.15,0.85,0.325,0.675]","","",""
"sailing-trial","129","1041091","0.0-11.0-94.0","","","","false","","","","","","","","","","1313.6000000014901","","208.60000000149012","","1","1","arrowleft","0","arrowright","[0.15,0.85,0.325,0.675]","","",""
"sailing-trial","130","1045136","0.0-11.0-95.0","","","","false","","","","","","","","","","null","","1783.5","","3","0","null","null","arrowup","[0.15,0.85,0.325,0.675]","","",""
"sailing-trial","131","1050922","0.0-11.0-96.0","","","","false","","","","","","","","","","1052.1999999955297","","701.8999999985099","","2","0","arrowright","1","arrowleft","[0.15,0.85,0.325,0.675]","","",""
"sailing-trial","132","1055520","0.0-11.0-97.0","","","","false","","","","","","","","","","null","","1598.2000000029802","","2","1","null","null","arrowup","[0.15,0.85,0.325,0.675]","","",""
"sailing-trial","133","1060114","0.0-11.0-98.0","","","","false","","","","","","","","","","992.3999999985099","","5.799999997019768","","3","1","arrowright","1","arrowright","[0.15,0.85,0.325,0.675]","","",""
"sailing-trial","134","1063486","0.0-11.0-99.0","","","","false","","","","","","","","","","null","","1641.2999999970198","","2","0","null","null","arrowup","[0.15,0.85,0.325,0.675]","","",""
"sailing-trial","135","1068945","0.0-11.0-100.0","","","","false","","","","","","","","","","896.0999999940395","","528.5","","3","1","arrowright","1","arrowright","[0.15,0.85,0.325,0.675]","","",""
"sailing-trial","136","1073427","0.0-11.0-101.0","","","","false","","","","","","","","","","null","","2091.7000000029802","","1","1","null","null","arrowup","[0.15,0.85,0.325,0.675]","","",""
"sailing-trial","137","1077889","0.0-11.0-102.0","","","","false","","","","","","","","","","633.7999999970198","","561.2999999970198","","1","0","arrowleft","0","arrowright","[0.15,0.85,0.325,0.675]","","",""
"sailing-trial","138","1081760","0.0-11.0-103.0","","","","false","","","","","","","","","","null","","1909.2999999970198","","0","0","null","null","arrowup","[0.15,0.85,0.325,0.675]","","",""
"sailing-trial","139","1085951","0.0-11.0-104.0","","","","false","","","","","","","","","","1166.6000000014901","","323","","3","0","arrowright","1","arrowright","[0.675,0.325,0.85,0.15]","","",""
"sailing-trial","140","1090250","0.0-11.0-105.0","","","","false","","","","","","","","","","null","","2332.10000000149","","1","1","null","null","arrowup","[0.675,0.325,0.85,0.15]","","",""
"sailing-trial","141","1094222","0.0-11.0-106.0","","","","false","","","","[{""event"":""fullscreenenter"",""trial"":3,""time"":12042},{""event"":""fullscreenexit"",""trial"":107,""time"":889311},{""event"":""blur"",""trial"":142,""time"":1098004},{""event"":""focus"",""trial"":142,""time"":1102770}]","false","","","","","899.7000000029802","","158.5","","1","0","arrowleft","0","arrowright","[0.675,0.325,0.85,0.15]","","",""
"sailing-trial","142","1104908","0.0-11.0-107.0","","","","false","","","","","","","","","","null","","2314.7000000029802","","0","1","null","null","arrowup","[0.675,0.325,0.85,0.15]","","",""
"sailing-trial","143","1109089","0.0-11.0-108.0","","","","false","","","","","","","","","","1215.2999999970198","","110.29999999701977","","3","0","arrowright","1","arrowright","[0.675,0.325,0.85,0.15]","","",""
"sailing-trial","144","1113268","0.0-11.0-109.0","","","","false","","","","","","","","","","null","","1941.8999999985099","","1","1","null","null","arrowup","[0.675,0.325,0.85,0.15]","","",""
"sailing-trial","145","1118382","0.0-11.0-110.0","","","","false","","","","","","","","","","599.2999999970198","","1100.1000000014901","","2","1","arrowright","1","arrowleft","[0.675,0.325,0.85,0.15]","","",""
"sailing-trial","146","1121422","0.0-11.0-111.0","","","","false","","","","","","","","","","null","","1773.3999999985099","","1","0","null","null","arrowup","[0.675,0.325,0.85,0.15]","","",""
"sailing-trial","147","1126861","0.0-11.0-112.0","","","","false","","","","","","","","","","990.1000000014901","","1067.5","","0","1","arrowleft","0","arrowleft","[0.675,0.325,0.85,0.15]","","",""
"sailing-trial","148","1130400","0.0-11.0-113.0","","","","false","","","","","","","","","","null","","1649.1000000014901","","2","0","null","null","arrowup","[0.675,0.325,0.85,0.15]","","",""
"sailing-trial","149","1138574","0.0-11.0-114.0","","","","false","","","","","","","","","","1020","","150.80000000447035","","2","1","arrowright","1","arrowleft","[0.675,0.325,0.85,0.15]","","",""
"sailing-trial","150","1142431","0.0-11.0-115.0","","","","false","","","","","","","","","","null","","2171.39999999851","","1","0","null","null","arrowup","[0.675,0.325,0.85,0.15]","","",""
"sailing-trial","151","1147568","0.0-11.0-116.0","","","","false","","","","","","","","","","1087.7000000029802","","281.1000000014901","","2","1","arrowright","1","arrowleft","[0.675,0.325,0.85,0.15]","","",""
"sailing-trial","152","1156017","0.0-11.0-117.0","","","","false","","","","","","","","","","null","","6265.30000000447","","0","1","null","null","arrowup","[0.675,0.325,0.85,0.15]","","",""
"sailing-trial","153","1163550","0.0-11.0-118.0","","","","false","","","","","","","","","","1434.1999999955297","","2228","","3","0","arrowright","1","arrowright","[0.675,0.325,0.85,0.15]","","",""
"sailing-trial","154","1169691","0.0-11.0-119.0","","","","false","","","","","","","","","","null","","3132.5999999940395","","1","0","null","null","arrowup","[0.675,0.325,0.85,0.15]","","",""
"sailing-trial","155","1175427","0.0-11.0-120.0","","","","false","","","","","","","","","","978.3000000044703","","697.8999999985099","","0","0","arrowleft","0","arrowleft","[0.675,0.325,0.85,0.15]","","",""
"sailing-trial","156","1180204","0.0-11.0-121.0","","","","false","","","","","","","","","","null","","1750.8000000044703","","3","0","null","null","arrowup","[0.675,0.325,0.85,0.15]","","",""
"sailing-trial","157","1186918","0.0-11.0-122.0","","","","false","","","","","","","","","","863","","1839.1000000014901","","2","0","arrowright","1","arrowleft","[0.85,0.15,0.675,0.325]","","",""
"sailing-trial","158","1192827","0.0-11.0-123.0","","","","false","","","","","","","","","","null","","2041.6000000014901","","2","1","null","null","arrowup","[0.85,0.15,0.675,0.325]","","",""
"sailing-trial","159","1198309","0.0-11.0-124.0","","","","false","","","","","","","","","","1475.2999999970198","","340.1000000014901","","2","1","arrowright","1","arrowleft","[0.85,0.15,0.675,0.325]","","",""
"sailing-trial","160","1203077","0.0-11.0-125.0","","","","false","","","","","","","","","","null","","1750.2000000029802","","1","0","null","null","arrowup","[0.85,0.15,0.675,0.325]","","",""
"sailing-trial","161","1208973","0.0-11.0-126.0","","","","false","","","","","","","","","","876.1000000014901","","967","","2","0","arrowright","1","arrowleft","[0.85,0.15,0.675,0.325]","","",""
"sailing-trial","162","1212671","0.0-11.0-127.0","","","","false","","","","","","","","","","null","","1884.7999999970198","","2","0","null","null","arrowup","[0.85,0.15,0.675,0.325]","","",""
"sailing-trial","163","1217247","0.0-11.0-128.0","","","","false","","","","","","","","","","1356.6000000014901","","409","","3","0","arrowright","1","arrowright","[0.85,0.15,0.675,0.325]","","",""
"sailing-trial","164","1220959","0.0-11.0-129.0","","","","false","","","","","","","","","","null","","2154.60000000149","","3","0","null","null","arrowup","[0.85,0.15,0.675,0.325]","","",""
"sailing-trial","165","1230775","0.0-11.0-130.0","","","","false","","","","","","","","","","4031","","888.2000000029802","","2","1","arrowright","1","arrowleft","[0.85,0.15,0.675,0.325]","","",""
"sailing-trial","166","1239539","0.0-11.0-131.0","","","","false","","","","","","","","","","null","","5347.5","","0","1","null","null","arrowup","[0.85,0.15,0.675,0.325]","","",""
"sailing-trial","167","1250799","0.0-11.0-132.0","","","","false","","","","","","","","","","4341.10000000149","","2046.7999999970198","","2","1","arrowright","1","arrowleft","[0.85,0.15,0.675,0.325]","","",""
"sailing-trial","168","1259199","0.0-11.0-133.0","","","","false","","","","","","","","","","null","","4910.79999999702","","3","1","null","null","arrowup","[0.85,0.15,0.675,0.325]","","",""
"sailing-trial","169","1270718","0.0-11.0-134.0","","","","false","","","","","","","","","","7099.60000000149","","393.30000000447035","","2","0","arrowright","1","arrowleft","[0.85,0.15,0.675,0.325]","","",""
"sailing-trial","170","1275256","0.0-11.0-135.0","","","","false","","","","","","","","","","null","","1517.1999999955297","","3","0","null","null","arrowup","[0.85,0.15,0.675,0.325]","","",""
"sailing-trial","171","1281136","0.0-11.0-136.0","","","","false","","","","","","","","","","593","","1148.3999999985099","","1","0","arrowleft","0","arrowright","[0.85,0.15,0.675,0.325]","","",""
"sailing-trial","172","1287829","0.0-11.0-137.0","","","","false","","","","[{""event"":""fullscreenenter"",""trial"":3,""time"":12042},{""event"":""fullscreenexit"",""trial"":107,""time"":889311},{""event"":""blur"",""trial"":142,""time"":1098004},{""event"":""focus"",""trial"":142,""time"":1102770},{""event"":""blur"",""trial"":173,""time"":1292852}]","false","","","","","null","","3853","","1","1","null","null","arrowup","[0.85,0.15,0.675,0.325]","","",""
"sailing-trial","173","1293925","0.0-11.0-138.0","","","","false","","","","[{""event"":""fullscreenenter"",""trial"":3,""time"":12042},{""event"":""fullscreenexit"",""trial"":107,""time"":889311},{""event"":""blur"",""trial"":142,""time"":1098004},{""event"":""focus"",""trial"":142,""time"":1102770},{""event"":""blur"",""trial"":173,""time"":1292852},{""event"":""focus"",""trial"":174,""time"":1308020}]","false","","","","","930.5","","1120.8000000044703","","2","0","arrowright","1","arrowleft","[0.85,0.15,0.675,0.325]","","",""
"sailing-trial","174","1308930","0.0-11.0-139.0","","","","true","","","","","","","","","","null","","null","","null","null","null","null","null","[0.85,0.15,0.675,0.325]","","",""
"sailing-trial","175","1315466","0.0-11.0-140.0","","","","false","","","","","","","","","","2265.8000000044703","","249.90000000596046","","3","0","arrowright","1","arrowright","[0.85,0.15,0.675,0.325]","","",""
"sailing-trial","176","1323579","0.0-11.0-141.0","","","","false","","","","","","","","","","null","","3452.7999999970198","","3","1","null","null","arrowup","[0.85,0.15,0.675,0.325]","","",""
"sailing-trial","177","1328727","0.0-11.0-142.0","","","","false","","","","","","","","","","957","","55.5","","1","0","arrowleft","0","arrowright","[0.85,0.15,0.675,0.325]","","",""
"sailing-trial","178","1335005","0.0-11.0-143.0","","","","false","","","","","","","","","","null","","4117.70000000298","","0","1","null","null","arrowup","[0.85,0.15,0.675,0.325]","","",""
"sailing-trial","179","1342816","0.0-11.0-144.0","","","","false","","","","","","","","","","1803.3999999985099","","470.79999999701977","","2","1","arrowright","1","arrowleft","[0.675,0.325,0.85,0.15]","","",""
"sailing-trial","180","1347983","0.0-11.0-145.0","","","","false","","","","","","","","","","null","","2828.0999999940395","","3","0","null","null","arrowup","[0.675,0.325,0.85,0.15]","","",""
"sailing-trial","181","1354065","0.0-11.0-146.0","","","","false","","","","","","","","","","1644.4000000059605","","414.1000000014901","","1","0","arrowleft","0","arrowright","[0.675,0.325,0.85,0.15]","","",""
"sailing-trial","182","1358047","0.0-11.0-147.0","","","","false","","","","","","","","","","null","","1803.7000000029802","","1","0","null","null","arrowup","[0.675,0.325,0.85,0.15]","","",""
"sailing-trial","183","1363776","0.0-11.0-148.0","","","","false","","","","","","","","","","2016.3999999985099","","925.5","","2","0","arrowright","1","arrowleft","[0.675,0.325,0.85,0.15]","","",""
"sailing-trial","184","1368528","0.0-11.0-149.0","","","","false","","","","[{""event"":""fullscreenenter"",""trial"":3,""time"":12042},{""event"":""fullscreenexit"",""trial"":107,""time"":889311},{""event"":""blur"",""trial"":142,""time"":1098004},{""event"":""focus"",""trial"":142,""time"":1102770},{""event"":""blur"",""trial"":173,""time"":1292852},{""event"":""focus"",""trial"":174,""time"":1308020},{""event"":""blur"",""trial"":185,""time"":1372516}]","false","","","","","null","","3131.10000000149","","1","0","null","null","arrowup","[0.675,0.325,0.85,0.15]","","",""
"sailing-trial","185","1373953","0.0-11.0-150.0","","","","false","","","","[{""event"":""fullscreenenter"",""trial"":3,""time"":12042},{""event"":""fullscreenexit"",""trial"":107,""time"":889311},{""event"":""blur"",""trial"":142,""time"":1098004},{""event"":""focus"",""trial"":142,""time"":1102770},{""event"":""blur"",""trial"":173,""time"":1292852},{""event"":""focus"",""trial"":174,""time"":1308020},{""event"":""blur"",""trial"":185,""time"":1372516},{""event"":""focus"",""trial"":186,""time"":1378289}]","false","","","","","1111.3000000044703","","260.90000000596046","","0","0","arrowleft","0","arrowleft","[0.675,0.325,0.85,0.15]","","",""
"sailing-trial","186","1385117","0.0-11.0-151.0","","","","false","","","","","","","","","","null","","8155.29999999702","","1","0","null","null","arrowup","[0.675,0.325,0.85,0.15]","","",""
"sailing-trial","187","1392944","0.0-11.0-152.0","","","","false","","","","","","","","","","1339.7999999970198","","2476.60000000149","","3","0","arrowright","1","arrowright","[0.675,0.325,0.85,0.15]","","",""
"sailing-trial","188","1397791","0.0-11.0-153.0","","","","false","","","","","","","","","","null","","1836","","0","0","null","null","arrowup","[0.675,0.325,0.85,0.15]","","",""
"sailing-trial","189","1403488","0.0-11.0-154.0","","","","false","","","","","","","","","","1466.7000000029802","","1172.5999999940395","","3","0","arrowright","1","arrowright","[0.675,0.325,0.85,0.15]","","",""
"sailing-trial","190","1407598","0.0-11.0-155.0","","","","false","","","","","","","","","","null","","2014","","1","0","null","null","arrowup","[0.675,0.325,0.85,0.15]","","",""
"sailing-trial","191","1411984","0.0-11.0-156.0","","","","false","","","","","","","","","","1018.6000000014901","","244.20000000298023","","1","0","arrowleft","0","arrowright","[0.675,0.325,0.85,0.15]","","",""
"sailing-trial","192","1417729","0.0-11.0-157.0","","","","false","","","","","","","","","","null","","3062.39999999851","","1","1","null","null","arrowup","[0.675,0.325,0.85,0.15]","","",""
"sailing-trial","193","1421871","0.0-11.0-158.0","","","","false","","","","","","","","","","697.2000000029802","","351.70000000298023","","3","0","arrowright","1","arrowright","[0.675,0.325,0.85,0.15]","","",""
"sailing-trial","194","1425197","0.0-11.0-159.0","","","","false","","","","","","","","","","null","","1612.7999999970198","","1","0","null","null","arrowup","[0.675,0.325,0.85,0.15]","","",""
"sailing-trial","195","1429534","0.0-11.0-160.0","","","","false","","","","","","","","","","1265.5","","480.69999999552965","","0","0","arrowleft","0","arrowleft","[0.675,0.325,0.85,0.15]","","",""
"sailing-trial","196","1433386","0.0-11.0-161.0","","","","false","","","","","","","","","","null","","1900.7999999970198","","1","1","null","null","arrowup","[0.675,0.325,0.85,0.15]","","",""
"sailing-trial","197","1438783","0.0-11.0-162.0","","","","false","","","","[{""event"":""fullscreenenter"",""trial"":3,""time"":12042},{""event"":""fullscreenexit"",""trial"":107,""time"":889311},{""event"":""blur"",""trial"":142,""time"":1098004},{""event"":""focus"",""trial"":142,""time"":1102770},{""event"":""blur"",""trial"":173,""time"":1292852},{""event"":""focus"",""trial"":174,""time"":1308020},{""event"":""blur"",""trial"":185,""time"":1372516},{""event"":""focus"",""trial"":186,""time"":1378289},{""event"":""blur"",""trial"":198,""time"":1442256}]","false","","","","","1198.9000000059605","","672.6000000014901","","1","1","arrowleft","0","arrowright","[0.85,0.15,0.675,0.325]","","",""
"sailing-trial","198","1443599","0.0-11.0-163.0","","","","false","","","","[{""event"":""fullscreenenter"",""trial"":3,""time"":12042},{""event"":""fullscreenexit"",""trial"":107,""time"":889311},{""event"":""blur"",""trial"":142,""time"":1098004},{""event"":""focus"",""trial"":142,""time"":1102770},{""event"":""blur"",""trial"":173,""time"":1292852},{""event"":""focus"",""trial"":174,""time"":1308020},{""event"":""blur"",""trial"":185,""time"":1372516},{""event"":""focus"",""trial"":186,""time"":1378289},{""event"":""blur"",""trial"":198,""time"":1442256},{""event"":""focus"",""trial"":199,""time"":1449724}]","false","","","","","null","","1766.6999999955297","","2","0","null","null","arrowup","[0.85,0.15,0.675,0.325]","","",""
"sailing-trial","199","1456011","0.0-11.0-164.0","","","","false","","","","","","","","","","8191.10000000149","","200.39999999850988","","1","0","arrowleft","0","arrowright","[0.85,0.15,0.675,0.325]","","",""
"sailing-trial","200","1460703","0.0-11.0-165.0","","","","false","","","","","","","","","","null","","1694.2000000029802","","2","0","null","null","arrowup","[0.85,0.15,0.675,0.325]","","",""
"sailing-trial","201","1467551","0.0-11.0-166.0","","","","false","","","","","","","","","","2297.5999999940395","","814.2999999970198","","1","1","arrowleft","0","arrowright","[0.85,0.15,0.675,0.325]","","",""
"sailing-trial","202","1473648","0.0-11.0-167.0","","","","false","","","","","","","","","","null","","3803.3000000044703","","3","1","null","null","arrowup","[0.85,0.15,0.675,0.325]","","",""
"sailing-trial","203","1479104","0.0-11.0-168.0","","","","false","","","","","","","","","","1322.3999999985099","","1220.3999999985099","","1","0","arrowleft","0","arrowright","[0.85,0.15,0.675,0.325]","","",""
"sailing-trial","204","1482480","0.0-11.0-169.0","","","","false","","","","","","","","","","null","","1677.1000000014901","","3","0","null","null","arrowup","[0.85,0.15,0.675,0.325]","","",""
"sailing-trial","205","1487391","0.0-11.0-170.0","","","","false","","","","","","","","","","1353.3999999985099","","38.5","","1","0","arrowleft","0","arrowright","[0.85,0.15,0.675,0.325]","","",""
"sailing-trial","206","1491589","0.0-11.0-171.0","","","","false","","","","","","","","","","null","","1606.3999999985099","","0","1","null","null","arrowup","[0.85,0.15,0.675,0.325]","","",""
"sailing-trial","207","1496570","0.0-11.0-172.0","","","","false","","","","","","","","","","1412.6000000014901","","446","","0","1","arrowleft","0","arrowleft","[0.85,0.15,0.675,0.325]","","",""
"sailing-trial","208","1500240","0.0-11.0-173.0","","","","false","","","","","","","","","","null","","1756.5999999940395","","0","0","null","null","arrowup","[0.85,0.15,0.675,0.325]","","",""
"sailing-trial","209","1505800","0.0-11.0-174.0","","","","false","","","","","","","","","","1321.5","","1133.7000000029802","","0","1","arrowleft","0","arrowleft","[0.85,0.15,0.675,0.325]","","",""
"sailing-trial","210","1509865","0.0-11.0-175.0","","","","false","","","","","","","","","","null","","1854.1000000014901","","0","1","null","null","arrowup","[0.85,0.15,0.675,0.325]","","",""
"sailing-trial","211","1514816","0.0-11.0-176.0","","","","false","","","","","","","","","","1345.1000000014901","","93.29999999701977","","0","0","arrowleft","0","arrowleft","[0.85,0.15,0.675,0.325]","","",""
"sailing-trial","212","1518924","0.0-11.0-177.0","","","","false","","","","","","","","","","null","","1981.7000000029802","","0","1","null","null","arrowup","[0.85,0.15,0.675,0.325]","","",""
"sailing-trial","213","1524571","0.0-11.0-178.0","","","","false","","","","","","","","","","1182.8999999985099","","1118.1000000014901","","0","1","arrowleft","0","arrowleft","[0.85,0.15,0.675,0.325]","","",""
"sailing-trial","214","1529407","0.0-11.0-179.0","","","","false","","","","","","","","","","null","","2192.60000000149","","1","0","null","null","arrowup","[0.85,0.15,0.675,0.325]","","",""
"sailing-trial","215","1536634","0.0-11.0-180.0","","","","false","","","","","","","","","","1610.8000000044703","","2591.4000000059605","","0","1","arrowleft","0","arrowleft","[0.85,0.15,0.675,0.325]","","",""
"sailing-trial","216","1541951","0.0-11.0-181.0","","","","false","","","","","","","","","","null","","2306.10000000149","","1","0","null","null","arrowup","[0.85,0.15,0.675,0.325]","","",""
"sailing-trial","217","1547567","0.0-11.0-182.0","","","","false","","","","","","","","","","612.7999999970198","","2471.7000000029802","","0","0","arrowleft","0","arrowleft","[0.675,0.325,0.85,0.15]","","",""
"sailing-trial","218","1552160","0.0-11.0-183.0","","","","false","","","","","","","","","","null","","1952.3000000044703","","3","1","null","null","arrowup","[0.675,0.325,0.85,0.15]","","",""
"sailing-trial","219","1556478","0.0-11.0-184.0","","","","false","","","","","","","","","","1034.3999999985099","","160","","3","0","arrowright","1","arrowright","[0.675,0.325,0.85,0.15]","","",""
"sailing-trial","220","1559775","0.0-11.0-185.0","","","","false","","","","","","","","","","null","","1647.2000000029802","","1","0","null","null","arrowup","[0.675,0.325,0.85,0.15]","","",""
"sailing-trial","221","1565334","0.0-11.0-186.0","","","","false","","","","","","","","","","1117.2000000029802","","785.7999999970198","","0","1","arrowleft","0","arrowleft","[0.675,0.325,0.85,0.15]","","",""
"sailing-trial","222","1569543","0.0-11.0-187.0","","","","false","","","","","","","","","","null","","2223.39999999851","","3","0","null","null","arrowup","[0.675,0.325,0.85,0.15]","","",""
"sailing-trial","223","1574736","0.0-11.0-188.0","","","","false","","","","","","","","","","802","","942","","0","0","arrowleft","0","arrowleft","[0.675,0.325,0.85,0.15]","","",""
"sailing-trial","224","1577872","0.0-11.0-189.0","","","","false","","","","","","","","","","null","","1613.7999999970198","","2","0","null","null","arrowup","[0.675,0.325,0.85,0.15]","","",""
"sailing-trial","225","1583141","0.0-11.0-190.0","","","","false","","","","","","","","","","1016.8999999985099","","332.20000000298023","","0","1","arrowleft","0","arrowleft","[0.675,0.325,0.85,0.15]","","",""
"sailing-trial","226","1587507","0.0-11.0-191.0","","","","false","","","","","","","","","","null","","2181.6999999955297","","0","1","null","null","arrowup","[0.675,0.325,0.85,0.15]","","",""
"sailing-trial","227","1593286","0.0-11.0-192.0","","","","false","","","","","","","","","","1301.6000000014901","","1235.8999999985099","","0","1","arrowleft","0","arrowleft","[0.675,0.325,0.85,0.15]","","",""
"sailing-trial","228","1598553","0.0-11.0-193.0","","","","false","","","","","","","","","","null","","2244","","1","0","null","null","arrowup","[0.675,0.325,0.85,0.15]","","",""
"sailing-trial","229","1603585","0.0-11.0-194.0","","","","false","","","","","","","","","","722","","743.7999999970198","","0","0","arrowleft","0","arrowleft","[0.675,0.325,0.85,0.15]","","",""
"sailing-trial","230","1610896","0.0-11.0-195.0","","","","false","","","","","","","","","","null","","2203.1999999955297","","1","1","null","null","arrowup","[0.675,0.325,0.85,0.15]","","",""
"sailing-trial","231","1616011","0.0-11.0-196.0","","","","false","","","","","","","","","","926.1000000014901","","457.79999999701977","","0","1","arrowleft","0","arrowleft","[0.675,0.325,0.85,0.15]","","",""
"sailing-trial","232","1621691","0.0-11.0-197.0","","","","false","","","","","","","","","","null","","2668.89999999851","","1","0","null","null","arrowup","[0.675,0.325,0.85,0.15]","","",""
"sailing-trial","233","1627649","0.0-11.0-198.0","","","","false","","","","","","","","","","131.5","","1788.7999999970198","","0","0","arrowleft","0","arrowleft","[0.675,0.325,0.85,0.15]","","",""
"sailing-trial","234","1632385","0.0-11.0-199.0","","","","false","","","","","","","","","","null","","1723.6000000014901","","1","0","null","null","arrowup","[0.675,0.325,0.85,0.15]","","",""
"sailing-trial","235","1637097","0.0-11.0-200.0","","","","false","","","","","","","","","","745.6000000014901","","14.300000004470348","","0","1","arrowleft","0","arrowleft","[0.85,0.15,0.675,0.325]","","",""
"sailing-trial","236","1643228","0.0-11.0-201.0","","","","false","","","","","","","","","","null","","1805.3999999985099","","3","1","null","null","arrowup","[0.85,0.15,0.675,0.325]","","",""
"sailing-trial","237","1647613","0.0-11.0-202.0","","","","false","","","","","","","","","","939.6000000014901","","75.5","","0","1","arrowleft","0","arrowleft","[0.85,0.15,0.675,0.325]","","",""
"sailing-trial","238","1652792","0.0-11.0-203.0","","","","false","","","","","","","","","","null","","2171.89999999851","","1","0","null","null","arrowup","[0.85,0.15,0.675,0.325]","","",""
"sailing-trial","239","1657586","0.0-11.0-204.0","","","","false","","","","","","","","","","624.8000000044703","","174.69999999552965","","0","1","arrowleft","0","arrowleft","[0.85,0.15,0.675,0.325]","","",""
"sailing-trial","240","1662143","0.0-11.0-205.0","","","","false","","","","","","","","","","null","","2755.9000000059605","","0","0","null","null","arrowup","[0.85,0.15,0.675,0.325]","","",""
"sailing-trial","241","1668580","0.0-11.0-206.0","","","","false","","","","","","","","","","2094.4000000059605","","561","","0","1","arrowleft","0","arrowleft","[0.85,0.15,0.675,0.325]","","",""
"sailing-trial","242","1672712","0.0-11.0-207.0","","","","false","","","","","","","","","","null","","1878.5","","0","1","null","null","arrowup","[0.85,0.15,0.675,0.325]","","",""
"sailing-trial","243","1677592","0.0-11.0-208.0","","","","false","","","","","","","","","","1411.7000000029802","","10.399999998509884","","0","1","arrowleft","0","arrowleft","[0.85,0.15,0.675,0.325]","","",""
"sailing-trial","244","1680959","0.0-11.0-209.0","","","","false","","","","","","","","","","null","","1201.7000000029802","","2","1","null","null","arrowup","[0.85,0.15,0.675,0.325]","","",""
"sailing-trial","245","1687022","0.0-11.0-210.0","","","","false","","","","","","","","","","2074.1999999955297","","1034.2999999970198","","0","1","arrowleft","0","arrowleft","[0.85,0.15,0.675,0.325]","","",""
"sailing-trial","246","1690320","0.0-11.0-211.0","","","","false","","","","","","","","","","null","","1215.3999999985099","","2","1","null","null","arrowup","[0.85,0.15,0.675,0.325]","","",""
"sailing-trial","247","1696082","0.0-11.0-212.0","","","","false","","","","","","","","","","1768.6999999955297","","531.1999999955297","","2","1","arrowright","1","arrowleft","[0.85,0.15,0.675,0.325]","","",""
"sailing-trial","248","1699517","0.0-11.0-213.0","","","","false","","","","","","","","","","null","","1558.7000000029802","","2","1","null","null","arrowup","[0.85,0.15,0.675,0.325]","","",""
"sailing-trial","249","1704562","0.0-11.0-214.0","","","","false","","","","","","","","","","602.6000000014901","","1447.2000000029802","","0","1","arrowleft","0","arrowleft","[0.85,0.15,0.675,0.325]","","",""
"sailing-trial","250","1709078","0.0-11.0-215.0","","","","false","","","","","","","","","","null","","1495.8999999985099","","1","0","null","null","arrowup","[0.85,0.15,0.675,0.325]","","",""
"sailing-trial","251","1713676","0.0-11.0-216.0","","","","false","","","","","","","","","","1299.1999999955297","","275","","0","1","arrowleft","0","arrowleft","[0.85,0.15,0.675,0.325]","","",""
"sailing-trial","252","1716686","0.0-11.0-217.0","","","","false","","","","","","","","","","null","","1166.6000000014901","","2","0","null","null","arrowup","[0.85,0.15,0.675,0.325]","","",""
"sailing-trial","253","1721603","0.0-11.0-218.0","","","","false","","","","","","","","","","1084.2999999970198","","747.8999999985099","","2","1","arrowright","1","arrowleft","[0.85,0.15,0.675,0.325]","","",""
"sailing-trial","254","1726587","0.0-11.0-219.0","","","","false","","","","","","","","","","null","","1959.1000000014901","","1","0","null","null","arrowup","[0.85,0.15,0.675,0.325]","","",""
"sailing-trial","255","1732207","0.0-11.0-220.0","","","","false","","","","","","","","","","1119.7999999970198","","823.6000000014901","","0","0","arrowleft","0","arrowleft","[0.325,0.675,0.15,0.85]","","",""
"sailing-trial","256","1736527","0.0-11.0-221.0","","","","false","","","","","","","","","","null","","1417.6000000014901","","1","1","null","null","arrowup","[0.325,0.675,0.15,0.85]","","",""
"sailing-trial","257","1742678","0.0-11.0-222.0","","","","false","","","","[{""event"":""fullscreenenter"",""trial"":3,""time"":12042},{""event"":""fullscreenexit"",""trial"":107,""time"":889311},{""event"":""blur"",""trial"":142,""time"":1098004},{""event"":""focus"",""trial"":142,""time"":1102770},{""event"":""blur"",""trial"":173,""time"":1292852},{""event"":""focus"",""trial"":174,""time"":1308020},{""event"":""blur"",""trial"":185,""time"":1372516},{""event"":""focus"",""trial"":186,""time"":1378289},{""event"":""blur"",""trial"":198,""time"":1442256},{""event"":""focus"",""trial"":199,""time"":1449724},{""event"":""blur"",""trial"":258,""time"":1746933},{""event"":""focus"",""trial"":258,""time"":1751488}]","false","","","","","1166.5","","974.6999999955297","","2","0","arrowright","1","arrowleft","[0.325,0.675,0.15,0.85]","","",""
"sailing-trial","258","1753053","0.0-11.0-223.0","","","","false","","","","","","","","","","null","","2869.7000000029802","","0","1","null","null","arrowup","[0.325,0.675,0.15,0.85]","","",""
"sailing-trial","259","1757487","0.0-11.0-224.0","","","","false","","","","","","","","","","1610.4000000059605","","28.600000001490116","","2","0","arrowright","1","arrowleft","[0.325,0.675,0.15,0.85]","","",""
"sailing-trial","260","1762897","0.0-11.0-225.0","","","","false","","","","","","","","","","null","","2151.5","","3","1","null","null","arrowup","[0.325,0.675,0.15,0.85]","","",""
"sailing-trial","261","1768460","0.0-11.0-226.0","","","","false","","","","","","","","","","985.1000000014901","","1424.3999999985099","","0","1","arrowleft","0","arrowleft","[0.325,0.675,0.15,0.85]","","",""
"sailing-trial","262","1772008","0.0-11.0-227.0","","","","false","","","","","","","","","","null","","1520.9000000059605","","3","1","null","null","arrowup","[0.325,0.675,0.15,0.85]","","",""
"sailing-trial","263","1776381","0.0-11.0-228.0","","","","false","","","","","","","","","","1446.1000000014901","","438.1000000014901","","2","0","arrowright","1","arrowleft","[0.325,0.675,0.15,0.85]","","",""
"sailing-trial","264","1780105","0.0-11.0-229.0","","","","false","","","","","","","","","","null","","1661.8999999985099","","2","1","null","null","arrowup","[0.325,0.675,0.15,0.85]","","",""
"sailing-trial","265","1787663","0.0-11.0-230.0","","","","false","","","","","","","","","","1039","","3145.10000000149","","3","0","arrowright","1","arrowright","[0.325,0.675,0.15,0.85]","","",""
"sailing-trial","266","1791502","0.0-11.0-231.0","","","","false","","","","","","","","","","null","","2124.60000000149","","2","0","null","null","arrowup","[0.325,0.675,0.15,0.85]","","",""
"sailing-trial","267","1795663","0.0-11.0-232.0","","","","false","","","","","","","","","","1145.3999999985099","","47.79999999701977","","2","0","arrowright","1","arrowleft","[0.325,0.675,0.15,0.85]","","",""
"sailing-trial","268","1800045","0.0-11.0-233.0","","","","false","","","","[{""event"":""fullscreenenter"",""trial"":3,""time"":12042},{""event"":""fullscreenexit"",""trial"":107,""time"":889311},{""event"":""blur"",""trial"":142,""time"":1098004},{""event"":""focus"",""trial"":142,""time"":1102770},{""event"":""blur"",""trial"":173,""time"":1292852},{""event"":""focus"",""trial"":174,""time"":1308020},{""event"":""blur"",""trial"":185,""time"":1372516},{""event"":""focus"",""trial"":186,""time"":1378289},{""event"":""blur"",""trial"":198,""time"":1442256},{""event"":""focus"",""trial"":199,""time"":1449724},{""event"":""blur"",""trial"":258,""time"":1746933},{""event"":""focus"",""trial"":258,""time"":1751488},{""event"":""blur"",""trial"":269,""time"":1803779},{""event"":""focus"",""trial"":269,""time"":1806525}]","false","","","","","null","","2300.8000000044703","","3","1","null","null","arrowup","[0.325,0.675,0.15,0.85]","","",""
"sailing-trial","269","1808606","0.0-11.0-234.0","","","","false","","","","","","","","","","1145.3999999985099","","160.19999999552965","","3","1","arrowright","1","arrowright","[0.325,0.675,0.15,0.85]","","",""
"sailing-trial","270","1812156","0.0-11.0-235.0","","","","false","","","","","","","","","","null","","1483.6000000014901","","3","1","null","null","arrowup","[0.325,0.675,0.15,0.85]","","",""
"sailing-trial","271","1816223","0.0-11.0-236.0","","","","false","","","","","","","","","","927.2999999970198","","390.8999999985099","","0","0","arrowleft","0","arrowleft","[0.15,0.85,0.325,0.675]","","",""
"sailing-trial","272","1820236","0.0-11.0-237.0","","","","false","","","","","","","","","","null","","2075.5","","3","1","null","null","arrowup","[0.15,0.85,0.325,0.675]","","",""
"sailing-trial","273","1823343","0.0-11.0-238.0","","","","false","","","","","","","","","","76.09999999403954","","460","","0","0","arrowleft","0","arrowleft","[0.15,0.85,0.325,0.675]","","",""
"sailing-trial","274","1829215","0.0-11.0-239.0","","","","false","","","","","","","","","","null","","1838.2999999970198","","2","1","null","null","arrowup","[0.15,0.85,0.325,0.675]","","",""
"sailing-trial","275","1833497","0.0-11.0-240.0","","","","false","","","","","","","","","","825.1999999955297","","58.20000000298023","","3","1","arrowright","1","arrowright","[0.15,0.85,0.325,0.675]","","",""
"sailing-trial","276","1836761","0.0-11.0-241.0","","","","false","","","","","","","","","","null","","1279.7999999970198","","2","1","null","null","arrowup","[0.15,0.85,0.325,0.675]","","",""
"sailing-trial","277","1841326","0.0-11.0-242.0","","","","false","","","","","","","","","","782.5","","947.9000000059605","","2","0","arrowright","1","arrowleft","[0.15,0.85,0.325,0.675]","","",""
"sailing-trial","278","1844991","0.0-11.0-243.0","","","","false","","","","","","","","","","null","","2108.8000000044703","","2","0","null","null","arrowup","[0.15,0.85,0.325,0.675]","","",""
"sailing-trial","279","1851534","0.0-11.0-244.0","","","","false","","","","","","","","","","928.2000000029802","","1514.6000000014901","","3","1","arrowright","1","arrowright","[0.15,0.85,0.325,0.675]","","",""
"sailing-trial","280","1855584","0.0-11.0-245.0","","","","false","","","","","","","","","","null","","2590.7000000029802","","0","0","null","null","arrowup","[0.15,0.85,0.325,0.675]","","",""
"sailing-trial","281","1861165","0.0-11.0-246.0","","","","false","","","","","","","","","","1853.3999999985099","","64.39999999850988","","3","1","arrowright","1","arrowright","[0.15,0.85,0.325,0.675]","","",""
"sailing-trial","282","1868576","0.0-11.0-247.0","","","","false","","","","","","","","","","null","","5852.60000000149","","0","0","null","null","arrowup","[0.15,0.85,0.325,0.675]","","",""
"sailing-trial","283","1873391","0.0-11.0-248.0","","","","false","","","","","","","","","","1303.3000000044703","","374.20000000298023","","3","1","arrowright","1","arrowright","[0.15,0.85,0.325,0.675]","","",""
"sailing-trial","284","1876911","0.0-11.0-249.0","","","","false","","","","","","","","","","null","","1880.1000000014901","","3","0","null","null","arrowup","[0.15,0.85,0.325,0.675]","","",""
"sailing-trial","285","1881470","0.0-11.0-250.0","","","","false","","","","","","","","","","1145.7999999970198","","2.899999998509884","","3","1","arrowright","1","arrowright","[0.15,0.85,0.325,0.675]","","",""
"sailing-trial","286","1884784","0.0-11.0-251.0","","","","false","","","","","","","","","","null","","1818.8999999985099","","2","0","null","null","arrowup","[0.15,0.85,0.325,0.675]","","",""
"sailing-trial","287","1889470","0.0-11.0-252.0","","","","false","","","","","","","","","","918.7999999970198","","741.8999999985099","","3","0","arrowright","1","arrowright","[0.15,0.85,0.325,0.675]","","",""
"sailing-trial","288","1893415","0.0-11.0-253.0","","","","false","","","","","","","","","","null","","1951.8999999985099","","3","1","null","null","arrowup","[0.15,0.85,0.325,0.675]","","",""
"sailing-trial","289","1900757","0.0-11.0-254.0","","","","false","","","","","","","","","","2257.10000000149","","2059.5","","3","1","arrowright","1","arrowright","[0.85,0.15,0.675,0.325]","","",""
"sailing-trial","290","1904608","0.0-11.0-255.0","","","","false","","","","","","","","","","null","","1800.6000000014901","","0","1","null","null","arrowup","[0.85,0.15,0.675,0.325]","","",""
"sailing-trial","291","1908721","0.0-11.0-256.0","","","","false","","","","","","","","","","664.8999999985099","","333.70000000298023","","0","1","arrowleft","0","arrowleft","[0.85,0.15,0.675,0.325]","","",""
"sailing-trial","292","1912538","0.0-11.0-257.0","","","","false","","","","","","","","","","null","","1866.0999999940395","","0","1","null","null","arrowup","[0.85,0.15,0.675,0.325]","","",""
"sailing-trial","293","1917033","0.0-11.0-258.0","","","","false","","","","","","","","","","1283.7000000029802","","94.30000000447035","","0","1","arrowleft","0","arrowleft","[0.85,0.15,0.675,0.325]","","",""
"sailing-trial","294","1920782","0.0-11.0-259.0","","","","false","","","","","","","","","","null","","1665.6000000014901","","3","0","null","null","arrowup","[0.85,0.15,0.675,0.325]","","",""
"sailing-trial","295","1925599","0.0-11.0-260.0","","","","false","","","","","","","","","","1611.8000000044703","","92.39999999850988","","3","0","arrowright","1","arrowright","[0.85,0.15,0.675,0.325]","","",""
"sailing-trial","296","1928894","0.0-11.0-261.0","","","","false","","","","","","","","","","null","","1849","","2","0","null","null","arrowup","[0.85,0.15,0.675,0.325]","","",""
"sailing-trial","297","1933149","0.0-11.0-262.0","","","","false","","","","","","","","","","701","","717.8999999985099","","3","0","arrowright","1","arrowright","[0.85,0.15,0.675,0.325]","","",""
"sailing-trial","298","1938074","0.0-11.0-263.0","","","","false","","","","","","","","","","null","","2330.3000000044703","","2","1","null","null","arrowup","[0.85,0.15,0.675,0.325]","","",""
"sailing-trial","299","1943758","0.0-11.0-264.0","","","","false","","","","","","","","","","755","","1138.8999999985099","","2","0","arrowright","1","arrowleft","[0.85,0.15,0.675,0.325]","","",""
"sailing-trial","300","1947150","0.0-11.0-265.0","","","","false","","","","","","","","","","null","","1761.5999999940395","","3","0","null","null","arrowup","[0.85,0.15,0.675,0.325]","","",""
"sailing-trial","301","1954848","0.0-11.0-266.0","","","","false","","","","","","","","","","910.3000000044703","","564.3999999985099","","0","1","arrowleft","0","arrowleft","[0.85,0.15,0.675,0.325]","","",""
"sailing-trial","302","1958463","0.0-11.0-267.0","","","","false","","","","","","","","","","null","","1718.7999999970198","","3","0","null","null","arrowup","[0.85,0.15,0.675,0.325]","","",""
"sailing-trial","303","1964894","0.0-11.0-268.0","","","","false","","","","","","","","","","1098.7000000029802","","736.5","","2","1","arrowright","1","arrowleft","[0.85,0.15,0.675,0.325]","","",""
"sailing-trial","304","1973521","0.0-11.0-269.0","","","","false","","","","","","","","","","null","","6028.69999999553","","0","1","null","null","arrowup","[0.85,0.15,0.675,0.325]","","",""
"sailing-trial","305","1980237","0.0-11.0-270.0","","","","false","","","","","","","","","","1946.6000000014901","","1611.2999999970198","","0","1","arrowleft","0","arrowleft","[0.85,0.15,0.675,0.325]","","",""
"sailing-trial","306","1990195","0.0-11.0-271.0","","","","false","","","","","","","","","","null","","2364.5999999940395","","1","1","null","null","arrowup","[0.85,0.15,0.675,0.325]","","",""
"sailing-trial","307","1995776","0.0-11.0-272.0","","","","false","","","","","","","","","","2537.2000000029802","","50.099999994039536","","1","0","arrowleft","0","arrowright","[0.85,0.15,0.675,0.325]","","",""
"sailing-trial","308","1999824","0.0-11.0-273.0","","","","false","","","","","","","","","","null","","2009.5","","1","0","null","null","arrowup","[0.85,0.15,0.675,0.325]","","",""
"sailing-trial","309","2004372","0.0-11.0-274.0","","","","false","","","","","","","","","","743","","778.6999999955297","","0","1","arrowleft","0","arrowleft","[0.675,0.325,0.85,0.15]","","",""
"sailing-trial","310","2009204","0.0-11.0-275.0","","","","false","","","","","","","","","","null","","2852","","0","1","null","null","arrowup","[0.675,0.325,0.85,0.15]","","",""
"sailing-trial","311","2013819","0.0-11.0-276.0","","","","false","","","","[{""event"":""fullscreenenter"",""trial"":3,""time"":12042},{""event"":""fullscreenexit"",""trial"":107,""time"":889311},{""event"":""blur"",""trial"":142,""time"":1098004},{""event"":""focus"",""trial"":142,""time"":1102770},{""event"":""blur"",""trial"":173,""time"":1292852},{""event"":""focus"",""trial"":174,""time"":1308020},{""event"":""blur"",""trial"":185,""time"":1372516},{""event"":""focus"",""trial"":186,""time"":1378289},{""event"":""blur"",""trial"":198,""time"":1442256},{""event"":""focus"",""trial"":199,""time"":1449724},{""event"":""blur"",""trial"":258,""time"":1746933},{""event"":""focus"",""trial"":258,""time"":1751488},{""event"":""blur"",""trial"":269,""time"":1803779},{""event"":""focus"",""trial"":269,""time"":1806525},{""event"":""blur"",""trial"":312,""time"":2017381},{""event"":""focus"",""trial"":312,""time"":2023173}]","false","","","","","677.7000000029802","","726.6999999955297","","2","1","arrowright","1","arrowleft","[0.675,0.325,0.85,0.15]","","",""
"sailing-trial","312","2024796","0.0-11.0-277.0","","","","false","","","","","","","","","","null","","2112.8000000044703","","2","1","null","null","arrowup","[0.675,0.325,0.85,0.15]","","",""
"sailing-trial","313","2029911","0.0-11.0-278.0","","","","false","","","","","","","","","","1204.5","","463.1000000014901","","2","1","arrowright","1","arrowleft","[0.675,0.325,0.85,0.15]","","",""
"sailing-trial","314","2033277","0.0-11.0-279.0","","","","false","","","","","","","","","","null","","1791.6000000014901","","1","0","null","null","arrowup","[0.675,0.325,0.85,0.15]","","",""
"sailing-trial","315","2038105","0.0-11.0-280.0","","","","false","","","","","","","","","","1267.1000000014901","","95.10000000149012","","0","1","arrowleft","0","arrowleft","[0.675,0.325,0.85,0.15]","","",""
"sailing-trial","316","2043406","0.0-11.0-281.0","","","","false","","","","","","","","","","null","","2925.60000000149","","3","1","null","null","arrowup","[0.675,0.325,0.85,0.15]","","",""
"sailing-trial","317","2047268","0.0-11.0-282.0","","","","false","","","","[{""event"":""fullscreenenter"",""trial"":3,""time"":12042},{""event"":""fullscreenexit"",""trial"":107,""time"":889311},{""event"":""blur"",""trial"":142,""time"":1098004},{""event"":""focus"",""trial"":142,""time"":1102770},{""event"":""blur"",""trial"":173,""time"":1292852},{""event"":""focus"",""trial"":174,""time"":1308020},{""event"":""blur"",""trial"":185,""time"":1372516},{""event"":""focus"",""trial"":186,""time"":1378289},{""event"":""blur"",""trial"":198,""time"":1442256},{""event"":""focus"",""trial"":199,""time"":1449724},{""event"":""blur"",""trial"":258,""time"":1746933},{""event"":""focus"",""trial"":258,""time"":1751488},{""event"":""blur"",""trial"":269,""time"":1803779},{""event"":""focus"",""trial"":269,""time"":1806525},{""event"":""blur"",""trial"":312,""time"":2017381},{""event"":""focus"",""trial"":312,""time"":2023173},{""event"":""blur"",""trial"":318,""time"":2049892},{""event"":""focus"",""trial"":318,""time"":2053423}]","false","","","","","511.3999999985099","","107.19999999552965","","2","1","arrowright","1","arrowleft","[0.675,0.325,0.85,0.15]","","",""
"sailing-trial","318","2055098","0.0-11.0-283.0","","","","false","","","","","","","","","","null","","1348.2999999970198","","1","1","null","null","arrowup","[0.675,0.325,0.85,0.15]","","",""
"sailing-trial","319","2059088","0.0-11.0-284.0","","","","false","","","","","","","","","","757.2000000029802","","309.3999999985099","","1","0","arrowleft","0","arrowright","[0.675,0.325,0.85,0.15]","","",""
"sailing-trial","320","2064607","0.0-11.0-285.0","","","","false","","","","","","","","","","null","","3161.7999999970198","","3","0","null","null","arrowup","[0.675,0.325,0.85,0.15]","","",""
"sailing-trial","321","2073721","0.0-11.0-286.0","","","","false","","","","","","","","","","2250.6999999955297","","2836.39999999851","","3","0","arrowright","1","arrowright","[0.675,0.325,0.85,0.15]","","",""
"sailing-trial","322","2078716","0.0-11.0-287.0","","","","false","","","","","","","","","","null","","1405.2999999970198","","1","1","null","null","arrowup","[0.675,0.325,0.85,0.15]","","",""
"sailing-trial","323","2083863","0.0-11.0-288.0","","","","false","","","","","","","","","","812.6000000014901","","942.7000000029802","","3","1","arrowright","1","arrowright","[0.675,0.325,0.85,0.15]","","",""
"sailing-trial","324","2089562","0.0-11.0-289.0","","","","false","","","","","","","","","","null","","2914.3000000044703","","2","1","null","null","arrowup","[0.675,0.325,0.85,0.15]","","",""
"sailing-trial","325","2096092","0.0-11.0-290.0","","","","false","","","","","","","","","","1166.6000000014901","","2371","","0","1","arrowleft","0","arrowleft","[0.675,0.325,0.85,0.15]","","",""
"sailing-trial","326","2099376","0.0-11.0-291.0","","","","false","","","","","","","","","","null","","1818.7999999970198","","3","0","null","null","arrowup","[0.675,0.325,0.85,0.15]","","",""
"sailing-trial","327","2104587","0.0-11.0-292.0","","","","false","","","","[{""event"":""fullscreenenter"",""trial"":3,""time"":12042},{""event"":""fullscreenexit"",""trial"":107,""time"":889311},{""event"":""blur"",""trial"":142,""time"":1098004},{""event"":""focus"",""trial"":142,""time"":1102770},{""event"":""blur"",""trial"":173,""time"":1292852},{""event"":""focus"",""trial"":174,""time"":1308020},{""event"":""blur"",""trial"":185,""time"":1372516},{""event"":""focus"",""trial"":186,""time"":1378289},{""event"":""blur"",""trial"":198,""time"":1442256},{""event"":""focus"",""trial"":199,""time"":1449724},{""event"":""blur"",""trial"":258,""time"":1746933},{""event"":""focus"",""trial"":258,""time"":1751488},{""event"":""blur"",""trial"":269,""time"":1803779},{""event"":""focus"",""trial"":269,""time"":1806525},{""event"":""blur"",""trial"":312,""time"":2017381},{""event"":""focus"",""trial"":312,""time"":2023173},{""event"":""blur"",""trial"":318,""time"":2049892},{""event"":""focus"",""trial"":318,""time"":2053423},{""event"":""blur"",""trial"":328,""time"":2107267},{""event"":""focus"",""trial"":328,""time"":2111256}]","false","","","","","1161.1000000014901","","334.6000000014901","","0","1","arrowleft","0","arrowleft","[0.675,0.325,0.85,0.15]","","",""
"sailing-trial","328","2113051","0.0-11.0-293.0","","","","false","","","","","","","","","","null","","1356.7000000029802","","3","1","null","null","arrowup","[0.675,0.325,0.85,0.15]","","",""
"sailing-trial","329","2118078","0.0-11.0-294.0","","","","false","","","","","","","","","","1298.8999999985099","","141.79999999701977","","3","1","arrowright","1","arrowright","[0.675,0.325,0.85,0.15]","","",""
"sailing-trial","330","2127893","0.0-11.0-295.0","","","","false","","","","","","","","","","null","","6811.80000000447","","0","0","null","null","arrowup","[0.675,0.325,0.85,0.15]","","",""
"sailing-trial","331","2134157","0.0-11.0-296.0","","","","false","","","","","","","","","","1218.5999999940395","","1032.1999999955297","","2","1","arrowright","1","arrowleft","[0.85,0.15,0.675,0.325]","","",""
"sailing-trial","332","2136992","0.0-11.0-297.0","","","","false","","","","","","","","","","null","","1276.9000000059605","","3","0","null","null","arrowup","[0.85,0.15,0.675,0.325]","","",""
"sailing-trial","333","2142118","0.0-11.0-298.0","","","","false","","","","","","","","","","1159.7999999970198","","802.5","","2","1","arrowright","1","arrowleft","[0.85,0.15,0.675,0.325]","","",""
"sailing-trial","334","2147481","0.0-11.0-299.0","","","","false","","","","","","","","","","null","","3061.5","","0","1","null","null","arrowup","[0.85,0.15,0.675,0.325]","","",""
"sailing-trial","335","2153844","0.0-11.0-300.0","","","","false","","","","","","","","","","1836.5999999940395","","1496.5","","2","1","arrowright","1","arrowleft","[0.85,0.15,0.675,0.325]","","",""
"sailing-trial","336","2158676","0.0-11.0-301.0","","","","false","","","","","","","","","","null","","1320.7999999970198","","0","1","null","null","arrowup","[0.85,0.15,0.675,0.325]","","",""
"sailing-trial","337","2163944","0.0-11.0-302.0","","","","false","","","","","","","","","","843","","390.3999999985099","","3","0","arrowright","1","arrowright","[0.85,0.15,0.675,0.325]","","",""
"sailing-trial","338","2167821","0.0-11.0-303.0","","","","false","","","","","","","","","","null","","1857.5","","2","1","null","null","arrowup","[0.85,0.15,0.675,0.325]","","",""
"sailing-trial","339","2171518","0.0-11.0-304.0","","","","false","","","","[{""event"":""fullscreenenter"",""trial"":3,""time"":12042},{""event"":""fullscreenexit"",""trial"":107,""time"":889311},{""event"":""blur"",""trial"":142,""time"":1098004},{""event"":""focus"",""trial"":142,""time"":1102770},{""event"":""blur"",""trial"":173,""time"":1292852},{""event"":""focus"",""trial"":174,""time"":1308020},{""event"":""blur"",""trial"":185,""time"":1372516},{""event"":""focus"",""trial"":186,""time"":1378289},{""event"":""blur"",""trial"":198,""time"":1442256},{""event"":""focus"",""trial"":199,""time"":1449724},{""event"":""blur"",""trial"":258,""time"":1746933},{""event"":""focus"",""trial"":258,""time"":1751488},{""event"":""blur"",""trial"":269,""time"":1803779},{""event"":""focus"",""trial"":269,""time"":1806525},{""event"":""blur"",""trial"":312,""time"":2017381},{""event"":""focus"",""trial"":312,""time"":2023173},{""event"":""blur"",""trial"":318,""time"":2049892},{""event"":""focus"",""trial"":318,""time"":2053423},{""event"":""blur"",""trial"":328,""time"":2107267},{""event"":""focus"",""trial"":328,""time"":2111256},{""event"":""blur"",""trial"":340,""time"":2174611},{""event"":""focus"",""trial"":340,""time"":2186416}]","false","","","","","915.3999999985099","","217.5","","2","0","arrowright","1","arrowleft","[0.85,0.15,0.675,0.325]","","",""
"sailing-trial","340","2188202","0.0-11.0-305.0","","","","true","","","","","","","","","","null","","1678.2000000029802","","3","1","null","null","arrowup","[0.85,0.15,0.675,0.325]","","",""
"sailing-trial","341","2193441","0.0-11.0-306.0","","","","false","","","","","","","","","","959","","259.29999999701977","","2","0","arrowright","1","arrowleft","[0.85,0.15,0.675,0.325]","","",""
"sailing-trial","342","2199537","0.0-11.0-307.0","","","","false","","","","","","","","","","null","","3700.2000000029802","","3","0","null","null","arrowup","[0.85,0.15,0.675,0.325]","","",""
"sailing-trial","343","2206768","0.0-11.0-308.0","","","","false","","","","","","","","","","1475.2999999970198","","121.69999999552965","","0","1","arrowleft","0","arrowleft","[0.85,0.15,0.675,0.325]","","",""
"sailing-trial","344","2211724","0.0-11.0-309.0","","","","false","","","","","","","","","","null","","2827.7999999970198","","0","0","null","null","arrowup","[0.85,0.15,0.675,0.325]","","",""
"sailing-trial","345","2217151","0.0-11.0-310.0","","","","false","","","","","","","","","","1105.6000000014901","","443.20000000298023","","3","0","arrowright","1","arrowright","[0.85,0.15,0.675,0.325]","","",""
"sailing-trial","346","2220670","0.0-11.0-311.0","","","","false","","","","","","","","","","null","","2077.5","","2","0","null","null","arrowup","[0.85,0.15,0.675,0.325]","","",""
"sailing-trial","347","2230388","0.0-11.0-312.0","","","","false","","","","","","","","","","1371.7000000029802","","4748.69999999553","","1","1","arrowleft","0","arrowright","[0.675,0.325,0.85,0.15]","","",""
"sailing-trial","348","2234413","0.0-11.0-313.0","","","","false","","","","","","","","","","null","","1893.7999999970198","","3","0","null","null","arrowup","[0.675,0.325,0.85,0.15]","","",""
"sailing-trial","349","2239232","0.0-11.0-314.0","","","","false","","","","","","","","","","974","","96.5","","0","1","arrowleft","0","arrowleft","[0.675,0.325,0.85,0.15]","","",""
"sailing-trial","350","2247295","0.0-11.0-315.0","","","","false","","","","","","","","","","null","","6410","","1","0","null","null","arrowup","[0.675,0.325,0.85,0.15]","","",""
"sailing-trial","351","2252191","0.0-11.0-316.0","","","","false","","","","","","","","","","1068.6000000014901","","286.6000000014901","","2","1","arrowright","1","arrowleft","[0.675,0.325,0.85,0.15]","","",""
"sailing-trial","352","2261404","0.0-11.0-317.0","","","","false","","","","","","","","","","null","","7194.9000000059605","","2","1","null","null","arrowup","[0.675,0.325,0.85,0.15]","","",""
"sailing-trial","353","2268666","0.0-11.0-318.0","","","","false","","","","","","","","","","2288.39999999851","","1076.2999999970198","","2","1","arrowright","1","arrowleft","[0.675,0.325,0.85,0.15]","","",""
"sailing-trial","354","2276702","0.0-11.0-319.0","","","","false","","","","","","","","","","null","","5616.4000000059605","","1","0","null","null","arrowup","[0.675,0.325,0.85,0.15]","","",""
"sailing-trial","355","2281597","0.0-11.0-320.0","","","","false","","","","","","","","","","891.5","","347.40000000596046","","1","1","arrowleft","0","arrowright","[0.675,0.325,0.85,0.15]","","",""
"sailing-trial","356","2286207","0.0-11.0-321.0","","","","false","","","","","","","","","","null","","2424.7000000029802","","0","1","null","null","arrowup","[0.675,0.325,0.85,0.15]","","",""
"sailing-trial","357","2290139","0.0-11.0-322.0","","","","false","","","","","","","","","","905.8000000044703","","54.100000001490116","","0","1","arrowleft","0","arrowleft","[0.675,0.325,0.85,0.15]","","",""
"sailing-trial","358","2296504","0.0-11.0-323.0","","","","false","","","","","","","","","","null","","4000.2999999970198","","2","1","null","null","arrowup","[0.675,0.325,0.85,0.15]","","",""
"sailing-trial","359","2300366","0.0-11.0-324.0","","","","false","","","","","","","","","","701.5","","391.5","","3","0","arrowright","1","arrowright","[0.675,0.325,0.85,0.15]","","",""
"sailing-trial","360","2304582","0.0-11.0-325.0","","","","false","","","","","","","","","","null","","1470.7000000029802","","2","1","null","null","arrowup","[0.675,0.325,0.85,0.15]","","",""
"sailing-trial","361","2310682","0.0-11.0-326.0","","","","false","","","","","","","","","","1160.5","","1188.3999999985099","","1","1","arrowleft","0","arrowright","[0.675,0.325,0.85,0.15]","","",""
"sailing-trial","362","2314510","0.0-11.0-327.0","","","","false","","","","","","","","","","null","","1662.1000000014901","","0","1","null","null","arrowup","[0.675,0.325,0.85,0.15]","","",""
"sailing-trial","363","2320223","0.0-11.0-328.0","","","","false","","","","","","","","","","1754.7999999970198","","391.40000000596046","","3","1","arrowright","1","arrowright","[0.85,0.15,0.675,0.325]","","",""
"sailing-trial","364","2326153","0.0-11.0-329.0","","","","false","","","","","","","","","","null","","2940.2000000029802","","0","1","null","null","arrowup","[0.85,0.15,0.675,0.325]","","",""
"sailing-trial","365","2335564","0.0-11.0-330.0","","","","false","","","","","","","","","","3923.39999999851","","1812.8000000044703","","2","1","arrowright","1","arrowleft","[0.85,0.15,0.675,0.325]","","",""
"sailing-trial","366","2340682","0.0-11.0-331.0","","","","false","","","","","","","","","","null","","2110","","1","0","null","null","arrowup","[0.85,0.15,0.675,0.325]","","",""
"sailing-trial","367","2348878","0.0-11.0-332.0","","","","false","","","","","","","","","","2975.6999999955297","","1198.5","","1","0","arrowleft","0","arrowright","[0.85,0.15,0.675,0.325]","","",""
"sailing-trial","368","2355341","0.0-11.0-333.0","","","","false","","","","","","","","","","null","","2608.8000000044703","","0","1","null","null","arrowup","[0.85,0.15,0.675,0.325]","","",""
"sailing-trial","369","2369567","0.0-11.0-334.0","","","","false","","","","","","","","","","1307.7999999970198","","8892.20000000298","","3","0","arrowright","1","arrowright","[0.85,0.15,0.675,0.325]","","",""
"sailing-trial","370","2373445","0.0-11.0-335.0","","","","false","","","","","","","","","","null","","14","","0","1","null","null","arrowup","[0.85,0.15,0.675,0.325]","","",""
"sailing-trial","371","2388471","0.0-11.0-336.0","","","","false","","","","","","","","","","9428","","1533.8999999985099","","0","1","arrowleft","0","arrowleft","[0.85,0.15,0.675,0.325]","","",""
"sailing-trial","372","2393022","0.0-11.0-337.0","","","","false","","","","","","","","","","null","","2385.39999999851","","1","0","null","null","arrowup","[0.85,0.15,0.675,0.325]","","",""
"sailing-trial","373","2399550","0.0-11.0-338.0","","","","false","","","","","","","","","","2386.2999999970198","","416.5","","3","0","arrowright","1","arrowright","[0.85,0.15,0.675,0.325]","","",""
"sailing-trial","374","2403340","0.0-11.0-339.0","","","","false","","","","[{""event"":""fullscreenenter"",""trial"":3,""time"":12042},{""event"":""fullscreenexit"",""trial"":107,""time"":889311},{""event"":""blur"",""trial"":142,""time"":1098004},{""event"":""focus"",""trial"":142,""time"":1102770},{""event"":""blur"",""trial"":173,""time"":1292852},{""event"":""focus"",""trial"":174,""time"":1308020},{""event"":""blur"",""trial"":185,""time"":1372516},{""event"":""focus"",""trial"":186,""time"":1378289},{""event"":""blur"",""trial"":198,""time"":1442256},{""event"":""focus"",""trial"":199,""time"":1449724},{""event"":""blur"",""trial"":258,""time"":1746933},{""event"":""focus"",""trial"":258,""time"":1751488},{""event"":""blur"",""trial"":269,""time"":1803779},{""event"":""focus"",""trial"":269,""time"":1806525},{""event"":""blur"",""trial"":312,""time"":2017381},{""event"":""focus"",""trial"":312,""time"":2023173},{""event"":""blur"",""trial"":318,""time"":2049892},{""event"":""focus"",""trial"":318,""time"":2053423},{""event"":""blur"",""trial"":328,""time"":2107267},{""event"":""focus"",""trial"":328,""time"":2111256},{""event"":""blur"",""trial"":340,""time"":2174611},{""event"":""focus"",""trial"":340,""time"":2186416},{""event"":""blur"",""trial"":375,""time"":2406227},{""event"":""focus"",""trial"":375,""time"":2409613}]","false","","","","","null","","2237.2999999970198","","0","0","null","null","arrowup","[0.85,0.15,0.675,0.325]","","",""
"sailing-trial","375","2412524","0.0-11.0-340.0","","","","false","","","","","","","","","","946.2000000029802","","5346.39999999851","","3","0","arrowright","1","arrowright","[0.85,0.15,0.675,0.325]","","",""
"sailing-trial","376","2416393","0.0-11.0-341.0","","","","false","","","","","","","","","","null","","1581.8999999985099","","0","1","null","null","arrowup","[0.85,0.15,0.675,0.325]","","",""
"sailing-trial","377","2420751","0.0-11.0-342.0","","","","false","","","","","","","","","","880.3999999985099","","992.5","","0","0","arrowleft","0","arrowleft","[0.85,0.15,0.675,0.325]","","",""
"sailing-trial","378","2425089","0.0-11.0-343.0","","","","false","","","","","","","","","","null","","2393.60000000149","","1","0","null","null","arrowup","[0.85,0.15,0.675,0.325]","","",""
"sailing-trial","379","2429118","0.0-11.0-344.0","","","","false","","","","","","","","","","1196.3000000044703","","206.39999999850988","","0","0","arrowleft","0","arrowleft","[0.15,0.85,0.325,0.675]","","",""
"sailing-trial","380","2433712","0.0-11.0-345.0","","","","false","","","","","","","","","","null","","2008.7000000029802","","2","1","null","null","arrowup","[0.15,0.85,0.325,0.675]","","",""
"sailing-trial","381","2438094","0.0-11.0-346.0","","","","false","","","","","","","","","","842.7999999970198","","183","","1","1","arrowleft","0","arrowright","[0.15,0.85,0.325,0.675]","","",""
"sailing-trial","382","2441893","0.0-11.0-347.0","","","","false","","","","","","","","","","null","","1469.0999999940395","","3","1","null","null","arrowup","[0.15,0.85,0.325,0.675]","","",""
"sailing-trial","383","2446689","0.0-11.0-348.0","","","","false","","","","","","","","","","881.9000000059605","","447.29999999701977","","1","1","arrowleft","0","arrowright","[0.15,0.85,0.325,0.675]","","",""
"sailing-trial","384","2450463","0.0-11.0-349.0","","","","false","","","","","","","","","","null","","2103.60000000149","","0","0","null","null","arrowup","[0.15,0.85,0.325,0.675]","","",""
"sailing-trial","385","2456654","0.0-11.0-350.0","","","","false","","","","","","","","","","1287.3999999985099","","1919.5","","3","0","arrowright","1","arrowright","[0.15,0.85,0.325,0.675]","","",""
"sailing-trial","386","2460819","0.0-11.0-351.0","","","","false","","","","","","","","","","null","","1675.5","","3","1","null","null","arrowup","[0.15,0.85,0.325,0.675]","","",""
"sailing-trial","387","2466232","0.0-11.0-352.0","","","","false","","","","","","","","","","1306.8000000044703","","53.400000005960464","","1","0","arrowleft","0","arrowright","[0.15,0.85,0.325,0.675]","","",""
"sailing-trial","388","2471528","0.0-11.0-353.0","","","","false","","","","","","","","","","null","","2685","","3","1","null","null","arrowup","[0.15,0.85,0.325,0.675]","","",""
"sailing-trial","389","2476274","0.0-11.0-354.0","","","","false","","","","","","","","","","1268.6000000014901","","63.70000000298023","","1","1","arrowleft","0","arrowright","[0.15,0.85,0.325,0.675]","","",""
"sailing-trial","390","2484413","0.0-11.0-355.0","","","","false","","","","","","","","","","null","","5750.80000000447","","2","0","null","null","arrowup","[0.15,0.85,0.325,0.675]","","",""
"sailing-trial","391","2489453","0.0-11.0-356.0","","","","false","","","","","","","","","","1022.3000000044703","","876.2999999970198","","2","0","arrowright","1","arrowleft","[0.15,0.85,0.325,0.675]","","",""
"sailing-trial","392","2492782","0.0-11.0-357.0","","","","false","","","","","","","","","","null","","1613.8000000044703","","0","0","null","null","arrowup","[0.15,0.85,0.325,0.675]","","",""
"sailing-trial","393","2498495","0.0-11.0-358.0","","","","false","","","","","","","","","","1214.1000000014901","","667.9000000059605","","1","1","arrowleft","0","arrowright","[0.15,0.85,0.325,0.675]","","",""
"sailing-trial","394","2503725","0.0-11.0-359.0","","","","false","","","","","","","","","","null","","3577.7000000029802","","1","1","null","null","arrowup","[0.15,0.85,0.325,0.675]","","",""
"sailing-trial","395","2508490","0.0-11.0-360.0","","","","false","","","","","","","","","","1279.9000000059605","","695.7000000029802","","1","1","arrowleft","0","arrowright","[0.15,0.85,0.325,0.675]","","",""
"sailing-trial","396","2512321","0.0-11.0-361.0","","","","false","","","","","","","","","","null","","1902.5999999940395","","1","1","null","null","arrowup","[0.15,0.85,0.325,0.675]","","",""
"sailing-trial","397","2517836","0.0-11.0-362.0","","","","false","","","","","","","","","","1210","","917.5","","1","1","arrowleft","0","arrowright","[0.325,0.675,0.15,0.85]","","",""
"sailing-trial","398","2520491","0.0-11.0-363.0","","","","false","","","","","","","","","","null","","1225.7999999970198","","2","0","null","null","arrowup","[0.325,0.675,0.15,0.85]","","",""
"sailing-trial","399","2526581","0.0-11.0-364.0","","","","false","","","","","","","","","","1329.8999999985099","","381.29999999701977","","3","1","arrowright","1","arrowright","[0.325,0.675,0.15,0.85]","","",""
"sailing-trial","400","2529868","0.0-11.0-365.0","","","","false","","","","","","","","","","null","","1336.2000000029802","","1","0","null","null","arrowup","[0.325,0.675,0.15,0.85]","","",""
"sailing-trial","401","2538875","0.0-11.0-366.0","","","","false","","","","[{""event"":""fullscreenenter"",""trial"":3,""time"":12042},{""event"":""fullscreenexit"",""trial"":107,""time"":889311},{""event"":""blur"",""trial"":142,""time"":1098004},{""event"":""focus"",""trial"":142,""time"":1102770},{""event"":""blur"",""trial"":173,""time"":1292852},{""event"":""focus"",""trial"":174,""time"":1308020},{""event"":""blur"",""trial"":185,""time"":1372516},{""event"":""focus"",""trial"":186,""time"":1378289},{""event"":""blur"",""trial"":198,""time"":1442256},{""event"":""focus"",""trial"":199,""time"":1449724},{""event"":""blur"",""trial"":258,""time"":1746933},{""event"":""focus"",""trial"":258,""time"":1751488},{""event"":""blur"",""trial"":269,""time"":1803779},{""event"":""focus"",""trial"":269,""time"":1806525},{""event"":""blur"",""trial"":312,""time"":2017381},{""event"":""focus"",""trial"":312,""time"":2023173},{""event"":""blur"",""trial"":318,""time"":2049892},{""event"":""focus"",""trial"":318,""time"":2053423},{""event"":""blur"",""trial"":328,""time"":2107267},{""event"":""focus"",""trial"":328,""time"":2111256},{""event"":""blur"",""trial"":340,""time"":2174611},{""event"":""focus"",""trial"":340,""time"":2186416},{""event"":""blur"",""trial"":375,""time"":2406227},{""event"":""focus"",""trial"":375,""time"":2409613},{""event"":""blur"",""trial"":402,""time"":2542387}]","false","","","","","3771.89999999851","","475.8999999985099","","3","1","arrowright","1","arrowright","[0.325,0.675,0.15,0.85]","","",""
"sailing-trial","402","2543975","0.0-11.0-367.0","","","","false","","","","[{""event"":""fullscreenenter"",""trial"":3,""time"":12042},{""event"":""fullscreenexit"",""trial"":107,""time"":889311},{""event"":""blur"",""trial"":142,""time"":1098004},{""event"":""focus"",""trial"":142,""time"":1102770},{""event"":""blur"",""trial"":173,""time"":1292852},{""event"":""focus"",""trial"":174,""time"":1308020},{""event"":""blur"",""trial"":185,""time"":1372516},{""event"":""focus"",""trial"":186,""time"":1378289},{""event"":""blur"",""trial"":198,""time"":1442256},{""event"":""focus"",""trial"":199,""time"":1449724},{""event"":""blur"",""trial"":258,""time"":1746933},{""event"":""focus"",""trial"":258,""time"":1751488},{""event"":""blur"",""trial"":269,""time"":1803779},{""event"":""focus"",""trial"":269,""time"":1806525},{""event"":""blur"",""trial"":312,""time"":2017381},{""event"":""focus"",""trial"":312,""time"":2023173},{""event"":""blur"",""trial"":318,""time"":2049892},{""event"":""focus"",""trial"":318,""time"":2053423},{""event"":""blur"",""trial"":328,""time"":2107267},{""event"":""focus"",""trial"":328,""time"":2111256},{""event"":""blur"",""trial"":340,""time"":2174611},{""event"":""focus"",""trial"":340,""time"":2186416},{""event"":""blur"",""trial"":375,""time"":2406227},{""event"":""focus"",""trial"":375,""time"":2409613},{""event"":""blur"",""trial"":402,""time"":2542387},{""event"":""focus"",""trial"":403,""time"":2544960}]","false","","","","","null","","2078.60000000149","","0","0","null","null","arrowup","[0.325,0.675,0.15,0.85]","","",""
"sailing-trial","403","2551401","0.0-11.0-368.0","","","","false","","","","","","","","","","2628.10000000149","","782.4000000059605","","1","1","arrowleft","0","arrowright","[0.325,0.675,0.15,0.85]","","",""
"sailing-trial","404","2556100","0.0-11.0-369.0","","","","false","","","","","","","","","","null","","1953.3999999985099","","3","1","null","null","arrowup","[0.325,0.675,0.15,0.85]","","",""
"sailing-trial","405","2561500","0.0-11.0-370.0","","","","false","","","","","","","","","","1318.2000000029802","","786.5","","3","1","arrowright","1","arrowright","[0.325,0.675,0.15,0.85]","","",""
"sailing-trial","406","2566509","0.0-11.0-371.0","","","","false","","","","","","","","","","null","","2015.1999999955297","","2","0","null","null","arrowup","[0.325,0.675,0.15,0.85]","","",""
"sailing-trial","407","2579638","0.0-11.0-372.0","","","","false","","","","","","","","","","2252.2999999970198","","7314.20000000298","","3","1","arrowright","1","arrowright","[0.325,0.675,0.15,0.85]","","",""
"sailing-trial","408","2585053","0.0-11.0-373.0","","","","false","","","","","","","","","","null","","3582.89999999851","","1","0","null","null","arrowup","[0.325,0.675,0.15,0.85]","","",""
"sailing-trial","409","2590501","0.0-11.0-374.0","","","","false","","","","","","","","","","1436","","495.6000000014901","","1","1","arrowleft","0","arrowright","[0.325,0.675,0.15,0.85]","","",""
"sailing-trial","410","2596237","0.0-11.0-375.0","","","","false","","","","","","","","","","null","","3905.7999999970198","","2","0","null","null","arrowup","[0.325,0.675,0.15,0.85]","","",""
"sailing-trial","411","2604926","0.0-11.0-376.0","","","","false","","","","","","","","","","3296","","1329","","3","0","arrowright","1","arrowright","[0.325,0.675,0.15,0.85]","","",""
"sailing-trial","412","2611905","0.0-11.0-377.0","","","","false","","","","","","","","","","null","","1807.8000000044703","","2","1","null","null","arrowup","[0.325,0.675,0.15,0.85]","","",""
"sailing-trial","413","2617484","0.0-11.0-378.0","","","","false","","","","","","","","","","1569.6999999955297","","395.1000000014901","","1","1","arrowleft","0","arrowright","[0.325,0.675,0.15,0.85]","","",""
"sailing-trial","414","2622151","0.0-11.0-379.0","","","","false","","","","","","","","","","null","","1928.0999999940395","","3","1","null","null","arrowup","[0.325,0.675,0.15,0.85]","","",""
"sailing-trial","415","2628299","0.0-11.0-380.0","","","","false","","","","","","","","","","2449.10000000149","","739.6000000014901","","2","1","arrowright","1","arrowleft","[0.675,0.325,0.85,0.15]","","",""
"sailing-trial","416","2632092","0.0-11.0-381.0","","","","false","","","","","","","","","","null","","1297.7999999970198","","3","1","null","null","arrowup","[0.675,0.325,0.85,0.15]","","",""
"sailing-trial","417","2637673","0.0-11.0-382.0","","","","false","","","","","","","","","","816.6000000014901","","1787.8999999985099","","3","1","arrowright","1","arrowright","[0.675,0.325,0.85,0.15]","","",""
"sailing-trial","418","2641662","0.0-11.0-383.0","","","","false","","","","","","","","","","null","","1965","","3","0","null","null","arrowup","[0.675,0.325,0.85,0.15]","","",""
"sailing-trial","419","2647853","0.0-11.0-384.0","","","","false","","","","[{""event"":""fullscreenenter"",""trial"":3,""time"":12042},{""event"":""fullscreenexit"",""trial"":107,""time"":889311},{""event"":""blur"",""trial"":142,""time"":1098004},{""event"":""focus"",""trial"":142,""time"":1102770},{""event"":""blur"",""trial"":173,""time"":1292852},{""event"":""focus"",""trial"":174,""time"":1308020},{""event"":""blur"",""trial"":185,""time"":1372516},{""event"":""focus"",""trial"":186,""time"":1378289},{""event"":""blur"",""trial"":198,""time"":1442256},{""event"":""focus"",""trial"":199,""time"":1449724},{""event"":""blur"",""trial"":258,""time"":1746933},{""event"":""focus"",""trial"":258,""time"":1751488},{""event"":""blur"",""trial"":269,""time"":1803779},{""event"":""focus"",""trial"":269,""time"":1806525},{""event"":""blur"",""trial"":312,""time"":2017381},{""event"":""focus"",""trial"":312,""time"":2023173},{""event"":""blur"",""trial"":318,""time"":2049892},{""event"":""focus"",""trial"":318,""time"":2053423},{""event"":""blur"",""trial"":328,""time"":2107267},{""event"":""focus"",""trial"":328,""time"":2111256},{""event"":""blur"",""trial"":340,""time"":2174611},{""event"":""focus"",""trial"":340,""time"":2186416},{""event"":""blur"",""trial"":375,""time"":2406227},{""event"":""focus"",""trial"":375,""time"":2409613},{""event"":""blur"",""trial"":402,""time"":2542387},{""event"":""focus"",""trial"":403,""time"":2544960},{""event"":""blur"",""trial"":420,""time"":2651506},{""event"":""focus"",""trial"":420,""time"":2655386}]","false","","","","","1703.8000000044703","","880","","1","1","arrowleft","0","arrowright","[0.675,0.325,0.85,0.15]","","",""
"sailing-trial","420","2657412","0.0-11.0-385.0","","","","false","","","","","","","","","","null","","2252.2000000029802","","2","1","null","null","arrowup","[0.675,0.325,0.85,0.15]","","",""
"sailing-trial","421","2664462","0.0-11.0-386.0","","","","false","","","","","","","","","","2793","","1172.1000000014901","","1","0","arrowleft","0","arrowright","[0.675,0.325,0.85,0.15]","","",""
"sailing-trial","422","2667775","0.0-11.0-387.0","","","","false","","","","","","","","","","null","","1419.2000000029802","","0","0","null","null","arrowup","[0.675,0.325,0.85,0.15]","","",""
"sailing-trial","423","2672046","0.0-11.0-388.0","","","","false","","","","","","","","","","775.1000000014901","","603","","1","0","arrowleft","0","arrowright","[0.675,0.325,0.85,0.15]","","",""
"sailing-trial","424","2675489","0.0-11.0-389.0","","","","false","","","","","","","","","","null","","1180.0999999940395","","2","1","null","null","arrowup","[0.675,0.325,0.85,0.15]","","",""
"sailing-trial","425","2680368","0.0-11.0-390.0","","","","false","","","","","","","","","","822.5","","537.1000000014901","","2","1","arrowright","1","arrowleft","[0.675,0.325,0.85,0.15]","","",""
"sailing-trial","426","2683599","0.0-11.0-391.0","","","","false","","","","","","","","","","null","","1225.0999999940395","","2","1","null","null","arrowup","[0.675,0.325,0.85,0.15]","","",""
"sailing-trial","427","2688601","0.0-11.0-392.0","","","","false","","","","","","","","","","1931.3000000044703","","41.30000000447035","","2","1","arrowright","1","arrowleft","[0.675,0.325,0.85,0.15]","","",""
"sailing-trial","428","2690974","0.0-11.0-393.0","","","","false","","","","","","","","","","null","","1042.7000000029802","","2","0","null","null","arrowup","[0.675,0.325,0.85,0.15]","","",""
"sailing-trial","429","2695566","0.0-11.0-394.0","","","","false","","","","","","","","","","1177.7999999970198","","279.3999999985099","","2","1","arrowright","1","arrowleft","[0.675,0.325,0.85,0.15]","","",""
"sailing-trial","430","2699213","0.0-11.0-395.0","","","","false","","","","","","","","","","null","","1836.2999999970198","","1","0","null","null","arrowup","[0.675,0.325,0.85,0.15]","","",""
"sailing-trial","431","2704758","0.0-11.0-396.0","","","","false","","","","","","","","","","1423.7999999970198","","71","","2","0","arrowright","1","arrowleft","[0.675,0.325,0.85,0.15]","","",""
"sailing-trial","432","2708910","0.0-11.0-397.0","","","","false","","","","","","","","","","null","","2302.7999999970198","","0","0","null","null","arrowup","[0.675,0.325,0.85,0.15]","","",""
"sailing-trial","433","2714087","0.0-11.0-398.0","","","","false","","","","","","","","","","1464.8999999985099","","182.60000000149012","","2","1","arrowright","1","arrowleft","[0.675,0.325,0.85,0.15]","","",""
