"trial_type","trial_index","time_elapsed","internal_node_id","value","metadata","success","timeout","failed_images","failed_audio","failed_video","browser_interaction","low_quality","rt","stimulus","response","button_pressed","island_rt","island_response","boat_rt","boat_response","boat","reward","island_key","island","boat_key","reward_probabilities","responses","num_errors","view_history"
"pavlovia","0","2","0.0-0.0","","","","","","","","","","","","","","","","","","","","","","","","","",""
"call-function","1","2","0.0-1.0","","{""task_version"":""sailing_part1_v1"",""task_condition"":""good"",""boats"":[""B"",""D"",""A"",""C""],""boats_demo"":[""F"",""E"",""G"",""H""],""islands"":[""B"",""A""],""subject_id"":""15194"",""age"":""21"",""gender"":""Female""}","","","","","","","","","","","","","","","","","","","","","","","",""
"preload","2","4294","0.0-2.0","","","true","false","[]","[]","[]","[{""event"":""fullscreenenter"",""trial"":3,""time"":6425}]","false","","","","","","","","","","","","","","","","",""
"fullscreen","3","7423","0.0-3.0","","","true","","","","","","","","","","","","","","","","","","","","","","",""
"audio-keyboard-response","4","9344","0.0-4.0-0.0","","","","","","","","","","1877.3333333333333","audio/beep_loop.wav"," ","","","","","","","","","","","","","",""
"audio-test","5","10923","0.0-4.0-1.0","","","","","","","","","","null","audio/turtle.mp3","","3","","","","","","","","","","","","",""
"audio-test","6","13421","0.0-4.0-2.0","","","","","","","","","","null","audio/shark.mp3","","2","","","","","","","","","","","","",""
"sailing-instructions","7","44036","0.0-5.0-0.0-0.0","","","","","","","","","","","","","","null","null","null","null","null","null","","","","","","",""
"sailing-trial","8","47260","0.0-5.0-0.0-1.0-0.0","","","","false","","","","","","","","","","2102.2999999988824","","null","","null","null","arrowleft","0","null","null","","",""
"sailing-trial","9","49509","0.0-5.0-0.0-1.0-1.0","","","","false","","","","","","","","","","1153.300000000745","","null","","null","null","arrowright","1","null","null","","",""
"sailing-trial","10","52142","0.0-5.0-0.0-1.0-2.0","","","","false","","","","","","","","","","1516","","null","","null","null","arrowleft","0","null","null","","",""
"sailing-instructions","11","95817","0.0-5.0-0.0-2.0","","","","","","","","","","","","","","null","null","null","null","0","null","","","","","","",""
"sailing-trial","12","101173","0.0-5.0-0.0-3.0-0.0","","","","false","","","","","","","","","","null","","2026.7999999988824","","2","1","null","null","arrowleft","[1,1,1,1]","","",""
"sailing-trial","13","104590","0.0-5.0-0.0-3.0-1.0","","","","false","","","","","","","","","","null","","911.6999999992549","","3","1","null","null","arrowright","[1,1,1,1]","","",""
"sailing-trial","14","108288","0.0-5.0-0.0-3.0-2.0","","","","false","","","","","","","","","","null","","1815.7999999988824","","2","0","null","null","arrowleft","[0,0,0,0]","","",""
"sailing-instructions","15","115633","0.0-5.0-0.0-4.0","","","","","","","","","","","","","","null","null","null","null","null","null","","","","","","",""
"sailing-comprehension","16","136188","0.0-5.0-0.0-5.0","","","","","","","","","","17664.800000000745","","","","","","","","","","","","","","[""true"",""true"",""false"",""true""]","0",""
"sailing-instructions","17","196250","0.0-6.0-0.0-0.0","","","","","","","","","","","","","","null","null","null","null","null","null","","","","","","",""
"sailing-comprehension","18","205153","0.0-6.0-0.0-1.0","","","","","","","","","","7796.10000000149","","","","","","","","","","","","","","[""true"",""false"",""true""]","0",""
"sailing-instructions","19","219914","0.0-7.0-0.0-0.0","","","","","","","","","","","","","","null","null","null","null","null","null","","","","","","",""
"sailing-trial","20","225952","0.0-7.0-0.0-1.0-0.0","","","","false","","","","","","","","","","null","","2940.5","","0","1","null","null","arrowup","[0.2,0.8,0.2,0.8]","","",""
"sailing-trial","21","229919","0.0-7.0-0.0-1.0-1.0","","","","false","","","","","","","","","","null","","1621.300000000745","","1","1","null","null","arrowup","[0.2,0.8,0.2,0.8]","","",""
"sailing-trial","22","232802","0.0-7.0-0.0-1.0-2.0","","","","false","","","","","","","","","","null","","1132.300000000745","","2","0","null","null","arrowup","[0.2,0.8,0.2,0.8]","","",""
"sailing-trial","23","236119","0.0-7.0-0.0-1.0-3.0","","","","false","","","","","","","","","","null","","1182.699999999255","","3","1","null","null","arrowup","[0.2,0.8,0.2,0.8]","","",""
"sailing-comprehension","24","244997","0.0-7.0-0.0-2.0","","","","","","","","","","5344.5999999996275","","","","","","","","","","","","","","[""true""]","1",""
"sailing-instructions","25","258828","0.0-7.0-0.1-0.1","","","","","","","","","","","","","","null","null","null","null","null","null","","","","","","",""
"sailing-trial","26","261604","0.0-7.0-0.1-1.1-0.1","","","","false","","","","","","","","","","null","","799.0999999996275","","0","0","null","null","arrowup","[0.2,0.8,0.2,0.8]","","",""
"sailing-trial","27","264251","0.0-7.0-0.1-1.1-1.1","","","","false","","","","","","","","","","null","","721.5","","1","1","null","null","arrowup","[0.2,0.8,0.2,0.8]","","",""
"sailing-trial","28","266142","0.0-7.0-0.1-1.1-2.1","","","","false","","","","","","","","","","null","","529.7000000011176","","2","0","null","null","arrowup","[0.2,0.8,0.2,0.8]","","",""
"sailing-trial","29","268667","0.0-7.0-0.1-1.1-3.1","","","","false","","","","","","","","","","null","","522.1999999992549","","3","1","null","null","arrowup","[0.2,0.8,0.2,0.8]","","",""
"sailing-comprehension","30","273303","0.0-7.0-0.1-2.1","","","","","","","","","","2592.7000000011176","","","","","","","","","","","","","","[""false""]","0",""
"sailing-instructions","31","283494","0.0-8.0-0.0-0.0","","","","","","","","","","","","","","null","null","null","null","null","null","","","","","","",""
"sailing-comprehension","32","286932","0.0-8.0-0.0-1.0","","","","","","","","","","2184.800000000745","","","","","","","","","","","","","","[""true""]","0",""
"sailing-instructions","33","308511","0.0-9.0-0.0-0.0","","","","","","","","","","","","","","null","null","null","null","null","null","","","","","","",""
"sailing-trial","34","314667","0.0-9.0-0.0-1.0-0.0","","","","false","","","","","","","","","","1726","","1311.7000000011176","","0","0","arrowleft","0","arrowleft","[0.2,0.8,0.2,0.8]","","",""
"sailing-trial","35","318833","0.0-9.0-0.0-1.0-1.0","","","","false","","","","","","","","","","945.5999999996275","","138.09999999962747","","1","1","arrowleft","0","arrowright","[0.2,0.8,0.2,0.8]","","",""
"sailing-trial","36","322132","0.0-9.0-0.0-1.0-2.0","","","","false","","","","","","","","","","null","","1272","","0","1","null","null","arrowup","[0.2,0.8,0.2,0.8]","","",""
"sailing-trial","37","325882","0.0-9.0-0.0-1.0-3.0","","","","false","","","","","","","","","","711.8000000007451","","168","","1","1","arrowleft","0","arrowright","[0.2,0.8,0.2,0.8]","","",""
"sailing-trial","38","328815","0.0-9.0-0.0-1.0-4.0","","","","false","","","","","","","","","","null","","1010.8999999985099","","3","1","null","null","arrowup","[0.2,0.8,0.2,0.8]","","",""
"sailing-trial","39","332932","0.0-9.0-0.0-1.0-5.0","","","","false","","","","","","","","","","1155.7000000011176","","247.19999999925494","","1","1","arrowleft","0","arrowright","[0.2,0.8,0.2,0.8]","","",""
"sailing-instructions","40","358141","0.0-10.0","","","","","","","","","","","","","","null","null","null","null","null","null","","","","","","",""
"sailing-trial","41","362215","0.0-11.0-0.0","","","","false","","","","","","","","","","968.9000000003725","","71.69999999925494","","2","1","arrowright","1","arrowleft","[0.85,0.15,0.675,0.325]","","",""
"sailing-trial","42","365031","0.0-11.0-1.0","","","","false","","","","","","","","","","null","","1051.1000000014901","","0","1","null","null","arrowup","[0.85,0.15,0.675,0.325]","","",""
"sailing-trial","43","368435","0.0-11.0-2.0","","","","false","","","","","","","","","","612.9000000003725","","82.29999999888241","","2","0","arrowright","1","arrowleft","[0.85,0.15,0.675,0.325]","","",""
"sailing-trial","44","371065","0.0-11.0-3.0","","","","false","","","","","","","","","","null","","976.9000000003725","","3","1","null","null","arrowup","[0.85,0.15,0.675,0.325]","","",""
"sailing-trial","45","374198","0.0-11.0-4.0","","","","false","","","","","","","","","","622.4000000003725","","289","","2","0","arrowright","1","arrowleft","[0.85,0.15,0.675,0.325]","","",""
"sailing-trial","46","376801","0.0-11.0-5.0","","","","false","","","","","","","","","","null","","1039.6000000014901","","3","0","null","null","arrowup","[0.85,0.15,0.675,0.325]","","",""
"sailing-trial","47","380341","0.0-11.0-6.0","","","","false","","","","","","","","","","624.5","","242.40000000037253","","3","0","arrowright","1","arrowright","[0.85,0.15,0.675,0.325]","","",""
"sailing-trial","48","383030","0.0-11.0-7.0","","","","false","","","","","","","","","","null","","914.9000000003725","","0","1","null","null","arrowup","[0.85,0.15,0.675,0.325]","","",""
"sailing-trial","49","386997","0.0-11.0-8.0","","","","false","","","","","","","","","","456.40000000037253","","511.40000000037253","","0","1","arrowleft","0","arrowleft","[0.85,0.15,0.675,0.325]","","",""
"sailing-trial","50","389212","0.0-11.0-9.0","","","","false","","","","","","","","","","null","","857.7999999988824","","3","0","null","null","arrowup","[0.85,0.15,0.675,0.325]","","",""
"sailing-trial","51","392680","0.0-11.0-10.0","","","","false","","","","","","","","","","689.0999999996275","","28.399999998509884","","0","1","arrowleft","0","arrowleft","[0.85,0.15,0.675,0.325]","","",""
"sailing-trial","52","395163","0.0-11.0-11.0","","","","false","","","","","","","","","","null","","701.7999999988824","","3","1","null","null","arrowup","[0.85,0.15,0.675,0.325]","","",""
"sailing-trial","53","398829","0.0-11.0-12.0","","","","false","","","","","","","","","","614.9000000003725","","278.69999999925494","","0","1","arrowleft","0","arrowleft","[0.85,0.15,0.675,0.325]","","",""
"sailing-trial","54","401780","0.0-11.0-13.0","","","","false","","","","","","","","","","null","","1174.3999999985099","","2","1","null","null","arrowup","[0.85,0.15,0.675,0.325]","","",""
"sailing-trial","55","405396","0.0-11.0-14.0","","","","false","","","","","","","","","","771.5999999996275","","78.90000000037253","","0","1","arrowleft","0","arrowleft","[0.85,0.15,0.675,0.325]","","",""
"sailing-trial","56","407996","0.0-11.0-15.0","","","","false","","","","","","","","","","null","","1042.800000000745","","0","1","null","null","arrowup","[0.85,0.15,0.675,0.325]","","",""
"sailing-trial","57","410907","0.0-11.0-16.0","","","","false","","","","","","","","","","539.5999999996275","","238.59999999962747","","0","0","arrowleft","0","arrowleft","[0.675,0.325,0.85,0.15]","","",""
"sailing-trial","58","413779","0.0-11.0-17.0","","","","false","","","","","","","","","","null","","1120.300000000745","","2","1","null","null","arrowup","[0.675,0.325,0.85,0.15]","","",""
"sailing-trial","59","416918","0.0-11.0-18.0","","","","false","","","","","","","","","","670.5","","37.40000000037253","","1","0","arrowleft","0","arrowright","[0.675,0.325,0.85,0.15]","","",""
"sailing-trial","60","419022","0.0-11.0-19.0","","","","false","","","","","","","","","","null","","937.2000000011176","","3","0","null","null","arrowup","[0.675,0.325,0.85,0.15]","","",""
"sailing-trial","61","422048","0.0-11.0-20.0","","","","false","","","","","","","","","","474.5","","120.5","","0","0","arrowleft","0","arrowleft","[0.675,0.325,0.85,0.15]","","",""
"sailing-trial","62","424188","0.0-11.0-21.0","","","","false","","","","","","","","","","null","","844.8999999985099","","0","0","null","null","arrowup","[0.675,0.325,0.85,0.15]","","",""
"sailing-trial","63","427260","0.0-11.0-22.0","","","","false","","","","","","","","","","715.4000000003725","","94.59999999962747","","3","0","arrowright","1","arrowright","[0.675,0.325,0.85,0.15]","","",""
"sailing-trial","64","429410","0.0-11.0-23.0","","","","false","","","","","","","","","","null","","661.5","","0","0","null","null","arrowup","[0.675,0.325,0.85,0.15]","","",""
"sailing-trial","65","432928","0.0-11.0-24.0","","","","false","","","","","","","","","","487.2000000011176","","3.400000000372529","","3","1","arrowright","1","arrowright","[0.675,0.325,0.85,0.15]","","",""
"sailing-trial","66","435071","0.0-11.0-25.0","","","","false","","","","","","","","","","null","","848","","2","0","null","null","arrowup","[0.675,0.325,0.85,0.15]","","",""
"sailing-trial","67","438092","0.0-11.0-26.0","","","","false","","","","","","","","","","520.5","","126.70000000111759","","3","0","arrowright","1","arrowright","[0.675,0.325,0.85,0.15]","","",""
"sailing-trial","68","440376","0.0-11.0-27.0","","","","false","","","","","","","","","","null","","1048","","1","0","null","null","arrowup","[0.675,0.325,0.85,0.15]","","",""
"sailing-trial","69","443554","0.0-11.0-28.0","","","","false","","","","","","","","","","462.40000000037253","","137","","3","0","arrowright","1","arrowright","[0.675,0.325,0.85,0.15]","","",""
"sailing-trial","70","447061","0.0-11.0-29.0","","","","false","","","","","","","","","","null","","1665.5999999996275","","0","1","null","null","arrowup","[0.675,0.325,0.85,0.15]","","",""
"sailing-trial","71","450694","0.0-11.0-30.0","","","","false","","","","","","","","","","807.4000000003725","","193.2000000011176","","0","1","arrowleft","0","arrowleft","[0.675,0.325,0.85,0.15]","","",""
"sailing-trial","72","452683","0.0-11.0-31.0","","","","false","","","","","","","","","","null","","787.5999999996275","","1","0","null","null","arrowup","[0.675,0.325,0.85,0.15]","","",""
"sailing-trial","73","455435","0.0-11.0-32.0","","","","false","","","","","","","","","","537.6000000014901","","102.90000000037253","","0","0","arrowleft","0","arrowleft","[0.15,0.85,0.325,0.675]","","",""
"sailing-trial","74","457894","0.0-11.0-33.0","","","","false","","","","","","","","","","null","","690.0999999996275","","1","1","null","null","arrowup","[0.15,0.85,0.325,0.675]","","",""
"sailing-trial","75","461683","0.0-11.0-34.0","","","","false","","","","","","","","","","865.5999999996275","","263.5","","0","0","arrowleft","0","arrowleft","[0.15,0.85,0.325,0.675]","","",""
"sailing-trial","76","464094","0.0-11.0-35.0","","","","false","","","","","","","","","","null","","681.9000000003725","","2","1","null","null","arrowup","[0.15,0.85,0.325,0.675]","","",""
"sailing-trial","77","467160","0.0-11.0-36.0","","","","false","","","","","","","","","","634.7000000011176","","42.40000000037253","","2","0","arrowright","1","arrowleft","[0.15,0.85,0.325,0.675]","","",""
"sailing-trial","78","469093","0.0-11.0-37.0","","","","false","","","","","","","","","","null","","660.8999999985099","","3","0","null","null","arrowup","[0.15,0.85,0.325,0.675]","","",""
"sailing-trial","79","472245","0.0-11.0-38.0","","","","false","","","","","","","","","","517.2999999988824","","2.900000000372529","","2","0","arrowright","1","arrowleft","[0.15,0.85,0.325,0.675]","","",""
"sailing-trial","80","474860","0.0-11.0-39.0","","","","false","","","","","","","","","","null","","841.7000000011176","","3","1","null","null","arrowup","[0.15,0.85,0.325,0.675]","","",""
"sailing-trial","81","478309","0.0-11.0-40.0","","","","false","","","","","","","","","","618","","29.800000000745058","","2","1","arrowright","1","arrowleft","[0.15,0.85,0.325,0.675]","","",""
"sailing-trial","82","480598","0.0-11.0-41.0","","","","false","","","","","","","","","","null","","1074.8999999985099","","2","0","null","null","arrowup","[0.15,0.85,0.325,0.675]","","",""
"sailing-trial","83","484561","0.0-11.0-42.0","","","","false","","","","","","","","","","517","","652.5","","3","1","arrowright","1","arrowright","[0.15,0.85,0.325,0.675]","","",""
"sailing-trial","84","486610","0.0-11.0-43.0","","","","false","","","","","","","","","","null","","653","","2","0","null","null","arrowup","[0.15,0.85,0.325,0.675]","","",""
"sailing-trial","85","489525","0.0-11.0-44.0","","","","false","","","","","","","","","","517.2000000011176","","64.5","","3","0","arrowright","1","arrowright","[0.15,0.85,0.325,0.675]","","",""
"sailing-trial","86","491518","0.0-11.0-45.0","","","","false","","","","","","","","","","null","","680","","1","0","null","null","arrowup","[0.15,0.85,0.325,0.675]","","",""
"sailing-trial","87","495060","0.0-11.0-46.0","","","","false","","","","","","","","","","548.6999999992549","","164.40000000037253","","3","1","arrowright","1","arrowright","[0.15,0.85,0.325,0.675]","","",""
"sailing-trial","88","497139","0.0-11.0-47.0","","","","false","","","","","","","","","","null","","843.5999999996275","","0","0","null","null","arrowup","[0.15,0.85,0.325,0.675]","","",""
"sailing-trial","89","499862","0.0-11.0-48.0","","","","false","","","","","","","","","","442.90000000037253","","29.700000001117587","","3","0","arrowright","1","arrowright","[0.15,0.85,0.325,0.675]","","",""
"sailing-trial","90","501807","0.0-11.0-49.0","","","","false","","","","","","","","","","null","","679","","0","0","null","null","arrowup","[0.15,0.85,0.325,0.675]","","",""
"sailing-trial","91","504971","0.0-11.0-50.0","","","","false","","","","","","","","","","408.59999999962747","","63.90000000037253","","3","0","arrowright","1","arrowright","[0.325,0.675,0.15,0.85]","","",""
"sailing-trial","92","507341","0.0-11.0-51.0","","","","false","","","","","","","","","","null","","1116.7999999988824","","2","0","null","null","arrowup","[0.325,0.675,0.15,0.85]","","",""
"sailing-trial","93","510592","0.0-11.0-52.0","","","","false","","","","","","","","","","574","","43.59999999962747","","3","1","arrowright","1","arrowright","[0.325,0.675,0.15,0.85]","","",""
"sailing-trial","94","514142","0.0-11.0-53.0","","","","false","","","","","","","","","","null","","1798.5","","3","1","null","null","arrowup","[0.325,0.675,0.15,0.85]","","",""
"sailing-trial","95","517459","0.0-11.0-54.0","","","","false","","","","","","","","","","485.90000000037253","","35.20000000111759","","3","1","arrowright","1","arrowright","[0.325,0.675,0.15,0.85]","","",""
"sailing-trial","96","520542","0.0-11.0-55.0","","","","false","","","","","","","","","","null","","1328.8999999985099","","1","1","null","null","arrowup","[0.325,0.675,0.15,0.85]","","",""
"sailing-trial","97","524092","0.0-11.0-56.0","","","","false","","","","","","","","","","500","","173.60000000149012","","3","1","arrowright","1","arrowright","[0.325,0.675,0.15,0.85]","","",""
"sailing-trial","98","526167","0.0-11.0-57.0","","","","false","","","","","","","","","","null","","824.0999999996275","","1","0","null","null","arrowup","[0.325,0.675,0.15,0.85]","","",""
"sailing-trial","99","529405","0.0-11.0-58.0","","","","false","","","","","","","","","","518.0999999996275","","390.5","","3","0","arrowright","1","arrowright","[0.325,0.675,0.15,0.85]","","",""
"sailing-trial","100","531481","0.0-11.0-59.0","","","","false","","","","","","","","","","null","","803.5999999996275","","1","0","null","null","arrowup","[0.325,0.675,0.15,0.85]","","",""
"sailing-trial","101","534741","0.0-11.0-60.0","","","","false","","","","","","","","","","787","","73.89999999850988","","0","0","arrowleft","0","arrowleft","[0.325,0.675,0.15,0.85]","","",""
"sailing-trial","102","537307","0.0-11.0-61.0","","","","false","","","","","","","","","","null","","809.1999999992549","","1","1","null","null","arrowup","[0.325,0.675,0.15,0.85]","","",""
"sailing-trial","103","540658","0.0-11.0-62.0","","","","false","","","","","","","","","","375.59999999962747","","208.09999999962747","","0","1","arrowleft","0","arrowleft","[0.325,0.675,0.15,0.85]","","",""
"sailing-trial","104","542958","0.0-11.0-63.0","","","","false","","","","","","","","","","null","","598.9000000003725","","1","1","null","null","arrowup","[0.325,0.675,0.15,0.85]","","",""
"sailing-trial","105","546208","0.0-11.0-64.0","","","","false","","","","","","","","","","371.2000000011176","","74.39999999850988","","0","1","arrowleft","0","arrowleft","[0.325,0.675,0.15,0.85]","","",""
"sailing-trial","106","548858","0.0-11.0-65.0","","","","false","","","","","","","","","","null","","811.7999999988824","","0","1","null","null","arrowup","[0.325,0.675,0.15,0.85]","","",""
"sailing-trial","107","551724","0.0-11.0-66.0","","","","false","","","","","","","","","","442.59999999962747","","186.90000000037253","","0","0","arrowleft","0","arrowleft","[0.15,0.85,0.325,0.675]","","",""
"sailing-trial","108","554191","0.0-11.0-67.0","","","","false","","","","","","","","","","null","","686.2999999988824","","1","1","null","null","arrowup","[0.15,0.85,0.325,0.675]","","",""
"sailing-trial","109","557057","0.0-11.0-68.0","","","","false","","","","","","","","","","404.2000000011176","","194.7999999988824","","0","0","arrowleft","0","arrowleft","[0.15,0.85,0.325,0.675]","","",""
"sailing-trial","110","558792","0.0-11.0-69.0","","","","false","","","","","","","","","","null","","670.5999999996275","","2","0","null","null","arrowup","[0.15,0.85,0.325,0.675]","","",""
"sailing-trial","111","561916","0.0-11.0-70.0","","","","false","","","","","","","","","","549.6999999992549","","253.59999999962747","","0","0","arrowleft","0","arrowleft","[0.15,0.85,0.325,0.675]","","",""
"sailing-trial","112","564390","0.0-11.0-71.0","","","","false","","","","","","","","","","null","","698.2000000011176","","3","1","null","null","arrowup","[0.15,0.85,0.325,0.675]","","",""
"sailing-trial","113","567990","0.0-11.0-72.0","","","","false","","","","","","","","","","472.7000000011176","","141.19999999925494","","3","1","arrowright","1","arrowright","[0.15,0.85,0.325,0.675]","","",""
"sailing-trial","114","570607","0.0-11.0-73.0","","","","false","","","","","","","","","","null","","857.4000000003725","","1","1","null","null","arrowup","[0.15,0.85,0.325,0.675]","","",""
"sailing-trial","115","574006","0.0-11.0-74.0","","","","false","","","","","","","","","","525.9000000003725","","57.20000000111759","","3","1","arrowright","1","arrowright","[0.15,0.85,0.325,0.675]","","",""
"sailing-trial","116","576823","0.0-11.0-75.0","","","","false","","","","","","","","","","null","","1048.699999999255","","0","1","null","null","arrowup","[0.15,0.85,0.325,0.675]","","",""
"sailing-trial","117","579895","0.0-11.0-76.0","","","","false","","","","","","","","","","479.2000000011176","","144.89999999850988","","3","0","arrowright","1","arrowright","[0.15,0.85,0.325,0.675]","","",""
"sailing-trial","118","582391","0.0-11.0-77.0","","","","false","","","","","","","","","","null","","1365.6000000014901","","2","0","null","null","arrowup","[0.15,0.85,0.325,0.675]","","",""
"sailing-trial","119","585623","0.0-11.0-78.0","","","","false","","","","","","","","","","457.2000000011176","","90.40000000037253","","3","1","arrowright","1","arrowright","[0.15,0.85,0.325,0.675]","","",""
"sailing-trial","120","587964","0.0-11.0-79.0","","","","false","","","","","","","","","","null","","1171.6000000014901","","2","0","null","null","arrowup","[0.15,0.85,0.325,0.675]","","",""
"sailing-trial","121","591588","0.0-11.0-80.0","","","","false","","","","","","","","","","362.5","","491.80000000074506","","3","1","arrowright","1","arrowright","[0.15,0.85,0.325,0.675]","","",""
"sailing-trial","122","593554","0.0-11.0-81.0","","","","false","","","","","","","","","","null","","643","","2","0","null","null","arrowup","[0.15,0.85,0.325,0.675]","","",""
"sailing-trial","123","596593","0.0-11.0-82.0","","","","false","","","","","","","","","","404.2000000011176","","339.19999999925494","","3","0","arrowright","1","arrowright","[0.15,0.85,0.325,0.675]","","",""
"sailing-trial","124","598956","0.0-11.0-83.0","","","","false","","","","","","","","","","null","","610","","1","1","null","null","arrowup","[0.15,0.85,0.325,0.675]","","",""
"sailing-trial","125","601844","0.0-11.0-84.0","","","","false","","","","","","","","","","397.5","","336.59999999962747","","1","0","arrowleft","0","arrowright","[0.325,0.675,0.15,0.85]","","",""
"sailing-trial","126","603877","0.0-11.0-85.0","","","","false","","","","","","","","","","null","","809.1999999992549","","0","0","null","null","arrowup","[0.325,0.675,0.15,0.85]","","",""
"sailing-trial","127","607321","0.0-11.0-86.0","","","","false","","","","","","","","","","471.7000000011176","","342.80000000074506","","1","1","arrowleft","0","arrowright","[0.325,0.675,0.15,0.85]","","",""
"sailing-trial","128","609739","0.0-11.0-87.0","","","","false","","","","","","","","","","null","","652.5","","1","1","null","null","arrowup","[0.325,0.675,0.15,0.85]","","",""
"sailing-trial","129","613637","0.0-11.0-88.0","","","","false","","","","","","","","","","878.6000000014901","","3","","1","1","arrowleft","0","arrowright","[0.325,0.675,0.15,0.85]","","",""
"sailing-trial","130","615741","0.0-11.0-89.0","","","","false","","","","","","","","","","null","","785.8000000007451","","2","0","null","null","arrowup","[0.325,0.675,0.15,0.85]","","",""
"sailing-trial","131","619655","0.0-11.0-90.0","","","","false","","","","","","","","","","463","","186","","1","1","arrowleft","0","arrowright","[0.325,0.675,0.15,0.85]","","",""
"sailing-trial","132","622188","0.0-11.0-91.0","","","","false","","","","","","","","","","null","","839.7999999988824","","3","1","null","null","arrowup","[0.325,0.675,0.15,0.85]","","",""
"sailing-trial","133","625423","0.0-11.0-92.0","","","","false","","","","","","","","","","534.4000000003725","","106.80000000074506","","3","0","arrowright","1","arrowright","[0.325,0.675,0.15,0.85]","","",""
"sailing-trial","134","627855","0.0-11.0-93.0","","","","false","","","","","","","","","","null","","707.7000000011176","","3","1","null","null","arrowup","[0.325,0.675,0.15,0.85]","","",""
"sailing-trial","135","631521","0.0-11.0-94.0","","","","false","","","","","","","","","","473","","167.5","","1","1","arrowleft","0","arrowright","[0.325,0.675,0.15,0.85]","","",""
"sailing-trial","136","634088","0.0-11.0-95.0","","","","false","","","","","","","","","","null","","820.9000000003725","","2","1","null","null","arrowup","[0.325,0.675,0.15,0.85]","","",""
"sailing-trial","137","636893","0.0-11.0-96.0","","","","false","","","","","","","","","","520","","98","","1","0","arrowleft","0","arrowright","[0.325,0.675,0.15,0.85]","","",""
"sailing-trial","138","638634","0.0-11.0-97.0","","","","false","","","","","","","","","","null","","624.4000000003725","","3","0","null","null","arrowup","[0.325,0.675,0.15,0.85]","","",""
"sailing-trial","139","642320","0.0-11.0-98.0","","","","false","","","","","","","","","","529.5","","158.2000000011176","","1","1","arrowleft","0","arrowright","[0.325,0.675,0.15,0.85]","","",""
"sailing-trial","140","645171","0.0-11.0-99.0","","","","false","","","","","","","","","","null","","1115.5","","1","1","null","null","arrowup","[0.325,0.675,0.15,0.85]","","",""
"sailing-trial","141","648821","0.0-11.0-100.0","","","","false","","","","","","","","","","722.1999999992549","","100","","1","1","arrowleft","0","arrowright","[0.325,0.675,0.15,0.85]","","",""
"sailing-trial","142","651753","0.0-11.0-101.0","","","","false","","","","","","","","","","null","","1299","","2","1","null","null","arrowup","[0.325,0.675,0.15,0.85]","","",""
"sailing-trial","143","655703","0.0-11.0-102.0","","","","false","","","","","","","","","","715.4000000003725","","306.8999999985099","","1","1","arrowleft","0","arrowright","[0.325,0.675,0.15,0.85]","","",""
"sailing-trial","144","658737","0.0-11.0-103.0","","","","false","","","","","","","","","","null","","1457","","1","1","null","null","arrowup","[0.325,0.675,0.15,0.85]","","",""
"sailing-trial","145","662209","0.0-11.0-104.0","","","","false","","","","","","","","","","649.5","","174.09999999962747","","1","0","arrowleft","0","arrowright","[0.325,0.675,0.15,0.85]","","",""
"sailing-trial","146","665137","0.0-11.0-105.0","","","","false","","","","","","","","","","null","","1154.0999999996275","","3","1","null","null","arrowup","[0.325,0.675,0.15,0.85]","","",""
"sailing-trial","147","668851","0.0-11.0-106.0","","","","false","","","","","","","","","","1153","","9","","1","0","arrowleft","0","arrowright","[0.675,0.325,0.85,0.15]","","",""
"sailing-trial","148","670928","0.0-11.0-107.0","","","","false","","","","","","","","","","null","","840.2999999988824","","1","0","null","null","arrowup","[0.675,0.325,0.85,0.15]","","",""
"sailing-trial","149","675153","0.0-11.0-108.0","","","","false","","","","","","","","","","522.0999999996275","","126.20000000111759","","2","1","arrowright","1","arrowleft","[0.675,0.325,0.85,0.15]","","",""
"sailing-trial","150","677419","0.0-11.0-109.0","","","","false","","","","","","","","","","null","","605.8999999985099","","0","1","null","null","arrowup","[0.675,0.325,0.85,0.15]","","",""
"sailing-trial","151","680635","0.0-11.0-110.0","","","","false","","","","","","","","","","492.09999999962747","","121.40000000037253","","2","1","arrowright","1","arrowleft","[0.675,0.325,0.85,0.15]","","",""
"sailing-trial","152","682873","0.0-11.0-111.0","","","","false","","","","","","","","","","null","","848.9000000003725","","0","0","null","null","arrowup","[0.675,0.325,0.85,0.15]","","",""
"sailing-trial","153","686153","0.0-11.0-112.0","","","","false","","","","","","","","","","528.0999999996275","","28.300000000745058","","2","1","arrowright","1","arrowleft","[0.675,0.325,0.85,0.15]","","",""
"sailing-trial","154","688752","0.0-11.0-113.0","","","","false","","","","","","","","","","null","","972.5","","2","1","null","null","arrowup","[0.675,0.325,0.85,0.15]","","",""
"sailing-trial","155","692052","0.0-11.0-114.0","","","","false","","","","","","","","","","509.19999999925494","","16.90000000037253","","2","1","arrowright","1","arrowleft","[0.675,0.325,0.85,0.15]","","",""
"sailing-trial","156","694369","0.0-11.0-115.0","","","","false","","","","","","","","","","null","","580.5999999996275","","0","1","null","null","arrowup","[0.675,0.325,0.85,0.15]","","",""
"sailing-trial","157","697602","0.0-11.0-116.0","","","","false","","","","","","","","","","514.6000000014901","","79.70000000111759","","2","1","arrowright","1","arrowleft","[0.675,0.325,0.85,0.15]","","",""
"sailing-trial","158","699952","0.0-11.0-117.0","","","","false","","","","","","","","","","null","","752.1999999992549","","2","1","null","null","arrowup","[0.675,0.325,0.85,0.15]","","",""
"sailing-trial","159","703039","0.0-11.0-118.0","","","","false","","","","","","","","","","550.5","","322.5","","2","0","arrowright","1","arrowleft","[0.675,0.325,0.85,0.15]","","",""
"sailing-trial","160","705668","0.0-11.0-119.0","","","","false","","","","","","","","","","null","","944.5999999996275","","0","1","null","null","arrowup","[0.675,0.325,0.85,0.15]","","",""
"sailing-trial","161","708853","0.0-11.0-120.0","","","","false","","","","","","","","","","533.6999999992549","","612.1999999992549","","2","0","arrowright","1","arrowleft","[0.675,0.325,0.85,0.15]","","",""
"sailing-trial","162","711484","0.0-11.0-121.0","","","","false","","","","","","","","","","null","","961.6999999992549","","2","1","null","null","arrowup","[0.675,0.325,0.85,0.15]","","",""
"sailing-trial","163","714901","0.0-11.0-122.0","","","","false","","","","","","","","","","435.59999999962747","","95.90000000037253","","0","1","arrowleft","0","arrowleft","[0.85,0.15,0.675,0.325]","","",""
"sailing-trial","164","717501","0.0-11.0-123.0","","","","false","","","","","","","","","","null","","914.3000000007451","","0","1","null","null","arrowup","[0.85,0.15,0.675,0.325]","","",""
"sailing-trial","165","721018","0.0-11.0-124.0","","","","false","","","","","","","","","","429.7000000011176","","87.20000000111759","","0","1","arrowleft","0","arrowleft","[0.85,0.15,0.675,0.325]","","",""
"sailing-trial","166","723077","0.0-11.0-125.0","","","","false","","","","","","","","","","null","","988.3000000007451","","3","0","null","null","arrowup","[0.85,0.15,0.675,0.325]","","",""
"sailing-trial","167","726316","0.0-11.0-126.0","","","","false","","","","","","","","","","501.2999999988824","","55.90000000037253","","0","1","arrowleft","0","arrowleft","[0.85,0.15,0.675,0.325]","","",""
"sailing-trial","168","728616","0.0-11.0-127.0","","","","false","","","","","","","","","","null","","792.4000000003725","","0","1","null","null","arrowup","[0.85,0.15,0.675,0.325]","","",""
"sailing-trial","169","731949","0.0-11.0-128.0","","","","false","","","","","","","","","","445.7000000011176","","24.700000001117587","","0","1","arrowleft","0","arrowleft","[0.85,0.15,0.675,0.325]","","",""
"sailing-trial","170","733891","0.0-11.0-129.0","","","","false","","","","","","","","","","null","","861.9000000003725","","1","0","null","null","arrowup","[0.85,0.15,0.675,0.325]","","",""
"sailing-trial","171","737015","0.0-11.0-130.0","","","","false","","","","","","","","","","393.19999999925494","","43.59999999962747","","0","1","arrowleft","0","arrowleft","[0.85,0.15,0.675,0.325]","","",""
"sailing-trial","172","739448","0.0-11.0-131.0","","","","false","","","","","","","","","","null","","739.1999999992549","","0","1","null","null","arrowup","[0.85,0.15,0.675,0.325]","","",""
"sailing-trial","173","744614","0.0-11.0-132.0","","","","false","","","","","","","","","","426.1000000014901","","1939.9000000003725","","0","1","arrowleft","0","arrowleft","[0.85,0.15,0.675,0.325]","","",""
"sailing-trial","174","746265","0.0-11.0-133.0","","","","false","","","","","","","","","","null","","595.6999999992549","","3","0","null","null","arrowup","[0.85,0.15,0.675,0.325]","","",""
"sailing-trial","175","749447","0.0-11.0-134.0","","","","false","","","","","","","","","","422.5","","141.10000000149012","","0","1","arrowleft","0","arrowleft","[0.85,0.15,0.675,0.325]","","",""
"sailing-trial","176","751369","0.0-11.0-135.0","","","","false","","","","","","","","","","null","","836.3000000007451","","3","0","null","null","arrowup","[0.85,0.15,0.675,0.325]","","",""
"sailing-trial","177","754695","0.0-11.0-136.0","","","","false","","","","","","","","","","274.1000000014901","","276.90000000037253","","0","0","arrowleft","0","arrowleft","[0.85,0.15,0.675,0.325]","","",""
"sailing-trial","178","756712","0.0-11.0-137.0","","","","false","","","","","","","","","","null","","943.0999999996275","","1","0","null","null","arrowup","[0.85,0.15,0.675,0.325]","","",""
"sailing-trial","179","760013","0.0-11.0-138.0","","","","false","","","","","","","","","","381.40000000037253","","103.40000000037253","","0","1","arrowleft","0","arrowleft","[0.675,0.325,0.85,0.15]","","",""
"sailing-trial","180","762282","0.0-11.0-139.0","","","","false","","","","","","","","","","null","","750.5999999996275","","1","0","null","null","arrowup","[0.675,0.325,0.85,0.15]","","",""
"sailing-trial","181","764944","0.0-11.0-140.0","","","","false","","","","","","","","","","388.19999999925494","","54.70000000111759","","0","0","arrowleft","0","arrowleft","[0.675,0.325,0.85,0.15]","","",""
"sailing-trial","182","767163","0.0-11.0-141.0","","","","false","","","","","","","","","","null","","696.6999999992549","","0","1","null","null","arrowup","[0.675,0.325,0.85,0.15]","","",""
"sailing-trial","183","771296","0.0-11.0-142.0","","","","false","","","","","","","","","","1137.4000000003725","","60.09999999962747","","0","1","arrowleft","0","arrowleft","[0.675,0.325,0.85,0.15]","","",""
"sailing-trial","184","773512","0.0-11.0-143.0","","","","false","","","","","","","","","","null","","614.9000000003725","","2","1","null","null","arrowup","[0.675,0.325,0.85,0.15]","","",""
"sailing-trial","185","777046","0.0-11.0-144.0","","","","false","","","","","","","","","","667","","25.600000001490116","","0","1","arrowleft","0","arrowleft","[0.675,0.325,0.85,0.15]","","",""
"sailing-trial","186","779562","0.0-11.0-145.0","","","","false","","","","","","","","","","null","","781.6999999992549","","0","1","null","null","arrowup","[0.675,0.325,0.85,0.15]","","",""
"sailing-trial","187","783795","0.0-11.0-146.0","","","","false","","","","","","","","","","598.0999999996275","","822.5","","0","1","arrowleft","0","arrowleft","[0.675,0.325,0.85,0.15]","","",""
"sailing-trial","188","785922","0.0-11.0-147.0","","","","false","","","","","","","","","","null","","863.5999999996275","","1","0","null","null","arrowup","[0.675,0.325,0.85,0.15]","","",""
"sailing-trial","189","788850","0.0-11.0-148.0","","","","false","","","","","","","","","","565.5","","127.90000000037253","","0","0","arrowleft","0","arrowleft","[0.675,0.325,0.85,0.15]","","",""
"sailing-trial","190","790962","0.0-11.0-149.0","","","","false","","","","","","","","","","null","","895.4000000003725","","3","0","null","null","arrowup","[0.675,0.325,0.85,0.15]","","",""
"sailing-trial","191","794261","0.0-11.0-150.0","","","","false","","","","","","","","","","484.30000000074506","","11.800000000745058","","0","1","arrowleft","0","arrowleft","[0.675,0.325,0.85,0.15]","","",""
"sailing-trial","192","796544","0.0-11.0-151.0","","","","false","","","","","","","","","","null","","672.3000000007451","","2","1","null","null","arrowup","[0.675,0.325,0.85,0.15]","","",""
"sailing-trial","193","799795","0.0-11.0-152.0","","","","false","","","","","","","","","","428.7999999988824","","115.19999999925494","","0","1","arrowleft","0","arrowleft","[0.675,0.325,0.85,0.15]","","",""
"sailing-trial","194","802228","0.0-11.0-153.0","","","","false","","","","","","","","","","null","","704.0999999996275","","2","1","null","null","arrowup","[0.675,0.325,0.85,0.15]","","",""
"sailing-trial","195","805022","0.0-11.0-154.0","","","","false","","","","","","","","","","477.90000000037253","","32.600000001490116","","0","0","arrowleft","0","arrowleft","[0.85,0.15,0.675,0.325]","","",""
"sailing-trial","196","806846","0.0-11.0-155.0","","","","false","","","","","","","","","","null","","563.7000000011176","","1","0","null","null","arrowup","[0.85,0.15,0.675,0.325]","","",""
"sailing-trial","197","809877","0.0-11.0-156.0","","","","false","","","","","","","","","","370.40000000037253","","6.900000000372529","","0","1","arrowleft","0","arrowleft","[0.85,0.15,0.675,0.325]","","",""
"sailing-trial","198","811724","0.0-11.0-157.0","","","","false","","","","","","","","","","null","","594","","2","0","null","null","arrowup","[0.85,0.15,0.675,0.325]","","",""
"sailing-trial","199","814909","0.0-11.0-158.0","","","","false","","","","","","","","","","285.3999999985099","","4.300000000745058","","0","0","arrowleft","0","arrowleft","[0.85,0.15,0.675,0.325]","","",""
"sailing-trial","200","816762","0.0-11.0-159.0","","","","false","","","","","","","","","","null","","695","","0","0","null","null","arrowup","[0.85,0.15,0.675,0.325]","","",""
"sailing-trial","201","819476","0.0-11.0-160.0","","","","false","","","","","","","","","","413.3999999985099","","92.79999999888241","","0","0","arrowleft","0","arrowleft","[0.85,0.15,0.675,0.325]","","",""
"sailing-trial","202","821877","0.0-11.0-161.0","","","","false","","","","","","","","","","null","","714.4000000003725","","3","1","null","null","arrowup","[0.85,0.15,0.675,0.325]","","",""
"sailing-trial","203","825177","0.0-11.0-162.0","","","","false","","","","","","","","","","490.09999999962747","","66.59999999962747","","2","1","arrowright","1","arrowleft","[0.85,0.15,0.675,0.325]","","",""
"sailing-trial","204","827577","0.0-11.0-163.0","","","","false","","","","","","","","","","null","","671.4000000003725","","2","1","null","null","arrowup","[0.85,0.15,0.675,0.325]","","",""
"sailing-trial","205","830877","0.0-11.0-164.0","","","","false","","","","","","","","","","491.5","","112.19999999925494","","2","1","arrowright","1","arrowleft","[0.85,0.15,0.675,0.325]","","",""
"sailing-trial","206","832624","0.0-11.0-165.0","","","","false","","","","","","","","","","null","","640.9000000003725","","2","0","null","null","arrowup","[0.85,0.15,0.675,0.325]","","",""
"sailing-trial","207","835485","0.0-11.0-166.0","","","","false","","","","","","","","","","490.59999999962747","","128.5","","2","0","arrowright","1","arrowleft","[0.85,0.15,0.675,0.325]","","",""
"sailing-trial","208","838510","0.0-11.0-167.0","","","","false","","","","","","","","","","null","","787.0999999996275","","0","1","null","null","arrowup","[0.85,0.15,0.675,0.325]","","",""
"sailing-trial","209","841776","0.0-11.0-168.0","","","","false","","","","","","","","","","587.5","","33.70000000111759","","2","1","arrowright","1","arrowleft","[0.85,0.15,0.675,0.325]","","",""
"sailing-trial","210","843938","0.0-11.0-169.0","","","","false","","","","","","","","","","null","","986","","3","0","null","null","arrowup","[0.85,0.15,0.675,0.325]","","",""
"sailing-trial","211","847259","0.0-11.0-170.0","","","","false","","","","","","","","","","524.4000000003725","","14.599999999627471","","2","1","arrowright","1","arrowleft","[0.85,0.15,0.675,0.325]","","",""
"sailing-trial","212","849153","0.0-11.0-171.0","","","","false","","","","","","","","","","null","","699.7999999988824","","2","0","null","null","arrowup","[0.85,0.15,0.675,0.325]","","",""
"sailing-trial","213","851817","0.0-11.0-172.0","","","","false","","","","","","","","","","542.6000000014901","","70.39999999850988","","2","0","arrowright","1","arrowleft","[0.85,0.15,0.675,0.325]","","",""
"sailing-trial","214","853846","0.0-11.0-173.0","","","","false","","","","","","","","","","null","","834","","1","0","null","null","arrowup","[0.85,0.15,0.675,0.325]","","",""
"sailing-trial","215","856604","0.0-11.0-174.0","","","","false","","","","","","","","","","538.0999999996275","","79.80000000074506","","2","0","arrowright","1","arrowleft","[0.85,0.15,0.675,0.325]","","",""
"sailing-trial","216","858564","0.0-11.0-175.0","","","","false","","","","","","","","","","null","","923.7000000011176","","2","0","null","null","arrowup","[0.85,0.15,0.675,0.325]","","",""
"sailing-trial","217","861592","0.0-11.0-176.0","","","","false","","","","","","","","","","285.5","","104.40000000037253","","3","1","arrowright","1","arrowright","[0.675,0.325,0.85,0.15]","","",""
"sailing-trial","218","863228","0.0-11.0-177.0","","","","false","","","","","","","","","","null","","463.2000000011176","","0","0","null","null","arrowup","[0.675,0.325,0.85,0.15]","","",""
"sailing-trial","219","865889","0.0-11.0-178.0","","","","false","","","","","","","","","","368.5","","138.2000000011176","","3","0","arrowright","1","arrowright","[0.675,0.325,0.85,0.15]","","",""
"sailing-trial","220","868175","0.0-11.0-179.0","","","","false","","","","","","","","","","null","","704","","2","1","null","null","arrowup","[0.675,0.325,0.85,0.15]","","",""
"sailing-trial","221","870413","0.0-11.0-180.0","","","","false","","","","","","","","","","10.199999999254942","","164.90000000037253","","3","0","arrowright","1","arrowright","[0.675,0.325,0.85,0.15]","","",""
"sailing-trial","222","872168","0.0-11.0-181.0","","","","false","","","","","","","","","","null","","693.5","","1","0","null","null","arrowup","[0.675,0.325,0.85,0.15]","","",""
"sailing-trial","223","875018","0.0-11.0-182.0","","","","false","","","","","","","","","","461.80000000074506","","211","","0","0","arrowleft","0","arrowleft","[0.675,0.325,0.85,0.15]","","",""
"sailing-trial","224","876729","0.0-11.0-183.0","","","","false","","","","","","","","","","null","","598.3000000007451","","3","0","null","null","arrowup","[0.675,0.325,0.85,0.15]","","",""
"sailing-trial","225","879942","0.0-11.0-184.0","","","","false","","","","","","","","","","457.80000000074506","","63.09999999962747","","2","1","arrowright","1","arrowleft","[0.675,0.325,0.85,0.15]","","",""
"sailing-trial","226","881827","0.0-11.0-185.0","","","","false","","","","","","","","","","null","","720.3000000007451","","2","0","null","null","arrowup","[0.675,0.325,0.85,0.15]","","",""
"sailing-trial","227","885174","0.0-11.0-186.0","","","","false","","","","","","","","","","422.7000000011176","","320.30000000074506","","0","1","arrowleft","0","arrowleft","[0.675,0.325,0.85,0.15]","","",""
"sailing-trial","228","887048","0.0-11.0-187.0","","","","false","","","","","","","","","","null","","651.2000000011176","","3","0","null","null","arrowup","[0.675,0.325,0.85,0.15]","","",""
"sailing-trial","229","890091","0.0-11.0-188.0","","","","false","","","","","","","","","","479.90000000037253","","14.699999999254942","","2","1","arrowright","1","arrowleft","[0.675,0.325,0.85,0.15]","","",""
"sailing-trial","230","891429","0.0-11.0-189.0","","","","false","","","","","","","","","","null","","309.90000000037253","","1","0","null","null","arrowup","[0.675,0.325,0.85,0.15]","","",""
"sailing-trial","231","894807","0.0-11.0-190.0","","","","false","","","","","","","","","","518","","120.70000000111759","","0","1","arrowleft","0","arrowleft","[0.675,0.325,0.85,0.15]","","",""
"sailing-trial","232","897207","0.0-11.0-191.0","","","","false","","","","","","","","","","null","","555.0999999996275","","0","1","null","null","arrowup","[0.675,0.325,0.85,0.15]","","",""
"sailing-trial","233","900040","0.0-11.0-192.0","","","","false","","","","","","","","","","98.60000000149012","","145.2000000011176","","0","1","arrowleft","0","arrowleft","[0.675,0.325,0.85,0.15]","","",""
"sailing-trial","234","902207","0.0-11.0-193.0","","","","false","","","","","","","","","","null","","540","","0","1","null","null","arrowup","[0.675,0.325,0.85,0.15]","","",""
"sailing-trial","235","905341","0.0-11.0-194.0","","","","false","","","","","","","","","","479.40000000037253","","62.80000000074506","","0","1","arrowleft","0","arrowleft","[0.675,0.325,0.85,0.15]","","",""
"sailing-trial","236","907686","0.0-11.0-195.0","","","","false","","","","","","","","","","null","","900","","1","0","null","null","arrowup","[0.675,0.325,0.85,0.15]","","",""
"sailing-trial","237","911024","0.0-11.0-196.0","","","","false","","","","","","","","","","633.5","","2.900000000372529","","0","1","arrowleft","0","arrowleft","[0.85,0.15,0.675,0.325]","","",""
"sailing-trial","238","912837","0.0-11.0-197.0","","","","false","","","","","","","","","","null","","225.5","","3","0","null","null","arrowup","[0.85,0.15,0.675,0.325]","","",""
"sailing-trial","239","915790","0.0-11.0-198.0","","","","false","","","","","","","","","","390.80000000074506","","19.300000000745058","","0","1","arrowleft","0","arrowleft","[0.85,0.15,0.675,0.325]","","",""
"sailing-trial","240","917531","0.0-11.0-199.0","","","","false","","","","","","","","","","null","","568.6999999992549","","1","0","null","null","arrowup","[0.85,0.15,0.675,0.325]","","",""
"sailing-trial","241","920706","0.0-11.0-200.0","","","","false","","","","","","","","","","402.80000000074506","","146.80000000074506","","0","1","arrowleft","0","arrowleft","[0.85,0.15,0.675,0.325]","","",""
"sailing-trial","242","922790","0.0-11.0-201.0","","","","false","","","","","","","","","","null","","379.2000000011176","","0","1","null","null","arrowup","[0.85,0.15,0.675,0.325]","","",""
"sailing-trial","243","926090","0.0-11.0-202.0","","","","false","","","","","","","","","","368.2999999988824","","29.90000000037253","","0","1","arrowleft","0","arrowleft","[0.85,0.15,0.675,0.325]","","",""
"sailing-trial","244","928389","0.0-11.0-203.0","","","","false","","","","","","","","","","null","","721.2000000011176","","0","1","null","null","arrowup","[0.85,0.15,0.675,0.325]","","",""
"sailing-trial","245","932406","0.0-11.0-204.0","","","","false","","","","","","","","","","1015.5","","465.90000000037253","","0","1","arrowleft","0","arrowleft","[0.85,0.15,0.675,0.325]","","",""
"sailing-trial","246","934312","0.0-11.0-205.0","","","","false","","","","","","","","","","null","","729","","1","0","null","null","arrowup","[0.85,0.15,0.675,0.325]","","",""
"sailing-trial","247","937389","0.0-11.0-206.0","","","","false","","","","","","","","","","337.40000000037253","","86.90000000037253","","0","1","arrowleft","0","arrowleft","[0.85,0.15,0.675,0.325]","","",""
"sailing-trial","248","939872","0.0-11.0-207.0","","","","false","","","","","","","","","","null","","768.3999999985099","","2","1","null","null","arrowup","[0.85,0.15,0.675,0.325]","","",""
"sailing-trial","249","943172","0.0-11.0-208.0","","","","false","","","","","","","","","","379.09999999962747","","334.2999999988824","","0","1","arrowleft","0","arrowleft","[0.85,0.15,0.675,0.325]","","",""
"sailing-trial","250","944948","0.0-11.0-209.0","","","","false","","","","","","","","","","null","","596.1999999992549","","1","0","null","null","arrowup","[0.85,0.15,0.675,0.325]","","",""
"sailing-trial","251","947410","0.0-11.0-210.0","","","","false","","","","","","","","","","181.2000000011176","","133.09999999962747","","0","0","arrowleft","0","arrowleft","[0.85,0.15,0.675,0.325]","","",""
"sailing-trial","252","949955","0.0-11.0-211.0","","","","false","","","","","","","","","","null","","927.8000000007451","","0","1","null","null","arrowup","[0.85,0.15,0.675,0.325]","","",""
"sailing-trial","253","953506","0.0-11.0-212.0","","","","false","","","","","","","","","","453.80000000074506","","105.59999999962747","","0","1","arrowleft","0","arrowleft","[0.85,0.15,0.675,0.325]","","",""
"sailing-trial","254","955456","0.0-11.0-213.0","","","","false","","","","","","","","","","null","","849.8000000007451","","3","0","null","null","arrowup","[0.85,0.15,0.675,0.325]","","",""
"sailing-trial","255","958042","0.0-11.0-214.0","","","","false","","","","","","","","","","380.1000000014901","","100.30000000074506","","0","0","arrowleft","0","arrowleft","[0.675,0.325,0.85,0.15]","","",""
"sailing-trial","256","960388","0.0-11.0-215.0","","","","false","","","","","","","","","","null","","649.6999999992549","","2","1","null","null","arrowup","[0.675,0.325,0.85,0.15]","","",""
"sailing-trial","257","963771","0.0-11.0-216.0","","","","false","","","","","","","","","","542.9000000003725","","79.5","","0","1","arrowleft","0","arrowleft","[0.675,0.325,0.85,0.15]","","",""
"sailing-trial","258","965463","0.0-11.0-217.0","","","","false","","","","","","","","","","null","","586.0999999996275","","1","0","null","null","arrowup","[0.675,0.325,0.85,0.15]","","",""
"sailing-trial","259","968438","0.0-11.0-218.0","","","","false","","","","","","","","","","231.10000000149012","","114.19999999925494","","0","1","arrowleft","0","arrowleft","[0.675,0.325,0.85,0.15]","","",""
"sailing-trial","260","970672","0.0-11.0-219.0","","","","false","","","","","","","","","","null","","682.9000000003725","","2","1","null","null","arrowup","[0.675,0.325,0.85,0.15]","","",""
"sailing-trial","261","973788","0.0-11.0-220.0","","","","false","","","","","","","","","","461.69999999925494","","51.19999999925494","","0","1","arrowleft","0","arrowleft","[0.675,0.325,0.85,0.15]","","",""
"sailing-trial","262","975937","0.0-11.0-221.0","","","","false","","","","","","","","","","null","","602.7000000011176","","2","1","null","null","arrowup","[0.675,0.325,0.85,0.15]","","",""
"sailing-trial","263","979003","0.0-11.0-222.0","","","","false","","","","","","","","","","456.5","","32.90000000037253","","0","1","arrowleft","0","arrowleft","[0.675,0.325,0.85,0.15]","","",""
"sailing-trial","264","980681","0.0-11.0-223.0","","","","false","","","","","","","","","","null","","568.1999999992549","","1","0","null","null","arrowup","[0.675,0.325,0.85,0.15]","","",""
"sailing-trial","265","984937","0.0-11.0-224.0","","","","false","","","","","","","","","","979.5","","44.90000000037253","","0","1","arrowleft","0","arrowleft","[0.675,0.325,0.85,0.15]","","",""
"sailing-trial","266","986518","0.0-11.0-225.0","","","","false","","","","","","","","","","null","","0","","3","0","null","null","arrowup","[0.675,0.325,0.85,0.15]","","",""
"sailing-trial","267","989904","0.0-11.0-226.0","","","","false","","","","","","","","","","470.30000000074506","","133.09999999962747","","0","1","arrowleft","0","arrowleft","[0.675,0.325,0.85,0.15]","","",""
"sailing-trial","268","991887","0.0-11.0-227.0","","","","false","","","","","","","","","","null","","442.80000000074506","","1","1","null","null","arrowup","[0.675,0.325,0.85,0.15]","","",""
"sailing-trial","269","994477","0.0-11.0-228.0","","","","false","","","","","","","","","","533.5999999996275","","43.30000000074506","","0","0","arrowleft","0","arrowleft","[0.675,0.325,0.85,0.15]","","",""
"sailing-trial","270","996123","0.0-11.0-229.0","","","","false","","","","","","","","","","null","","560.5","","1","0","null","null","arrowup","[0.675,0.325,0.85,0.15]","","",""
"sailing-trial","271","999553","0.0-11.0-230.0","","","","false","","","","","","","","","","735.5","","147","","0","1","arrowleft","0","arrowleft","[0.675,0.325,0.85,0.15]","","",""
"sailing-trial","272","1001382","0.0-11.0-231.0","","","","false","","","","","","","","","","null","","678.5999999996275","","3","0","null","null","arrowup","[0.675,0.325,0.85,0.15]","","",""
"sailing-trial","273","1003899","0.0-11.0-232.0","","","","false","","","","","","","","","","119.09999999962747","","110.79999999888241","","0","0","arrowleft","0","arrowleft","[0.675,0.325,0.85,0.15]","","",""
"sailing-trial","274","1005524","0.0-11.0-233.0","","","","false","","","","","","","","","","null","","381.5","","1","0","null","null","arrowup","[0.675,0.325,0.85,0.15]","","",""
"sailing-trial","275","1008232","0.0-11.0-234.0","","","","false","","","","","","","","","","375.59999999962747","","91.60000000149012","","0","0","arrowleft","0","arrowleft","[0.85,0.15,0.675,0.325]","","",""
"sailing-trial","276","1010653","0.0-11.0-235.0","","","","false","","","","","","","","","","null","","732.3000000007451","","3","1","null","null","arrowup","[0.85,0.15,0.675,0.325]","","",""
"sailing-trial","277","1013486","0.0-11.0-236.0","","","","false","","","","","","","","","","26.800000000745058","","60.899999998509884","","2","1","arrowright","1","arrowleft","[0.85,0.15,0.675,0.325]","","",""
"sailing-trial","278","1015886","0.0-11.0-237.0","","","","false","","","","","","","","","","null","","759.8999999985099","","3","1","null","null","arrowup","[0.85,0.15,0.675,0.325]","","",""
"sailing-trial","279","1018552","0.0-11.0-238.0","","","","false","","","","","","","","","","542.4000000003725","","1.400000000372529","","2","0","arrowright","1","arrowleft","[0.85,0.15,0.675,0.325]","","",""
"sailing-trial","280","1020736","0.0-11.0-239.0","","","","false","","","","","","","","","","null","","497","","2","1","null","null","arrowup","[0.85,0.15,0.675,0.325]","","",""
"sailing-trial","281","1023435","0.0-11.0-240.0","","","","false","","","","","","","","","","60.30000000074506","","94.39999999850988","","3","1","arrowright","1","arrowright","[0.85,0.15,0.675,0.325]","","",""
"sailing-trial","282","1026002","0.0-11.0-241.0","","","","false","","","","","","","","","","null","","816.1000000014901","","2","1","null","null","arrowup","[0.85,0.15,0.675,0.325]","","",""
"sailing-trial","283","1028805","0.0-11.0-242.0","","","","false","","","","","","","","","","400.19999999925494","","312.40000000037253","","2","0","arrowright","1","arrowleft","[0.85,0.15,0.675,0.325]","","",""
"sailing-trial","284","1030752","0.0-11.0-243.0","","","","false","","","","","","","","","","null","","207.19999999925494","","2","1","null","null","arrowup","[0.85,0.15,0.675,0.325]","","",""
"sailing-trial","285","1033690","0.0-11.0-244.0","","","","false","","","","","","","","","","693.6999999992549","","84.19999999925494","","3","0","arrowright","1","arrowright","[0.85,0.15,0.675,0.325]","","",""
"sailing-trial","286","1035735","0.0-11.0-245.0","","","","false","","","","","","","","","","null","","490","","0","1","null","null","arrowup","[0.85,0.15,0.675,0.325]","","",""
"sailing-trial","287","1038535","0.0-11.0-246.0","","","","false","","","","","","","","","","1.5","","44.19999999925494","","2","1","arrowright","1","arrowleft","[0.85,0.15,0.675,0.325]","","",""
"sailing-trial","288","1040142","0.0-11.0-247.0","","","","false","","","","","","","","","","null","","440.30000000074506","","3","0","null","null","arrowup","[0.85,0.15,0.675,0.325]","","",""
"sailing-trial","289","1043184","0.0-11.0-248.0","","","","false","","","","","","","","","","441.09999999962747","","40.70000000111759","","2","1","arrowright","1","arrowleft","[0.85,0.15,0.675,0.325]","","",""
"sailing-trial","290","1045385","0.0-11.0-249.0","","","","false","","","","","","","","","","null","","487.1000000014901","","3","1","null","null","arrowup","[0.85,0.15,0.675,0.325]","","",""
"sailing-trial","291","1048080","0.0-11.0-250.0","","","","false","","","","","","","","","","409.90000000037253","","81.90000000037253","","2","0","arrowright","1","arrowleft","[0.85,0.15,0.675,0.325]","","",""
"sailing-trial","292","1049539","0.0-11.0-251.0","","","","false","","","","","","","","","","null","","303.5","","3","0","null","null","arrowup","[0.85,0.15,0.675,0.325]","","",""
"sailing-trial","293","1052533","0.0-11.0-252.0","","","","false","","","","","","","","","","347","","85.19999999925494","","2","1","arrowright","1","arrowleft","[0.85,0.15,0.675,0.325]","","",""
"sailing-trial","294","1054701","0.0-11.0-253.0","","","","false","","","","","","","","","","null","","315","","0","1","null","null","arrowup","[0.85,0.15,0.675,0.325]","","",""
"sailing-trial","295","1057601","0.0-11.0-254.0","","","","false","","","","","","","","","","93.40000000037253","","70.69999999925494","","2","1","arrowright","1","arrowleft","[0.675,0.325,0.85,0.15]","","",""
"sailing-trial","296","1058888","0.0-11.0-255.0","","","","false","","","","","","","","","","null","","58.59999999962747","","0","0","null","null","arrowup","[0.675,0.325,0.85,0.15]","","",""
"sailing-trial","297","1061923","0.0-11.0-256.0","","","","false","","","","","","","","","","919.9000000003725","","0.5","","2","0","arrowright","1","arrowleft","[0.675,0.325,0.85,0.15]","","",""
"sailing-trial","298","1064017","0.0-11.0-257.0","","","","false","","","","","","","","","","null","","276.09999999962747","","2","1","null","null","arrowup","[0.675,0.325,0.85,0.15]","","",""
"sailing-trial","299","1067666","0.0-11.0-258.0","","","","false","","","","","","","","","","911.2999999988824","","65","","2","1","arrowright","1","arrowleft","[0.675,0.325,0.85,0.15]","","",""
"sailing-trial","300","1069378","0.0-11.0-259.0","","","","false","","","","","","","","","","null","","17.399999998509884","","0","0","null","null","arrowup","[0.675,0.325,0.85,0.15]","","",""
"sailing-trial","301","1072782","0.0-11.0-260.0","","","","false","","","","","","","","","","472.09999999962747","","177.90000000037253","","2","1","arrowright","1","arrowleft","[0.675,0.325,0.85,0.15]","","",""
"sailing-trial","302","1074523","0.0-11.0-261.0","","","","false","","","","","","","","","","null","","500","","3","0","null","null","arrowup","[0.675,0.325,0.85,0.15]","","",""
"sailing-trial","303","1077534","0.0-11.0-262.0","","","","false","","","","","","","","","","178.10000000149012","","112.5","","2","1","arrowright","1","arrowleft","[0.675,0.325,0.85,0.15]","","",""
"sailing-trial","304","1080417","0.0-11.0-263.0","","","","false","","","","","","","","","","null","","1332.2999999988824","","0","1","null","null","arrowup","[0.675,0.325,0.85,0.15]","","",""
"sailing-trial","305","1083131","0.0-11.0-264.0","","","","false","","","","","","","","","","525.5","","5.800000000745058","","2","0","arrowright","1","arrowleft","[0.675,0.325,0.85,0.15]","","",""
"sailing-trial","306","1084552","0.0-11.0-265.0","","","","false","","","","","","","","","","null","","6.599999999627471","","3","0","null","null","arrowup","[0.675,0.325,0.85,0.15]","","",""
"sailing-trial","307","1087147","0.0-11.0-266.0","","","","false","","","","","","","","","","409.1000000014901","","41.100000001490116","","2","0","arrowright","1","arrowleft","[0.675,0.325,0.85,0.15]","","",""
"sailing-trial","308","1089166","0.0-11.0-267.0","","","","false","","","","","","","","","","null","","252","","2","1","null","null","arrowup","[0.675,0.325,0.85,0.15]","","",""
"sailing-trial","309","1092016","0.0-11.0-268.0","","","","false","","","","","","","","","","479.7999999988824","","51.09999999962747","","0","0","arrowleft","0","arrowleft","[0.675,0.325,0.85,0.15]","","",""
"sailing-trial","310","1093442","0.0-11.0-269.0","","","","false","","","","","","","","","","null","","93.5","","1","0","null","null","arrowup","[0.675,0.325,0.85,0.15]","","",""
"sailing-trial","311","1096616","0.0-11.0-270.0","","","","false","","","","","","","","","","432","","75.09999999962747","","0","1","arrowleft","0","arrowleft","[0.85,0.15,0.675,0.325]","","",""
"sailing-trial","312","1098665","0.0-11.0-271.0","","","","false","","","","","","","","","","null","","375.80000000074506","","2","1","null","null","arrowup","[0.85,0.15,0.675,0.325]","","",""
"sailing-trial","313","1101432","0.0-11.0-272.0","","","","false","","","","","","","","","","23.299999998882413","","152.30000000074506","","0","1","arrowleft","0","arrowleft","[0.85,0.15,0.675,0.325]","","",""
"sailing-trial","314","1103817","0.0-11.0-273.0","","","","false","","","","","","","","","","null","","748","","0","1","null","null","arrowup","[0.85,0.15,0.675,0.325]","","",""
"sailing-trial","315","1106949","0.0-11.0-274.0","","","","false","","","","","","","","","","353.69999999925494","","107.30000000074506","","0","1","arrowleft","0","arrowleft","[0.85,0.15,0.675,0.325]","","",""
"sailing-trial","316","1108782","0.0-11.0-275.0","","","","false","","","","","","","","","","null","","230.5","","3","1","null","null","arrowup","[0.85,0.15,0.675,0.325]","","",""
"sailing-trial","317","1111898","0.0-11.0-276.0","","","","false","","","","","","","","","","347.30000000074506","","131.59999999962747","","0","1","arrowleft","0","arrowleft","[0.85,0.15,0.675,0.325]","","",""
"sailing-trial","318","1113399","0.0-11.0-277.0","","","","false","","","","","","","","","","null","","359.69999999925494","","1","0","null","null","arrowup","[0.85,0.15,0.675,0.325]","","",""
"sailing-trial","319","1116281","0.0-11.0-278.0","","","","false","","","","","","","","","","120.80000000074506","","117.79999999888241","","0","1","arrowleft","0","arrowleft","[0.85,0.15,0.675,0.325]","","",""
"sailing-trial","320","1117844","0.0-11.0-279.0","","","","false","","","","","","","","","","null","","499.5","","2","0","null","null","arrowup","[0.85,0.15,0.675,0.325]","","",""
"sailing-trial","321","1120782","0.0-11.0-280.0","","","","false","","","","","","","","","","197","","47.09999999962747","","0","1","arrowleft","0","arrowleft","[0.85,0.15,0.675,0.325]","","",""
"sailing-trial","322","1122848","0.0-11.0-281.0","","","","false","","","","","","","","","","null","","494.69999999925494","","0","1","null","null","arrowup","[0.85,0.15,0.675,0.325]","","",""
"sailing-trial","323","1126465","0.0-11.0-282.0","","","","false","","","","","","","","","","871.0999999996275","","137.30000000074506","","0","1","arrowleft","0","arrowleft","[0.85,0.15,0.675,0.325]","","",""
"sailing-trial","324","1127833","0.0-11.0-283.0","","","","false","","","","","","","","","","null","","190.69999999925494","","3","0","null","null","arrowup","[0.85,0.15,0.675,0.325]","","",""
"sailing-trial","325","1131415","0.0-11.0-284.0","","","","false","","","","","","","","","","716.5999999996275","","201.39999999850988","","0","1","arrowleft","0","arrowleft","[0.85,0.15,0.675,0.325]","","",""
"sailing-trial","326","1133180","0.0-11.0-285.0","","","","false","","","","","","","","","","null","","112.20000000111759","","2","1","null","null","arrowup","[0.85,0.15,0.675,0.325]","","",""
"sailing-trial","327","1137031","0.0-11.0-286.0","","","","false","","","","","","","","","","702","","80.5","","0","1","arrowleft","0","arrowleft","[0.85,0.15,0.675,0.325]","","",""
"sailing-trial","328","1138993","0.0-11.0-287.0","","","","false","","","","","","","","","","null","","798.1000000014901","","3","0","null","null","arrowup","[0.85,0.15,0.675,0.325]","","",""
"sailing-trial","329","1142197","0.0-11.0-288.0","","","","false","","","","","","","","","","479.5","","139.5","","0","1","arrowleft","0","arrowleft","[0.85,0.15,0.675,0.325]","","",""
"sailing-trial","330","1143928","0.0-11.0-289.0","","","","false","","","","","","","","","","null","","623.7000000011176","","1","0","null","null","arrowup","[0.85,0.15,0.675,0.325]","","",""
"sailing-trial","331","1146691","0.0-11.0-290.0","","","","false","","","","","","","","","","326.30000000074506","","157.09999999962747","","0","0","arrowleft","0","arrowleft","[0.675,0.325,0.85,0.15]","","",""
"sailing-trial","332","1148513","0.0-11.0-291.0","","","","false","","","","","","","","","","null","","221.5","","2","1","null","null","arrowup","[0.675,0.325,0.85,0.15]","","",""
"sailing-trial","333","1151363","0.0-11.0-292.0","","","","false","","","","","","","","","","72.40000000037253","","69.29999999888241","","2","1","arrowright","1","arrowleft","[0.675,0.325,0.85,0.15]","","",""
"sailing-trial","334","1153597","0.0-11.0-293.0","","","","false","","","","","","","","","","null","","569.1999999992549","","0","1","null","null","arrowup","[0.675,0.325,0.85,0.15]","","",""
"sailing-trial","335","1156730","0.0-11.0-294.0","","","","false","","","","","","","","","","346.09999999962747","","201","","2","1","arrowright","1","arrowleft","[0.675,0.325,0.85,0.15]","","",""
"sailing-trial","336","1158680","0.0-11.0-295.0","","","","false","","","","","","","","","","null","","320.90000000037253","","0","1","null","null","arrowup","[0.675,0.325,0.85,0.15]","","",""
"sailing-trial","337","1162063","0.0-11.0-296.0","","","","false","","","","","","","","","","528.1999999992549","","39.20000000111759","","2","1","arrowright","1","arrowleft","[0.675,0.325,0.85,0.15]","","",""
"sailing-trial","338","1164263","0.0-11.0-297.0","","","","false","","","","","","","","","","null","","582.2999999988824","","1","1","null","null","arrowup","[0.675,0.325,0.85,0.15]","","",""
"sailing-trial","339","1167846","0.0-11.0-298.0","","","","false","","","","","","","","","","484.80000000074506","","122.59999999962747","","2","1","arrowright","1","arrowleft","[0.675,0.325,0.85,0.15]","","",""
"sailing-trial","340","1170446","0.0-11.0-299.0","","","","false","","","","","","","","","","null","","876.2000000011176","","2","1","null","null","arrowup","[0.675,0.325,0.85,0.15]","","",""
"sailing-trial","341","1173913","0.0-11.0-300.0","","","","false","","","","","","","","","","638.6000000014901","","107.80000000074506","","2","1","arrowright","1","arrowleft","[0.675,0.325,0.85,0.15]","","",""
"sailing-trial","342","1175775","0.0-11.0-301.0","","","","false","","","","","","","","","","null","","572.2999999988824","","3","0","null","null","arrowup","[0.675,0.325,0.85,0.15]","","",""
"sailing-trial","343","1178323","0.0-11.0-302.0","","","","false","","","","","","","","","","490.90000000037253","","25.199999999254942","","2","0","arrowright","1","arrowleft","[0.675,0.325,0.85,0.15]","","",""
"sailing-trial","344","1180146","0.0-11.0-303.0","","","","false","","","","","","","","","","null","","248","","1","1","null","null","arrowup","[0.675,0.325,0.85,0.15]","","",""
"sailing-trial","345","1183512","0.0-11.0-304.0","","","","false","","","","","","","","","","459.40000000037253","","134.2999999988824","","2","1","arrowright","1","arrowleft","[0.675,0.325,0.85,0.15]","","",""
"sailing-trial","346","1185320","0.0-11.0-305.0","","","","false","","","","","","","","","","null","","587.4000000003725","","3","0","null","null","arrowup","[0.675,0.325,0.85,0.15]","","",""
"sailing-trial","347","1188196","0.0-11.0-306.0","","","","false","","","","","","","","","","149.19999999925494","","85.09999999962747","","2","1","arrowright","1","arrowleft","[0.85,0.15,0.675,0.325]","","",""
"sailing-trial","348","1190296","0.0-11.0-307.0","","","","false","","","","","","","","","","null","","562.8000000007451","","0","1","null","null","arrowup","[0.85,0.15,0.675,0.325]","","",""
"sailing-trial","349","1193070","0.0-11.0-308.0","","","","false","","","","","","","","","","556.4000000003725","","66.69999999925494","","2","0","arrowright","1","arrowleft","[0.85,0.15,0.675,0.325]","","",""
"sailing-trial","350","1195062","0.0-11.0-309.0","","","","false","","","","","","","","","","null","","204.59999999962747","","3","1","null","null","arrowup","[0.85,0.15,0.675,0.325]","","",""
"sailing-trial","351","1198442","0.0-11.0-310.0","","","","false","","","","","","","","","","1087.2000000011176","","136.80000000074506","","3","0","arrowright","1","arrowright","[0.85,0.15,0.675,0.325]","","",""
"sailing-trial","352","1200478","0.0-11.0-311.0","","","","false","","","","","","","","","","null","","276.90000000037253","","0","1","null","null","arrowup","[0.85,0.15,0.675,0.325]","","",""
"sailing-trial","353","1203695","0.0-11.0-312.0","","","","false","","","","","","","","","","439","","124.29999999888241","","0","1","arrowleft","0","arrowleft","[0.85,0.15,0.675,0.325]","","",""
"sailing-trial","354","1206045","0.0-11.0-313.0","","","","false","","","","","","","","","","null","","627.7999999988824","","2","1","null","null","arrowup","[0.85,0.15,0.675,0.325]","","",""
"sailing-trial","355","1209095","0.0-11.0-314.0","","","","false","","","","","","","","","","242.39999999850988","","159","","0","1","arrowleft","0","arrowleft","[0.85,0.15,0.675,0.325]","","",""
"sailing-trial","356","1210482","0.0-11.0-315.0","","","","false","","","","","","","","","","null","","283","","3","0","null","null","arrowup","[0.85,0.15,0.675,0.325]","","",""
"sailing-trial","357","1213378","0.0-11.0-316.0","","","","false","","","","","","","","","","214.90000000037253","","84.69999999925494","","0","1","arrowleft","0","arrowleft","[0.85,0.15,0.675,0.325]","","",""
"sailing-trial","358","1215139","0.0-11.0-317.0","","","","false","","","","","","","","","","null","","539.3999999985099","","2","0","null","null","arrowup","[0.85,0.15,0.675,0.325]","","",""
"sailing-trial","359","1218078","0.0-11.0-318.0","","","","false","","","","","","","","","","186.2000000011176","","61.09999999962747","","0","1","arrowleft","0","arrowleft","[0.85,0.15,0.675,0.325]","","",""
"sailing-trial","360","1219449","0.0-11.0-319.0","","","","false","","","","","","","","","","null","","269.59999999962747","","1","0","null","null","arrowup","[0.85,0.15,0.675,0.325]","","",""
"sailing-trial","361","1222561","0.0-11.0-320.0","","","","false","","","","","","","","","","415.5","","120.70000000111759","","0","1","arrowleft","0","arrowleft","[0.85,0.15,0.675,0.325]","","",""
"sailing-trial","362","1224123","0.0-11.0-321.0","","","","false","","","","","","","","","","null","","463","","1","0","null","null","arrowup","[0.85,0.15,0.675,0.325]","","",""
"sailing-trial","363","1227010","0.0-11.0-322.0","","","","false","","","","","","","","","","133.90000000037253","","77.20000000111759","","0","1","arrowleft","0","arrowleft","[0.325,0.675,0.15,0.85]","","",""
"sailing-trial","364","1228438","0.0-11.0-323.0","","","","false","","","","","","","","","","null","","242.59999999962747","","2","0","null","null","arrowup","[0.325,0.675,0.15,0.85]","","",""
"sailing-trial","365","1230990","0.0-11.0-324.0","","","","false","","","","","","","","","","116.69999999925494","","217.2000000011176","","0","0","arrowleft","0","arrowleft","[0.325,0.675,0.15,0.85]","","",""
"sailing-trial","366","1232170","0.0-11.0-325.0","","","","false","","","","","","","","","","null","","129.69999999925494","","0","0","null","null","arrowup","[0.325,0.675,0.15,0.85]","","",""
"sailing-trial","367","1234891","0.0-11.0-326.0","","","","false","","","","","","","","","","535.2000000011176","","44.90000000037253","","2","0","arrowright","1","arrowleft","[0.325,0.675,0.15,0.85]","","",""
"sailing-trial","368","1236211","0.0-11.0-327.0","","","","false","","","","","","","","","","null","","32.40000000037253","","0","0","null","null","arrowup","[0.325,0.675,0.15,0.85]","","",""
"sailing-trial","369","1239309","0.0-11.0-328.0","","","","false","","","","","","","","","","356.09999999962747","","2.099999999627471","","3","1","arrowright","1","arrowright","[0.325,0.675,0.15,0.85]","","",""
"sailing-trial","370","1240974","0.0-11.0-329.0","","","","false","","","","","","","","","","null","","515.3000000007451","","1","0","null","null","arrowup","[0.325,0.675,0.15,0.85]","","",""
"sailing-trial","371","1243810","0.0-11.0-330.0","","","","false","","","","","","","","","","104.20000000111759","","44.80000000074506","","3","1","arrowright","1","arrowright","[0.325,0.675,0.15,0.85]","","",""
"sailing-trial","372","1245798","0.0-11.0-331.0","","","","false","","","","","","","","","","null","","973","","1","0","null","null","arrowup","[0.325,0.675,0.15,0.85]","","",""
"sailing-trial","373","1248710","0.0-11.0-332.0","","","","false","","","","","","","","","","163.2999999988824","","20.59999999962747","","3","1","arrowright","1","arrowright","[0.325,0.675,0.15,0.85]","","",""
"sailing-trial","374","1250565","0.0-11.0-333.0","","","","false","","","","","","","","","","null","","655.7000000011176","","2","0","null","null","arrowup","[0.325,0.675,0.15,0.85]","","",""
"sailing-trial","375","1253743","0.0-11.0-334.0","","","","false","","","","","","","","","","322.2000000011176","","194","","1","1","arrowleft","0","arrowright","[0.325,0.675,0.15,0.85]","","",""
"sailing-trial","376","1255610","0.0-11.0-335.0","","","","false","","","","","","","","","","null","","296.5","","0","1","null","null","arrowup","[0.325,0.675,0.15,0.85]","","",""
"sailing-trial","377","1258325","0.0-11.0-336.0","","","","false","","","","","","","","","","440.19999999925494","","121.69999999925494","","1","0","arrowleft","0","arrowright","[0.325,0.675,0.15,0.85]","","",""
"sailing-trial","378","1259645","0.0-11.0-337.0","","","","false","","","","","","","","","","null","","198.40000000037253","","0","0","null","null","arrowup","[0.325,0.675,0.15,0.85]","","",""
"sailing-trial","379","1262593","0.0-11.0-338.0","","","","false","","","","","","","","","","237.5","","122.09999999962747","","3","1","arrowright","1","arrowright","[0.325,0.675,0.15,0.85]","","",""
"sailing-trial","380","1264600","0.0-11.0-339.0","","","","false","","","","","","","","","","null","","707.6999999992549","","2","0","null","null","arrowup","[0.325,0.675,0.15,0.85]","","",""
"sailing-trial","381","1266957","0.0-11.0-340.0","","","","false","","","","","","","","","","72.09999999962747","","111.89999999850988","","0","0","arrowleft","0","arrowleft","[0.675,0.325,0.85,0.15]","","",""
"sailing-trial","382","1268957","0.0-11.0-341.0","","","","false","","","","","","","","","","null","","293.59999999962747","","2","1","null","null","arrowup","[0.675,0.325,0.85,0.15]","","",""
"sailing-trial","383","1272559","0.0-11.0-342.0","","","","false","","","","","","","","","","846.6000000014901","","160.09999999962747","","2","1","arrowright","1","arrowleft","[0.675,0.325,0.85,0.15]","","",""
"sailing-trial","384","1274514","0.0-11.0-343.0","","","","false","","","","","","","","","","null","","737.0999999996275","","3","0","null","null","arrowup","[0.675,0.325,0.85,0.15]","","",""
"sailing-trial","385","1277692","0.0-11.0-344.0","","","","false","","","","","","","","","","497.2000000011176","","84.90000000037253","","2","1","arrowright","1","arrowleft","[0.675,0.325,0.85,0.15]","","",""
"sailing-trial","386","1279027","0.0-11.0-345.0","","","","false","","","","","","","","","","null","","230.59999999962747","","3","0","null","null","arrowup","[0.675,0.325,0.85,0.15]","","",""
"sailing-trial","387","1282408","0.0-11.0-346.0","","","","false","","","","","","","","","","613.7999999988824","","149.2999999988824","","2","1","arrowright","1","arrowleft","[0.675,0.325,0.85,0.15]","","",""
"sailing-trial","388","1284202","0.0-11.0-347.0","","","","false","","","","","","","","","","null","","749.6000000014901","","3","0","null","null","arrowup","[0.675,0.325,0.85,0.15]","","",""
"sailing-trial","389","1287058","0.0-11.0-348.0","","","","false","","","","","","","","","","113.30000000074506","","127.5","","2","1","arrowright","1","arrowleft","[0.675,0.325,0.85,0.15]","","",""
"sailing-trial","390","1289241","0.0-11.0-349.0","","","","false","","","","","","","","","","null","","416.8999999985099","","0","1","null","null","arrowup","[0.675,0.325,0.85,0.15]","","",""
"sailing-trial","391","1291834","0.0-11.0-350.0","","","","false","","","","","","","","","","475.19999999925494","","44.69999999925494","","0","0","arrowleft","0","arrowleft","[0.675,0.325,0.85,0.15]","","",""
"sailing-trial","392","1293757","0.0-11.0-351.0","","","","false","","","","","","","","","","null","","144.59999999962747","","2","1","null","null","arrowup","[0.675,0.325,0.85,0.15]","","",""
"sailing-trial","393","1296773","0.0-11.0-352.0","","","","false","","","","","","","","","","720.0999999996275","","71","","3","0","arrowright","1","arrowright","[0.675,0.325,0.85,0.15]","","",""
"sailing-trial","394","1298261","0.0-11.0-353.0","","","","false","","","","","","","","","","null","","411.30000000074506","","1","0","null","null","arrowup","[0.675,0.325,0.85,0.15]","","",""
"sailing-trial","395","1301207","0.0-11.0-354.0","","","","false","","","","","","","","","","389.3999999985099","","42.40000000037253","","2","1","arrowright","1","arrowleft","[0.675,0.325,0.85,0.15]","","",""
"sailing-trial","396","1303022","0.0-11.0-355.0","","","","false","","","","","","","","","","null","","662.4000000003725","","1","0","null","null","arrowup","[0.675,0.325,0.85,0.15]","","",""
"sailing-trial","397","1305889","0.0-11.0-356.0","","","","false","","","","","","","","","","714.5999999996275","","16.5","","0","0","arrowleft","0","arrowleft","[0.675,0.325,0.85,0.15]","","",""
"sailing-trial","398","1307151","0.0-11.0-357.0","","","","false","","","","","","","","","","null","","0","","1","0","null","null","arrowup","[0.675,0.325,0.85,0.15]","","",""
"sailing-trial","399","1309595","0.0-11.0-358.0","","","","false","","","","","","","","","","239","","128.59999999962747","","2","0","arrowright","1","arrowleft","[0.325,0.675,0.15,0.85]","","",""
"sailing-trial","400","1311540","0.0-11.0-359.0","","","","false","","","","","","","","","","null","","64.59999999962747","","3","1","null","null","arrowup","[0.325,0.675,0.15,0.85]","","",""
"sailing-trial","401","1314540","0.0-11.0-360.0","","","","false","","","","","","","","","","115.60000000149012","","140.09999999962747","","3","1","arrowright","1","arrowright","[0.325,0.675,0.15,0.85]","","",""
"sailing-trial","402","1316974","0.0-11.0-361.0","","","","false","","","","","","","","","","null","","751.6999999992549","","3","1","null","null","arrowup","[0.325,0.675,0.15,0.85]","","",""
"sailing-trial","403","1320574","0.0-11.0-362.0","","","","false","","","","","","","","","","915.1999999992549","","153.5","","3","1","arrowright","1","arrowright","[0.325,0.675,0.15,0.85]","","",""
"sailing-trial","404","1322257","0.0-11.0-363.0","","","","false","","","","","","","","","","null","","23","","3","1","null","null","arrowup","[0.325,0.675,0.15,0.85]","","",""
"sailing-trial","405","1325423","0.0-11.0-364.0","","","","false","","","","","","","","","","364.19999999925494","","174.39999999850988","","3","1","arrowright","1","arrowright","[0.325,0.675,0.15,0.85]","","",""
"sailing-trial","406","1327423","0.0-11.0-365.0","","","","false","","","","","","","","","","null","","287.59999999962747","","1","1","null","null","arrowup","[0.325,0.675,0.15,0.85]","","",""
"sailing-trial","407","1330407","0.0-11.0-366.0","","","","false","","","","","","","","","","260.90000000037253","","137","","3","1","arrowright","1","arrowright","[0.325,0.675,0.15,0.85]","","",""
"sailing-trial","408","1332556","0.0-11.0-367.0","","","","false","","","","","","","","","","null","","457.30000000074506","","3","1","null","null","arrowup","[0.325,0.675,0.15,0.85]","","",""
"sailing-trial","409","1335689","0.0-11.0-368.0","","","","false","","","","","","","","","","242.09999999962747","","197.2000000011176","","3","1","arrowright","1","arrowright","[0.325,0.675,0.15,0.85]","","",""
"sailing-trial","410","1337348","0.0-11.0-369.0","","","","false","","","","","","","","","","null","","553.6999999992549","","3","0","null","null","arrowup","[0.325,0.675,0.15,0.85]","","",""
"sailing-trial","411","1340773","0.0-11.0-370.0","","","","false","","","","","","","","","","756.7000000011176","","103.40000000037253","","3","1","arrowright","1","arrowright","[0.325,0.675,0.15,0.85]","","",""
"sailing-trial","412","1343022","0.0-11.0-371.0","","","","false","","","","","","","","","","null","","691.4000000003725","","1","1","null","null","arrowup","[0.325,0.675,0.15,0.85]","","",""
"sailing-trial","413","1345832","0.0-11.0-372.0","","","","false","","","","","","","","","","496.19999999925494","","167.30000000074506","","1","0","arrowleft","0","arrowright","[0.325,0.675,0.15,0.85]","","",""
"sailing-trial","414","1347518","0.0-11.0-373.0","","","","false","","","","","","","","","","null","","591.4000000003725","","2","0","null","null","arrowup","[0.325,0.675,0.15,0.85]","","",""
"sailing-trial","415","1350172","0.0-11.0-374.0","","","","false","","","","","","","","","","46.90000000037253","","30.90000000037253","","3","1","arrowright","1","arrowright","[0.325,0.675,0.15,0.85]","","",""
"sailing-trial","416","1352439","0.0-11.0-375.0","","","","false","","","","","","","","","","null","","711.8000000007451","","0","1","null","null","arrowup","[0.325,0.675,0.15,0.85]","","",""
"sailing-trial","417","1354845","0.0-11.0-376.0","","","","false","","","","","","","","","","164.7000000011176","","100.5","","3","0","arrowright","1","arrowright","[0.85,0.15,0.675,0.325]","","",""
"sailing-trial","418","1356722","0.0-11.0-377.0","","","","false","","","","","","","","","","null","","81.5","","3","1","null","null","arrowup","[0.85,0.15,0.675,0.325]","","",""
"sailing-trial","419","1359036","0.0-11.0-378.0","","","","false","","","","","","","","","","264.30000000074506","","5.5","","3","0","arrowright","1","arrowright","[0.85,0.15,0.675,0.325]","","",""
"sailing-trial","420","1360971","0.0-11.0-379.0","","","","false","","","","","","","","","","null","","62.30000000074506","","0","1","null","null","arrowup","[0.85,0.15,0.675,0.325]","","",""
"sailing-trial","421","1364004","0.0-11.0-380.0","","","","false","","","","","","","","","","241.60000000149012","","107.69999999925494","","0","1","arrowleft","0","arrowleft","[0.85,0.15,0.675,0.325]","","",""
"sailing-trial","422","1366338","0.0-11.0-381.0","","","","false","","","","","","","","","","null","","708.3000000007451","","0","1","null","null","arrowup","[0.85,0.15,0.675,0.325]","","",""
"sailing-trial","423","1369722","0.0-11.0-382.0","","","","false","","","","","","","","","","455.80000000074506","","274","","0","1","arrowleft","0","arrowleft","[0.85,0.15,0.675,0.325]","","",""
"sailing-trial","424","1371603","0.0-11.0-383.0","","","","false","","","","","","","","","","null","","794.8000000007451","","3","0","null","null","arrowup","[0.85,0.15,0.675,0.325]","","",""
"sailing-trial","425","1375238","0.0-11.0-384.0","","","","false","","","","","","","","","","677.7999999988824","","42.5","","0","1","arrowleft","0","arrowleft","[0.85,0.15,0.675,0.325]","","",""
"sailing-trial","426","1377088","0.0-11.0-385.0","","","","false","","","","","","","","","","null","","105.09999999962747","","1","1","null","null","arrowup","[0.85,0.15,0.675,0.325]","","",""
"sailing-trial","427","1380621","0.0-11.0-386.0","","","","false","","","","","","","","","","435.40000000037253","","161.59999999962747","","0","1","arrowleft","0","arrowleft","[0.85,0.15,0.675,0.325]","","",""
"sailing-trial","428","1382372","0.0-11.0-387.0","","","","false","","","","","","","","","","null","","727.4000000003725","","3","0","null","null","arrowup","[0.85,0.15,0.675,0.325]","","",""
"sailing-trial","429","1385554","0.0-11.0-388.0","","","","false","","","","","","","","","","534.3999999985099","","19.90000000037253","","0","1","arrowleft","0","arrowleft","[0.85,0.15,0.675,0.325]","","",""
"sailing-trial","430","1388037","0.0-11.0-389.0","","","","false","","","","","","","","","","null","","789.1000000014901","","0","1","null","null","arrowup","[0.85,0.15,0.675,0.325]","","",""
"sailing-trial","431","1391421","0.0-11.0-390.0","","","","false","","","","","","","","","","621.9000000003725","","161.7000000011176","","0","1","arrowleft","0","arrowleft","[0.85,0.15,0.675,0.325]","","",""
"sailing-trial","432","1394154","0.0-11.0-391.0","","","","false","","","","","","","","","","null","","1159.4000000003725","","1","1","null","null","arrowup","[0.85,0.15,0.675,0.325]","","",""
"sailing-trial","433","1397637","0.0-11.0-392.0","","","","false","","","","","","","","","","307.69999999925494","","11.900000000372529","","0","1","arrowleft","0","arrowleft","[0.85,0.15,0.675,0.325]","","",""
"sailing-trial","434","1399920","0.0-11.0-393.0","","","","false","","","","","","","","","","null","","681.4000000003725","","0","1","null","null","arrowup","[0.85,0.15,0.675,0.325]","","",""
"sailing-trial","435","1402820","0.0-11.0-394.0","","","","false","","","","","","","","","","96.09999999962747","","133","","0","1","arrowleft","0","arrowleft","[0.85,0.15,0.675,0.325]","","",""
"sailing-trial","436","1404151","0.0-11.0-395.0","","","","false","","","","","","","","","","null","","123","","1","0","null","null","arrowup","[0.85,0.15,0.675,0.325]","","",""
"sailing-trial","437","1406920","0.0-11.0-396.0","","","","false","","","","","","","","","","127.40000000037253","","16.5","","0","1","arrowleft","0","arrowleft","[0.85,0.15,0.675,0.325]","","",""
"sailing-trial","438","1408670","0.0-11.0-397.0","","","","false","","","","","","","","","","null","","75.70000000111759","","0","1","null","null","arrowup","[0.85,0.15,0.675,0.325]","","",""
"sailing-trial","439","1412070","0.0-11.0-398.0","","","","false","","","","","","","","","","323.80000000074506","","488.2999999988824","","0","1","arrowleft","0","arrowleft","[0.85,0.15,0.675,0.325]","","",""
"sailing-trial","440","1414086","0.0-11.0-399.0","","","","false","","","","","","","","","","null","","36.59999999962747","","2","1","null","null","arrowup","[0.85,0.15,0.675,0.325]","","",""
"instructions","441","1418680","0.0-12.0","","","","","","","","","","4592.699999999255","","","","","","","","","","","","","","","","[{""page_index"":0,""viewing_time"":4592.0999999996275}]"
"survey-debrief","442","1452063","0.0-13.0","","","","","","","","","","33382.5","","","","","","","","","","","","","","{""difficulty"":""5"",""fun"":""5"",""clarity"":""5"",""strategy"":""Memorize repeating colors in a row that had treasure"",""feedback"":""""}","",""
