"trial_type","trial_index","time_elapsed","internal_node_id","value","metadata","success","timeout","failed_images","failed_audio","failed_video","browser_interaction","low_quality","rt","stimulus","response","button_pressed","island_rt","island_response","boat_rt","boat_response","boat","reward","island_key","island","boat_key","reward_probabilities","responses","num_errors","view_history"
"pavlovia","0","1","0.0-0.0","","","","","","","","","","","","","","","","","","","","","","","","","",""
"call-function","1","1","0.0-1.0","","{""task_version"":""sailing_part1_v1"",""task_condition"":""good"",""boats"":[""A"",""B"",""D"",""C""],""boats_demo"":[""E"",""G"",""F"",""H""],""islands"":[""A"",""B""],""subject_id"":""15209"",""age"":""14"",""gender"":""Male""}","","","","","","","","","","","","","","","","","","","","","","","",""
"preload","2","2783","0.0-2.0","","","true","false","[]","[]","[]","[{""event"":""fullscreenenter"",""trial"":3,""time"":5055}]","false","","","","","","","","","","","","","","","","",""
"fullscreen","3","6048","0.0-3.0","","","true","","","","","","","","","","","","","","","","","","","","","","",""
"audio-keyboard-response","4","8243","0.0-4.0-0.0","","","","","","","","","","2080","audio/beep_loop.wav"," ","","","","","","","","","","","","","",""
"audio-test","5","10233","0.0-4.0-1.0","","","","","","","","","","null","audio/turtle.mp3","","3","","","","","","","","","","","","",""
"audio-test","6","12433","0.0-4.0-2.0","","","","","","","","","","null","audio/shark.mp3","","2","","","","","","","","","","","","",""
"sailing-instructions","7","46667","0.0-5.0-0.0-0.0","","","","","","","","","","","","","","null","null","null","null","null","null","","","","","","",""
"sailing-trial","8","51505","0.0-5.0-0.0-1.0-0.0","","","","false","","","","","","","","","","3713.2999999970198","","null","","null","null","arrowleft","0","null","null","","",""
"sailing-trial","9","53710","0.0-5.0-0.0-1.0-1.0","","","","false","","","","","","","","","","1090.2000000029802","","null","","null","null","arrowright","1","null","null","","",""
"sailing-trial","10","56347","0.0-5.0-0.0-1.0-2.0","","","","false","","","","","","","","","","1523.2999999970198","","null","","null","null","arrowright","1","null","null","","",""
"sailing-instructions","11","102947","0.0-5.0-0.0-2.0","","","","","","","","","","","","","","null","null","null","null","0","null","","","","","","",""
"sailing-trial","12","109280","0.0-5.0-0.0-3.0-0.0","","","","false","","","","","","","","","","null","","2407.5","","2","1","null","null","arrowleft","[1,1,1,1]","","",""
"sailing-trial","13","114812","0.0-5.0-0.0-3.0-1.0","","","","false","","","","","","","","","","null","","2123.8999999910593","","3","1","null","null","arrowright","[1,1,1,1]","","",""
"sailing-trial","14","119237","0.0-5.0-0.0-3.0-2.0","","","","false","","","","","","","","","","null","","1732.7000000029802","","3","0","null","null","arrowright","[0,0,0,0]","","",""
"sailing-instructions","15","128565","0.0-5.0-0.0-4.0","","","","","","","","","","","","","","null","null","null","null","null","null","","","","","","",""
"sailing-comprehension","16","155846","0.0-5.0-0.0-5.0","","","","","","","","","","24659","","","","","","","","","","","","","","[""true"",""true"",""false"",""true""]","0",""
"sailing-instructions","17","218268","0.0-6.0-0.0-0.0","","","","","","","","","","","","","","null","null","null","null","null","null","","","","","","",""
"sailing-comprehension","18","240077","0.0-6.0-0.0-1.0","","","","","","","","","","18489.79999999702","","","","","","","","","","","","","","[""true"",""false"",""true""]","0",""
"sailing-instructions","19","256764","0.0-7.0-0.0-0.0","","","","","","","","","","","","","","null","null","null","null","null","null","","","","","","",""
"sailing-trial","20","262453","0.0-7.0-0.0-1.0-0.0","","","","false","","","","","","","","","","null","","2526.2000000029802","","0","1","null","null","arrowup","[0.2,0.8,0.2,0.8]","","",""
"sailing-trial","21","267477","0.0-7.0-0.0-1.0-1.0","","","","false","","","","","","","","","","null","","2793.6000000089407","","1","1","null","null","arrowup","[0.2,0.8,0.2,0.8]","","",""
"sailing-trial","22","270293","0.0-7.0-0.0-1.0-2.0","","","","false","","","","","","","","","","null","","681.9000000059605","","2","0","null","null","arrowup","[0.2,0.8,0.2,0.8]","","",""
"sailing-trial","23","272283","0.0-7.0-0.0-1.0-3.0","","","","false","","","","","","","","","","null","","441","","3","1","null","null","arrowup","[0.2,0.8,0.2,0.8]","","",""
"sailing-comprehension","24","285824","0.0-7.0-0.0-2.0","","","","","","","","","","9999.70000000298","","","","","","","","","","","","","","[""false""]","0",""
"sailing-instructions","25","300812","0.0-8.0-0.0-0.0","","","","","","","","","","","","","","null","null","null","null","null","null","","","","","","",""
"sailing-comprehension","26","305320","0.0-8.0-0.0-1.0","","","","","","","","","","2754","","","","","","","","","","","","","","[""true""]","0",""
"sailing-instructions","27","327068","0.0-9.0-0.0-0.0","","","","","","","","","","","","","","null","null","null","null","null","null","","","","","","",""
"sailing-trial","28","332559","0.0-9.0-0.0-1.0-0.0","","","","false","","","","","","","","","","1010.6999999880791","","1019.3999999910593","","3","0","arrowright","1","arrowright","[0.2,0.8,0.2,0.8]","","",""
"sailing-trial","29","336516","0.0-9.0-0.0-1.0-1.0","","","","false","","","","","","","","","","752.7999999970198","","42.6000000089407","","0","1","arrowleft","0","arrowleft","[0.2,0.8,0.2,0.8]","","",""
"sailing-trial","30","339701","0.0-9.0-0.0-1.0-2.0","","","","false","","","","","","","","","","null","","1102.4000000059605","","0","0","null","null","arrowup","[0.2,0.8,0.2,0.8]","","",""
"sailing-trial","31","342976","0.0-9.0-0.0-1.0-3.0","","","","false","","","","","","","","","","509.79999999701977","","207.20000000298023","","0","0","arrowleft","0","arrowleft","[0.2,0.8,0.2,0.8]","","",""
"sailing-trial","32","345843","0.0-9.0-0.0-1.0-4.0","","","","false","","","","","","","","","","null","","1043.7999999970198","","3","1","null","null","arrowup","[0.2,0.8,0.2,0.8]","","",""
"sailing-trial","33","349458","0.0-9.0-0.0-1.0-5.0","","","","false","","","","","","","","","","493.6000000089407","","467.5","","3","0","arrowright","1","arrowright","[0.2,0.8,0.2,0.8]","","",""
"sailing-instructions","34","375983","0.0-10.0","","","","","","","","","","","","","","null","null","null","null","null","null","","","","","","",""
"sailing-trial","35","380894","0.0-11.0-0.0","","","","false","","","","","","","","","","1642.800000011921","","354.79999999701977","","3","1","arrowright","1","arrowright","[0.85,0.15,0.325,0.675]","","",""
"sailing-trial","36","383549","0.0-11.0-1.0","","","","false","","","","","","","","","","null","","818.7999999970198","","0","1","null","null","arrowup","[0.85,0.15,0.325,0.675]","","",""
"sailing-trial","37","387342","0.0-11.0-2.0","","","","false","","","","","","","","","","807.6000000089407","","221.29999999701977","","0","1","arrowleft","0","arrowleft","[0.85,0.15,0.325,0.675]","","",""
"sailing-trial","38","389716","0.0-11.0-3.0","","","","false","","","","","","","","","","null","","652.6000000089407","","1","0","null","null","arrowup","[0.85,0.15,0.325,0.675]","","",""
"sailing-trial","39","393220","0.0-11.0-4.0","","","","false","","","","","","","","","","356","","152.90000000596046","","0","1","arrowleft","0","arrowleft","[0.85,0.15,0.325,0.675]","","",""
"sailing-trial","40","396002","0.0-11.0-5.0","","","","false","","","","","","","","","","null","","678.5999999940395","","0","1","null","null","arrowup","[0.85,0.15,0.325,0.675]","","",""
"sailing-trial","41","399025","0.0-11.0-6.0","","","","false","","","","","","","","","","274.59999999403954","","137","","0","1","arrowleft","0","arrowleft","[0.85,0.15,0.325,0.675]","","",""
"sailing-trial","42","401458","0.0-11.0-7.0","","","","false","","","","","","","","","","null","","152.09999999403954","","1","1","null","null","arrowup","[0.85,0.15,0.325,0.675]","","",""
"sailing-trial","43","404300","0.0-11.0-8.0","","","","false","","","","","","","","","","1.5999999940395355","","158.29999999701977","","0","0","arrowleft","0","arrowleft","[0.85,0.15,0.325,0.675]","","",""
"sailing-trial","44","406917","0.0-11.0-9.0","","","","false","","","","","","","","","","null","","853.6000000089407","","0","1","null","null","arrowup","[0.85,0.15,0.325,0.675]","","",""
"sailing-trial","45","409827","0.0-11.0-10.0","","","","false","","","","","","","","","","13.299999997019768","","100.5","","0","1","arrowleft","0","arrowleft","[0.85,0.15,0.325,0.675]","","",""
"sailing-trial","46","411862","0.0-11.0-11.0","","","","false","","","","","","","","","","null","","655.6000000089407","","3","0","null","null","arrowup","[0.85,0.15,0.325,0.675]","","",""
"sailing-trial","47","415467","0.0-11.0-12.0","","","","false","","","","","","","","","","118.09999999403954","","133.20000000298023","","0","1","arrowleft","0","arrowleft","[0.85,0.15,0.325,0.675]","","",""
"sailing-trial","48","416631","0.0-11.0-13.0","","","","false","","","","","","","","","","null","","95.5","","1","0","null","null","arrowup","[0.85,0.15,0.325,0.675]","","",""
"sailing-trial","49","419725","0.0-11.0-14.0","","","","false","","","","","","","","","","270","","69.20000000298023","","0","1","arrowleft","0","arrowleft","[0.85,0.15,0.325,0.675]","","",""
"sailing-trial","50","421844","0.0-11.0-15.0","","","","false","","","","","","","","","","null","","134.29999999701977","","2","0","null","null","arrowup","[0.85,0.15,0.325,0.675]","","",""
"sailing-trial","51","424202","0.0-11.0-16.0","","","","false","","","","","","","","","","28.600000008940697","","192.5","","3","0","arrowright","1","arrowright","[0.85,0.15,0.325,0.675]","","",""
"sailing-trial","52","427195","0.0-11.0-17.0","","","","false","","","","","","","","","","null","","811.1999999880791","","0","1","null","null","arrowup","[0.85,0.15,0.325,0.675]","","",""
"sailing-trial","53","430311","0.0-11.0-18.0","","","","false","","","","","","","","","","94.5","","125.70000000298023","","0","1","arrowleft","0","arrowleft","[0.675,0.325,0.15,0.85]","","",""
"sailing-trial","54","432524","0.0-11.0-19.0","","","","false","","","","","","","","","","null","","232.5","","1","0","null","null","arrowup","[0.675,0.325,0.15,0.85]","","",""
"sailing-trial","55","437294","0.0-11.0-20.0","","","","false","","","","","","","","","","690.9000000059605","","62.400000005960464","","1","0","arrowleft","0","arrowright","[0.675,0.325,0.15,0.85]","","",""
"sailing-trial","56","440294","0.0-11.0-21.0","","","","false","","","","","","","","","","null","","717.6000000089407","","0","1","null","null","arrowup","[0.675,0.325,0.15,0.85]","","",""
"sailing-trial","57","444795","0.0-11.0-22.0","","","","false","","","","","","","","","","299.90000000596046","","172.90000000596046","","2","0","arrowright","1","arrowleft","[0.675,0.325,0.15,0.85]","","",""
"sailing-trial","58","447125","0.0-11.0-23.0","","","","false","","","","","","","","","","null","","439.70000000298023","","0","1","null","null","arrowup","[0.675,0.325,0.15,0.85]","","",""
"sailing-trial","59","450401","0.0-11.0-24.0","","","","false","","","","","","","","","","117.90000000596046","","67.1000000089407","","0","1","arrowleft","0","arrowleft","[0.675,0.325,0.15,0.85]","","",""
"sailing-trial","60","453501","0.0-11.0-25.0","","","","false","","","","","","","","","","null","","988.7999999970198","","1","1","null","null","arrowup","[0.675,0.325,0.15,0.85]","","",""
"sailing-trial","61","456734","0.0-11.0-26.0","","","","false","","","","","","","","","","406.30000001192093","","68.90000000596046","","0","1","arrowleft","0","arrowleft","[0.675,0.325,0.15,0.85]","","",""
"sailing-trial","62","458046","0.0-11.0-27.0","","","","false","","","","","","","","","","null","","263.5","","0","0","null","null","arrowup","[0.675,0.325,0.15,0.85]","","",""
"sailing-trial","63","461293","0.0-11.0-28.0","","","","false","","","","","","","","","","395.20000000298023","","225.70000000298023","","3","1","arrowright","1","arrowright","[0.675,0.325,0.15,0.85]","","",""
"sailing-trial","64","462829","0.0-11.0-29.0","","","","false","","","","","","","","","","null","","66.40000000596046","","3","0","null","null","arrowup","[0.675,0.325,0.15,0.85]","","",""
"sailing-trial","65","465693","0.0-11.0-30.0","","","","false","","","","","","","","","","182.1000000089407","","28.700000002980232","","0","1","arrowleft","0","arrowleft","[0.675,0.325,0.15,0.85]","","",""
"sailing-trial","66","467263","0.0-11.0-31.0","","","","false","","","","","","","","","","null","","258.29999999701977","","2","0","null","null","arrowup","[0.675,0.325,0.15,0.85]","","",""
"sailing-trial","67","470242","0.0-11.0-32.0","","","","false","","","","","","","","","","165.29999999701977","","193.70000000298023","","0","1","arrowleft","0","arrowleft","[0.675,0.325,0.15,0.85]","","",""
"sailing-trial","68","472095","0.0-11.0-33.0","","","","false","","","","","","","","","","null","","74.70000000298023","","2","0","null","null","arrowup","[0.675,0.325,0.15,0.85]","","",""
"sailing-trial","69","476344","0.0-11.0-34.0","","","","false","","","","","","","","","","120.80000001192093","","81.6000000089407","","1","0","arrowleft","0","arrowright","[0.85,0.15,0.325,0.675]","","",""
"sailing-trial","70","478851","0.0-11.0-35.0","","","","false","","","","","","","","","","null","","554.1999999880791","","1","1","null","null","arrowup","[0.85,0.15,0.325,0.675]","","",""
"sailing-trial","71","481709","0.0-11.0-36.0","","","","false","","","","","","","","","","46.599999994039536","","73.09999999403954","","0","1","arrowleft","0","arrowleft","[0.85,0.15,0.325,0.675]","","",""
"sailing-trial","72","484868","0.0-11.0-37.0","","","","false","","","","","","","","","","null","","148.6000000089407","","1","0","null","null","arrowup","[0.85,0.15,0.325,0.675]","","",""
"sailing-trial","73","488167","0.0-11.0-38.0","","","","false","","","","","","","","","","16.700000002980232","","212.3999999910593","","0","1","arrowleft","0","arrowleft","[0.85,0.15,0.325,0.675]","","",""
"sailing-trial","74","490083","0.0-11.0-39.0","","","","false","","","","","","","","","","null","","183.70000000298023","","2","1","null","null","arrowup","[0.85,0.15,0.325,0.675]","","",""
"sailing-trial","75","492958","0.0-11.0-40.0","","","","false","","","","","","","","","","43.1000000089407","","62.20000000298023","","0","1","arrowleft","0","arrowleft","[0.85,0.15,0.325,0.675]","","",""
"sailing-trial","76","495158","0.0-11.0-41.0","","","","false","","","","","","","","","","null","","111.5","","3","1","null","null","arrowup","[0.85,0.15,0.325,0.675]","","",""
"sailing-trial","77","498051","0.0-11.0-42.0","","","","false","","","","","","","","","","79.6000000089407","","153.59999999403954","","0","1","arrowleft","0","arrowleft","[0.85,0.15,0.325,0.675]","","",""
"sailing-trial","78","499244","0.0-11.0-43.0","","","","false","","","","","","","","","","null","","53.79999999701977","","0","0","null","null","arrowup","[0.85,0.15,0.325,0.675]","","",""
"sailing-trial","79","502025","0.0-11.0-44.0","","","","false","","","","","","","","","","22.80000001192093","","116.90000000596046","","0","1","arrowleft","0","arrowleft","[0.85,0.15,0.325,0.675]","","",""
"sailing-trial","80","503238","0.0-11.0-45.0","","","","false","","","","","","","","","","null","","146.20000000298023","","0","0","null","null","arrowup","[0.85,0.15,0.325,0.675]","","",""
"sailing-trial","81","506200","0.0-11.0-46.0","","","","false","","","","","","","","","","76.90000000596046","","192.8999999910593","","0","1","arrowleft","0","arrowleft","[0.85,0.15,0.325,0.675]","","",""
"sailing-trial","82","507520","0.0-11.0-47.0","","","","false","","","","","","","","","","null","","124.8999999910593","","3","0","null","null","arrowup","[0.85,0.15,0.325,0.675]","","",""
"sailing-trial","83","510501","0.0-11.0-48.0","","","","false","","","","","","","","","","106.8999999910593","","147","","0","1","arrowleft","0","arrowleft","[0.85,0.15,0.325,0.675]","","",""
"sailing-trial","84","511765","0.0-11.0-49.0","","","","false","","","","","","","","","","null","","47.400000005960464","","2","0","null","null","arrowup","[0.85,0.15,0.325,0.675]","","",""
"sailing-trial","85","514483","0.0-11.0-50.0","","","","false","","","","","","","","","","120.1000000089407","","37.900000005960464","","0","1","arrowleft","0","arrowleft","[0.85,0.15,0.325,0.675]","","",""
"sailing-trial","86","516308","0.0-11.0-51.0","","","","false","","","","","","","","","","null","","100.90000000596046","","2","1","null","null","arrowup","[0.85,0.15,0.325,0.675]","","",""
"sailing-trial","87","518677","0.0-11.0-52.0","","","","false","","","","","","","","","","199.80000001192093","","31.599999994039536","","0","0","arrowleft","0","arrowleft","[0.85,0.15,0.325,0.675]","","",""
"sailing-trial","88","520608","0.0-11.0-53.0","","","","false","","","","","","","","","","null","","198.40000000596046","","3","1","null","null","arrowup","[0.85,0.15,0.325,0.675]","","",""
"sailing-trial","89","522938","0.0-11.0-54.0","","","","false","","","","","","","","","","33.20000000298023","","169.09999999403954","","0","0","arrowleft","0","arrowleft","[0.675,0.325,0.15,0.85]","","",""
"sailing-trial","90","524699","0.0-11.0-55.0","","","","false","","","","","","","","","","null","","218.5","","3","1","null","null","arrowup","[0.675,0.325,0.15,0.85]","","",""
"sailing-trial","91","527599","0.0-11.0-56.0","","","","false","","","","","","","","","","163.29999999701977","","99.70000000298023","","0","1","arrowleft","0","arrowleft","[0.675,0.325,0.15,0.85]","","",""
"sailing-trial","92","528845","0.0-11.0-57.0","","","","false","","","","","","","","","","null","","10.199999988079071","","1","0","null","null","arrowup","[0.675,0.325,0.15,0.85]","","",""
"sailing-trial","93","532617","0.0-11.0-58.0","","","","false","","","","","","","","","","1103.1000000089407","","101.79999999701977","","0","1","arrowleft","0","arrowleft","[0.675,0.325,0.15,0.85]","","",""
"sailing-trial","94","534233","0.0-11.0-59.0","","","","false","","","","","","","","","","null","","93.70000000298023","","1","1","null","null","arrowup","[0.675,0.325,0.15,0.85]","","",""
"sailing-trial","95","536539","0.0-11.0-60.0","","","","false","","","","","","","","","","96.09999999403954","","166.09999999403954","","0","0","arrowleft","0","arrowleft","[0.675,0.325,0.15,0.85]","","",""
"sailing-trial","96","540541","0.0-11.0-61.0","","","","false","","","","","","","","","","null","","2288.2000000029802","","0","1","null","null","arrowup","[0.675,0.325,0.15,0.85]","","",""
"sailing-trial","97","543267","0.0-11.0-62.0","","","","false","","","","","","","","","","60","","37.1000000089407","","0","1","arrowleft","0","arrowleft","[0.675,0.325,0.15,0.85]","","",""
"sailing-trial","98","545216","0.0-11.0-63.0","","","","false","","","","","","","","","","null","","219.1000000089407","","0","1","null","null","arrowup","[0.675,0.325,0.15,0.85]","","",""
"sailing-trial","99","549677","0.0-11.0-64.0","","","","false","","","","","","","","","","384.90000000596046","","60.20000000298023","","0","0","arrowleft","0","arrowleft","[0.675,0.325,0.15,0.85]","","",""
"sailing-trial","100","552417","0.0-11.0-65.0","","","","false","","","","","","","","","","null","","12.5","","3","1","null","null","arrowup","[0.675,0.325,0.15,0.85]","","",""
"sailing-trial","101","555601","0.0-11.0-66.0","","","","false","","","","","","","","","","24.400000005960464","","436.1000000089407","","0","1","arrowleft","0","arrowleft","[0.675,0.325,0.15,0.85]","","",""
"sailing-trial","102","557525","0.0-11.0-67.0","","","","false","","","","","","","","","","null","","193.79999999701977","","1","1","null","null","arrowup","[0.675,0.325,0.15,0.85]","","",""
"sailing-trial","103","560341","0.0-11.0-68.0","","","","false","","","","","","","","","","23.100000008940697","","46.5","","0","1","arrowleft","0","arrowleft","[0.675,0.325,0.15,0.85]","","",""
"sailing-trial","104","561584","0.0-11.0-69.0","","","","false","","","","","","","","","","null","","20.5","","1","0","null","null","arrowup","[0.675,0.325,0.15,0.85]","","",""
"sailing-trial","105","564616","0.0-11.0-70.0","","","","false","","","","","","","","","","182.20000000298023","","205.90000000596046","","0","1","arrowleft","0","arrowleft","[0.675,0.325,0.15,0.85]","","",""
"sailing-trial","106","566450","0.0-11.0-71.0","","","","false","","","","","","","","","","null","","202.19999998807907","","0","1","null","null","arrowup","[0.675,0.325,0.15,0.85]","","",""
"sailing-trial","107","569408","0.0-11.0-72.0","","","","false","","","","","","","","","","116","","147.40000000596046","","0","1","arrowleft","0","arrowleft","[0.675,0.325,0.15,0.85]","","",""
"sailing-trial","108","570601","0.0-11.0-73.0","","","","false","","","","","","","","","","null","","2","","1","0","null","null","arrowup","[0.675,0.325,0.15,0.85]","","",""
"sailing-trial","109","573065","0.0-11.0-74.0","","","","false","","","","","","","","","","153.5","","295.8999999910593","","0","0","arrowleft","0","arrowleft","[0.85,0.15,0.325,0.675]","","",""
"sailing-trial","110","574909","0.0-11.0-75.0","","","","false","","","","","","","","","","null","","179.6000000089407","","3","1","null","null","arrowup","[0.85,0.15,0.325,0.675]","","",""
"sailing-trial","111","578134","0.0-11.0-76.0","","","","false","","","","","","","","","","99.40000000596046","","398.29999999701977","","0","1","arrowleft","0","arrowleft","[0.85,0.15,0.325,0.675]","","",""
"sailing-trial","112","579940","0.0-11.0-77.0","","","","false","","","","","","","","","","null","","64.3999999910593","","3","1","null","null","arrowup","[0.85,0.15,0.325,0.675]","","",""
"sailing-trial","113","583326","0.0-11.0-78.0","","","","false","","","","","","","","","","626.4000000059605","","137.30000001192093","","0","1","arrowleft","0","arrowleft","[0.85,0.15,0.325,0.675]","","",""
"sailing-trial","114","584575","0.0-11.0-79.0","","","","false","","","","","","","","","","null","","62.29999999701977","","3","0","null","null","arrowup","[0.85,0.15,0.325,0.675]","","",""
"sailing-trial","115","587831","0.0-11.0-80.0","","","","false","","","","","","","","","","278.79999999701977","","214.09999999403954","","0","1","arrowleft","0","arrowleft","[0.85,0.15,0.325,0.675]","","",""
"sailing-trial","116","589110","0.0-11.0-81.0","","","","false","","","","","","","","","","null","","97.40000000596046","","2","0","null","null","arrowup","[0.85,0.15,0.325,0.675]","","",""
"sailing-trial","117","592228","0.0-11.0-82.0","","","","false","","","","","","","","","","299.3999999910593","","272.59999999403954","","0","1","arrowleft","0","arrowleft","[0.85,0.15,0.325,0.675]","","",""
"sailing-trial","118","594143","0.0-11.0-83.0","","","","false","","","","","","","","","","null","","164.70000000298023","","0","1","null","null","arrowup","[0.85,0.15,0.325,0.675]","","",""
"sailing-trial","119","596741","0.0-11.0-84.0","","","","false","","","","","","","","","","154.09999999403954","","424.59999999403954","","0","0","arrowleft","0","arrowleft","[0.85,0.15,0.325,0.675]","","",""
"sailing-trial","120","598084","0.0-11.0-85.0","","","","false","","","","","","","","","","null","","163.70000000298023","","2","0","null","null","arrowup","[0.85,0.15,0.325,0.675]","","",""
"sailing-trial","121","600566","0.0-11.0-86.0","","","","false","","","","","","","","","","198.59999999403954","","52.5","","0","0","arrowleft","0","arrowleft","[0.85,0.15,0.325,0.675]","","",""
"sailing-trial","122","601724","0.0-11.0-87.0","","","","false","","","","","","","","","","null","","107.90000000596046","","1","0","null","null","arrowup","[0.85,0.15,0.325,0.675]","","",""
"sailing-trial","123","604767","0.0-11.0-88.0","","","","false","","","","","","","","","","90.1000000089407","","183","","0","1","arrowleft","0","arrowleft","[0.85,0.15,0.325,0.675]","","",""
"sailing-trial","124","607430","0.0-11.0-89.0","","","","false","","","","","","","","","","null","","1591.6000000089407","","2","0","null","null","arrowup","[0.85,0.15,0.325,0.675]","","",""
"sailing-trial","125","610094","0.0-11.0-90.0","","","","false","","","","","","","","","","202.19999998807907","","348","","0","0","arrowleft","0","arrowleft","[0.675,0.325,0.15,0.85]","","",""
"sailing-trial","126","611354","0.0-11.0-91.0","","","","false","","","","","","","","","","null","","97.90000000596046","","1","0","null","null","arrowup","[0.675,0.325,0.15,0.85]","","",""
"sailing-trial","127","616018","0.0-11.0-92.0","","","","false","","","","","","","","","","95.8999999910593","","24.5","","0","1","arrowleft","0","arrowleft","[0.675,0.325,0.15,0.85]","","",""
"sailing-trial","128","617643","0.0-11.0-93.0","","","","false","","","","","","","","","","null","","99.70000000298023","","0","1","null","null","arrowup","[0.675,0.325,0.15,0.85]","","",""
"sailing-trial","129","620466","0.0-11.0-94.0","","","","false","","","","","","","","","","98.09999999403954","","160.8999999910593","","0","1","arrowleft","0","arrowleft","[0.675,0.325,0.15,0.85]","","",""
"sailing-trial","130","622333","0.0-11.0-95.0","","","","false","","","","","","","","","","null","","150.90000000596046","","0","1","null","null","arrowup","[0.675,0.325,0.15,0.85]","","",""
"sailing-trial","131","625301","0.0-11.0-96.0","","","","false","","","","","","","","","","142.3999999910593","","223.8999999910593","","0","1","arrowleft","0","arrowleft","[0.675,0.325,0.15,0.85]","","",""
"sailing-trial","132","627094","0.0-11.0-97.0","","","","false","","","","","","","","","","null","","160.79999999701977","","3","1","null","null","arrowup","[0.675,0.325,0.15,0.85]","","",""
"sailing-trial","133","631686","0.0-11.0-98.0","","","","false","","","","","","","","","","189.59999999403954","","631","","0","0","arrowleft","0","arrowleft","[0.675,0.325,0.15,0.85]","","",""
"sailing-trial","134","632980","0.0-11.0-99.0","","","","false","","","","","","","","","","null","","184.29999999701977","","1","0","null","null","arrowup","[0.675,0.325,0.15,0.85]","","",""
"sailing-trial","135","635923","0.0-11.0-100.0","","","","false","","","","","","","","","","228.29999999701977","","84.5","","0","0","arrowleft","0","arrowleft","[0.675,0.325,0.15,0.85]","","",""
"sailing-trial","136","639202","0.0-11.0-101.0","","","","false","","","","","","","","","","null","","1641.9000000059605","","2","0","null","null","arrowup","[0.675,0.325,0.15,0.85]","","",""
"sailing-trial","137","642008","0.0-11.0-102.0","","","","false","","","","","","","","","","140.59999999403954","","109.59999999403954","","0","1","arrowleft","0","arrowleft","[0.675,0.325,0.15,0.85]","","",""
"sailing-trial","138","643770","0.0-11.0-103.0","","","","false","","","","","","","","","","null","","7.399999991059303","","3","1","null","null","arrowup","[0.675,0.325,0.15,0.85]","","",""
"sailing-trial","139","646591","0.0-11.0-104.0","","","","false","","","","","","","","","","20.599999994039536","","148.5","","0","1","arrowleft","0","arrowleft","[0.675,0.325,0.15,0.85]","","",""
"sailing-trial","140","647788","0.0-11.0-105.0","","","","false","","","","","","","","","","null","","42.3999999910593","","1","0","null","null","arrowup","[0.675,0.325,0.15,0.85]","","",""
"sailing-trial","141","650484","0.0-11.0-106.0","","","","false","","","","","","","","","","32.400000005960464","","23.5","","0","1","arrowleft","0","arrowleft","[0.675,0.325,0.15,0.85]","","",""
"sailing-trial","142","651714","0.0-11.0-107.0","","","","false","","","","","","","","","","null","","72.6000000089407","","2","0","null","null","arrowup","[0.675,0.325,0.15,0.85]","","",""
"sailing-trial","143","653988","0.0-11.0-108.0","","","","false","","","","","","","","","","123.79999999701977","","9.599999994039536","","0","0","arrowleft","0","arrowleft","[0.325,0.675,0.85,0.15]","","",""
"sailing-trial","144","655132","0.0-11.0-109.0","","","","false","","","","","","","","","","null","","99.20000000298023","","1","0","null","null","arrowup","[0.325,0.675,0.85,0.15]","","",""
"sailing-trial","145","657823","0.0-11.0-110.0","","","","false","","","","","","","","","","236.59999999403954","","162.20000000298023","","0","0","arrowleft","0","arrowleft","[0.325,0.675,0.85,0.15]","","",""
"sailing-trial","146","659716","0.0-11.0-111.0","","","","false","","","","","","","","","","null","","268.29999999701977","","1","1","null","null","arrowup","[0.325,0.675,0.85,0.15]","","",""
"sailing-trial","147","662775","0.0-11.0-112.0","","","","false","","","","","","","","","","153.79999999701977","","95.8999999910593","","0","1","arrowleft","0","arrowleft","[0.325,0.675,0.85,0.15]","","",""
"sailing-trial","148","664020","0.0-11.0-113.0","","","","false","","","","","","","","","","null","","126.70000000298023","","3","0","null","null","arrowup","[0.325,0.675,0.85,0.15]","","",""
"sailing-trial","149","666932","0.0-11.0-114.0","","","","false","","","","","","","","","","113","","137.80000001192093","","0","1","arrowleft","0","arrowleft","[0.325,0.675,0.85,0.15]","","",""
"sailing-trial","150","668000","0.0-11.0-115.0","","","","false","","","","","","","","","","null","","26","","3","0","null","null","arrowup","[0.325,0.675,0.85,0.15]","","",""
"sailing-trial","151","670589","0.0-11.0-116.0","","","","false","","","","","","","","","","208.8999999910593","","267.80000001192093","","0","0","arrowleft","0","arrowleft","[0.325,0.675,0.85,0.15]","","",""
"sailing-trial","152","671734","0.0-11.0-117.0","","","","false","","","","","","","","","","null","","104","","0","0","null","null","arrowup","[0.325,0.675,0.85,0.15]","","",""
"sailing-trial","153","674051","0.0-11.0-118.0","","","","false","","","","","","","","","","87.29999999701977","","207.20000000298023","","0","0","arrowleft","0","arrowleft","[0.325,0.675,0.85,0.15]","","",""
"sailing-trial","154","675707","0.0-11.0-119.0","","","","false","","","","","","","","","","null","","42.70000000298023","","2","1","null","null","arrowup","[0.325,0.675,0.85,0.15]","","",""
"sailing-trial","155","678108","0.0-11.0-120.0","","","","false","","","","","","","","","","14.799999997019768","","250","","0","0","arrowleft","0","arrowleft","[0.325,0.675,0.85,0.15]","","",""
"sailing-trial","156","679841","0.0-11.0-121.0","","","","false","","","","","","","","","","null","","65.3999999910593","","2","1","null","null","arrowup","[0.325,0.675,0.85,0.15]","","",""
"sailing-trial","157","682120","0.0-11.0-122.0","","","","false","","","","","","","","","","194.09999999403954","","17.700000002980232","","0","0","arrowleft","0","arrowleft","[0.325,0.675,0.85,0.15]","","",""
"sailing-trial","158","683339","0.0-11.0-123.0","","","","false","","","","","","","","","","null","","169.79999999701977","","3","0","null","null","arrowup","[0.325,0.675,0.85,0.15]","","",""
"sailing-trial","159","686566","0.0-11.0-124.0","","","","false","","","","","","","","","","64.69999998807907","","468.79999999701977","","0","1","arrowleft","0","arrowleft","[0.85,0.15,0.325,0.675]","","",""
"sailing-trial","160","688465","0.0-11.0-125.0","","","","false","","","","","","","","","","null","","285.8999999910593","","1","1","null","null","arrowup","[0.85,0.15,0.325,0.675]","","",""
"sailing-trial","161","691523","0.0-11.0-126.0","","","","false","","","","","","","","","","412.09999999403954","","109.30000001192093","","0","1","arrowleft","0","arrowleft","[0.85,0.15,0.325,0.675]","","",""
"sailing-trial","162","692682","0.0-11.0-127.0","","","","false","","","","","","","","","","null","","111.90000000596046","","3","0","null","null","arrowup","[0.85,0.15,0.325,0.675]","","",""
"sailing-trial","163","695741","0.0-11.0-128.0","","","","false","","","","","","","","","","158.79999999701977","","361.29999999701977","","0","1","arrowleft","0","arrowleft","[0.85,0.15,0.325,0.675]","","",""
"sailing-trial","164","697117","0.0-11.0-129.0","","","","false","","","","","","","","","","null","","167.5","","3","0","null","null","arrowup","[0.85,0.15,0.325,0.675]","","",""
"sailing-trial","165","699823","0.0-11.0-130.0","","","","false","","","","","","","","","","66.1000000089407","","87.29999999701977","","0","1","arrowleft","0","arrowleft","[0.85,0.15,0.325,0.675]","","",""
"sailing-trial","166","701081","0.0-11.0-131.0","","","","false","","","","","","","","","","null","","182.6000000089407","","1","0","null","null","arrowup","[0.85,0.15,0.325,0.675]","","",""
"sailing-trial","167","704358","0.0-11.0-132.0","","","","false","","","","","","","","","","227.29999999701977","","213.5","","0","1","arrowleft","0","arrowleft","[0.85,0.15,0.325,0.675]","","",""
"sailing-trial","168","705745","0.0-11.0-133.0","","","","false","","","","","","","","","","null","","151.09999999403954","","2","0","null","null","arrowup","[0.85,0.15,0.325,0.675]","","",""
"sailing-trial","169","708716","0.0-11.0-134.0","","","","false","","","","","","","","","","111.5","","305.40000000596046","","0","1","arrowleft","0","arrowleft","[0.85,0.15,0.325,0.675]","","",""
"sailing-trial","170","710399","0.0-11.0-135.0","","","","false","","","","","","","","","","null","","10.299999997019768","","0","1","null","null","arrowup","[0.85,0.15,0.325,0.675]","","",""
"sailing-trial","171","713131","0.0-11.0-136.0","","","","false","","","","","","","","","","140.59999999403954","","33","","0","1","arrowleft","0","arrowleft","[0.85,0.15,0.325,0.675]","","",""
"sailing-trial","172","714999","0.0-11.0-137.0","","","","false","","","","","","","","","","null","","86.79999999701977","","0","1","null","null","arrowup","[0.85,0.15,0.325,0.675]","","",""
"sailing-trial","173","717841","0.0-11.0-138.0","","","","false","","","","","","","","","","1.2000000029802322","","96.5","","0","1","arrowleft","0","arrowleft","[0.85,0.15,0.325,0.675]","","",""
"sailing-trial","174","719872","0.0-11.0-139.0","","","","false","","","","","","","","","","null","","169.40000000596046","","3","1","null","null","arrowup","[0.85,0.15,0.325,0.675]","","",""
"sailing-trial","175","722611","0.0-11.0-140.0","","","","false","","","","","","","","","","113.29999999701977","","7.5999999940395355","","0","1","arrowleft","0","arrowleft","[0.675,0.325,0.15,0.85]","","",""
"sailing-trial","176","723862","0.0-11.0-141.0","","","","false","","","","","","","","","","null","","65.29999999701977","","2","0","null","null","arrowup","[0.675,0.325,0.15,0.85]","","",""
"sailing-trial","177","726116","0.0-11.0-142.0","","","","false","","","","","","","","","","133.79999999701977","","94.8999999910593","","0","0","arrowleft","0","arrowleft","[0.675,0.325,0.15,0.85]","","",""
"sailing-trial","178","727304","0.0-11.0-143.0","","","","false","","","","","","","","","","null","","149.40000000596046","","1","0","null","null","arrowup","[0.675,0.325,0.15,0.85]","","",""
"sailing-trial","179","730141","0.0-11.0-144.0","","","","false","","","","","","","","","","151.6000000089407","","115.40000000596046","","0","1","arrowleft","0","arrowleft","[0.675,0.325,0.15,0.85]","","",""
"sailing-trial","180","731791","0.0-11.0-145.0","","","","false","","","","","","","","","","null","","26.80000001192093","","1","1","null","null","arrowup","[0.675,0.325,0.15,0.85]","","",""
"sailing-trial","181","734890","0.0-11.0-146.0","","","","false","","","","","","","","","","135.6000000089407","","185.20000000298023","","0","1","arrowleft","0","arrowleft","[0.675,0.325,0.15,0.85]","","",""
"sailing-trial","182","736187","0.0-11.0-147.0","","","","false","","","","","","","","","","null","","116.59999999403954","","2","0","null","null","arrowup","[0.675,0.325,0.15,0.85]","","",""
"sailing-trial","183","739416","0.0-11.0-148.0","","","","false","","","","","","","","","","185.69999998807907","","294.19999998807907","","0","1","arrowleft","0","arrowleft","[0.675,0.325,0.15,0.85]","","",""
"sailing-trial","184","740598","0.0-11.0-149.0","","","","false","","","","","","","","","","null","","153.40000000596046","","2","0","null","null","arrowup","[0.675,0.325,0.15,0.85]","","",""
"sailing-trial","185","743254","0.0-11.0-150.0","","","","false","","","","","","","","","","284.30000001192093","","124.8999999910593","","0","0","arrowleft","0","arrowleft","[0.675,0.325,0.15,0.85]","","",""
"sailing-trial","186","744495","0.0-11.0-151.0","","","","false","","","","","","","","","","null","","71","","2","0","null","null","arrowup","[0.675,0.325,0.15,0.85]","","",""
"sailing-trial","187","747357","0.0-11.0-152.0","","","","false","","","","","","","","","","189.59999999403954","","85.40000000596046","","0","1","arrowleft","0","arrowleft","[0.675,0.325,0.15,0.85]","","",""
"sailing-trial","188","748634","0.0-11.0-153.0","","","","false","","","","","","","","","","null","","195","","1","0","null","null","arrowup","[0.675,0.325,0.15,0.85]","","",""
"sailing-trial","189","751658","0.0-11.0-154.0","","","","false","","","","","","","","","","165.3999999910593","","175.40000000596046","","0","1","arrowleft","0","arrowleft","[0.675,0.325,0.15,0.85]","","",""
"sailing-trial","190","752830","0.0-11.0-155.0","","","","false","","","","","","","","","","null","","159.29999999701977","","2","0","null","null","arrowup","[0.675,0.325,0.15,0.85]","","",""
"sailing-trial","191","756031","0.0-11.0-156.0","","","","false","","","","","","","","","","388.5","","81.40000000596046","","0","1","arrowleft","0","arrowleft","[0.675,0.325,0.15,0.85]","","",""
"sailing-trial","192","757874","0.0-11.0-157.0","","","","false","","","","","","","","","","null","","36.29999999701977","","1","1","null","null","arrowup","[0.675,0.325,0.15,0.85]","","",""
"sailing-trial","193","761150","0.0-11.0-158.0","","","","false","","","","","","","","","","507.59999999403954","","137.70000000298023","","0","1","arrowleft","0","arrowleft","[0.85,0.15,0.325,0.675]","","",""
"sailing-trial","194","763658","0.0-11.0-159.0","","","","false","","","","","","","","","","null","","941.6999999880791","","2","1","null","null","arrowup","[0.85,0.15,0.325,0.675]","","",""
"sailing-trial","195","765889","0.0-11.0-160.0","","","","false","","","","","","","","","","141.40000000596046","","9.299999997019768","","0","0","arrowleft","0","arrowleft","[0.85,0.15,0.325,0.675]","","",""
"sailing-trial","196","767408","0.0-11.0-161.0","","","","false","","","","","","","","","","null","","468.8999999910593","","1","0","null","null","arrowup","[0.85,0.15,0.325,0.675]","","",""
"sailing-trial","197","770112","0.0-11.0-162.0","","","","false","","","","","","","","","","231.40000000596046","","399.90000000596046","","0","0","arrowleft","0","arrowleft","[0.85,0.15,0.325,0.675]","","",""
"sailing-trial","198","771724","0.0-11.0-163.0","","","","false","","","","","","","","","","null","","38","","3","1","null","null","arrowup","[0.85,0.15,0.325,0.675]","","",""
"sailing-trial","199","774515","0.0-11.0-164.0","","","","false","","","","","","","","","","83.09999999403954","","86.1000000089407","","0","1","arrowleft","0","arrowleft","[0.85,0.15,0.325,0.675]","","",""
"sailing-trial","200","775855","0.0-11.0-165.0","","","","false","","","","","","","","","","null","","185.8999999910593","","2","0","null","null","arrowup","[0.85,0.15,0.325,0.675]","","",""
"sailing-trial","201","779364","0.0-11.0-166.0","","","","false","","","","","","","","","","461.29999999701977","","439.19999998807907","","0","1","arrowleft","0","arrowleft","[0.85,0.15,0.325,0.675]","","",""
"sailing-trial","202","780795","0.0-11.0-167.0","","","","false","","","","","","","","","","null","","228.59999999403954","","2","0","null","null","arrowup","[0.85,0.15,0.325,0.675]","","",""
"sailing-trial","203","784541","0.0-11.0-168.0","","","","false","","","","","","","","","","254.5","","842.1999999880791","","0","1","arrowleft","0","arrowleft","[0.85,0.15,0.325,0.675]","","",""
"sailing-trial","204","785921","0.0-11.0-169.0","","","","false","","","","","","","","","","null","","220.40000000596046","","1","0","null","null","arrowup","[0.85,0.15,0.325,0.675]","","",""
"sailing-trial","205","789149","0.0-11.0-170.0","","","","false","","","","","","","","","","162.80000001192093","","377.79999999701977","","0","1","arrowleft","0","arrowleft","[0.85,0.15,0.325,0.675]","","",""
"sailing-trial","206","790477","0.0-11.0-171.0","","","","false","","","","","","","","","","null","","106.80000001192093","","1","0","null","null","arrowup","[0.85,0.15,0.325,0.675]","","",""
"sailing-trial","207","793491","0.0-11.0-172.0","","","","false","","","","","","","","","","131.20000000298023","","319.09999999403954","","0","1","arrowleft","0","arrowleft","[0.85,0.15,0.325,0.675]","","",""
"sailing-trial","208","795216","0.0-11.0-173.0","","","","false","","","","","","","","","","null","","106.09999999403954","","1","1","null","null","arrowup","[0.85,0.15,0.325,0.675]","","",""
"sailing-trial","209","798040","0.0-11.0-174.0","","","","false","","","","","","","","","","36.6000000089407","","51.8999999910593","","0","1","arrowleft","0","arrowleft","[0.85,0.15,0.325,0.675]","","",""
"sailing-trial","210","799689","0.0-11.0-175.0","","","","false","","","","","","","","","","null","","2.7999999970197678","","3","1","null","null","arrowup","[0.85,0.15,0.325,0.675]","","",""
"sailing-trial","211","802381","0.0-11.0-176.0","","","","false","","","","","","","","","","84.5","","55.8999999910593","","0","1","arrowleft","0","arrowleft","[0.85,0.15,0.325,0.675]","","",""
"sailing-trial","212","803640","0.0-11.0-177.0","","","","false","","","","","","","","","","null","","15.5","","0","0","null","null","arrowup","[0.85,0.15,0.325,0.675]","","",""
"sailing-trial","213","806606","0.0-11.0-178.0","","","","false","","","","","","","","","","60.29999999701977","","131.79999999701977","","0","1","arrowleft","0","arrowleft","[0.85,0.15,0.325,0.675]","","",""
"sailing-trial","214","808234","0.0-11.0-179.0","","","","false","","","","","","","","","","null","","152","","1","0","null","null","arrowup","[0.85,0.15,0.325,0.675]","","",""
"sailing-trial","215","811081","0.0-11.0-180.0","","","","false","","","","","","","","","","162.90000000596046","","473.69999998807907","","0","0","arrowleft","0","arrowleft","[0.325,0.675,0.85,0.15]","","",""
"sailing-trial","216","812344","0.0-11.0-181.0","","","","false","","","","","","","","","","null","","74.70000000298023","","3","0","null","null","arrowup","[0.325,0.675,0.85,0.15]","","",""
"sailing-trial","217","814822","0.0-11.0-182.0","","","","false","","","","","","","","","","160","","285.59999999403954","","0","0","arrowleft","0","arrowleft","[0.325,0.675,0.85,0.15]","","",""
"sailing-trial","218","816416","0.0-11.0-183.0","","","","false","","","","","","","","","","null","","43","","2","1","null","null","arrowup","[0.325,0.675,0.85,0.15]","","",""
"sailing-trial","219","819247","0.0-11.0-184.0","","","","false","","","","","","","","","","181.79999999701977","","98.29999999701977","","0","1","arrowleft","0","arrowleft","[0.325,0.675,0.85,0.15]","","",""
"sailing-trial","220","822121","0.0-11.0-185.0","","","","false","","","","","","","","","","null","","845.5999999940395","","0","0","null","null","arrowup","[0.325,0.675,0.85,0.15]","","",""
"sailing-trial","221","824436","0.0-11.0-186.0","","","","false","","","","","","","","","","138","","18.599999994039536","","0","0","arrowleft","0","arrowleft","[0.325,0.675,0.85,0.15]","","",""
"sailing-trial","222","826163","0.0-11.0-187.0","","","","false","","","","","","","","","","null","","61.70000000298023","","1","1","null","null","arrowup","[0.325,0.675,0.85,0.15]","","",""
"sailing-trial","223","829113","0.0-11.0-188.0","","","","false","","","","","","","","","","186.09999999403954","","58.900000005960464","","0","1","arrowleft","0","arrowleft","[0.325,0.675,0.85,0.15]","","",""
"sailing-trial","224","830874","0.0-11.0-189.0","","","","false","","","","","","","","","","null","","236.29999999701977","","2","1","null","null","arrowup","[0.325,0.675,0.85,0.15]","","",""
"sailing-trial","225","833260","0.0-11.0-190.0","","","","false","","","","","","","","","","45.599999994039536","","181.70000000298023","","0","0","arrowleft","0","arrowleft","[0.325,0.675,0.85,0.15]","","",""
"sailing-trial","226","834359","0.0-11.0-191.0","","","","false","","","","","","","","","","null","","10.5","","1","0","null","null","arrowup","[0.325,0.675,0.85,0.15]","","",""
"sailing-trial","227","836868","0.0-11.0-192.0","","","","false","","","","","","","","","","110.29999999701977","","136","","0","0","arrowleft","0","arrowleft","[0.325,0.675,0.85,0.15]","","",""
"sailing-trial","228","838138","0.0-11.0-193.0","","","","false","","","","","","","","","","null","","79.59999999403954","","3","0","null","null","arrowup","[0.325,0.675,0.85,0.15]","","",""
"sailing-trial","229","840508","0.0-11.0-194.0","","","","false","","","","","","","","","","132.80000001192093","","211.70000000298023","","0","0","arrowleft","0","arrowleft","[0.325,0.675,0.85,0.15]","","",""
"sailing-trial","230","842357","0.0-11.0-195.0","","","","false","","","","","","","","","","null","","91","","1","1","null","null","arrowup","[0.325,0.675,0.85,0.15]","","",""
"sailing-trial","231","844888","0.0-11.0-196.0","","","","false","","","","","","","","","","132.80000001192093","","336.30000001192093","","0","0","arrowleft","0","arrowleft","[0.15,0.85,0.675,0.325]","","",""
"sailing-trial","232","846596","0.0-11.0-197.0","","","","false","","","","","","","","","","null","","182.09999999403954","","3","1","null","null","arrowup","[0.15,0.85,0.675,0.325]","","",""
"sailing-trial","233","849335","0.0-11.0-198.0","","","","false","","","","","","","","","","369.40000000596046","","183.70000000298023","","0","0","arrowleft","0","arrowleft","[0.15,0.85,0.675,0.325]","","",""
"sailing-trial","234","850666","0.0-11.0-199.0","","","","false","","","","","","","","","","null","","208.29999999701977","","0","0","null","null","arrowup","[0.15,0.85,0.675,0.325]","","",""
"sailing-trial","235","852973","0.0-11.0-200.0","","","","false","","","","","","","","","","99.8999999910593","","95.59999999403954","","0","0","arrowleft","0","arrowleft","[0.15,0.85,0.675,0.325]","","",""
"sailing-trial","236","854805","0.0-11.0-201.0","","","","false","","","","","","","","","","null","","184.79999999701977","","3","1","null","null","arrowup","[0.15,0.85,0.675,0.325]","","",""
"sailing-trial","237","857171","0.0-11.0-202.0","","","","false","","","","","","","","","","114.70000000298023","","221.09999999403954","","0","0","arrowleft","0","arrowleft","[0.15,0.85,0.675,0.325]","","",""
"sailing-trial","238","858426","0.0-11.0-203.0","","","","false","","","","","","","","","","null","","143.70000000298023","","0","0","null","null","arrowup","[0.15,0.85,0.675,0.325]","","",""
"sailing-trial","239","860800","0.0-11.0-204.0","","","","false","","","","","","","","","","143.1000000089407","","114.5","","0","0","arrowleft","0","arrowleft","[0.15,0.85,0.675,0.325]","","",""
"sailing-trial","240","863090","0.0-11.0-205.0","","","","false","","","","","","","","","","null","","59.099999994039536","","1","1","null","null","arrowup","[0.15,0.85,0.675,0.325]","","",""
"sailing-trial","241","865360","0.0-11.0-206.0","","","","false","","","","","","","","","","83.19999998807907","","81.20000000298023","","0","0","arrowleft","0","arrowleft","[0.15,0.85,0.675,0.325]","","",""
"sailing-trial","242","866453","0.0-11.0-207.0","","","","false","","","","","","","","","","null","","13.299999997019768","","0","0","null","null","arrowup","[0.15,0.85,0.675,0.325]","","",""
"sailing-trial","243","868901","0.0-11.0-208.0","","","","false","","","","","","","","","","226","","112.29999999701977","","0","0","arrowleft","0","arrowleft","[0.15,0.85,0.675,0.325]","","",""
"sailing-trial","244","870655","0.0-11.0-209.0","","","","false","","","","","","","","","","null","","180.5","","1","1","null","null","arrowup","[0.15,0.85,0.675,0.325]","","",""
"sailing-trial","245","873381","0.0-11.0-210.0","","","","false","","","","","","","","","","152.80000001192093","","23.600000008940697","","0","1","arrowleft","0","arrowleft","[0.15,0.85,0.675,0.325]","","",""
"sailing-trial","246","874729","0.0-11.0-211.0","","","","false","","","","","","","","","","null","","252.6000000089407","","1","0","null","null","arrowup","[0.15,0.85,0.675,0.325]","","",""
"sailing-trial","247","877048","0.0-11.0-212.0","","","","false","","","","","","","","","","180.20000000298023","","37.69999998807907","","0","0","arrowleft","0","arrowleft","[0.15,0.85,0.675,0.325]","","",""
"sailing-trial","248","878426","0.0-11.0-213.0","","","","false","","","","","","","","","","null","","227.59999999403954","","0","0","null","null","arrowup","[0.15,0.85,0.675,0.325]","","",""
"sailing-trial","249","880898","0.0-11.0-214.0","","","","false","","","","","","","","","","190.20000000298023","","91.29999999701977","","0","0","arrowleft","0","arrowleft","[0.15,0.85,0.675,0.325]","","",""
"sailing-trial","250","882705","0.0-11.0-215.0","","","","false","","","","","","","","","","null","","183.20000000298023","","2","1","null","null","arrowup","[0.15,0.85,0.675,0.325]","","",""
"sailing-trial","251","885083","0.0-11.0-216.0","","","","false","","","","","","","","","","86","","97.90000000596046","","0","0","arrowleft","0","arrowleft","[0.15,0.85,0.675,0.325]","","",""
"sailing-trial","252","886499","0.0-11.0-217.0","","","","false","","","","","","","","","","null","","247.79999999701977","","2","0","null","null","arrowup","[0.15,0.85,0.675,0.325]","","",""
"sailing-trial","253","888907","0.0-11.0-218.0","","","","false","","","","","","","","","","122.70000000298023","","22.19999998807907","","0","0","arrowleft","0","arrowleft","[0.325,0.675,0.85,0.15]","","",""
"sailing-trial","254","890572","0.0-11.0-219.0","","","","false","","","","","","","","","","null","","23.100000008940697","","2","1","null","null","arrowup","[0.325,0.675,0.85,0.15]","","",""
"sailing-trial","255","893064","0.0-11.0-220.0","","","","false","","","","","","","","","","217.59999999403954","","207","","0","0","arrowleft","0","arrowleft","[0.325,0.675,0.85,0.15]","","",""
"sailing-trial","256","894540","0.0-11.0-221.0","","","","false","","","","","","","","","","null","","219.29999999701977","","3","0","null","null","arrowup","[0.325,0.675,0.85,0.15]","","",""
"sailing-trial","257","896891","0.0-11.0-222.0","","","","false","","","","","","","","","","187","","139.09999999403954","","0","0","arrowleft","0","arrowleft","[0.325,0.675,0.85,0.15]","","",""
"sailing-trial","258","898562","0.0-11.0-223.0","","","","false","","","","","","","","","","null","","116.5","","1","1","null","null","arrowup","[0.325,0.675,0.85,0.15]","","",""
"sailing-trial","259","903604","0.0-11.0-224.0","","","","false","","","","","","","","","","184.29999999701977","","2260.8999999910593","","0","1","arrowleft","0","arrowleft","[0.325,0.675,0.85,0.15]","","",""
"sailing-trial","260","905378","0.0-11.0-225.0","","","","false","","","","","","","","","","null","","115.90000000596046","","0","1","null","null","arrowup","[0.325,0.675,0.85,0.15]","","",""
"sailing-trial","261","908389","0.0-11.0-226.0","","","","false","","","","","","","","","","86","","564.2000000029802","","0","0","arrowleft","0","arrowleft","[0.325,0.675,0.85,0.15]","","",""
"sailing-trial","262","910486","0.0-11.0-227.0","","","","false","","","","","","","","","","null","","889.7999999970198","","3","0","null","null","arrowup","[0.325,0.675,0.85,0.15]","","",""
"sailing-trial","263","912719","0.0-11.0-228.0","","","","false","","","","","","","","","","7.399999991059303","","207.5","","0","0","arrowleft","0","arrowleft","[0.325,0.675,0.85,0.15]","","",""
"sailing-trial","264","913888","0.0-11.0-229.0","","","","false","","","","","","","","","","null","","120.5","","0","0","null","null","arrowup","[0.325,0.675,0.85,0.15]","","",""
"sailing-trial","265","916820","0.0-11.0-230.0","","","","false","","","","","","","","","","385.90000000596046","","465","","0","0","arrowleft","0","arrowleft","[0.325,0.675,0.85,0.15]","","",""
"sailing-trial","266","918606","0.0-11.0-231.0","","","","false","","","","","","","","","","null","","312.70000000298023","","0","0","null","null","arrowup","[0.325,0.675,0.85,0.15]","","",""
"sailing-trial","267","921881","0.0-11.0-232.0","","","","false","","","","","","","","","","540.2000000029802","","615.6999999880791","","0","0","arrowleft","0","arrowleft","[0.325,0.675,0.85,0.15]","","",""
"sailing-trial","268","923203","0.0-11.0-233.0","","","","false","","","","","","","","","","null","","198.59999999403954","","1","0","null","null","arrowup","[0.325,0.675,0.85,0.15]","","",""
"sailing-trial","269","926199","0.0-11.0-234.0","","","","false","","","","","","","","","","813","","85.5","","0","0","arrowleft","0","arrowleft","[0.325,0.675,0.85,0.15]","","",""
"sailing-trial","270","927356","0.0-11.0-235.0","","","","false","","","","","","","","","","null","","64.70000000298023","","0","0","null","null","arrowup","[0.325,0.675,0.85,0.15]","","",""
"sailing-trial","271","929603","0.0-11.0-236.0","","","","false","","","","","","","","","","44.599999994039536","","74.8999999910593","","0","0","arrowleft","0","arrowleft","[0.325,0.675,0.85,0.15]","","",""
"sailing-trial","272","931240","0.0-11.0-237.0","","","","false","","","","","","","","","","null","","17.100000008940697","","1","1","null","null","arrowup","[0.325,0.675,0.85,0.15]","","",""
"sailing-trial","273","934462","0.0-11.0-238.0","","","","false","","","","","","","","","","416","","142.59999999403954","","0","1","arrowleft","0","arrowleft","[0.15,0.85,0.675,0.325]","","",""
"sailing-trial","274","935880","0.0-11.0-239.0","","","","false","","","","","","","","","","null","","256.70000000298023","","2","0","null","null","arrowup","[0.15,0.85,0.675,0.325]","","",""
"sailing-trial","275","938164","0.0-11.0-240.0","","","","false","","","","","","","","","","12.100000008940697","","153.3999999910593","","0","0","arrowleft","0","arrowleft","[0.15,0.85,0.675,0.325]","","",""
"sailing-trial","276","939880","0.0-11.0-241.0","","","","false","","","","","","","","","","null","","56.70000000298023","","2","1","null","null","arrowup","[0.15,0.85,0.675,0.325]","","",""
"sailing-trial","277","942528","0.0-11.0-242.0","","","","false","","","","","","","","","","277.6000000089407","","159.79999999701977","","0","0","arrowleft","0","arrowleft","[0.15,0.85,0.675,0.325]","","",""
"sailing-trial","278","944470","0.0-11.0-243.0","","","","false","","","","","","","","","","null","","243.79999999701977","","3","1","null","null","arrowup","[0.15,0.85,0.675,0.325]","","",""
"sailing-trial","279","947331","0.0-11.0-244.0","","","","false","","","","","","","","","","586.7999999970198","","107.90000000596046","","0","0","arrowleft","0","arrowleft","[0.15,0.85,0.675,0.325]","","",""
"sailing-trial","280","949163","0.0-11.0-245.0","","","","false","","","","","","","","","","null","","210.29999999701977","","2","1","null","null","arrowup","[0.15,0.85,0.675,0.325]","","",""
"sailing-trial","281","952162","0.0-11.0-246.0","","","","false","","","","","","","","","","94.70000000298023","","211.20000000298023","","0","1","arrowleft","0","arrowleft","[0.15,0.85,0.675,0.325]","","",""
"sailing-trial","282","953283","0.0-11.0-247.0","","","","false","","","","","","","","","","null","","112.30000001192093","","3","0","null","null","arrowup","[0.15,0.85,0.675,0.325]","","",""
"sailing-trial","283","958062","0.0-11.0-248.0","","","","false","","","","","","","","","","1772.5999999940395","","263.40000000596046","","0","1","arrowleft","0","arrowleft","[0.15,0.85,0.675,0.325]","","",""
"sailing-trial","284","959296","0.0-11.0-249.0","","","","false","","","","","","","","","","null","","25.599999994039536","","2","0","null","null","arrowup","[0.15,0.85,0.675,0.325]","","",""
"sailing-trial","285","963198","0.0-11.0-250.0","","","","false","","","","","","","","","","1623.0999999940395","","203.40000000596046","","0","0","arrowleft","0","arrowleft","[0.15,0.85,0.675,0.325]","","",""
"sailing-trial","286","965054","0.0-11.0-251.0","","","","false","","","","","","","","","","null","","179.3999999910593","","2","1","null","null","arrowup","[0.15,0.85,0.675,0.325]","","",""
"sailing-trial","287","967519","0.0-11.0-252.0","","","","false","","","","","","","","","","149.20000000298023","","85.59999999403954","","0","0","arrowleft","0","arrowleft","[0.15,0.85,0.675,0.325]","","",""
"sailing-trial","288","969378","0.0-11.0-253.0","","","","false","","","","","","","","","","null","","54.29999999701977","","1","1","null","null","arrowup","[0.15,0.85,0.675,0.325]","","",""
"sailing-trial","289","972237","0.0-11.0-254.0","","","","false","","","","","","","","","","100.09999999403954","","141.1000000089407","","0","1","arrowleft","0","arrowleft","[0.85,0.15,0.325,0.675]","","",""
"sailing-trial","290","973900","0.0-11.0-255.0","","","","false","","","","","","","","","","null","","86.20000000298023","","2","0","null","null","arrowup","[0.85,0.15,0.325,0.675]","","",""
"sailing-trial","291","976853","0.0-11.0-256.0","","","","false","","","","","","","","","","84.40000000596046","","136.70000000298023","","0","1","arrowleft","0","arrowleft","[0.85,0.15,0.325,0.675]","","",""
"sailing-trial","292","978129","0.0-11.0-257.0","","","","false","","","","","","","","","","null","","55.29999999701977","","3","0","null","null","arrowup","[0.85,0.15,0.325,0.675]","","",""
"sailing-trial","293","981028","0.0-11.0-258.0","","","","false","","","","","","","","","","144","","160.69999998807907","","0","1","arrowleft","0","arrowleft","[0.85,0.15,0.325,0.675]","","",""
"sailing-trial","294","982744","0.0-11.0-259.0","","","","false","","","","","","","","","","null","","127.30000001192093","","0","1","null","null","arrowup","[0.85,0.15,0.325,0.675]","","",""
"sailing-trial","295","985595","0.0-11.0-260.0","","","","false","","","","","","","","","","167.29999999701977","","44.80000001192093","","0","1","arrowleft","0","arrowleft","[0.85,0.15,0.325,0.675]","","",""
"sailing-trial","296","987016","0.0-11.0-261.0","","","","false","","","","","","","","","","null","","193","","3","0","null","null","arrowup","[0.85,0.15,0.325,0.675]","","",""
"sailing-trial","297","992420","0.0-11.0-262.0","","","","false","","","","","","","","","","208.5","","2656.2000000029802","","0","1","arrowleft","0","arrowleft","[0.85,0.15,0.325,0.675]","","",""
"sailing-trial","298","994654","0.0-11.0-263.0","","","","false","","","","","","","","","","null","","306.29999999701977","","3","1","null","null","arrowup","[0.85,0.15,0.325,0.675]","","",""
"sailing-trial","299","999046","0.0-11.0-264.0","","","","false","","","","","","","","","","1369","","268.20000000298023","","0","1","arrowleft","0","arrowleft","[0.85,0.15,0.325,0.675]","","",""
"sailing-trial","300","1000837","0.0-11.0-265.0","","","","false","","","","","","","","","","null","","38","","2","1","null","null","arrowup","[0.85,0.15,0.325,0.675]","","",""
"sailing-trial","301","1003644","0.0-11.0-266.0","","","","false","","","","","","","","","","93.09999999403954","","91.19999998807907","","0","1","arrowleft","0","arrowleft","[0.85,0.15,0.325,0.675]","","",""
"sailing-trial","302","1004764","0.0-11.0-267.0","","","","false","","","","","","","","","","null","","51.5","","1","0","null","null","arrowup","[0.85,0.15,0.325,0.675]","","",""
"sailing-trial","303","1008244","0.0-11.0-268.0","","","","false","","","","","","","","","","181.90000000596046","","586.9000000059605","","0","1","arrowleft","0","arrowleft","[0.85,0.15,0.325,0.675]","","",""
"sailing-trial","304","1009523","0.0-11.0-269.0","","","","false","","","","","","","","","","null","","137.20000000298023","","0","0","null","null","arrowup","[0.85,0.15,0.325,0.675]","","",""
"sailing-trial","305","1013179","0.0-11.0-270.0","","","","false","","","","","","","","","","37.900000005960464","","488.29999999701977","","0","1","arrowleft","0","arrowleft","[0.85,0.15,0.325,0.675]","","",""
"sailing-trial","306","1015294","0.0-11.0-271.0","","","","false","","","","","","","","","","null","","424","","3","1","null","null","arrowup","[0.85,0.15,0.325,0.675]","","",""
"sailing-trial","307","1019794","0.0-11.0-272.0","","","","false","","","","","","","","","","1578.800000011921","","33.79999999701977","","0","1","arrowleft","0","arrowleft","[0.85,0.15,0.325,0.675]","","",""
"sailing-trial","308","1021123","0.0-11.0-273.0","","","","false","","","","","","","","","","null","","176.79999999701977","","1","0","null","null","arrowup","[0.85,0.15,0.325,0.675]","","",""
"sailing-trial","309","1024270","0.0-11.0-274.0","","","","false","","","","","","","","","","145.59999999403954","","437","","3","1","arrowright","1","arrowright","[0.85,0.15,0.325,0.675]","","",""
"sailing-trial","310","1027396","0.0-11.0-275.0","","","","false","","","","","","","","","","null","","2095.9000000059605","","1","0","null","null","arrowup","[0.85,0.15,0.325,0.675]","","",""
"sailing-trial","311","1030194","0.0-11.0-276.0","","","","false","","","","","","","","","","203.19999998807907","","37.099999994039536","","0","1","arrowleft","0","arrowleft","[0.85,0.15,0.325,0.675]","","",""
"sailing-trial","312","1031389","0.0-11.0-277.0","","","","false","","","","","","","","","","null","","167.90000000596046","","2","0","null","null","arrowup","[0.85,0.15,0.325,0.675]","","",""
"sailing-trial","313","1034486","0.0-11.0-278.0","","","","false","","","","","","","","","","233.5","","280.3999999910593","","0","1","arrowleft","0","arrowleft","[0.675,0.325,0.15,0.85]","","",""
"sailing-trial","314","1035848","0.0-11.0-279.0","","","","false","","","","","","","","","","null","","221.40000000596046","","2","0","null","null","arrowup","[0.675,0.325,0.15,0.85]","","",""
"sailing-trial","315","1038626","0.0-11.0-280.0","","","","false","","","","","","","","","","71.09999999403954","","644","","0","0","arrowleft","0","arrowleft","[0.675,0.325,0.15,0.85]","","",""
"sailing-trial","316","1041304","0.0-11.0-281.0","","","","false","","","","","","","","","","null","","203.79999999701977","","3","1","null","null","arrowup","[0.675,0.325,0.15,0.85]","","",""
"sailing-trial","317","1045569","0.0-11.0-282.0","","","","false","","","","","","","","","","823.1999999880791","","881","","0","1","arrowleft","0","arrowleft","[0.675,0.325,0.15,0.85]","","",""
"sailing-trial","318","1047196","0.0-11.0-283.0","","","","false","","","","","","","","","","null","","6.5999999940395355","","3","1","null","null","arrowup","[0.675,0.325,0.15,0.85]","","",""
"sailing-trial","319","1052128","0.0-11.0-284.0","","","","false","","","","","","","","","","2224","","10.200000002980232","","0","1","arrowleft","0","arrowleft","[0.675,0.325,0.15,0.85]","","",""
"sailing-trial","320","1053803","0.0-11.0-285.0","","","","false","","","","","","","","","","null","","31.80000001192093","","0","1","null","null","arrowup","[0.675,0.325,0.15,0.85]","","",""
"sailing-trial","321","1056602","0.0-11.0-286.0","","","","false","","","","","","","","","","71.29999999701977","","61","","0","1","arrowleft","0","arrowleft","[0.675,0.325,0.15,0.85]","","",""
"sailing-trial","322","1058245","0.0-11.0-287.0","","","","false","","","","","","","","","","null","","64.29999999701977","","3","1","null","null","arrowup","[0.675,0.325,0.15,0.85]","","",""
"sailing-trial","323","1065092","0.0-11.0-288.0","","","","false","","","","","","","","","","71.09999999403954","","4109.600000008941","","0","1","arrowleft","0","arrowleft","[0.675,0.325,0.15,0.85]","","",""
"sailing-trial","324","1066919","0.0-11.0-289.0","","","","false","","","","","","","","","","null","","131","","2","1","null","null","arrowup","[0.675,0.325,0.15,0.85]","","",""
"sailing-trial","325","1070604","0.0-11.0-290.0","","","","false","","","","","","","","","","804","","145.70000000298023","","0","1","arrowleft","0","arrowleft","[0.675,0.325,0.15,0.85]","","",""
"sailing-trial","326","1072446","0.0-11.0-291.0","","","","false","","","","","","","","","","null","","389","","3","0","null","null","arrowup","[0.675,0.325,0.15,0.85]","","",""
"sailing-trial","327","1074779","0.0-11.0-292.0","","","","false","","","","","","","","","","132.40000000596046","","62.400000005960464","","0","0","arrowleft","0","arrowleft","[0.675,0.325,0.15,0.85]","","",""
"sailing-trial","328","1076527","0.0-11.0-293.0","","","","false","","","","","","","","","","null","","119.3999999910593","","3","1","null","null","arrowup","[0.675,0.325,0.15,0.85]","","",""
"sailing-trial","329","1083007","0.0-11.0-294.0","","","","false","","","","","","","","","","3595.1000000089407","","330.29999999701977","","0","1","arrowleft","0","arrowleft","[0.675,0.325,0.15,0.85]","","",""
"sailing-trial","330","1084750","0.0-11.0-295.0","","","","false","","","","","","","","","","null","","161.79999999701977","","3","1","null","null","arrowup","[0.675,0.325,0.15,0.85]","","",""
"sailing-trial","331","1087209","0.0-11.0-296.0","","","","false","","","","","","","","","","73.70000000298023","","146","","0","0","arrowleft","0","arrowleft","[0.85,0.15,0.325,0.675]","","",""
"sailing-trial","332","1088865","0.0-11.0-297.0","","","","false","","","","","","","","","","null","","97.40000000596046","","0","1","null","null","arrowup","[0.85,0.15,0.325,0.675]","","",""
"sailing-trial","333","1091458","0.0-11.0-298.0","","","","false","","","","","","","","","","113.70000000298023","","62.20000000298023","","0","0","arrowleft","0","arrowleft","[0.85,0.15,0.325,0.675]","","",""
"sailing-trial","334","1092668","0.0-11.0-299.0","","","","false","","","","","","","","","","null","","141.80000001192093","","1","0","null","null","arrowup","[0.85,0.15,0.325,0.675]","","",""
"sailing-trial","335","1095283","0.0-11.0-300.0","","","","false","","","","","","","","","","254.79999999701977","","159.1000000089407","","0","0","arrowleft","0","arrowleft","[0.85,0.15,0.325,0.675]","","",""
"sailing-trial","336","1096500","0.0-11.0-301.0","","","","false","","","","","","","","","","null","","153.90000000596046","","1","0","null","null","arrowup","[0.85,0.15,0.325,0.675]","","",""
"sailing-trial","337","1099782","0.0-11.0-302.0","","","","false","","","","","","","","","","159.70000000298023","","204.6000000089407","","0","1","arrowleft","0","arrowleft","[0.85,0.15,0.325,0.675]","","",""
"sailing-trial","338","1101388","0.0-11.0-303.0","","","","false","","","","","","","","","","null","","234.09999999403954","","3","0","null","null","arrowup","[0.85,0.15,0.325,0.675]","","",""
"sailing-trial","339","1104366","0.0-11.0-304.0","","","","false","","","","","","","","","","235.20000000298023","","136","","0","1","arrowleft","0","arrowleft","[0.85,0.15,0.325,0.675]","","",""
"sailing-trial","340","1106235","0.0-11.0-305.0","","","","false","","","","","","","","","","null","","506.59999999403954","","2","0","null","null","arrowup","[0.85,0.15,0.325,0.675]","","",""
"sailing-trial","341","1110040","0.0-11.0-306.0","","","","false","","","","","","","","","","172.79999999701977","","250","","0","1","arrowleft","0","arrowleft","[0.85,0.15,0.325,0.675]","","",""
"sailing-trial","342","1111914","0.0-11.0-307.0","","","","false","","","","","","","","","","null","","203.29999999701977","","3","1","null","null","arrowup","[0.85,0.15,0.325,0.675]","","",""
"sailing-trial","343","1114656","0.0-11.0-308.0","","","","false","","","","","","","","","","166","","38.70000000298023","","0","1","arrowleft","0","arrowleft","[0.85,0.15,0.325,0.675]","","",""
"sailing-trial","344","1115756","0.0-11.0-309.0","","","","false","","","","","","","","","","null","","78.20000000298023","","1","0","null","null","arrowup","[0.85,0.15,0.325,0.675]","","",""
"sailing-trial","345","1118740","0.0-11.0-310.0","","","","false","","","","","","","","","","162.69999998807907","","217.8999999910593","","0","1","arrowleft","0","arrowleft","[0.85,0.15,0.325,0.675]","","",""
"sailing-trial","346","1120474","0.0-11.0-311.0","","","","false","","","","","","","","","","null","","178.20000000298023","","0","1","null","null","arrowup","[0.85,0.15,0.325,0.675]","","",""
"sailing-trial","347","1123374","0.0-11.0-312.0","","","","false","","","","","","","","","","181.29999999701977","","163.19999998807907","","0","1","arrowleft","0","arrowleft","[0.85,0.15,0.325,0.675]","","",""
"sailing-trial","348","1125840","0.0-11.0-313.0","","","","false","","","","","","","","","","null","","745.3999999910593","","0","1","null","null","arrowup","[0.85,0.15,0.325,0.675]","","",""
"sailing-trial","349","1131230","0.0-11.0-314.0","","","","false","","","","","","","","","","3180.5","","118.79999999701977","","0","0","arrowleft","0","arrowleft","[0.675,0.325,0.15,0.85]","","",""
"sailing-trial","350","1132949","0.0-11.0-315.0","","","","false","","","","","","","","","","null","","138.5","","3","1","null","null","arrowup","[0.675,0.325,0.15,0.85]","","",""
"sailing-trial","351","1137456","0.0-11.0-316.0","","","","false","","","","","","","","","","1594.4000000059605","","162.6000000089407","","0","1","arrowleft","0","arrowleft","[0.675,0.325,0.15,0.85]","","",""
"sailing-trial","352","1138663","0.0-11.0-317.0","","","","false","","","","","","","","","","null","","131.5","","2","0","null","null","arrowup","[0.675,0.325,0.15,0.85]","","",""
"sailing-trial","353","1142047","0.0-11.0-318.0","","","","false","","","","","","","","","","363.6000000089407","","262.29999999701977","","0","1","arrowleft","0","arrowleft","[0.675,0.325,0.15,0.85]","","",""
"sailing-trial","354","1143500","0.0-11.0-319.0","","","","false","","","","","","","","","","null","","221","","0","0","null","null","arrowup","[0.675,0.325,0.15,0.85]","","",""
"sailing-trial","355","1145825","0.0-11.0-320.0","","","","false","","","","","","","","","","210.59999999403954","","63.20000000298023","","0","0","arrowleft","0","arrowleft","[0.675,0.325,0.15,0.85]","","",""
"sailing-trial","356","1147590","0.0-11.0-321.0","","","","false","","","","","","","","","","null","","208.90000000596046","","0","1","null","null","arrowup","[0.675,0.325,0.15,0.85]","","",""
"sailing-trial","357","1150563","0.0-11.0-322.0","","","","false","","","","","","","","","","151.70000000298023","","291","","0","0","arrowleft","0","arrowleft","[0.675,0.325,0.15,0.85]","","",""
"sailing-trial","358","1151793","0.0-11.0-323.0","","","","false","","","","","","","","","","null","","155.80000001192093","","2","0","null","null","arrowup","[0.675,0.325,0.15,0.85]","","",""
"sailing-trial","359","1154864","0.0-11.0-324.0","","","","false","","","","","","","","","","223","","216.90000000596046","","0","1","arrowleft","0","arrowleft","[0.675,0.325,0.15,0.85]","","",""
"sailing-trial","360","1156649","0.0-11.0-325.0","","","","false","","","","","","","","","","null","","154.5","","0","1","null","null","arrowup","[0.675,0.325,0.15,0.85]","","",""
"sailing-trial","361","1159740","0.0-11.0-326.0","","","","false","","","","","","","","","","191.30000001192093","","238.5","","0","1","arrowleft","0","arrowleft","[0.675,0.325,0.15,0.85]","","",""
"sailing-trial","362","1160974","0.0-11.0-327.0","","","","false","","","","","","","","","","null","","141.1000000089407","","1","0","null","null","arrowup","[0.675,0.325,0.15,0.85]","","",""
"sailing-trial","363","1163893","0.0-11.0-328.0","","","","false","","","","","","","","","","145.1000000089407","","309.70000000298023","","0","0","arrowleft","0","arrowleft","[0.675,0.325,0.15,0.85]","","",""
"sailing-trial","364","1165690","0.0-11.0-329.0","","","","false","","","","","","","","","","null","","202.79999999701977","","3","1","null","null","arrowup","[0.675,0.325,0.15,0.85]","","",""
"sailing-trial","365","1168431","0.0-11.0-330.0","","","","false","","","","","","","","","","163","","2.9000000059604645","","0","1","arrowleft","0","arrowleft","[0.85,0.15,0.325,0.675]","","",""
"sailing-trial","366","1170239","0.0-11.0-331.0","","","","false","","","","","","","","","","null","","32.69999998807907","","0","1","null","null","arrowup","[0.85,0.15,0.325,0.675]","","",""
"sailing-trial","367","1173431","0.0-11.0-332.0","","","","false","","","","","","","","","","492.90000000596046","","77.20000000298023","","0","1","arrowleft","0","arrowleft","[0.85,0.15,0.325,0.675]","","",""
"sailing-trial","368","1175230","0.0-11.0-333.0","","","","false","","","","","","","","","","null","","218.69999998807907","","0","1","null","null","arrowup","[0.85,0.15,0.325,0.675]","","",""
"sailing-trial","369","1177729","0.0-11.0-334.0","","","","false","","","","","","","","","","211.29999999701977","","232.29999999701977","","0","0","arrowleft","0","arrowleft","[0.85,0.15,0.325,0.675]","","",""
"sailing-trial","370","1179055","0.0-11.0-335.0","","","","false","","","","","","","","","","null","","234.20000000298023","","2","0","null","null","arrowup","[0.85,0.15,0.325,0.675]","","",""
"sailing-trial","371","1182255","0.0-11.0-336.0","","","","false","","","","","","","","","","559.5","","13.099999994039536","","0","1","arrowleft","0","arrowleft","[0.85,0.15,0.325,0.675]","","",""
"sailing-trial","372","1183404","0.0-11.0-337.0","","","","false","","","","","","","","","","null","","31.700000002980232","","2","0","null","null","arrowup","[0.85,0.15,0.325,0.675]","","",""
"sailing-trial","373","1186088","0.0-11.0-338.0","","","","false","","","","","","","","","","19.5","","47.099999994039536","","0","1","arrowleft","0","arrowleft","[0.85,0.15,0.325,0.675]","","",""
"sailing-trial","374","1187747","0.0-11.0-339.0","","","","false","","","","","","","","","","null","","1.7999999970197678","","2","1","null","null","arrowup","[0.85,0.15,0.325,0.675]","","",""
"sailing-trial","375","1190730","0.0-11.0-340.0","","","","false","","","","","","","","","","225.70000000298023","","145.5","","0","1","arrowleft","0","arrowleft","[0.85,0.15,0.325,0.675]","","",""
"sailing-trial","376","1192481","0.0-11.0-341.0","","","","false","","","","","","","","","","null","","149.8999999910593","","0","1","null","null","arrowup","[0.85,0.15,0.325,0.675]","","",""
"sailing-trial","377","1195581","0.0-11.0-342.0","","","","false","","","","","","","","","","245","","288.8999999910593","","0","1","arrowleft","0","arrowleft","[0.85,0.15,0.325,0.675]","","",""
"sailing-trial","378","1196966","0.0-11.0-343.0","","","","false","","","","","","","","","","null","","137.5","","2","0","null","null","arrowup","[0.85,0.15,0.325,0.675]","","",""
"sailing-trial","379","1200290","0.0-11.0-344.0","","","","false","","","","","","","","","","208.1000000089407","","582.4000000059605","","0","1","arrowleft","0","arrowleft","[0.85,0.15,0.325,0.675]","","",""
"sailing-trial","380","1201584","0.0-11.0-345.0","","","","false","","","","","","","","","","null","","3","","1","0","null","null","arrowup","[0.85,0.15,0.325,0.675]","","",""
"sailing-trial","381","1204380","0.0-11.0-346.0","","","","false","","","","","","","","","","174.5","","42.8999999910593","","0","1","arrowleft","0","arrowleft","[0.85,0.15,0.325,0.675]","","",""
"sailing-trial","382","1206205","0.0-11.0-347.0","","","","false","","","","","","","","","","null","","277.5","","0","1","null","null","arrowup","[0.85,0.15,0.325,0.675]","","",""
"sailing-trial","383","1208668","0.0-11.0-348.0","","","","false","","","","","","","","","","124.40000000596046","","263.8999999910593","","0","0","arrowleft","0","arrowleft","[0.325,0.675,0.85,0.15]","","",""
"sailing-trial","384","1210004","0.0-11.0-349.0","","","","false","","","","","","","","","","null","","215.5","","0","0","null","null","arrowup","[0.325,0.675,0.85,0.15]","","",""
"sailing-trial","385","1212384","0.0-11.0-350.0","","","","false","","","","","","","","","","226.09999999403954","","25.799999997019768","","0","0","arrowleft","0","arrowleft","[0.325,0.675,0.85,0.15]","","",""
"sailing-trial","386","1213597","0.0-11.0-351.0","","","","false","","","","","","","","","","null","","176.20000000298023","","0","0","null","null","arrowup","[0.325,0.675,0.85,0.15]","","",""
"sailing-trial","387","1216141","0.0-11.0-352.0","","","","false","","","","","","","","","","134.79999999701977","","225.6000000089407","","0","0","arrowleft","0","arrowleft","[0.325,0.675,0.85,0.15]","","",""
"sailing-trial","388","1217334","0.0-11.0-353.0","","","","false","","","","","","","","","","null","","147.5","","1","0","null","null","arrowup","[0.325,0.675,0.85,0.15]","","",""
"sailing-trial","389","1220064","0.0-11.0-354.0","","","","false","","","","","","","","","","154","","43","","0","1","arrowleft","0","arrowleft","[0.325,0.675,0.85,0.15]","","",""
"sailing-trial","390","1221829","0.0-11.0-355.0","","","","false","","","","","","","","","","null","","216.79999999701977","","3","1","null","null","arrowup","[0.325,0.675,0.85,0.15]","","",""
"sailing-trial","391","1224430","0.0-11.0-356.0","","","","false","","","","","","","","","","212.79999999701977","","50.900000005960464","","0","0","arrowleft","0","arrowleft","[0.325,0.675,0.85,0.15]","","",""
"sailing-trial","392","1226780","0.0-11.0-357.0","","","","false","","","","","","","","","","null","","209.29999999701977","","0","1","null","null","arrowup","[0.325,0.675,0.85,0.15]","","",""
"sailing-trial","393","1230147","0.0-11.0-358.0","","","","false","","","","","","","","","","152.5","","36.400000005960464","","0","1","arrowleft","0","arrowleft","[0.325,0.675,0.85,0.15]","","",""
"sailing-trial","394","1231536","0.0-11.0-359.0","","","","false","","","","","","","","","","null","","45.6000000089407","","2","0","null","null","arrowup","[0.325,0.675,0.85,0.15]","","",""
"sailing-trial","395","1234293","0.0-11.0-360.0","","","","false","","","","","","","","","","266.5","","376.70000000298023","","0","0","arrowleft","0","arrowleft","[0.325,0.675,0.85,0.15]","","",""
"sailing-trial","396","1235502","0.0-11.0-361.0","","","","false","","","","","","","","","","null","","152.30000001192093","","0","0","null","null","arrowup","[0.325,0.675,0.85,0.15]","","",""
"sailing-trial","397","1238306","0.0-11.0-362.0","","","","false","","","","","","","","","","185.70000000298023","","13.900000005960464","","0","1","arrowleft","0","arrowleft","[0.325,0.675,0.85,0.15]","","",""
"sailing-trial","398","1240313","0.0-11.0-363.0","","","","false","","","","","","","","","","null","","211","","2","1","null","null","arrowup","[0.325,0.675,0.85,0.15]","","",""
"sailing-trial","399","1242776","0.0-11.0-364.0","","","","false","","","","","","","","","","152.09999999403954","","207.29999999701977","","0","0","arrowleft","0","arrowleft","[0.325,0.675,0.85,0.15]","","",""
"sailing-trial","400","1244521","0.0-11.0-365.0","","","","false","","","","","","","","","","null","","163.69999998807907","","2","1","null","null","arrowup","[0.325,0.675,0.85,0.15]","","",""
"sailing-trial","401","1246797","0.0-11.0-366.0","","","","false","","","","","","","","","","172.8999999910593","","14.700000002980232","","0","0","arrowleft","0","arrowleft","[0.325,0.675,0.85,0.15]","","",""
"sailing-trial","402","1248480","0.0-11.0-367.0","","","","false","","","","","","","","","","null","","164.69999998807907","","2","1","null","null","arrowup","[0.325,0.675,0.85,0.15]","","",""
"sailing-trial","403","1250862","0.0-11.0-368.0","","","","false","","","","","","","","","","224.20000000298023","","115.3999999910593","","0","0","arrowleft","0","arrowleft","[0.675,0.325,0.15,0.85]","","",""
"sailing-trial","404","1252696","0.0-11.0-369.0","","","","false","","","","","","","","","","null","","152.5","","0","1","null","null","arrowup","[0.675,0.325,0.15,0.85]","","",""
"sailing-trial","405","1255339","0.0-11.0-370.0","","","","false","","","","","","","","","","105.09999999403954","","14.200000002980232","","0","1","arrowleft","0","arrowleft","[0.675,0.325,0.15,0.85]","","",""
"sailing-trial","406","1257130","0.0-11.0-371.0","","","","false","","","","","","","","","","null","","175.6000000089407","","3","1","null","null","arrowup","[0.675,0.325,0.15,0.85]","","",""
"sailing-trial","407","1260128","0.0-11.0-372.0","","","","false","","","","","","","","","","462.90000000596046","","340","","0","0","arrowleft","0","arrowleft","[0.675,0.325,0.15,0.85]","","",""
"sailing-trial","408","1261946","0.0-11.0-373.0","","","","false","","","","","","","","","","null","","150.69999998807907","","0","1","null","null","arrowup","[0.675,0.325,0.15,0.85]","","",""
"sailing-trial","409","1265067","0.0-11.0-374.0","","","","false","","","","","","","","","","499.5","","326.20000000298023","","0","0","arrowleft","0","arrowleft","[0.675,0.325,0.15,0.85]","","",""
"sailing-trial","410","1266829","0.0-11.0-375.0","","","","false","","","","","","","","","","null","","134.1000000089407","","3","1","null","null","arrowup","[0.675,0.325,0.15,0.85]","","",""
"sailing-trial","411","1269621","0.0-11.0-376.0","","","","false","","","","","","","","","","10.700000002980232","","158.8999999910593","","0","1","arrowleft","0","arrowleft","[0.675,0.325,0.15,0.85]","","",""
"sailing-trial","412","1271355","0.0-11.0-377.0","","","","false","","","","","","","","","","null","","191.1000000089407","","3","1","null","null","arrowup","[0.675,0.325,0.15,0.85]","","",""
"sailing-trial","413","1274237","0.0-11.0-378.0","","","","false","","","","","","","","","","91.1000000089407","","182.8999999910593","","0","1","arrowleft","0","arrowleft","[0.675,0.325,0.15,0.85]","","",""
"sailing-trial","414","1276147","0.0-11.0-379.0","","","","false","","","","","","","","","","null","","142","","3","1","null","null","arrowup","[0.675,0.325,0.15,0.85]","","",""
"sailing-trial","415","1278979","0.0-11.0-380.0","","","","false","","","","","","","","","","175.59999999403954","","104.8999999910593","","0","1","arrowleft","0","arrowleft","[0.675,0.325,0.15,0.85]","","",""
"sailing-trial","416","1280208","0.0-11.0-381.0","","","","false","","","","","","","","","","null","","195","","2","0","null","null","arrowup","[0.675,0.325,0.15,0.85]","","",""
"sailing-trial","417","1282955","0.0-11.0-382.0","","","","false","","","","","","","","","","23.200000002980232","","62.8999999910593","","0","1","arrowleft","0","arrowleft","[0.675,0.325,0.15,0.85]","","",""
"sailing-trial","418","1284612","0.0-11.0-383.0","","","","false","","","","","","","","","","null","","133.40000000596046","","3","1","null","null","arrowup","[0.675,0.325,0.15,0.85]","","",""
"sailing-trial","419","1286866","0.0-11.0-384.0","","","","false","","","","","","","","","","172","","2","","0","0","arrowleft","0","arrowleft","[0.85,0.15,0.325,0.675]","","",""
"sailing-trial","420","1288631","0.0-11.0-385.0","","","","false","","","","","","","","","","null","","219","","3","1","null","null","arrowup","[0.85,0.15,0.325,0.675]","","",""
"sailing-trial","421","1291255","0.0-11.0-386.0","","","","false","","","","","","","","","","3.300000011920929","","7.299999997019768","","0","1","arrowleft","0","arrowleft","[0.85,0.15,0.325,0.675]","","",""
"sailing-trial","422","1292853","0.0-11.0-387.0","","","","false","","","","","","","","","","null","","279.79999999701977","","2","0","null","null","arrowup","[0.85,0.15,0.325,0.675]","","",""
"sailing-trial","423","1295855","0.0-11.0-388.0","","","","false","","","","","","","","","","209.8999999910593","","189.79999999701977","","0","1","arrowleft","0","arrowleft","[0.85,0.15,0.325,0.675]","","",""
"sailing-trial","424","1297546","0.0-11.0-389.0","","","","false","","","","","","","","","","null","","75.1000000089407","","1","1","null","null","arrowup","[0.85,0.15,0.325,0.675]","","",""
"sailing-trial","425","1300104","0.0-11.0-390.0","","","","false","","","","","","","","","","240.8999999910593","","133.19999998807907","","0","0","arrowleft","0","arrowleft","[0.85,0.15,0.325,0.675]","","",""
"sailing-trial","426","1302037","0.0-11.0-391.0","","","","false","","","","","","","","","","null","","269.20000000298023","","0","1","null","null","arrowup","[0.85,0.15,0.325,0.675]","","",""
"sailing-trial","427","1304980","0.0-11.0-392.0","","","","false","","","","","","","","","","27.5","","270.1000000089407","","0","1","arrowleft","0","arrowleft","[0.85,0.15,0.325,0.675]","","",""
"sailing-trial","428","1306628","0.0-11.0-393.0","","","","false","","","","","","","","","","null","","16.400000005960464","","0","1","null","null","arrowup","[0.85,0.15,0.325,0.675]","","",""
"sailing-trial","429","1311154","0.0-11.0-394.0","","","","false","","","","","","","","","","229.80000001192093","","751.7999999970198","","0","1","arrowleft","0","arrowleft","[0.85,0.15,0.325,0.675]","","",""
"sailing-trial","430","1312753","0.0-11.0-395.0","","","","false","","","","","","","","","","null","","23.5","","0","1","null","null","arrowup","[0.85,0.15,0.325,0.675]","","",""
"sailing-trial","431","1315563","0.0-11.0-396.0","","","","false","","","","","","","","","","55.8999999910593","","221.5","","0","1","arrowleft","0","arrowleft","[0.85,0.15,0.325,0.675]","","",""
"sailing-trial","432","1317421","0.0-11.0-397.0","","","","false","","","","","","","","","","null","","297.5","","3","1","null","null","arrowup","[0.85,0.15,0.325,0.675]","","",""
"sailing-trial","433","1319748","0.0-11.0-398.0","","","","false","","","","","","","","","","41.099999994039536","","165.69999998807907","","0","0","arrowleft","0","arrowleft","[0.85,0.15,0.325,0.675]","","",""
"sailing-trial","434","1322134","0.0-11.0-399.0","","","","false","","","","","","","","","","null","","222.6000000089407","","1","0","null","null","arrowup","[0.85,0.15,0.325,0.675]","","",""
"instructions","435","1352988","0.0-12.0","","","","","","","","","","30853.10000000894","","","","","","","","","","","","","","","","[{""page_index"":0,""viewing_time"":30852.90000000596}]"
"survey-debrief","436","1371430","0.0-13.0","","","","","","","","","","18440.90000000596","","","","","","","","","","","","","","{""difficulty"":""5"",""fun"":""5"",""clarity"":""5"",""strategy"":""no"",""feedback"":""no""}","",""
