"trial_type","trial_index","time_elapsed","internal_node_id","value","metadata","success","timeout","failed_images","failed_audio","failed_video","browser_interaction","low_quality","rt","stimulus","response","button_pressed","island_rt","island_response","boat_rt","boat_response","boat","reward","island_key","island","boat_key","reward_probabilities","responses","num_errors","view_history"
"pavlovia","0","5","0.0-0.0","","","","","","","","","","","","","","","","","","","","","","","","","",""
"call-function","1","6","0.0-1.0","","{""task_version"":""sr_pilot_v2"",""task_condition"":""good"",""boats"":[""A"",""C"",""D"",""B""],""boats_demo"":[""H"",""E"",""F"",""G""],""islands"":[""A"",""B""],""subject_id"":""13800"",""age"":""8"",""gender"":""Female""}","","","","","","","","","","","","","","","","","","","","","","","",""
"preload","2","6098","0.0-2.0","","","true","false","[]","[]","[]","[{""event"":""fullscreenenter"",""trial"":3,""time"":9409}]","false","","","","","","","","","","","","","","","","",""
"fullscreen","3","10383","0.0-3.0","","","true","","","","","","","","","","","","","","","","","","","","","","",""
"audio-keyboard-response","4","13535","0.0-4.0-0.0","","","","","","","","","","2954.666666666667","audio/beep_loop.wav"," ","","","","","","","","","","","","","",""
"audio-test","5","18144","0.0-4.0-1.0","","","","","","","","","","null","audio/turtle.mp3","","3","","","","","","","","","","","","",""
"audio-test","6","22254","0.0-4.0-2.0","","","","","","","","","","null","audio/shark.mp3","","2","","","","","","","","","","","","",""
"sailing-instructions","7","72391","0.0-5.0-0.0-0.0","","","","","","","","","","","","","","null","null","null","null","null","null","","","","","","",""
"sailing-trial","8","78285","0.0-5.0-0.0-1.0-0.0","","","","false","","","","","","","","","","4765.300000011921","","null","","null","null","arrowleft","0","null","null","","",""
"sailing-trial","9","82317","0.0-5.0-0.0-1.0-1.0","","","","false","","","","","","","","","","2902.2000000476837","","null","","null","null","arrowright","1","null","null","","",""
"sailing-trial","10","85599","0.0-5.0-0.0-1.0-2.0","","","","false","","","","","","","","","","2155","","null","","null","null","arrowleft","0","null","null","","",""
"sailing-instructions","11","133374","0.0-5.0-0.0-2.0","","","","","","","","","","","","","","null","null","null","null","0","null","","","","","","",""
"sailing-trial","12","141828","0.0-5.0-0.0-3.0-0.0","","","","false","","","","","","","","","","null","","3929.100000023842","","2","1","null","null","arrowleft","[1,1,1,1]","","",""
"sailing-trial","13","146893","0.0-5.0-0.0-3.0-1.0","","","","false","","","","","","","","","","null","","2112.199999988079","","3","1","null","null","arrowright","[1,1,1,1]","","",""
"sailing-trial","14","156090","0.0-5.0-0.0-3.0-2.0","","","","false","","","","","","","","","","null","","4908.399999976158","","3","0","null","null","arrowright","[0,0,0,0]","","",""
"sailing-instructions","15","164163","0.0-5.0-0.0-4.0","","","","","","","","","","","","","","null","null","null","null","null","null","","","","","","",""
"sailing-comprehension","16","190668","0.0-5.0-0.0-5.0","","","","","","","","","","22148.900000035763","","","","","","","","","","","","","","[""true"",""true"",""false"",""true""]","0",""
"sailing-instructions","17","260826","0.0-6.0-0.0-0.0","","","","","","","","","","","","","","null","null","null","null","null","null","","","","","","",""
"sailing-comprehension","18","298441","0.0-6.0-0.0-1.0","","","","","","","","","","22188.899999976158","","","","","","","","","","","","","","[""true"",""true"",""true""]","1",""
"sailing-instructions","19","365280","0.0-6.0-0.1-0.1","","","","","","","","","","","","","","null","null","null","null","null","null","","","","","","",""
"sailing-comprehension","20","379278","0.0-6.0-0.1-1.1","","","","","","","","","","10959.900000035763","","","","","","","","","","","","","","[""true"",""false"",""true""]","0",""
"sailing-instructions","21","398132","0.0-7.0-0.0-0.0","","","","","","","","","","","","","","null","null","null","null","null","null","","","","","","",""
"sailing-trial","22","404121","0.0-7.0-0.0-1.0-0.0","","","","false","","","","","","","","","","null","","2941.199999988079","","0","0","null","null","arrowup","[0.2,0.8,0.2,0.8]","","",""
"sailing-trial","23","413424","0.0-7.0-0.0-1.0-1.0","","","","false","","","","","","","","","","null","","7868.5","","1","0","null","null","arrowup","[0.2,0.8,0.2,0.8]","","",""
"sailing-trial","24","422431","0.0-7.0-0.0-1.0-2.0","","","","false","","","","","","","","","","null","","5973.300000011921","","2","0","null","null","arrowup","[0.2,0.8,0.2,0.8]","","",""
"sailing-trial","25","427295","0.0-7.0-0.0-1.0-3.0","","","","false","","","","","","","","","","null","","1826.8999999761581","","3","0","null","null","arrowup","[0.2,0.8,0.2,0.8]","","",""
"sailing-comprehension","26","448277","0.0-7.0-0.0-2.0","","","","","","","","","","15611.400000035763","","","","","","","","","","","","","","[""true""]","1",""
"sailing-instructions","27","464546","0.0-7.0-0.1-0.1","","","","","","","","","","","","","","null","null","null","null","null","null","","","","","","",""
"sailing-trial","28","476234","0.0-7.0-0.1-1.1-0.1","","","","false","","","","","","","","","","null","","6169.400000035763","","0","1","null","null","arrowup","[0.2,0.8,0.2,0.8]","","",""
"sailing-trial","29","480494","0.0-7.0-0.1-1.1-1.1","","","","false","","","","","","","","","","null","","1233.9000000357628","","1","0","null","null","arrowup","[0.2,0.8,0.2,0.8]","","",""
"sailing-trial","30","484309","0.0-7.0-0.1-1.1-2.1","","","","false","","","","","","","","","","null","","797.6999999880791","","2","0","null","null","arrowup","[0.2,0.8,0.2,0.8]","","",""
"sailing-trial","31","487160","0.0-7.0-0.1-1.1-3.1","","","","false","","","","","","","","","","null","","179.4000000357628","","3","1","null","null","arrowup","[0.2,0.8,0.2,0.8]","","",""
"sailing-comprehension","32","492613","0.0-7.0-0.1-2.1","","","","","","","","","","2883.099999964237","","","","","","","","","","","","","","[""false""]","0",""
"sailing-instructions","33","505072","0.0-8.0-0.0-0.0","","","","","","","","","","","","","","null","null","null","null","null","null","","","","","","",""
"sailing-comprehension","34","514018","0.0-8.0-0.0-1.0","","","","","","","","","","5125.399999976158","","","","","","","","","","","","","","[""true""]","0",""
"sailing-instructions","35","551397","0.0-9.0-0.0-0.0","","","","","","","","","","","","","","null","null","null","null","null","null","","","","","","",""
"sailing-trial","36","558857","0.0-9.0-0.0-1.0-0.0","","","","false","","","","","","","","","","1515.4000000357628","","894.2999999523163","","2","0","arrowright","1","arrowleft","[0.2,0.8,0.2,0.8]","","",""
"sailing-trial","37","565881","0.0-9.0-0.0-1.0-1.0","","","","false","","","","","","","","","","2240.7000000476837","","620","","1","0","arrowleft","0","arrowright","[0.2,0.8,0.2,0.8]","","",""
"sailing-trial","38","570612","0.0-9.0-0.0-1.0-2.0","","","","false","","","","","","","","","","null","","1709.800000011921","","0","0","null","null","arrowup","[0.2,0.8,0.2,0.8]","","",""
"sailing-trial","39","578193","0.0-9.0-0.0-1.0-3.0","","","","false","","","","","","","","","","2125.600000023842","","945.6999999880791","","2","0","arrowright","1","arrowleft","[0.2,0.8,0.2,0.8]","","",""
"sailing-trial","40","581894","0.0-9.0-0.0-1.0-4.0","","","","false","","","","","","","","","","null","","1312.6000000238419","","3","1","null","null","arrowup","[0.2,0.8,0.2,0.8]","","",""
"sailing-trial","41","587643","0.0-9.0-0.0-1.0-5.0","","","","false","","","","","","","","","","1369.699999988079","","356.69999998807907","","1","1","arrowleft","0","arrowright","[0.2,0.8,0.2,0.8]","","",""
"sailing-instructions","42","615791","0.0-10.0","","","","","","","","","","","","","","null","null","null","null","null","null","","","","","","",""
"sailing-trial","43","624069","0.0-11.0-0.0","","","","false","","","","","","","","","","2472.899999976158","","435","","2","1","arrowright","1","arrowleft","[0.15,0.85,0.675,0.325]","","",""
"sailing-trial","44","628742","0.0-11.0-1.0","","","","false","","","","","","","","","","null","","1643.7999999523163","","3","0","null","null","arrowup","[0.15,0.85,0.675,0.325]","","",""
"sailing-trial","45","634673","0.0-11.0-2.0","","","","false","","","","","","","","","","1215.1000000238419","","181.70000004768372","","3","0","arrowright","1","arrowright","[0.15,0.85,0.675,0.325]","","",""
"sailing-trial","46","638391","0.0-11.0-3.0","","","","false","","","","","","","","","","null","","1378.7000000476837","","0","1","null","null","arrowup","[0.15,0.85,0.675,0.325]","","",""
"sailing-trial","47","644390","0.0-11.0-4.0","","","","false","","","","","","","","","","1244","","732.3999999761581","","1","1","arrowleft","0","arrowright","[0.15,0.85,0.675,0.325]","","",""
"sailing-trial","48","648839","0.0-11.0-5.0","","","","false","","","","","","","","","","null","","1432","","2","0","null","null","arrowup","[0.15,0.85,0.675,0.325]","","",""
"sailing-trial","49","655770","0.0-11.0-6.0","","","","false","","","","","","","","","","1569.699999988079","","1339.9000000357628","","2","1","arrowright","1","arrowleft","[0.15,0.85,0.675,0.325]","","",""
"sailing-trial","50","660734","0.0-11.0-7.0","","","","false","","","","","","","","","","null","","1572.199999988079","","2","1","null","null","arrowup","[0.15,0.85,0.675,0.325]","","",""
"sailing-trial","51","667098","0.0-11.0-8.0","","","","false","","","","","","","","","","1586","","1117.199999988079","","1","1","arrowleft","0","arrowright","[0.15,0.85,0.675,0.325]","","",""
"sailing-trial","52","671365","0.0-11.0-9.0","","","","false","","","","","","","","","","null","","1256.300000011921","","2","0","null","null","arrowup","[0.15,0.85,0.675,0.325]","","",""
"sailing-trial","53","676311","0.0-11.0-10.0","","","","false","","","","","","","","","","1049.6000000238419","","296.69999998807907","","2","1","arrowright","1","arrowleft","[0.15,0.85,0.675,0.325]","","",""
"sailing-trial","54","680878","0.0-11.0-11.0","","","","false","","","","","","","","","","null","","1555.1000000238419","","0","0","null","null","arrowup","[0.15,0.85,0.675,0.325]","","",""
"sailing-trial","55","685593","0.0-11.0-12.0","","","","false","","","","","","","","","","1068.4000000357628","","543.5","","2","1","arrowright","1","arrowleft","[0.15,0.85,0.675,0.325]","","",""
"sailing-trial","56","689090","0.0-11.0-13.0","","","","false","","","","","","","","","","null","","1275.5","","1","1","null","null","arrowup","[0.15,0.85,0.675,0.325]","","",""
"sailing-trial","57","694540","0.0-11.0-14.0","","","","false","","","","","","","","","","1796.8999999761581","","89.80000001192093","","2","1","arrowright","1","arrowleft","[0.15,0.85,0.675,0.325]","","",""
"sailing-trial","58","698253","0.0-11.0-15.0","","","","false","","","","","","","","","","null","","1323.699999988079","","2","1","null","null","arrowup","[0.15,0.85,0.675,0.325]","","",""
"sailing-trial","59","704687","0.0-11.0-16.0","","","","false","","","","","","","","","","1180.300000011921","","573.6999999880791","","2","0","arrowright","1","arrowleft","[0.675,0.325,0.15,0.85]","","",""
"sailing-trial","60","708432","0.0-11.0-17.0","","","","false","","","","","","","","","","null","","1543.5","","3","1","null","null","arrowup","[0.675,0.325,0.15,0.85]","","",""
"sailing-trial","61","715014","0.0-11.0-18.0","","","","false","","","","","","","","","","1198.199999988079","","1406.199999988079","","3","1","arrowright","1","arrowright","[0.675,0.325,0.15,0.85]","","",""
"sailing-trial","62","720395","0.0-11.0-19.0","","","","false","","","","","","","","","","null","","3096.900000035763","","1","1","null","null","arrowup","[0.675,0.325,0.15,0.85]","","",""
"sailing-trial","63","727842","0.0-11.0-20.0","","","","false","","","","","","","","","","1778.699999988079","","2042.300000011921","","3","1","arrowright","1","arrowright","[0.675,0.325,0.15,0.85]","","",""
"sailing-trial","64","733595","0.0-11.0-21.0","","","","false","","","","","","","","","","null","","2496.5","","1","0","null","null","arrowup","[0.675,0.325,0.15,0.85]","","",""
"sailing-trial","65","739588","0.0-11.0-22.0","","","","false","","","","","","","","","","832.0999999642372","","1678.6000000238419","","0","1","arrowleft","0","arrowleft","[0.675,0.325,0.15,0.85]","","",""
"sailing-trial","66","744405","0.0-11.0-23.0","","","","false","","","","","","","","","","null","","1803.0999999642372","","2","0","null","null","arrowup","[0.675,0.325,0.15,0.85]","","",""
"sailing-trial","67","749601","0.0-11.0-24.0","","","","false","","","","","","","","","","846.8000000119209","","993.0999999642372","","3","1","arrowright","1","arrowright","[0.675,0.325,0.15,0.85]","","",""
"sailing-trial","68","753416","0.0-11.0-25.0","","","","false","","","","","","","","","","null","","1666.2999999523163","","0","1","null","null","arrowup","[0.675,0.325,0.15,0.85]","","",""
"sailing-trial","69","759481","0.0-11.0-26.0","","","","false","","","","","","","","","","1495.5","","1295.6000000238419","","3","1","arrowright","1","arrowright","[0.675,0.325,0.15,0.85]","","",""
"sailing-trial","70","763795","0.0-11.0-27.0","","","","false","","","","","","","","","","null","","1990.699999988079","","0","1","null","null","arrowup","[0.675,0.325,0.15,0.85]","","",""
"sailing-trial","71","769244","0.0-11.0-28.0","","","","false","","","","","","","","","","1138.199999988079","","679.5","","0","1","arrowleft","0","arrowleft","[0.675,0.325,0.15,0.85]","","",""
"sailing-trial","72","773861","0.0-11.0-29.0","","","","false","","","","","","","","","","null","","1578.800000011921","","2","0","null","null","arrowup","[0.675,0.325,0.15,0.85]","","",""
"sailing-trial","73","778791","0.0-11.0-30.0","","","","false","","","","","","","","","","1115.800000011921","","530","","3","1","arrowright","1","arrowright","[0.675,0.325,0.15,0.85]","","",""
"sailing-trial","74","782689","0.0-11.0-31.0","","","","false","","","","","","","","","","null","","1351.3999999761581","","0","1","null","null","arrowup","[0.675,0.325,0.15,0.85]","","",""
"sailing-trial","75","789389","0.0-11.0-32.0","","","","false","","","","","","","","","","1343.1000000238419","","929","","3","0","arrowright","1","arrowright","[0.675,0.325,0.15,0.85]","","",""
"sailing-trial","76","794737","0.0-11.0-33.0","","","","false","","","","","","","","","","null","","2342.300000011921","","3","0","null","null","arrowup","[0.675,0.325,0.15,0.85]","","",""
"sailing-trial","77","799752","0.0-11.0-34.0","","","","false","","","","","","","","","","756.5999999642372","","759.8999999761581","","2","1","arrowright","1","arrowleft","[0.85,0.15,0.325,0.675]","","",""
"sailing-trial","78","804552","0.0-11.0-35.0","","","","false","","","","","","","","","","null","","1782.300000011921","","0","0","null","null","arrowup","[0.85,0.15,0.325,0.675]","","",""
"sailing-trial","79","810983","0.0-11.0-36.0","","","","false","","","","","","","","","","1268.1000000238419","","918.5999999642372","","2","0","arrowright","1","arrowleft","[0.85,0.15,0.325,0.675]","","",""
"sailing-trial","80","815798","0.0-11.0-37.0","","","","false","","","","","","","","","","null","","1795.1000000238419","","2","0","null","null","arrowup","[0.85,0.15,0.325,0.675]","","",""
"sailing-trial","81","822959","0.0-11.0-38.0","","","","false","","","","","","","","","","1102.4000000357628","","2088.600000023842","","0","1","arrowleft","0","arrowleft","[0.85,0.15,0.325,0.675]","","",""
"sailing-trial","82","827241","0.0-11.0-39.0","","","","false","","","","","","","","","","null","","1644","","0","1","null","null","arrowup","[0.85,0.15,0.325,0.675]","","",""
"sailing-trial","83","832456","0.0-11.0-40.0","","","","false","","","","","","","","","","1057.1000000238419","","335.5","","3","1","arrowright","1","arrowright","[0.85,0.15,0.325,0.675]","","",""
"sailing-trial","84","835840","0.0-11.0-41.0","","","","false","","","","","","","","","","null","","1348.4000000357628","","3","1","null","null","arrowup","[0.85,0.15,0.325,0.675]","","",""
"sailing-trial","85","842010","0.0-11.0-42.0","","","","false","","","","","","","","","","1224.699999988079","","677.9000000357628","","1","0","arrowleft","0","arrowright","[0.85,0.15,0.325,0.675]","","",""
"sailing-trial","86","845735","0.0-11.0-43.0","","","","false","","","","","","","","","","null","","1451.1000000238419","","3","1","null","null","arrowup","[0.85,0.15,0.325,0.675]","","",""
"sailing-trial","87","849783","0.0-11.0-44.0","","","","false","","","","","","","","","","1018.8999999761581","","121","","3","1","arrowright","1","arrowright","[0.85,0.15,0.325,0.675]","","",""
"sailing-trial","88","854314","0.0-11.0-45.0","","","","false","","","","","","","","","","null","","2113.400000035763","","3","1","null","null","arrowup","[0.85,0.15,0.325,0.675]","","",""
"sailing-trial","89","859563","0.0-11.0-46.0","","","","false","","","","","","","","","","782.1999999880791","","815.3999999761581","","0","1","arrowleft","0","arrowleft","[0.85,0.15,0.325,0.675]","","",""
"sailing-trial","90","864461","0.0-11.0-47.0","","","","false","","","","","","","","","","null","","2004.6000000238419","","3","1","null","null","arrowup","[0.85,0.15,0.325,0.675]","","",""
"sailing-trial","91","871411","0.0-11.0-48.0","","","","false","","","","","","","","","","1332.5999999642372","","1399.0999999642372","","3","0","arrowright","1","arrowright","[0.85,0.15,0.325,0.675]","","",""
"sailing-trial","92","875858","0.0-11.0-49.0","","","","false","","","","","","","","","","null","","1927.5","","3","1","null","null","arrowup","[0.85,0.15,0.325,0.675]","","",""
"sailing-trial","93","880589","0.0-11.0-50.0","","","","false","","","","","","","","","","1354.800000011921","","65.39999997615814","","0","1","arrowleft","0","arrowleft","[0.85,0.15,0.325,0.675]","","",""
"sailing-trial","94","885337","0.0-11.0-51.0","","","","false","","","","","","","","","","null","","2531.100000023842","","2","1","null","null","arrowup","[0.85,0.15,0.325,0.675]","","",""
"sailing-trial","95","890869","0.0-11.0-52.0","","","","false","","","","","","","","","","1176","","936.3000000119209","","3","1","arrowright","1","arrowright","[0.85,0.15,0.325,0.675]","","",""
"sailing-trial","96","896350","0.0-11.0-53.0","","","","false","","","","","","","","","","null","","2275.199999988079","","3","1","null","null","arrowup","[0.85,0.15,0.325,0.675]","","",""
"sailing-trial","97","900299","0.0-11.0-54.0","","","","false","","","","","","","","","","727.3999999761581","","62","","3","1","arrowright","1","arrowright","[0.675,0.325,0.15,0.85]","","",""
"sailing-trial","98","904498","0.0-11.0-55.0","","","","false","","","","","","","","","","null","","1874.6000000238419","","3","1","null","null","arrowup","[0.675,0.325,0.15,0.85]","","",""
"sailing-trial","99","910849","0.0-11.0-56.0","","","","false","","","","","","","","","","1430.300000011921","","661","","3","0","arrowright","1","arrowright","[0.675,0.325,0.15,0.85]","","",""
"sailing-trial","100","915378","0.0-11.0-57.0","","","","false","","","","","","","","","","null","","1929.199999988079","","0","1","null","null","arrowup","[0.675,0.325,0.15,0.85]","","",""
"sailing-trial","101","922531","0.0-11.0-58.0","","","","false","","","","","","","","","","1886.699999988079","","708.5","","2","0","arrowright","1","arrowleft","[0.675,0.325,0.15,0.85]","","",""
"sailing-trial","102","927991","0.0-11.0-59.0","","","","false","","","","","","","","","","null","","1646.4000000357628","","3","1","null","null","arrowup","[0.675,0.325,0.15,0.85]","","",""
"sailing-trial","103","934190","0.0-11.0-60.0","","","","false","","","","","","","","","","1157","","208.39999997615814","","3","0","arrowright","1","arrowright","[0.675,0.325,0.15,0.85]","","",""
"sailing-trial","104","938337","0.0-11.0-61.0","","","","false","","","","","","","","","","null","","1271.1000000238419","","3","1","null","null","arrowup","[0.675,0.325,0.15,0.85]","","",""
"sailing-trial","105","943435","0.0-11.0-62.0","","","","false","","","","","","","","","","1009.5999999642372","","120.59999996423721","","1","1","arrowleft","0","arrowright","[0.675,0.325,0.15,0.85]","","",""
"sailing-trial","106","947166","0.0-11.0-63.0","","","","false","","","","","","","","","","null","","1687.300000011921","","3","1","null","null","arrowup","[0.675,0.325,0.15,0.85]","","",""
"sailing-trial","107","952247","0.0-11.0-64.0","","","","false","","","","","","","","","","779.8000000119209","","818","","3","1","arrowright","1","arrowright","[0.675,0.325,0.15,0.85]","","",""
"sailing-trial","108","958716","0.0-11.0-65.0","","","","false","","","","","","","","","","null","","3462.5","","1","0","null","null","arrowup","[0.675,0.325,0.15,0.85]","","",""
"sailing-trial","109","964210","0.0-11.0-66.0","","","","false","","","","","","","","","","1014.1999999880791","","594.1999999880791","","3","1","arrowright","1","arrowright","[0.675,0.325,0.15,0.85]","","",""
"sailing-trial","110","967842","0.0-11.0-67.0","","","","false","","","","","","","","","","null","","1312.699999988079","","1","1","null","null","arrowup","[0.675,0.325,0.15,0.85]","","",""
"sailing-trial","111","973842","0.0-11.0-68.0","","","","false","","","","","","","","","","1336.3999999761581","","425.69999998807907","","3","1","arrowright","1","arrowright","[0.675,0.325,0.15,0.85]","","",""
"sailing-trial","112","978423","0.0-11.0-69.0","","","","false","","","","","","","","","","null","","1564.2000000476837","","2","0","null","null","arrowup","[0.675,0.325,0.15,0.85]","","",""
"sailing-trial","113","985370","0.0-11.0-70.0","","","","false","","","","","","","","","","2384.300000011921","","427.80000001192093","","3","1","arrowright","1","arrowright","[0.325,0.675,0.85,0.15]","","",""
"sailing-trial","114","990951","0.0-11.0-71.0","","","","false","","","","","","","","","","null","","2721","","2","1","null","null","arrowup","[0.325,0.675,0.85,0.15]","","",""
"sailing-trial","115","996433","0.0-11.0-72.0","","","","false","","","","","","","","","","1946.300000011921","","90","","2","1","arrowright","1","arrowleft","[0.325,0.675,0.85,0.15]","","",""
"sailing-trial","116","1000164","0.0-11.0-73.0","","","","false","","","","","","","","","","null","","1452.9000000357628","","1","1","null","null","arrowup","[0.325,0.675,0.85,0.15]","","",""
"sailing-trial","117","1006423","0.0-11.0-74.0","","","","false","","","","","","","","","","1745.5999999642372","","1056.8999999761581","","2","0","arrowright","1","arrowleft","[0.325,0.675,0.85,0.15]","","",""
"sailing-trial","118","1011513","0.0-11.0-75.0","","","","false","","","","","","","","","","null","","2077.800000011921","","3","0","null","null","arrowup","[0.325,0.675,0.85,0.15]","","",""
"sailing-trial","119","1016063","0.0-11.0-76.0","","","","false","","","","","","","","","","1210.199999988079","","223.69999998807907","","3","0","arrowright","1","arrowright","[0.325,0.675,0.85,0.15]","","",""
"sailing-trial","120","1020808","0.0-11.0-77.0","","","","false","","","","","","","","","","null","","1352.5","","1","1","null","null","arrowup","[0.325,0.675,0.85,0.15]","","",""
"sailing-trial","121","1026488","0.0-11.0-78.0","","","","false","","","","","","","","","","1560.9000000357628","","517.8999999761581","","1","1","arrowleft","0","arrowright","[0.325,0.675,0.85,0.15]","","",""
"sailing-trial","122","1030377","0.0-11.0-79.0","","","","false","","","","","","","","","","null","","1423.6000000238419","","3","0","null","null","arrowup","[0.325,0.675,0.85,0.15]","","",""
"sailing-trial","123","1036267","0.0-11.0-80.0","","","","false","","","","","","","","","","1570.800000011921","","741.4000000357628","","1","1","arrowleft","0","arrowright","[0.325,0.675,0.85,0.15]","","",""
"sailing-trial","124","1040668","0.0-11.0-81.0","","","","false","","","","","","","","","","null","","1361.5","","3","0","null","null","arrowup","[0.325,0.675,0.85,0.15]","","",""
"sailing-trial","125","1047631","0.0-11.0-82.0","","","","false","","","","","","","","","","2001.5","","1325.199999988079","","1","1","arrowleft","0","arrowright","[0.325,0.675,0.85,0.15]","","",""
"sailing-trial","126","1052695","0.0-11.0-83.0","","","","false","","","","","","","","","","null","","2087.199999988079","","1","1","null","null","arrowup","[0.325,0.675,0.85,0.15]","","",""
"sailing-trial","127","1058732","0.0-11.0-84.0","","","","false","","","","","","","","","","1197.2999999523163","","1084","","2","0","arrowright","1","arrowleft","[0.325,0.675,0.85,0.15]","","",""
"sailing-trial","128","1062258","0.0-11.0-85.0","","","","false","","","","","","","","","","null","","1530.199999988079","","1","1","null","null","arrowup","[0.325,0.675,0.85,0.15]","","",""
"sailing-trial","129","1067374","0.0-11.0-86.0","","","","false","","","","","","","","","","1336","","166.80000001192093","","1","1","arrowleft","0","arrowright","[0.15,0.85,0.675,0.325]","","",""
"sailing-trial","130","1071672","0.0-11.0-87.0","","","","false","","","","","","","","","","null","","1768.3999999761581","","1","1","null","null","arrowup","[0.15,0.85,0.675,0.325]","","",""
"sailing-trial","131","1079821","0.0-11.0-88.0","","","","false","","","","","","","","","","4250","","443.19999998807907","","1","1","arrowleft","0","arrowright","[0.15,0.85,0.675,0.325]","","",""
"sailing-trial","132","1085020","0.0-11.0-89.0","","","","false","","","","","","","","","","null","","2191.5","","0","0","null","null","arrowup","[0.15,0.85,0.675,0.325]","","",""
"sailing-trial","133","1091183","0.0-11.0-90.0","","","","false","","","","","","","","","","1910.3999999761581","","52.59999996423721","","1","1","arrowleft","0","arrowright","[0.15,0.85,0.675,0.325]","","",""
"sailing-trial","134","1098231","0.0-11.0-91.0","","","","false","","","","","","","","","","null","","3981.899999976158","","2","1","null","null","arrowup","[0.15,0.85,0.675,0.325]","","",""
"sailing-trial","135","1104429","0.0-11.0-92.0","","","","false","","","","","","","","","","1377.0999999642372","","616.6999999880791","","1","1","arrowleft","0","arrowright","[0.15,0.85,0.675,0.325]","","",""
"sailing-trial","136","1108895","0.0-11.0-93.0","","","","false","","","","","","","","","","null","","1455.800000011921","","3","0","null","null","arrowup","[0.15,0.85,0.675,0.325]","","",""
"sailing-trial","137","1113660","0.0-11.0-94.0","","","","false","","","","","","","","","","801.3000000119209","","191","","1","1","arrowleft","0","arrowright","[0.15,0.85,0.675,0.325]","","",""
"sailing-trial","138","1118176","0.0-11.0-95.0","","","","false","","","","","","","","","","null","","1506.300000011921","","2","0","null","null","arrowup","[0.15,0.85,0.675,0.325]","","",""
"sailing-trial","139","1123606","0.0-11.0-96.0","","","","false","","","","","","","","","","1185.5","","579.5","","1","1","arrowleft","0","arrowright","[0.15,0.85,0.675,0.325]","","",""
"sailing-trial","140","1128272","0.0-11.0-97.0","","","","false","","","","","","","","","","null","","1657","","2","0","null","null","arrowup","[0.15,0.85,0.675,0.325]","","",""
"sailing-trial","141","1134485","0.0-11.0-98.0","","","","false","","","","","","","","","","1053.5","","535.5","","1","0","arrowleft","0","arrowright","[0.15,0.85,0.675,0.325]","","",""
"sailing-trial","142","1140851","0.0-11.0-99.0","","","","false","","","","","","","","","","null","","3364.399999976158","","1","0","null","null","arrowup","[0.15,0.85,0.675,0.325]","","",""
"sailing-trial","143","1146865","0.0-11.0-100.0","","","","false","","","","","","","","","","1384","","171.10000002384186","","0","0","arrowleft","0","arrowleft","[0.15,0.85,0.675,0.325]","","",""
"sailing-trial","144","1150966","0.0-11.0-101.0","","","","false","","","","","","","","","","null","","1337.9000000357628","","2","1","null","null","arrowup","[0.15,0.85,0.675,0.325]","","",""
"sailing-trial","145","1157126","0.0-11.0-102.0","","","","false","","","","","","","","","","1481.8999999761581","","1063.699999988079","","2","1","arrowright","1","arrowleft","[0.325,0.675,0.85,0.15]","","",""
"sailing-trial","146","1161728","0.0-11.0-103.0","","","","false","","","","","","","","","","null","","1592.199999988079","","3","0","null","null","arrowup","[0.325,0.675,0.85,0.15]","","",""
"sailing-trial","147","1167789","0.0-11.0-104.0","","","","false","","","","","","","","","","1124.1000000238419","","527.5","","2","1","arrowright","1","arrowleft","[0.325,0.675,0.85,0.15]","","",""
"sailing-trial","148","1172370","0.0-11.0-105.0","","","","false","","","","","","","","","","null","","2541.400000035763","","0","1","null","null","arrowup","[0.325,0.675,0.85,0.15]","","",""
"sailing-trial","149","1179168","0.0-11.0-106.0","","","","false","","","","","","","","","","2536.100000023842","","771","","2","1","arrowright","1","arrowleft","[0.325,0.675,0.85,0.15]","","",""
"sailing-trial","150","1183957","0.0-11.0-107.0","","","","false","","","","","","","","","","null","","1541.5","","0","0","null","null","arrowup","[0.325,0.675,0.85,0.15]","","",""
"sailing-trial","151","1188715","0.0-11.0-108.0","","","","false","","","","","","","","","","758.3000000119209","","537.0999999642372","","2","1","arrowright","1","arrowleft","[0.325,0.675,0.85,0.15]","","",""
"sailing-trial","152","1192746","0.0-11.0-109.0","","","","false","","","","","","","","","","null","","1340.800000011921","","2","1","null","null","arrowup","[0.325,0.675,0.85,0.15]","","",""
"sailing-trial","153","1198330","0.0-11.0-110.0","","","","false","","","","","","","","","","1684.699999988079","","389.5","","2","1","arrowright","1","arrowleft","[0.325,0.675,0.85,0.15]","","",""
"sailing-trial","154","1201461","0.0-11.0-111.0","","","","false","","","","","","","","","","null","","893.1000000238419","","0","1","null","null","arrowup","[0.325,0.675,0.85,0.15]","","",""
"sailing-trial","155","1206926","0.0-11.0-112.0","","","","false","","","","","","","","","","1365.2000000476837","","403.5999999642372","","2","1","arrowright","1","arrowleft","[0.325,0.675,0.85,0.15]","","",""
"sailing-trial","156","1210891","0.0-11.0-113.0","","","","false","","","","","","","","","","null","","956.6999999880791","","1","0","null","null","arrowup","[0.325,0.675,0.85,0.15]","","",""
"sailing-trial","157","1216421","0.0-11.0-114.0","","","","false","","","","","","","","","","1732.9000000357628","","104.19999998807907","","2","1","arrowright","1","arrowleft","[0.325,0.675,0.85,0.15]","","",""
"sailing-trial","158","1218632","0.0-11.0-115.0","","","","false","","","","","","","","","","null","","807.2999999523163","","1","0","null","null","arrowup","[0.325,0.675,0.85,0.15]","","",""
"sailing-trial","159","1224436","0.0-11.0-116.0","","","","false","","","","","","","","","","1201.4000000357628","","571.1000000238419","","2","1","arrowright","1","arrowleft","[0.325,0.675,0.85,0.15]","","",""
"sailing-trial","160","1228152","0.0-11.0-117.0","","","","false","","","","","","","","","","null","","700.3999999761581","","3","0","null","null","arrowup","[0.325,0.675,0.85,0.15]","","",""
"sailing-trial","161","1234040","0.0-11.0-118.0","","","","false","","","","","","","","","","565.5","","884.2000000476837","","0","0","arrowleft","0","arrowleft","[0.325,0.675,0.85,0.15]","","",""
"sailing-trial","162","1239367","0.0-11.0-119.0","","","","false","","","","","","","","","","null","","2320.5","","2","0","null","null","arrowup","[0.325,0.675,0.85,0.15]","","",""
"sailing-trial","163","1246363","0.0-11.0-120.0","","","","false","","","","","","","","","","1090.5","","1205.5","","1","0","arrowleft","0","arrowright","[0.15,0.85,0.675,0.325]","","",""
"sailing-trial","164","1250277","0.0-11.0-121.0","","","","false","","","","","","","","","","null","","1656.7999999523163","","3","1","null","null","arrowup","[0.15,0.85,0.675,0.325]","","",""
"sailing-trial","165","1255726","0.0-11.0-122.0","","","","false","","","","","","","","","","956.9000000357628","","74.29999995231628","","2","0","arrowright","1","arrowleft","[0.15,0.85,0.675,0.325]","","",""
"sailing-trial","166","1260459","0.0-11.0-123.0","","","","false","","","","","","","","","","null","","1720.5","","0","0","null","null","arrowup","[0.15,0.85,0.675,0.325]","","",""
"sailing-trial","167","1266723","0.0-11.0-124.0","","","","false","","","","","","","","","","1334.699999988079","","508.30000001192093","","1","0","arrowleft","0","arrowright","[0.15,0.85,0.675,0.325]","","",""
"sailing-trial","168","1269387","0.0-11.0-125.0","","","","false","","","","","","","","","","null","","119","","1","1","null","null","arrowup","[0.15,0.85,0.675,0.325]","","",""
"sailing-trial","169","1276102","0.0-11.0-126.0","","","","false","","","","","","","","","","1656.4000000357628","","1020.1000000238419","","1","1","arrowleft","0","arrowright","[0.15,0.85,0.675,0.325]","","",""
"sailing-trial","170","1280054","0.0-11.0-127.0","","","","false","","","","","","","","","","null","","940.9000000357628","","0","0","null","null","arrowup","[0.15,0.85,0.675,0.325]","","",""
"sailing-trial","171","1285215","0.0-11.0-128.0","","","","false","","","","","","","","","","1005.1000000238419","","545.7999999523163","","2","1","arrowright","1","arrowleft","[0.15,0.85,0.675,0.325]","","",""
"sailing-trial","172","1288796","0.0-11.0-129.0","","","","false","","","","","","","","","","null","","1495.5999999642372","","1","1","null","null","arrowup","[0.15,0.85,0.675,0.325]","","",""
"sailing-trial","173","1293479","0.0-11.0-130.0","","","","false","","","","","","","","","","1319.5","","2.699999988079071","","2","1","arrowright","1","arrowleft","[0.15,0.85,0.675,0.325]","","",""
"sailing-trial","174","1297994","0.0-11.0-131.0","","","","false","","","","","","","","","","null","","1496.699999988079","","2","0","null","null","arrowup","[0.15,0.85,0.675,0.325]","","",""
"sailing-trial","175","1302977","0.0-11.0-132.0","","","","false","","","","","","","","","","975.9000000357628","","1258.5999999642372","","2","0","arrowright","1","arrowleft","[0.15,0.85,0.675,0.325]","","",""
"sailing-trial","176","1307492","0.0-11.0-133.0","","","","false","","","","","","","","","","null","","1498.5","","0","0","null","null","arrowup","[0.15,0.85,0.675,0.325]","","",""
"sailing-trial","177","1312938","0.0-11.0-134.0","","","","false","","","","","","","","","","669.1000000238419","","1081.8999999761581","","1","1","arrowleft","0","arrowright","[0.15,0.85,0.675,0.325]","","",""
"sailing-trial","178","1318489","0.0-11.0-135.0","","","","false","","","","","","","","","","null","","2537.699999988079","","0","0","null","null","arrowup","[0.15,0.85,0.675,0.325]","","",""
"sailing-trial","179","1323190","0.0-11.0-136.0","","","","false","","","","","","","","","","1220.0999999642372","","206.5","","0","0","arrowleft","0","arrowleft","[0.15,0.85,0.675,0.325]","","",""
"sailing-trial","180","1326533","0.0-11.0-137.0","","","","false","","","","","","","","","","null","","1266.300000011921","","2","1","null","null","arrowup","[0.15,0.85,0.675,0.325]","","",""
"sailing-trial","181","1332299","0.0-11.0-138.0","","","","false","","","","","","","","","","1152.3999999761581","","516.9000000357628","","3","0","arrowright","1","arrowright","[0.15,0.85,0.675,0.325]","","",""
"sailing-trial","182","1336914","0.0-11.0-139.0","","","","false","","","","","","","","","","null","","1602.5","","0","0","null","null","arrowup","[0.15,0.85,0.675,0.325]","","",""
"sailing-trial","183","1343300","0.0-11.0-140.0","","","","false","","","","","","","","","","660.5999999642372","","1253.800000011921","","0","0","arrowleft","0","arrowleft","[0.15,0.85,0.675,0.325]","","",""
"sailing-trial","184","1347861","0.0-11.0-141.0","","","","false","","","","","","","","","","null","","1540.3999999761581","","3","0","null","null","arrowup","[0.15,0.85,0.675,0.325]","","",""
"sailing-trial","185","1353575","0.0-11.0-142.0","","","","false","","","","","","","","","","1013.0999999642372","","464.69999998807907","","2","0","arrowright","1","arrowleft","[0.325,0.675,0.85,0.15]","","",""
"sailing-trial","186","1358173","0.0-11.0-143.0","","","","false","","","","","","","","","","null","","1585.699999988079","","3","0","null","null","arrowup","[0.325,0.675,0.85,0.15]","","",""
"sailing-trial","187","1363454","0.0-11.0-144.0","","","","false","","","","","","","","","","807.1999999880791","","1077.199999988079","","1","1","arrowleft","0","arrowright","[0.325,0.675,0.85,0.15]","","",""
"sailing-trial","188","1365985","0.0-11.0-145.0","","","","false","","","","","","","","","","null","","646.6999999880791","","2","1","null","null","arrowup","[0.325,0.675,0.85,0.15]","","",""
"sailing-trial","189","1370185","0.0-11.0-146.0","","","","false","","","","","","","","","","923.1000000238419","","54.60000002384186","","1","1","arrowleft","0","arrowright","[0.325,0.675,0.85,0.15]","","",""
"sailing-trial","190","1375167","0.0-11.0-147.0","","","","false","","","","","","","","","","null","","1977.800000011921","","3","0","null","null","arrowup","[0.325,0.675,0.85,0.15]","","",""
"sailing-trial","191","1379698","0.0-11.0-148.0","","","","false","","","","","","","","","","1187.9000000357628","","58.5","","1","1","arrowleft","0","arrowright","[0.325,0.675,0.85,0.15]","","",""
"sailing-trial","192","1382897","0.0-11.0-149.0","","","","false","","","","","","","","","","null","","894.3999999761581","","0","1","null","null","arrowup","[0.325,0.675,0.85,0.15]","","",""
"sailing-trial","193","1387062","0.0-11.0-150.0","","","","false","","","","","","","","","","787.1000000238419","","8.600000023841858","","1","1","arrowleft","0","arrowright","[0.325,0.675,0.85,0.15]","","",""
"sailing-trial","194","1390328","0.0-11.0-151.0","","","","false","","","","","","","","","","null","","1336.199999988079","","2","1","null","null","arrowup","[0.325,0.675,0.85,0.15]","","",""
"sailing-trial","195","1395743","0.0-11.0-152.0","","","","false","","","","","","","","","","1234.7000000476837","","599.3000000119209","","1","1","arrowleft","0","arrowright","[0.325,0.675,0.85,0.15]","","",""
"sailing-trial","196","1399175","0.0-11.0-153.0","","","","false","","","","","","","","","","null","","1315.5999999642372","","3","1","null","null","arrowup","[0.325,0.675,0.85,0.15]","","",""
"sailing-trial","197","1405696","0.0-11.0-154.0","","","","false","","","","","","","","","","1118.4000000357628","","151.10000002384186","","1","0","arrowleft","0","arrowright","[0.325,0.675,0.85,0.15]","","",""
"sailing-trial","198","1409306","0.0-11.0-155.0","","","","false","","","","","","","","","","null","","1565.2000000476837","","1","1","null","null","arrowup","[0.325,0.675,0.85,0.15]","","",""
"sailing-trial","199","1415121","0.0-11.0-156.0","","","","false","","","","","","","","","","1104.800000011921","","844.6999999880791","","2","1","arrowright","1","arrowleft","[0.325,0.675,0.85,0.15]","","",""
"sailing-trial","200","1418168","0.0-11.0-157.0","","","","false","","","","","","","","","","null","","1182.5","","0","1","null","null","arrowup","[0.325,0.675,0.85,0.15]","","",""
"sailing-trial","201","1426018","0.0-11.0-158.0","","","","false","","","","","","","","","","1675.5","","1342.800000011921","","3","0","arrowright","1","arrowright","[0.325,0.675,0.85,0.15]","","",""
"sailing-trial","202","1427659","0.0-11.0-159.0","","","","false","","","","","","","","","","null","","553.3000000119209","","0","0","null","null","arrowup","[0.325,0.675,0.85,0.15]","","",""
"sailing-trial","203","1433286","0.0-11.0-160.0","","","","false","","","","","","","","","","973.5999999642372","","346.80000001192093","","1","0","arrowleft","0","arrowright","[0.325,0.675,0.85,0.15]","","",""
"sailing-trial","204","1435956","0.0-11.0-161.0","","","","false","","","","","","","","","","null","","181.89999997615814","","3","1","null","null","arrowup","[0.325,0.675,0.85,0.15]","","",""
"sailing-trial","205","1440312","0.0-11.0-162.0","","","","false","","","","","","","","","","611.8999999761581","","440.30000001192093","","2","1","arrowright","1","arrowleft","[0.15,0.85,0.675,0.325]","","",""
"sailing-trial","206","1444879","0.0-11.0-163.0","","","","false","","","","","","","","","","null","","1557.4000000357628","","2","0","null","null","arrowup","[0.15,0.85,0.675,0.325]","","",""
"sailing-trial","207","1449156","0.0-11.0-164.0","","","","false","","","","","","","","","","616.0999999642372","","477.39999997615814","","1","1","arrowleft","0","arrowright","[0.15,0.85,0.675,0.325]","","",""
"sailing-trial","208","1453773","0.0-11.0-165.0","","","","false","","","","","","","","","","null","","1363.300000011921","","0","0","null","null","arrowup","[0.15,0.85,0.675,0.325]","","",""
"sailing-trial","209","1461372","0.0-11.0-166.0","","","","false","","","","","","","","","","541.8999999761581","","2586.2999999523163","","0","0","arrowleft","0","arrowleft","[0.15,0.85,0.675,0.325]","","",""
"sailing-trial","210","1465386","0.0-11.0-167.0","","","","false","","","","","","","","","","null","","981.6999999880791","","0","0","null","null","arrowup","[0.15,0.85,0.675,0.325]","","",""
"sailing-trial","211","1470741","0.0-11.0-168.0","","","","false","","","","","","","","","","522.9000000357628","","557.1999999880791","","2","0","arrowright","1","arrowleft","[0.15,0.85,0.675,0.325]","","",""
"sailing-trial","212","1475433","0.0-11.0-169.0","","","","false","","","","","","","","","","null","","1676.3999999761581","","2","0","null","null","arrowup","[0.15,0.85,0.675,0.325]","","",""
"sailing-trial","213","1480649","0.0-11.0-170.0","","","","false","","","","","","","","","","543.8000000119209","","414.30000001192093","","0","0","arrowleft","0","arrowleft","[0.15,0.85,0.675,0.325]","","",""
"sailing-trial","214","1484878","0.0-11.0-171.0","","","","false","","","","","","","","","","null","","1236","","2","1","null","null","arrowup","[0.15,0.85,0.675,0.325]","","",""
"sailing-trial","215","1490993","0.0-11.0-172.0","","","","false","","","","","","","","","","2378.899999976158","","510.9000000357628","","3","1","arrowright","1","arrowright","[0.15,0.85,0.675,0.325]","","",""
"sailing-trial","216","1496243","0.0-11.0-173.0","","","","false","","","","","","","","","","null","","2234.300000011921","","1","0","null","null","arrowup","[0.15,0.85,0.675,0.325]","","",""
"sailing-trial","217","1502173","0.0-11.0-174.0","","","","false","","","","","","","","","","1290.3999999761581","","411.89999997615814","","0","0","arrowleft","0","arrowleft","[0.15,0.85,0.675,0.325]","","",""
"sailing-trial","218","1505980","0.0-11.0-175.0","","","","false","","","","","","","","","","null","","1852.199999988079","","0","0","null","null","arrowup","[0.15,0.85,0.675,0.325]","","",""
"sailing-trial","219","1513418","0.0-11.0-176.0","","","","false","","","","","","","","","","3288.699999988079","","187.5","","1","1","arrowleft","0","arrowright","[0.15,0.85,0.675,0.325]","","",""
"sailing-trial","220","1516994","0.0-11.0-177.0","","","","false","","","","","","","","","","null","","1701.4000000357628","","2","0","null","null","arrowup","[0.15,0.85,0.675,0.325]","","",""
"sailing-trial","221","1523846","0.0-11.0-178.0","","","","false","","","","","","","","","","1401.7000000476837","","2187.7000000476837","","3","0","arrowright","1","arrowright","[0.15,0.85,0.675,0.325]","","",""
"sailing-trial","222","1526540","0.0-11.0-179.0","","","","false","","","","","","","","","","null","","1511.2000000476837","","3","0","null","null","arrowup","[0.15,0.85,0.675,0.325]","","",""
"sailing-trial","223","1532028","0.0-11.0-180.0","","","","false","","","","","","","","","","1349.0999999642372","","722.1000000238419","","1","1","arrowleft","0","arrowright","[0.15,0.85,0.675,0.325]","","",""
"sailing-trial","224","1535560","0.0-11.0-181.0","","","","false","","","","","","","","","","null","","1893.3999999761581","","0","1","null","null","arrowup","[0.15,0.85,0.675,0.325]","","",""
"sailing-trial","225","1540767","0.0-11.0-182.0","","","","false","","","","","","","","","","617.9000000357628","","457.7999999523163","","0","0","arrowleft","0","arrowleft","[0.15,0.85,0.675,0.325]","","",""
"sailing-trial","226","1545290","0.0-11.0-183.0","","","","false","","","","","","","","","","null","","1904.6000000238419","","3","1","null","null","arrowup","[0.15,0.85,0.675,0.325]","","",""
"sailing-trial","227","1549333","0.0-11.0-184.0","","","","false","","","","","","","","","","846","","172.0999999642372","","3","0","arrowright","1","arrowright","[0.15,0.85,0.675,0.325]","","",""
"sailing-trial","228","1553342","0.0-11.0-185.0","","","","false","","","","","","","","","","null","","2139.099999964237","","3","0","null","null","arrowup","[0.15,0.85,0.675,0.325]","","",""
"sailing-trial","229","1560002","0.0-11.0-186.0","","","","false","","","","","","","","","","1520.8999999761581","","1404.9000000357628","","3","1","arrowright","1","arrowright","[0.675,0.325,0.15,0.85]","","",""
"sailing-trial","230","1564583","0.0-11.0-187.0","","","","false","","","","","","","","","","null","","2262.699999988079","","2","1","null","null","arrowup","[0.675,0.325,0.15,0.85]","","",""
"sailing-trial","231","1569721","0.0-11.0-188.0","","","","false","","","","","","","","","","1240.4000000357628","","862.6999999880791","","2","0","arrowright","1","arrowleft","[0.675,0.325,0.15,0.85]","","",""
"sailing-trial","232","1572563","0.0-11.0-189.0","","","","false","","","","","","","","","","null","","1408.300000011921","","1","0","null","null","arrowup","[0.675,0.325,0.15,0.85]","","",""
"sailing-trial","233","1577462","0.0-11.0-190.0","","","","false","","","","","","","","","","1049.5999999642372","","315.5999999642372","","1","1","arrowleft","0","arrowright","[0.675,0.325,0.15,0.85]","","",""
"sailing-trial","234","1581895","0.0-11.0-191.0","","","","false","","","","","","","","","","null","","1395.300000011921","","2","0","null","null","arrowup","[0.675,0.325,0.15,0.85]","","",""
"sailing-trial","235","1586793","0.0-11.0-192.0","","","","false","","","","","","","","","","1012.9000000357628","","356.10000002384186","","3","1","arrowright","1","arrowright","[0.675,0.325,0.15,0.85]","","",""
"sailing-trial","236","1590073","0.0-11.0-193.0","","","","false","","","","","","","","","","null","","1552.5","","2","0","null","null","arrowup","[0.675,0.325,0.15,0.85]","","",""
"sailing-trial","237","1595394","0.0-11.0-194.0","","","","false","","","","","","","","","","2025.5999999642372","","147.4000000357628","","3","0","arrowright","1","arrowright","[0.675,0.325,0.15,0.85]","","",""
"sailing-trial","238","1598720","0.0-11.0-195.0","","","","false","","","","","","","","","","null","","1282.300000011921","","3","1","null","null","arrowup","[0.675,0.325,0.15,0.85]","","",""
"sailing-trial","239","1605469","0.0-11.0-196.0","","","","false","","","","","","","","","","1322.4000000357628","","1337.6000000238419","","0","1","arrowleft","0","arrowleft","[0.675,0.325,0.15,0.85]","","",""
"sailing-trial","240","1610020","0.0-11.0-197.0","","","","false","","","","","","","","","","null","","2726.5","","1","0","null","null","arrowup","[0.675,0.325,0.15,0.85]","","",""
"sailing-trial","241","1615732","0.0-11.0-198.0","","","","false","","","","","","","","","","1185","","651.1000000238419","","3","1","arrowright","1","arrowright","[0.675,0.325,0.15,0.85]","","",""
"sailing-trial","242","1619111","0.0-11.0-199.0","","","","false","","","","","","","","","","null","","1539.4000000357628","","0","0","null","null","arrowup","[0.675,0.325,0.15,0.85]","","",""
"sailing-trial","243","1624522","0.0-11.0-200.0","","","","false","","","","","","","","","","1426.4000000357628","","594.5","","1","0","arrowleft","0","arrowright","[0.675,0.325,0.15,0.85]","","",""
"sailing-trial","244","1628044","0.0-11.0-201.0","","","","false","","","","","","","","","","null","","1423.5999999642372","","2","1","null","null","arrowup","[0.675,0.325,0.15,0.85]","","",""
"sailing-trial","245","1632426","0.0-11.0-202.0","","","","false","","","","","","","","","","560.1999999880791","","716","","2","0","arrowright","1","arrowleft","[0.675,0.325,0.15,0.85]","","",""
"sailing-trial","246","1636558","0.0-11.0-203.0","","","","false","","","","","","","","","","null","","2015.800000011921","","0","1","null","null","arrowup","[0.675,0.325,0.15,0.85]","","",""
"sailing-trial","247","1640623","0.0-11.0-204.0","","","","false","","","","","","","","","","732.1000000238419","","67.5","","0","1","arrowleft","0","arrowleft","[0.85,0.15,0.325,0.675]","","",""
"sailing-trial","248","1643999","0.0-11.0-205.0","","","","false","","","","","","","","","","null","","1857.2999999523163","","2","0","null","null","arrowup","[0.85,0.15,0.325,0.675]","","",""
"sailing-trial","249","1648988","0.0-11.0-206.0","","","","false","","","","","","","","","","835","","621.5","","0","1","arrowleft","0","arrowleft","[0.85,0.15,0.325,0.675]","","",""
"sailing-trial","250","1654268","0.0-11.0-207.0","","","","false","","","","","","","","","","null","","2283.5","","3","1","null","null","arrowup","[0.85,0.15,0.325,0.675]","","",""
"sailing-trial","251","1661265","0.0-11.0-208.0","","","","false","","","","","","","","","","1596.4000000357628","","1744.199999988079","","0","1","arrowleft","0","arrowleft","[0.85,0.15,0.325,0.675]","","",""
"sailing-trial","252","1665018","0.0-11.0-209.0","","","","false","","","","","","","","","","null","","1876.300000011921","","1","0","null","null","arrowup","[0.85,0.15,0.325,0.675]","","",""
"sailing-trial","253","1669091","0.0-11.0-210.0","","","","false","","","","","","","","","","820.8999999761581","","575.5","","1","0","arrowleft","0","arrowright","[0.85,0.15,0.325,0.675]","","",""
"sailing-trial","254","1674644","0.0-11.0-211.0","","","","false","","","","","","","","","","null","","1776","","3","1","null","null","arrowup","[0.85,0.15,0.325,0.675]","","",""
"sailing-trial","255","1680012","0.0-11.0-212.0","","","","false","","","","","","","","","","1372.199999988079","","630","","0","1","arrowleft","0","arrowleft","[0.85,0.15,0.325,0.675]","","",""
"sailing-trial","256","1683437","0.0-11.0-213.0","","","","false","","","","","","","","","","null","","1640.8999999761581","","1","0","null","null","arrowup","[0.85,0.15,0.325,0.675]","","",""
"sailing-trial","257","1687744","0.0-11.0-214.0","","","","false","","","","","","","","","","818.8000000119209","","1064.699999988079","","0","0","arrowleft","0","arrowleft","[0.85,0.15,0.325,0.675]","","",""
"sailing-trial","258","1691631","0.0-11.0-215.0","","","","false","","","","","","","","","","null","","1584.8999999761581","","2","0","null","null","arrowup","[0.85,0.15,0.325,0.675]","","",""
"sailing-trial","259","1701320","0.0-11.0-216.0","","","","false","","","","","","","","","","918.6000000238419","","5031","","3","1","arrowright","1","arrowright","[0.85,0.15,0.325,0.675]","","",""
"sailing-trial","260","1706935","0.0-11.0-217.0","","","","false","","","","","","","","","","null","","2598.7000000476837","","1","0","null","null","arrowup","[0.85,0.15,0.325,0.675]","","",""
"sailing-trial","261","1710784","0.0-11.0-218.0","","","","false","","","","","","","","","","999.5","","262.7000000476837","","1","0","arrowleft","0","arrowright","[0.85,0.15,0.325,0.675]","","",""
"sailing-trial","262","1714782","0.0-11.0-219.0","","","","false","","","","","","","","","","null","","1974.8999999761581","","2","1","null","null","arrowup","[0.85,0.15,0.325,0.675]","","",""
"sailing-trial","263","1718348","0.0-11.0-220.0","","","","false","","","","","","","","","","144.39999997615814","","222.70000004768372","","0","1","arrowleft","0","arrowleft","[0.675,0.325,0.15,0.85]","","",""
"sailing-trial","264","1721125","0.0-11.0-221.0","","","","false","","","","","","","","","","null","","1199.800000011921","","1","0","null","null","arrowup","[0.675,0.325,0.15,0.85]","","",""
"sailing-trial","265","1725527","0.0-11.0-222.0","","","","false","","","","","","","","","","647.8999999761581","","144.89999997615814","","0","1","arrowleft","0","arrowleft","[0.675,0.325,0.15,0.85]","","",""
"sailing-trial","266","1728492","0.0-11.0-223.0","","","","false","","","","","","","","","","null","","930.8000000119209","","1","1","null","null","arrowup","[0.675,0.325,0.15,0.85]","","",""
"sailing-trial","267","1732893","0.0-11.0-224.0","","","","false","","","","","","","","","","1066.3999999761581","","113.30000001192093","","0","0","arrowleft","0","arrowleft","[0.675,0.325,0.15,0.85]","","",""
"sailing-trial","268","1735837","0.0-11.0-225.0","","","","false","","","","","","","","","","null","","1529.5","","2","0","null","null","arrowup","[0.675,0.325,0.15,0.85]","","",""
"sailing-trial","269","1741138","0.0-11.0-226.0","","","","false","","","","","","","","","","1935.4000000357628","","35.89999997615814","","3","1","arrowright","1","arrowright","[0.675,0.325,0.15,0.85]","","",""
"sailing-trial","270","1743559","0.0-11.0-227.0","","","","false","","","","","","","","","","null","","1123.3999999761581","","2","0","null","null","arrowup","[0.675,0.325,0.15,0.85]","","",""
"sailing-trial","271","1747765","0.0-11.0-228.0","","","","false","","","","","","","","","","1281.5","","157.69999998807907","","3","0","arrowright","1","arrowright","[0.675,0.325,0.15,0.85]","","",""
"sailing-trial","272","1758717","0.0-11.0-229.0","","","","false","","","","","","","","","","null","","6970.899999976158","","0","1","null","null","arrowup","[0.675,0.325,0.15,0.85]","","",""
"sailing-trial","273","1765003","0.0-11.0-230.0","","","","false","","","","","","","","","","1780.800000011921","","1165.699999988079","","0","0","arrowleft","0","arrowleft","[0.675,0.325,0.15,0.85]","","",""
"sailing-trial","274","1771054","0.0-11.0-231.0","","","","false","","","","","","","","","","null","","3197","","1","0","null","null","arrowup","[0.675,0.325,0.15,0.85]","","",""
"sailing-trial","275","1778707","0.0-11.0-232.0","","","","false","","","","","","","","","","1624.7999999523163","","575.5999999642372","","3","1","arrowright","1","arrowright","[0.675,0.325,0.15,0.85]","","",""
"sailing-trial","276","1785958","0.0-11.0-233.0","","","","false","","","","","","","","","","null","","3220.199999988079","","3","1","null","null","arrowup","[0.675,0.325,0.15,0.85]","","",""
"sailing-trial","277","1793906","0.0-11.0-234.0","","","","false","","","","","","","","","","2059.600000023842","","1284.9000000357628","","0","1","arrowleft","0","arrowleft","[0.675,0.325,0.15,0.85]","","",""
"sailing-trial","278","1798051","0.0-11.0-235.0","","","","false","","","","","","","","","","null","","2305.7000000476837","","0","1","null","null","arrowup","[0.675,0.325,0.15,0.85]","","",""
"sailing-trial","279","1803517","0.0-11.0-236.0","","","","false","","","","","","","","","","1823.800000011921","","454.2000000476837","","0","1","arrowleft","0","arrowleft","[0.675,0.325,0.15,0.85]","","",""
"sailing-trial","280","1808350","0.0-11.0-237.0","","","","false","","","","","","","","","","null","","1822.8999999761581","","1","0","null","null","arrowup","[0.675,0.325,0.15,0.85]","","",""
"sailing-trial","281","1814411","0.0-11.0-238.0","","","","false","","","","","","","","","","514.3000000119209","","2308.5","","0","1","arrowleft","0","arrowleft","[0.85,0.15,0.325,0.675]","","",""
"sailing-trial","282","1818146","0.0-11.0-239.0","","","","false","","","","","","","","","","null","","1678.800000011921","","3","1","null","null","arrowup","[0.85,0.15,0.325,0.675]","","",""
"sailing-trial","283","1822709","0.0-11.0-240.0","","","","false","","","","","","","","","","995.6000000238419","","426.80000001192093","","0","1","arrowleft","0","arrowleft","[0.85,0.15,0.325,0.675]","","",""
"sailing-trial","284","1825759","0.0-11.0-241.0","","","","false","","","","","","","","","","null","","635.3000000119209","","1","1","null","null","arrowup","[0.85,0.15,0.325,0.675]","","",""
"sailing-trial","285","1830123","0.0-11.0-242.0","","","","false","","","","","","","","","","644.8000000119209","","444.30000001192093","","0","1","arrowleft","0","arrowleft","[0.85,0.15,0.325,0.675]","","",""
"sailing-trial","286","1833206","0.0-11.0-243.0","","","","false","","","","","","","","","","null","","1205.6000000238419","","0","1","null","null","arrowup","[0.85,0.15,0.325,0.675]","","",""
"sailing-trial","287","1837787","0.0-11.0-244.0","","","","false","","","","","","","","","","845.5999999642372","","173.39999997615814","","0","1","arrowleft","0","arrowleft","[0.85,0.15,0.325,0.675]","","",""
"sailing-trial","288","1840921","0.0-11.0-245.0","","","","false","","","","","","","","","","null","","1319.3999999761581","","3","1","null","null","arrowup","[0.85,0.15,0.325,0.675]","","",""
"sailing-trial","289","1845918","0.0-11.0-246.0","","","","false","","","","","","","","","","631.6999999880791","","1061.1000000238419","","0","1","arrowleft","0","arrowleft","[0.85,0.15,0.325,0.675]","","",""
"sailing-trial","290","1849685","0.0-11.0-247.0","","","","false","","","","","","","","","","null","","737.2000000476837","","2","0","null","null","arrowup","[0.85,0.15,0.325,0.675]","","",""
"sailing-trial","291","1854016","0.0-11.0-248.0","","","","false","","","","","","","","","","474.19999998807907","","735.2999999523163","","0","1","arrowleft","0","arrowleft","[0.85,0.15,0.325,0.675]","","",""
"sailing-trial","292","1856914","0.0-11.0-249.0","","","","false","","","","","","","","","","null","","1064.1000000238419","","0","1","null","null","arrowup","[0.85,0.15,0.325,0.675]","","",""
"sailing-trial","293","1860581","0.0-11.0-250.0","","","","false","","","","","","","","","","518.9000000357628","","96.10000002384186","","0","1","arrowleft","0","arrowleft","[0.85,0.15,0.325,0.675]","","",""
"sailing-trial","294","1864198","0.0-11.0-251.0","","","","false","","","","","","","","","","null","","579.9000000357628","","2","0","null","null","arrowup","[0.85,0.15,0.325,0.675]","","",""
"sailing-trial","295","1869393","0.0-11.0-252.0","","","","false","","","","","","","","","","317.7999999523163","","1401.5","","0","1","arrowleft","0","arrowleft","[0.85,0.15,0.325,0.675]","","",""
"sailing-trial","296","1872577","0.0-11.0-253.0","","","","false","","","","","","","","","","null","","146.80000001192093","","1","0","null","null","arrowup","[0.85,0.15,0.325,0.675]","","",""
"sailing-trial","297","1875318","0.0-11.0-254.0","","","","false","","","","","","","","","","3.299999952316284","","222.39999997615814","","0","0","arrowleft","0","arrowleft","[0.325,0.675,0.85,0.15]","","",""
"sailing-trial","298","1879741","0.0-11.0-255.0","","","","false","","","","","","","","","","null","","1413.5","","3","0","null","null","arrowup","[0.325,0.675,0.85,0.15]","","",""
"sailing-trial","299","1883904","0.0-11.0-256.0","","","","false","","","","","","","","","","556.1999999880791","","18","","0","1","arrowleft","0","arrowleft","[0.325,0.675,0.85,0.15]","","",""
"sailing-trial","300","1888038","0.0-11.0-257.0","","","","false","","","","","","","","","","null","","1117.3999999761581","","3","0","null","null","arrowup","[0.325,0.675,0.85,0.15]","","",""
"sailing-trial","301","1893355","0.0-11.0-258.0","","","","false","","","","","","","","","","174.0999999642372","","905.5","","0","0","arrowleft","0","arrowleft","[0.325,0.675,0.85,0.15]","","",""
"sailing-trial","302","1896351","0.0-11.0-259.0","","","","false","","","","","","","","","","null","","901.5","","2","1","null","null","arrowup","[0.325,0.675,0.85,0.15]","","",""
"sailing-trial","303","1901267","0.0-11.0-260.0","","","","false","","","","","","","","","","375.60000002384186","","251.69999998807907","","0","0","arrowleft","0","arrowleft","[0.325,0.675,0.85,0.15]","","",""
"sailing-trial","304","1904433","0.0-11.0-261.0","","","","false","","","","","","","","","","null","","138.80000001192093","","1","0","null","null","arrowup","[0.325,0.675,0.85,0.15]","","",""
"sailing-trial","305","1909262","0.0-11.0-262.0","","","","false","","","","","","","","","","921","","543.1999999880791","","2","1","arrowright","1","arrowleft","[0.325,0.675,0.85,0.15]","","",""
"sailing-trial","306","1911996","0.0-11.0-263.0","","","","false","","","","","","","","","","null","","946.7999999523163","","2","1","null","null","arrowup","[0.325,0.675,0.85,0.15]","","",""
"sailing-trial","307","1915677","0.0-11.0-264.0","","","","false","","","","","","","","","","376.30000001192093","","70.09999996423721","","2","1","arrowright","1","arrowleft","[0.325,0.675,0.85,0.15]","","",""
"sailing-trial","308","1918359","0.0-11.0-265.0","","","","false","","","","","","","","","","null","","217.10000002384186","","1","1","null","null","arrowup","[0.325,0.675,0.85,0.15]","","",""
"sailing-trial","309","1925806","0.0-11.0-266.0","","","","false","","","","","","","","","","661.1000000238419","","3276.800000011921","","2","1","arrowright","1","arrowleft","[0.325,0.675,0.85,0.15]","","",""
"sailing-trial","310","1928189","0.0-11.0-267.0","","","","false","","","","","","","","","","null","","0.19999998807907104","","2","1","null","null","arrowup","[0.325,0.675,0.85,0.15]","","",""
"sailing-trial","311","1933422","0.0-11.0-268.0","","","","false","","","","","","","","","","635.7000000476837","","377.69999998807907","","2","0","arrowright","1","arrowleft","[0.325,0.675,0.85,0.15]","","",""
"sailing-trial","312","1936369","0.0-11.0-269.0","","","","false","","","","","","","","","","null","","169.19999998807907","","1","1","null","null","arrowup","[0.325,0.675,0.85,0.15]","","",""
"sailing-trial","313","1941219","0.0-11.0-270.0","","","","false","","","","","","","","","","290.39999997615814","","340.39999997615814","","0","0","arrowleft","0","arrowleft","[0.325,0.675,0.85,0.15]","","",""
"sailing-trial","314","1944402","0.0-11.0-271.0","","","","false","","","","","","","","","","null","","152.39999997615814","","2","0","null","null","arrowup","[0.325,0.675,0.85,0.15]","","",""
"sailing-trial","315","1948916","0.0-11.0-272.0","","","","false","","","","","","","","","","729.8999999761581","","375.39999997615814","","2","1","arrowright","1","arrowleft","[0.325,0.675,0.85,0.15]","","",""
"sailing-trial","316","1952583","0.0-11.0-273.0","","","","false","","","","","","","","","","null","","648.5999999642372","","0","0","null","null","arrowup","[0.325,0.675,0.85,0.15]","","",""
"sailing-trial","317","1957130","0.0-11.0-274.0","","","","false","","","","","","","","","","193.30000001192093","","413.80000001192093","","2","1","arrowright","1","arrowleft","[0.15,0.85,0.675,0.325]","","",""
"sailing-trial","318","1959204","0.0-11.0-275.0","","","","false","","","","","","","","","","null","","936.8999999761581","","0","0","null","null","arrowup","[0.15,0.85,0.675,0.325]","","",""
"sailing-trial","319","1963262","0.0-11.0-276.0","","","","false","","","","","","","","","","955.1999999880791","","109.29999995231628","","2","1","arrowright","1","arrowleft","[0.15,0.85,0.675,0.325]","","",""
"sailing-trial","320","1965875","0.0-11.0-277.0","","","","false","","","","","","","","","","null","","391","","3","1","null","null","arrowup","[0.15,0.85,0.675,0.325]","","",""
"sailing-trial","321","1970108","0.0-11.0-278.0","","","","false","","","","","","","","","","184.60000002384186","","722.6999999880791","","2","1","arrowright","1","arrowleft","[0.15,0.85,0.675,0.325]","","",""
"sailing-trial","322","1972457","0.0-11.0-279.0","","","","false","","","","","","","","","","null","","112.80000001192093","","1","1","null","null","arrowup","[0.15,0.85,0.675,0.325]","","",""
"sailing-trial","323","1977322","0.0-11.0-280.0","","","","false","","","","","","","","","","834.6000000238419","","406.10000002384186","","2","1","arrowright","1","arrowleft","[0.15,0.85,0.675,0.325]","","",""
"sailing-trial","324","1980488","0.0-11.0-281.0","","","","false","","","","","","","","","","null","","146.10000002384186","","0","0","null","null","arrowup","[0.15,0.85,0.675,0.325]","","",""
"sailing-trial","325","1987175","0.0-11.0-282.0","","","","false","","","","","","","","","","278.30000001192093","","2092.599999964237","","0","0","arrowleft","0","arrowleft","[0.15,0.85,0.675,0.325]","","",""
"sailing-trial","326","1991883","0.0-11.0-283.0","","","","false","","","","","","","","","","null","","2168.300000011921","","1","1","null","null","arrowup","[0.15,0.85,0.675,0.325]","","",""
"sailing-trial","327","1997449","0.0-11.0-284.0","","","","false","","","","","","","","","","932","","392.39999997615814","","0","0","arrowleft","0","arrowleft","[0.15,0.85,0.675,0.325]","","",""
"sailing-trial","328","1999980","0.0-11.0-285.0","","","","false","","","","","","","","","","null","","211.70000004768372","","1","1","null","null","arrowup","[0.15,0.85,0.675,0.325]","","",""
"sailing-trial","329","2003695","0.0-11.0-286.0","","","","false","","","","","","","","","","640.0999999642372","","252.60000002384186","","0","1","arrowleft","0","arrowleft","[0.15,0.85,0.675,0.325]","","",""
"sailing-trial","330","2006345","0.0-11.0-287.0","","","","false","","","","","","","","","","null","","113.10000002384186","","2","1","null","null","arrowup","[0.15,0.85,0.675,0.325]","","",""
"sailing-trial","331","2010276","0.0-11.0-288.0","","","","false","","","","","","","","","","344.9000000357628","","779.9000000357628","","0","0","arrowleft","0","arrowleft","[0.15,0.85,0.675,0.325]","","",""
"sailing-trial","332","2014429","0.0-11.0-289.0","","","","false","","","","","","","","","","null","","1138.8999999761581","","0","0","null","null","arrowup","[0.15,0.85,0.675,0.325]","","",""
"sailing-trial","333","2020110","0.0-11.0-290.0","","","","false","","","","","","","","","","951.3999999761581","","299.5","","0","0","arrowleft","0","arrowleft","[0.15,0.85,0.675,0.325]","","",""
"sailing-trial","334","2022590","0.0-11.0-291.0","","","","false","","","","","","","","","","null","","189.80000001192093","","3","1","null","null","arrowup","[0.15,0.85,0.675,0.325]","","",""
"sailing-trial","335","2027488","0.0-11.0-292.0","","","","false","","","","","","","","","","648.1000000238419","","216.69999998807907","","2","1","arrowright","1","arrowleft","[0.325,0.675,0.85,0.15]","","",""
"sailing-trial","336","2030737","0.0-11.0-293.0","","","","false","","","","","","","","","","null","","1381.199999988079","","1","1","null","null","arrowup","[0.325,0.675,0.85,0.15]","","",""
"sailing-trial","337","2040450","0.0-11.0-294.0","","","","false","","","","","","","","","","1101.0999999642372","","5289.700000047684","","2","1","arrowright","1","arrowleft","[0.325,0.675,0.85,0.15]","","",""
"sailing-trial","338","2044235","0.0-11.0-295.0","","","","false","","","","","","","","","","null","","753.1999999880791","","3","0","null","null","arrowup","[0.325,0.675,0.85,0.15]","","",""
"sailing-trial","339","2048531","0.0-11.0-296.0","","","","false","","","","","","","","","","327.5999999642372","","126","","2","1","arrowright","1","arrowleft","[0.325,0.675,0.85,0.15]","","",""
"sailing-trial","340","2051730","0.0-11.0-297.0","","","","false","","","","","","","","","","null","","754.8999999761581","","1","1","null","null","arrowup","[0.325,0.675,0.85,0.15]","","",""
"sailing-trial","341","2057634","0.0-11.0-298.0","","","","false","","","","","","","","","","984","","604.5","","0","0","arrowleft","0","arrowleft","[0.325,0.675,0.85,0.15]","","",""
"sailing-trial","342","2060343","0.0-11.0-299.0","","","","false","","","","","","","","","","null","","364.69999998807907","","1","1","null","null","arrowup","[0.325,0.675,0.85,0.15]","","",""
"sailing-trial","343","2063958","0.0-11.0-300.0","","","","false","","","","","","","","","","471.60000002384186","","10","","2","1","arrowright","1","arrowleft","[0.325,0.675,0.85,0.15]","","",""
"sailing-trial","344","2067124","0.0-11.0-301.0","","","","false","","","","","","","","","","null","","1145.300000011921","","1","1","null","null","arrowup","[0.325,0.675,0.85,0.15]","","",""
"sailing-trial","345","2070889","0.0-11.0-302.0","","","","false","","","","","","","","","","592.5999999642372","","27.5","","0","1","arrowleft","0","arrowleft","[0.325,0.675,0.85,0.15]","","",""
"sailing-trial","346","2074641","0.0-11.0-303.0","","","","false","","","","","","","","","","null","","736.1000000238419","","3","0","null","null","arrowup","[0.325,0.675,0.85,0.15]","","",""
"sailing-trial","347","2078922","0.0-11.0-304.0","","","","false","","","","","","","","","","151.80000001192093","","559.5","","2","1","arrowright","1","arrowleft","[0.325,0.675,0.85,0.15]","","",""
"sailing-trial","348","2082120","0.0-11.0-305.0","","","","false","","","","","","","","","","null","","183.80000001192093","","0","0","null","null","arrowup","[0.325,0.675,0.85,0.15]","","",""
"sailing-trial","349","2086463","0.0-11.0-306.0","","","","false","","","","","","","","","","272","","460.69999998807907","","2","1","arrowright","1","arrowleft","[0.325,0.675,0.85,0.15]","","",""
"sailing-trial","350","2090769","0.0-11.0-307.0","","","","false","","","","","","","","","","null","","1268.5999999642372","","3","0","null","null","arrowup","[0.325,0.675,0.85,0.15]","","",""
"sailing-trial","351","2098803","0.0-11.0-308.0","","","","false","","","","","","","","","","256.7000000476837","","3333.199999988079","","2","0","arrowright","1","arrowleft","[0.675,0.325,0.15,0.85]","","",""
"sailing-trial","352","2102481","0.0-11.0-309.0","","","","false","","","","","","","","","","null","","1358.7999999523163","","3","1","null","null","arrowup","[0.675,0.325,0.15,0.85]","","",""
"sailing-trial","353","2108978","0.0-11.0-310.0","","","","false","","","","","","","","","","1563.8999999761581","","251.69999998807907","","2","0","arrowright","1","arrowleft","[0.675,0.325,0.15,0.85]","","",""
"sailing-trial","354","2112059","0.0-11.0-311.0","","","","false","","","","","","","","","","null","","647.6000000238419","","3","1","null","null","arrowup","[0.675,0.325,0.15,0.85]","","",""
"sailing-trial","355","2116408","0.0-11.0-312.0","","","","false","","","","","","","","","","529.5","","510.39999997615814","","2","1","arrowright","1","arrowleft","[0.675,0.325,0.15,0.85]","","",""
"sailing-trial","356","2120991","0.0-11.0-313.0","","","","false","","","","","","","","","","null","","1572.6000000238419","","1","0","null","null","arrowup","[0.675,0.325,0.15,0.85]","","",""
"sailing-trial","357","2126124","0.0-11.0-314.0","","","","false","","","","","","","","","","154.5","","722.6999999880791","","2","0","arrowright","1","arrowleft","[0.675,0.325,0.15,0.85]","","",""
"sailing-trial","358","2130354","0.0-11.0-315.0","","","","false","","","","","","","","","","null","","1214.1000000238419","","2","0","null","null","arrowup","[0.675,0.325,0.15,0.85]","","",""
"sailing-trial","359","2134484","0.0-11.0-316.0","","","","false","","","","","","","","","","443","","437.5","","0","1","arrowleft","0","arrowleft","[0.675,0.325,0.15,0.85]","","",""
"sailing-trial","360","2137884","0.0-11.0-317.0","","","","false","","","","","","","","","","null","","1553.3999999761581","","0","1","null","null","arrowup","[0.675,0.325,0.15,0.85]","","",""
"sailing-trial","361","2143566","0.0-11.0-318.0","","","","false","","","","","","","","","","900.5","","535.6999999880791","","0","0","arrowleft","0","arrowleft","[0.675,0.325,0.15,0.85]","","",""
"sailing-trial","362","2146847","0.0-11.0-319.0","","","","false","","","","","","","","","","null","","252.89999997615814","","0","0","null","null","arrowup","[0.675,0.325,0.15,0.85]","","",""
"sailing-trial","363","2151111","0.0-11.0-320.0","","","","false","","","","","","","","","","412","","595","","0","1","arrowleft","0","arrowleft","[0.675,0.325,0.15,0.85]","","",""
"sailing-trial","364","2153526","0.0-11.0-321.0","","","","false","","","","","","","","","","null","","532.8000000119209","","0","1","null","null","arrowup","[0.675,0.325,0.15,0.85]","","",""
"sailing-trial","365","2158110","0.0-11.0-322.0","","","","false","","","","","","","","","","114.60000002384186","","679.3000000119209","","0","1","arrowleft","0","arrowleft","[0.675,0.325,0.15,0.85]","","",""
"sailing-trial","366","2161276","0.0-11.0-323.0","","","","false","","","","","","","","","","null","","136.89999997615814","","3","0","null","null","arrowup","[0.675,0.325,0.15,0.85]","","",""
"sailing-trial","367","2164556","0.0-11.0-324.0","","","","false","","","","","","","","","","118.89999997615814","","25","","0","1","arrowleft","0","arrowleft","[0.85,0.15,0.325,0.675]","","",""
"sailing-trial","368","2168011","0.0-11.0-325.0","","","","false","","","","","","","","","","null","","246","","1","0","null","null","arrowup","[0.85,0.15,0.325,0.675]","","",""
"sailing-trial","369","2172707","0.0-11.0-326.0","","","","false","","","","","","","","","","306.5","","161.5","","0","0","arrowleft","0","arrowleft","[0.85,0.15,0.325,0.675]","","",""
"sailing-trial","370","2176901","0.0-11.0-327.0","","","","false","","","","","","","","","","null","","1791.300000011921","","0","1","null","null","arrowup","[0.85,0.15,0.325,0.675]","","",""
"sailing-trial","371","2182251","0.0-11.0-328.0","","","","false","","","","","","","","","","725.8000000119209","","560.5999999642372","","0","1","arrowleft","0","arrowleft","[0.85,0.15,0.325,0.675]","","",""
"sailing-trial","372","2186251","0.0-11.0-329.0","","","","false","","","","","","","","","","null","","993.5","","3","0","null","null","arrowup","[0.85,0.15,0.325,0.675]","","",""
"sailing-trial","373","2191149","0.0-11.0-330.0","","","","false","","","","","","","","","","382.19999998807907","","2.800000011920929","","0","0","arrowleft","0","arrowleft","[0.85,0.15,0.325,0.675]","","",""
"sailing-trial","374","2194280","0.0-11.0-331.0","","","","false","","","","","","","","","","null","","1130.199999988079","","2","1","null","null","arrowup","[0.85,0.15,0.325,0.675]","","",""
"sailing-trial","375","2198911","0.0-11.0-332.0","","","","false","","","","","","","","","","1320.9000000357628","","6.899999976158142","","0","1","arrowleft","0","arrowleft","[0.85,0.15,0.325,0.675]","","",""
"sailing-trial","376","2202228","0.0-11.0-333.0","","","","false","","","","","","","","","","null","","295.0999999642372","","2","0","null","null","arrowup","[0.85,0.15,0.325,0.675]","","",""
"sailing-trial","377","2206552","0.0-11.0-334.0","","","","false","","","","","","","","","","270.10000002384186","","7.299999952316284","","0","0","arrowleft","0","arrowleft","[0.85,0.15,0.325,0.675]","","",""
"sailing-trial","378","2210974","0.0-11.0-335.0","","","","false","","","","","","","","","","null","","1398.3999999761581","","2","0","null","null","arrowup","[0.85,0.15,0.325,0.675]","","",""
"sailing-trial","379","2215089","0.0-11.0-336.0","","","","false","","","","","","","","","","724.6000000238419","","201.0999999642372","","0","1","arrowleft","0","arrowleft","[0.85,0.15,0.325,0.675]","","",""
"sailing-trial","380","2218322","0.0-11.0-337.0","","","","false","","","","","","","","","","null","","72.79999995231628","","0","1","null","null","arrowup","[0.85,0.15,0.325,0.675]","","",""
"sailing-trial","381","2222971","0.0-11.0-338.0","","","","false","","","","","","","","","","449.5","","503","","0","1","arrowleft","0","arrowleft","[0.85,0.15,0.325,0.675]","","",""
"sailing-trial","382","2226179","0.0-11.0-339.0","","","","false","","","","","","","","","","null","","166.10000002384186","","2","0","null","null","arrowup","[0.85,0.15,0.325,0.675]","","",""
"sailing-trial","383","2232616","0.0-11.0-340.0","","","","false","","","","","","","","","","364.30000001192093","","2632","","0","1","arrowleft","0","arrowleft","[0.675,0.325,0.15,0.85]","","",""
"sailing-trial","384","2236365","0.0-11.0-341.0","","","","false","","","","","","","","","","null","","1388.800000011921","","3","1","null","null","arrowup","[0.675,0.325,0.15,0.85]","","",""
"sailing-trial","385","2241115","0.0-11.0-342.0","","","","false","","","","","","","","","","269.10000002384186","","26.30000001192093","","0","0","arrowleft","0","arrowleft","[0.675,0.325,0.15,0.85]","","",""
"sailing-trial","386","2244650","0.0-11.0-343.0","","","","false","","","","","","","","","","null","","497","","2","0","null","null","arrowup","[0.675,0.325,0.15,0.85]","","",""
"sailing-trial","387","2248762","0.0-11.0-344.0","","","","false","","","","","","","","","","128.80000001192093","","169","","0","1","arrowleft","0","arrowleft","[0.675,0.325,0.15,0.85]","","",""
"sailing-trial","388","2251826","0.0-11.0-345.0","","","","false","","","","","","","","","","null","","1202.300000011921","","1","1","null","null","arrowup","[0.675,0.325,0.15,0.85]","","",""
"sailing-trial","389","2254937","0.0-11.0-346.0","","","","false","","","","","","","","","","369.4000000357628","","244.89999997615814","","0","0","arrowleft","0","arrowleft","[0.675,0.325,0.15,0.85]","","",""
"sailing-trial","390","2259125","0.0-11.0-347.0","","","","false","","","","","","","","","","null","","1168.6000000238419","","1","0","null","null","arrowup","[0.675,0.325,0.15,0.85]","","",""
"sailing-trial","391","2262923","0.0-11.0-348.0","","","","false","","","","","","","","","","144.10000002384186","","140.39999997615814","","0","1","arrowleft","0","arrowleft","[0.675,0.325,0.15,0.85]","","",""
"sailing-trial","392","2266422","0.0-11.0-349.0","","","","false","","","","","","","","","","null","","1105.9000000357628","","3","1","null","null","arrowup","[0.675,0.325,0.15,0.85]","","",""
"sailing-trial","393","2270070","0.0-11.0-350.0","","","","false","","","","","","","","","","199.30000001192093","","139.5999999642372","","0","1","arrowleft","0","arrowleft","[0.675,0.325,0.15,0.85]","","",""
"sailing-trial","394","2273371","0.0-11.0-351.0","","","","false","","","","","","","","","","null","","265.30000001192093","","1","0","null","null","arrowup","[0.675,0.325,0.15,0.85]","","",""
"sailing-trial","395","2277267","0.0-11.0-352.0","","","","false","","","","","","","","","","161.80000001192093","","231.29999995231628","","0","1","arrowleft","0","arrowleft","[0.675,0.325,0.15,0.85]","","",""
"sailing-trial","396","2280725","0.0-11.0-353.0","","","","false","","","","","","","","","","null","","405","","1","0","null","null","arrowup","[0.675,0.325,0.15,0.85]","","",""
"sailing-trial","397","2285101","0.0-11.0-354.0","","","","false","","","","","","","","","","131.60000002384186","","210.39999997615814","","0","0","arrowleft","0","arrowleft","[0.675,0.325,0.15,0.85]","","",""
"sailing-trial","398","2288604","0.0-11.0-355.0","","","","false","","","","","","","","","","null","","180","","2","0","null","null","arrowup","[0.675,0.325,0.15,0.85]","","",""
"sailing-trial","399","2294494","0.0-11.0-356.0","","","","false","","","","","","","","","","146.5","","2184.800000011921","","0","1","arrowleft","0","arrowleft","[0.675,0.325,0.15,0.85]","","",""
"sailing-trial","400","2298176","0.0-11.0-357.0","","","","false","","","","","","","","","","null","","677.2999999523163","","0","1","null","null","arrowup","[0.675,0.325,0.15,0.85]","","",""
"sailing-trial","401","2302577","0.0-11.0-358.0","","","","false","","","","","","","","","","87.20000004768372","","66.89999997615814","","0","0","arrowleft","0","arrowleft","[0.325,0.675,0.85,0.15]","","",""
"sailing-trial","402","2305692","0.0-11.0-359.0","","","","false","","","","","","","","","","null","","92","","0","0","null","null","arrowup","[0.325,0.675,0.85,0.15]","","",""
"sailing-trial","403","2309456","0.0-11.0-360.0","","","","false","","","","","","","","","","159.29999995231628","","172.89999997615814","","0","1","arrowleft","0","arrowleft","[0.325,0.675,0.85,0.15]","","",""
"sailing-trial","404","2312557","0.0-11.0-361.0","","","","false","","","","","","","","","","null","","74.59999996423721","","0","0","null","null","arrowup","[0.325,0.675,0.85,0.15]","","",""
"sailing-trial","405","2317146","0.0-11.0-362.0","","","","false","","","","","","","","","","247.9000000357628","","71.90000003576279","","0","0","arrowleft","0","arrowleft","[0.325,0.675,0.85,0.15]","","",""
"sailing-trial","406","2320934","0.0-11.0-363.0","","","","false","","","","","","","","","","null","","1317.8999999761581","","1","1","null","null","arrowup","[0.325,0.675,0.85,0.15]","","",""
"sailing-trial","407","2324717","0.0-11.0-364.0","","","","false","","","","","","","","","","241.80000001192093","","164.5","","0","1","arrowleft","0","arrowleft","[0.325,0.675,0.85,0.15]","","",""
"sailing-trial","408","2328204","0.0-11.0-365.0","","","","false","","","","","","","","","","null","","248","","0","0","null","null","arrowup","[0.325,0.675,0.85,0.15]","","",""
"sailing-trial","409","2332699","0.0-11.0-366.0","","","","false","","","","","","","","","","245.60000002384186","","5.699999988079071","","0","0","arrowleft","0","arrowleft","[0.325,0.675,0.85,0.15]","","",""
"sailing-trial","410","2335834","0.0-11.0-367.0","","","","false","","","","","","","","","","null","","122.30000001192093","","3","0","null","null","arrowup","[0.325,0.675,0.85,0.15]","","",""
"sailing-trial","411","2340897","0.0-11.0-368.0","","","","false","","","","","","","","","","145.60000002384186","","392.89999997615814","","0","0","arrowleft","0","arrowleft","[0.325,0.675,0.85,0.15]","","",""
"sailing-trial","412","2343595","0.0-11.0-369.0","","","","false","","","","","","","","","","null","","240.0999999642372","","2","1","null","null","arrowup","[0.325,0.675,0.85,0.15]","","",""
"sailing-trial","413","2348795","0.0-11.0-370.0","","","","false","","","","","","","","","","175.19999998807907","","217.10000002384186","","0","0","arrowleft","0","arrowleft","[0.325,0.675,0.85,0.15]","","",""
"sailing-trial","414","2351524","0.0-11.0-371.0","","","","false","","","","","","","","","","null","","69","","2","1","null","null","arrowup","[0.325,0.675,0.85,0.15]","","",""
"sailing-trial","415","2355793","0.0-11.0-372.0","","","","false","","","","","","","","","","159.10000002384186","","77.60000002384186","","0","0","arrowleft","0","arrowleft","[0.325,0.675,0.85,0.15]","","",""
"sailing-trial","416","2359243","0.0-11.0-373.0","","","","false","","","","","","","","","","null","","224.5","","0","0","null","null","arrowup","[0.325,0.675,0.85,0.15]","","",""
"sailing-trial","417","2364089","0.0-11.0-374.0","","","","false","","","","","","","","","","255.5","","357.5","","0","0","arrowleft","0","arrowleft","[0.325,0.675,0.85,0.15]","","",""
"sailing-trial","418","2366868","0.0-11.0-375.0","","","","false","","","","","","","","","","null","","176.30000001192093","","1","1","null","null","arrowup","[0.325,0.675,0.85,0.15]","","",""
"sailing-trial","419","2371369","0.0-11.0-376.0","","","","false","","","","","","","","","","50.89999997615814","","226.69999998807907","","0","0","arrowleft","0","arrowleft","[0.325,0.675,0.85,0.15]","","",""
"sailing-trial","420","2374634","0.0-11.0-377.0","","","","false","","","","","","","","","","null","","228.60000002384186","","3","0","null","null","arrowup","[0.325,0.675,0.85,0.15]","","",""
"sailing-trial","421","2379399","0.0-11.0-378.0","","","","false","","","","","","","","","","129.5","","94.19999998807907","","0","0","arrowleft","0","arrowleft","[0.15,0.85,0.675,0.325]","","",""
"sailing-trial","422","2381831","0.0-11.0-379.0","","","","false","","","","","","","","","","null","","62.39999997615814","","0","1","null","null","arrowup","[0.15,0.85,0.675,0.325]","","",""
"sailing-trial","423","2386214","0.0-11.0-380.0","","","","false","","","","","","","","","","148.30000001192093","","186.19999998807907","","0","0","arrowleft","0","arrowleft","[0.15,0.85,0.675,0.325]","","",""
"sailing-trial","424","2389735","0.0-11.0-381.0","","","","false","","","","","","","","","","null","","216.5","","0","0","null","null","arrowup","[0.15,0.85,0.675,0.325]","","",""
"sailing-trial","425","2394128","0.0-11.0-382.0","","","","false","","","","","","","","","","133.80000001192093","","57.19999998807907","","0","0","arrowleft","0","arrowleft","[0.15,0.85,0.675,0.325]","","",""
"sailing-trial","426","2397580","0.0-11.0-383.0","","","","false","","","","","","","","","","null","","63.69999998807907","","3","0","null","null","arrowup","[0.15,0.85,0.675,0.325]","","",""
"sailing-trial","427","2402308","0.0-11.0-384.0","","","","false","","","","","","","","","","229.4000000357628","","228.79999995231628","","0","0","arrowleft","0","arrowleft","[0.15,0.85,0.675,0.325]","","",""
"sailing-trial","428","2404891","0.0-11.0-385.0","","","","false","","","","","","","","","","null","","160.70000004768372","","2","1","null","null","arrowup","[0.15,0.85,0.675,0.325]","","",""
"sailing-trial","429","2409689","0.0-11.0-386.0","","","","false","","","","","","","","","","160.5","","114.5","","0","0","arrowleft","0","arrowleft","[0.15,0.85,0.675,0.325]","","",""
"sailing-trial","430","2412486","0.0-11.0-387.0","","","","false","","","","","","","","","","null","","195.80000001192093","","1","1","null","null","arrowup","[0.15,0.85,0.675,0.325]","","",""
"sailing-trial","431","2415969","0.0-11.0-388.0","","","","false","","","","","","","","","","156.79999995231628","","129.10000002384186","","0","1","arrowleft","0","arrowleft","[0.15,0.85,0.675,0.325]","","",""
"sailing-trial","432","2419639","0.0-11.0-389.0","","","","false","","","","","","","","","","null","","657.8000000119209","","0","0","null","null","arrowup","[0.15,0.85,0.675,0.325]","","",""
"sailing-trial","433","2423368","0.0-11.0-390.0","","","","false","","","","","","","","","","250.39999997615814","","221.39999997615814","","0","1","arrowleft","0","arrowleft","[0.15,0.85,0.675,0.325]","","",""
"sailing-trial","434","2426783","0.0-11.0-391.0","","","","false","","","","","","","","","","null","","391","","0","0","null","null","arrowup","[0.15,0.85,0.675,0.325]","","",""
"sailing-trial","435","2432864","0.0-11.0-392.0","","","","false","","","","","","","","","","199","","1418","","0","0","arrowleft","0","arrowleft","[0.15,0.85,0.675,0.325]","","",""
"sailing-trial","436","2435529","0.0-11.0-393.0","","","","false","","","","","","","","","","null","","70","","1","1","null","null","arrowup","[0.15,0.85,0.675,0.325]","","",""
"sailing-trial","437","2440245","0.0-11.0-394.0","","","","false","","","","","","","","","","125.60000002384186","","22.399999976158142","","0","0","arrowleft","0","arrowleft","[0.15,0.85,0.675,0.325]","","",""
"sailing-trial","438","2442692","0.0-11.0-395.0","","","","false","","","","","","","","","","null","","81.89999997615814","","1","1","null","null","arrowup","[0.15,0.85,0.675,0.325]","","",""
"sailing-trial","439","2446982","0.0-11.0-396.0","","","","false","","","","","","","","","","86.39999997615814","","127.80000001192093","","0","0","arrowleft","0","arrowleft","[0.15,0.85,0.675,0.325]","","",""
"sailing-trial","440","2449756","0.0-11.0-397.0","","","","false","","","","","","","","","","null","","105.69999998807907","","1","1","null","null","arrowup","[0.15,0.85,0.675,0.325]","","",""
"sailing-trial","441","2454224","0.0-11.0-398.0","","","","false","","","","","","","","","","37.90000003576279","","226.9000000357628","","0","0","arrowleft","0","arrowleft","[0.15,0.85,0.675,0.325]","","",""
"sailing-trial","442","2457693","0.0-11.0-399.0","","","","false","","","","","","","","","","null","","94.80000001192093","","0","0","null","null","arrowup","[0.15,0.85,0.675,0.325]","","",""
"instructions","443","2466501","0.0-12.0","","","","","","","","","","8803.800000011921","","","","","","","","","","","","","","","","[{""page_index"":0,""viewing_time"":8802.899999976158}]"
"survey-debrief","444","2506927","0.0-13.0","","","","","","","","","","40419.700000047684","","","","","","","","","","","","","","{""difficulty"":""5"",""fun"":""5"",""clarity"":""5"",""strategy"":""yes certain color houses gave gold bars"",""feedback"":""none""}","",""
