"trial_type","trial_index","time_elapsed","internal_node_id","value","metadata","success","timeout","failed_images","failed_audio","failed_video","browser_interaction","low_quality","rt","stimulus","response","button_pressed","island_rt","island_response","boat_rt","boat_response","boat","reward","island_key","island","boat_key","reward_probabilities","responses","num_errors","view_history"
"pavlovia","0","2","0.0-0.0","","","","","","","","","","","","","","","","","","","","","","","","","",""
"call-function","1","3","0.0-1.0","","{""task_version"":""sailing_part1_v1"",""task_condition"":""good"",""boats"":[""C"",""D"",""B"",""A""],""boats_demo"":[""F"",""H"",""E"",""G""],""islands"":[""A"",""B""],""subject_id"":""15076"",""age"":""8"",""gender"":""Male""}","","","","","","","","","","","","","","","","","","","","","","","",""
"preload","2","703","0.0-2.0","","","true","false","[]","[]","[]","[{""event"":""fullscreenenter"",""trial"":3,""time"":9571}]","false","","","","","","","","","","","","","","","","",""
"fullscreen","3","10562","0.0-3.0","","","true","","","","","","","","","","","","","","","","","","","","","","",""
"audio-keyboard-response","4","12692","0.0-4.0-0.0","","","","","","","","","","1429.3333333333333","audio/beep_loop.wav"," ","","","","","","","","","","","","","",""
"audio-test","5","16579","0.0-4.0-1.0","","","","","","","","","","null","audio/turtle.mp3","","3","","","","","","","","","","","","",""
"audio-test","6","18442","0.0-4.0-2.0","","","","","","","","","","null","audio/shark.mp3","","2","","","","","","","","","","","","",""
"sailing-instructions","7","67027","0.0-5.0-0.0-0.0","","","","","","","","","","","","","","null","null","null","null","null","null","","","","","","",""
"sailing-trial","8","75207","0.0-5.0-0.0-1.0-0.0","","","","false","","","","","","","","","","7062.300000011921","","null","","null","null","arrowleft","0","null","null","","",""
"sailing-trial","9","77086","0.0-5.0-0.0-1.0-1.0","","","","false","","","","","","","","","","757.0999999940395","","null","","null","null","arrowright","1","null","null","","",""
"sailing-trial","10","78999","0.0-5.0-0.0-1.0-2.0","","","","false","","","","","","","","","","783.7999999821186","","null","","null","null","arrowright","1","null","null","","",""
"sailing-instructions","11","118722","0.0-5.0-0.0-2.0","","","","","","","","","","","","","","null","null","null","null","0","null","","","","","","",""
"sailing-trial","12","125427","0.0-5.0-0.0-3.0-0.0","","","","false","","","","","","","","","","null","","2634.0999999940395","","2","1","null","null","arrowleft","[1,1,1,1]","","",""
"sailing-trial","13","129950","0.0-5.0-0.0-3.0-1.0","","","","false","","","","","","","","","","null","","1548.5","","3","1","null","null","arrowright","[1,1,1,1]","","",""
"sailing-trial","14","135383","0.0-5.0-0.0-3.0-2.0","","","","false","","","","","","","","","","null","","1885.8999999761581","","2","0","null","null","arrowleft","[0,0,0,0]","","",""
"sailing-instructions","15","142882","0.0-5.0-0.0-4.0","","","","","","","","","","","","","","null","null","null","null","null","null","","","","","","",""
"sailing-comprehension","16","169842","0.0-5.0-0.0-5.0","","","","","","","","","","23759.19999998808","","","","","","","","","","","","","","[""true"",""true"",""false"",""true""]","0",""
"sailing-instructions","17","226666","0.0-6.0-0.0-0.0","","","","","","","","","","","","","","null","null","null","null","null","null","","","","","","",""
"sailing-comprehension","18","255012","0.0-6.0-0.0-1.0","","","","","","","","","","26158.69999998808","","","","","","","","","","","","","","[""true"",""false"",""true""]","0",""
"sailing-instructions","19","267954","0.0-7.0-0.0-0.0","","","","","","","","","","","","","","null","null","null","null","null","null","","","","","","",""
"sailing-trial","20","275679","0.0-7.0-0.0-1.0-0.0","","","","false","","","","","","","","","","null","","4763.700000017881","","0","0","null","null","arrowup","[0.2,0.8,0.2,0.8]","","",""
"sailing-trial","21","280830","0.0-7.0-0.0-1.0-1.0","","","","false","","","","","","","","","","null","","2975.300000011921","","1","1","null","null","arrowup","[0.2,0.8,0.2,0.8]","","",""
"sailing-trial","22","285013","0.0-7.0-0.0-1.0-2.0","","","","false","","","","","","","","","","null","","2619","","2","0","null","null","arrowup","[0.2,0.8,0.2,0.8]","","",""
"sailing-trial","23","290157","0.0-7.0-0.0-1.0-3.0","","","","false","","","","","","","","","","null","","2355.800000011921","","3","0","null","null","arrowup","[0.2,0.8,0.2,0.8]","","",""
"sailing-comprehension","24","303274","0.0-7.0-0.0-2.0","","","","","","","","","","11388.5","","","","","","","","","","","","","","[""false""]","0",""
"sailing-instructions","25","329474","0.0-8.0-0.0-0.0","","","","","","","","","","","","","","null","null","null","null","null","null","","","","","","",""
"sailing-comprehension","26","338579","0.0-8.0-0.0-1.0","","","","","","","","","","6910.5","","","","","","","","","","","","","","[""true""]","0",""
"sailing-instructions","27","364674","0.0-9.0-0.0-0.0","","","","","","","","","","","","","","null","null","null","null","null","null","","","","","","",""
"sailing-trial","28","371530","0.0-9.0-0.0-1.0-0.0","","","","false","","","","","","","","","","3557.5999999940395","","20.80000001192093","","1","1","arrowleft","0","arrowright","[0.2,0.8,0.2,0.8]","","",""
"sailing-trial","29","375737","0.0-9.0-0.0-1.0-1.0","","","","false","","","","","","","","","","670.4000000059605","","215.7999999821186","","3","1","arrowright","1","arrowright","[0.2,0.8,0.2,0.8]","","",""
"sailing-trial","30","378967","0.0-9.0-0.0-1.0-2.0","","","","false","","","","","","","","","","null","","1548.300000011921","","0","0","null","null","arrowup","[0.2,0.8,0.2,0.8]","","",""
"sailing-trial","31","383234","0.0-9.0-0.0-1.0-3.0","","","","false","","","","","","","","","","698.9000000059605","","985.2000000178814","","2","0","arrowright","1","arrowleft","[0.2,0.8,0.2,0.8]","","",""
"sailing-trial","32","387076","0.0-9.0-0.0-1.0-4.0","","","","false","","","","","","","","","","null","","1411.199999988079","","3","1","null","null","arrowup","[0.2,0.8,0.2,0.8]","","",""
"sailing-trial","33","391593","0.0-9.0-0.0-1.0-5.0","","","","false","","","","","","","","","","1418","","265.90000000596046","","3","0","arrowright","1","arrowright","[0.2,0.8,0.2,0.8]","","",""
"sailing-instructions","34","415225","0.0-10.0","","","","","","","","","","","","","","null","null","null","null","null","null","","","","","","",""
"sailing-trial","35","420932","0.0-11.0-0.0","","","","false","","","","","","","","","","1466.300000011921","","92.09999999403954","","1","1","arrowleft","0","arrowright","[0.85,0.15,0.675,0.325]","","",""
"sailing-trial","36","427169","0.0-11.0-1.0","","","","false","","","","","","","","","","null","","3931","","0","1","null","null","arrowup","[0.85,0.15,0.675,0.325]","","",""
"sailing-trial","37","430777","0.0-11.0-2.0","","","","false","","","","","","","","","","532","","3.4000000059604645","","3","0","arrowright","1","arrowright","[0.85,0.15,0.675,0.325]","","",""
"sailing-trial","38","434669","0.0-11.0-3.0","","","","false","","","","","","","","","","null","","2090.7000000178814","","3","0","null","null","arrowup","[0.85,0.15,0.675,0.325]","","",""
"sailing-trial","39","438930","0.0-11.0-4.0","","","","false","","","","","","","","","","561.7999999821186","","267.09999999403954","","2","1","arrowright","1","arrowleft","[0.85,0.15,0.675,0.325]","","",""
"sailing-trial","40","443258","0.0-11.0-5.0","","","","false","","","","","","","","","","null","","2637.5999999940395","","1","0","null","null","arrowup","[0.85,0.15,0.675,0.325]","","",""
"sailing-trial","41","447442","0.0-11.0-6.0","","","","false","","","","","","","","","","550.9000000059605","","334.40000000596046","","0","1","arrowleft","0","arrowleft","[0.85,0.15,0.675,0.325]","","",""
"sailing-trial","42","450743","0.0-11.0-7.0","","","","false","","","","","","","","","","null","","1529.0999999940395","","3","0","null","null","arrowup","[0.85,0.15,0.675,0.325]","","",""
"sailing-trial","43","455311","0.0-11.0-8.0","","","","false","","","","","","","","","","671.0999999940395","","593.0999999940395","","1","0","arrowleft","0","arrowright","[0.85,0.15,0.675,0.325]","","",""
"sailing-trial","44","458614","0.0-11.0-9.0","","","","false","","","","","","","","","","null","","1470","","2","0","null","null","arrowup","[0.85,0.15,0.675,0.325]","","",""
"sailing-trial","45","462323","0.0-11.0-10.0","","","","false","","","","","","","","","","565.2000000178814","","232.5","","3","0","arrowright","1","arrowright","[0.85,0.15,0.675,0.325]","","",""
"sailing-trial","46","465390","0.0-11.0-11.0","","","","false","","","","","","","","","","null","","1211.0999999940395","","2","1","null","null","arrowup","[0.85,0.15,0.675,0.325]","","",""
"sailing-trial","47","469347","0.0-11.0-12.0","","","","false","","","","","","","","","","711.5","","38.400000005960464","","2","0","arrowright","1","arrowleft","[0.85,0.15,0.675,0.325]","","",""
"sailing-trial","48","472186","0.0-11.0-13.0","","","","false","","","","","","","","","","null","","1341.7999999821186","","1","0","null","null","arrowup","[0.85,0.15,0.675,0.325]","","",""
"sailing-trial","49","476332","0.0-11.0-14.0","","","","false","","","","","","","","","","1129.9000000059605","","194","","2","1","arrowright","1","arrowleft","[0.85,0.15,0.675,0.325]","","",""
"sailing-trial","50","479361","0.0-11.0-15.0","","","","false","","","","","","","","","","null","","1147","","0","1","null","null","arrowup","[0.85,0.15,0.675,0.325]","","",""
"sailing-trial","51","483874","0.0-11.0-16.0","","","","false","","","","","","","","","","592.5999999940395","","635.3000000119209","","0","1","arrowleft","0","arrowleft","[0.85,0.15,0.675,0.325]","","",""
"sailing-trial","52","487256","0.0-11.0-17.0","","","","false","","","","","","","","","","null","","1139.3999999761581","","0","1","null","null","arrowup","[0.85,0.15,0.675,0.325]","","",""
"sailing-trial","53","490481","0.0-11.0-18.0","","","","false","","","","","","","","","","344.80000001192093","","26","","3","0","arrowright","1","arrowright","[0.325,0.675,0.15,0.85]","","",""
"sailing-trial","54","493290","0.0-11.0-19.0","","","","false","","","","","","","","","","null","","1493.699999988079","","2","0","null","null","arrowup","[0.325,0.675,0.15,0.85]","","",""
"sailing-trial","55","498531","0.0-11.0-20.0","","","","false","","","","","","","","","","703.2999999821186","","512.5","","1","0","arrowleft","0","arrowright","[0.325,0.675,0.15,0.85]","","",""
"sailing-trial","56","508369","0.0-11.0-21.0","","","","false","","","","","","","","","","null","","7597.100000023842","","1","1","null","null","arrowup","[0.325,0.675,0.15,0.85]","","",""
"sailing-trial","57","513007","0.0-11.0-22.0","","","","false","","","","","","","","","","1693","","37.599999994039536","","1","0","arrowleft","0","arrowright","[0.325,0.675,0.15,0.85]","","",""
"sailing-trial","58","517358","0.0-11.0-23.0","","","","false","","","","","","","","","","null","","3099.800000011921","","0","0","null","null","arrowup","[0.325,0.675,0.15,0.85]","","",""
"sailing-trial","59","522955","0.0-11.0-24.0","","","","false","","","","","","","","","","1597.4000000059605","","385.40000000596046","","3","1","arrowright","1","arrowright","[0.325,0.675,0.15,0.85]","","",""
"sailing-trial","60","526485","0.0-11.0-25.0","","","","false","","","","","","","","","","null","","1624.300000011921","","0","0","null","null","arrowup","[0.325,0.675,0.15,0.85]","","",""
"sailing-trial","61","532112","0.0-11.0-26.0","","","","false","","","","","","","","","","1212.5","","893.5999999940395","","1","1","arrowleft","0","arrowright","[0.325,0.675,0.15,0.85]","","",""
"sailing-trial","62","535932","0.0-11.0-27.0","","","","false","","","","","","","","","","null","","1781.199999988079","","2","0","null","null","arrowup","[0.325,0.675,0.15,0.85]","","",""
"sailing-trial","63","540089","0.0-11.0-28.0","","","","false","","","","","","","","","","509.69999998807907","","282","","3","1","arrowright","1","arrowright","[0.325,0.675,0.15,0.85]","","",""
"sailing-trial","64","543435","0.0-11.0-29.0","","","","false","","","","","","","","","","null","","1022.0999999940395","","3","1","null","null","arrowup","[0.325,0.675,0.15,0.85]","","",""
"sailing-trial","65","547598","0.0-11.0-30.0","","","","false","","","","","","","","","","1058.9000000059605","","332.59999999403954","","0","0","arrowleft","0","arrowleft","[0.325,0.675,0.15,0.85]","","",""
"sailing-trial","66","550586","0.0-11.0-31.0","","","","false","","","","","","","","","","null","","1301.2999999821186","","2","0","null","null","arrowup","[0.325,0.675,0.15,0.85]","","",""
"sailing-trial","67","554808","0.0-11.0-32.0","","","","false","","","","","","","","","","626.1999999880791","","262.90000000596046","","1","1","arrowleft","0","arrowright","[0.325,0.675,0.15,0.85]","","",""
"sailing-trial","68","558504","0.0-11.0-33.0","","","","false","","","","","","","","","","null","","1345.300000011921","","0","1","null","null","arrowup","[0.325,0.675,0.15,0.85]","","",""
"sailing-trial","69","562768","0.0-11.0-34.0","","","","false","","","","","","","","","","656.5999999940395","","256.30000001192093","","3","1","arrowright","1","arrowright","[0.325,0.675,0.15,0.85]","","",""
"sailing-trial","70","565655","0.0-11.0-35.0","","","","false","","","","","","","","","","null","","1168.5","","2","0","null","null","arrowup","[0.325,0.675,0.15,0.85]","","",""
"sailing-trial","71","570576","0.0-11.0-36.0","","","","false","","","","","","","","","","1244.7000000178814","","189.5","","3","1","arrowright","1","arrowright","[0.325,0.675,0.15,0.85]","","",""
"sailing-trial","72","573566","0.0-11.0-37.0","","","","false","","","","","","","","","","null","","1062.5999999940395","","3","0","null","null","arrowup","[0.325,0.675,0.15,0.85]","","",""
"sailing-trial","73","577904","0.0-11.0-38.0","","","","false","","","","","","","","","","563.4000000059605","","3.9000000059604645","","1","1","arrowleft","0","arrowright","[0.325,0.675,0.15,0.85]","","",""
"sailing-trial","74","581551","0.0-11.0-39.0","","","","false","","","","","","","","","","null","","2034.9000000059605","","2","0","null","null","arrowup","[0.325,0.675,0.15,0.85]","","",""
"sailing-trial","75","586128","0.0-11.0-40.0","","","","false","","","","","","","","","","764.2999999821186","","312.5","","1","1","arrowleft","0","arrowright","[0.325,0.675,0.15,0.85]","","",""
"sailing-trial","76","590791","0.0-11.0-41.0","","","","false","","","","","","","","","","null","","2247.300000011921","","0","1","null","null","arrowup","[0.325,0.675,0.15,0.85]","","",""
"sailing-trial","77","595569","0.0-11.0-42.0","","","","false","","","","","","","","","","1136.0999999940395","","255.10000002384186","","3","1","arrowright","1","arrowright","[0.15,0.85,0.325,0.675]","","",""
"sailing-trial","78","599399","0.0-11.0-43.0","","","","false","","","","","","","","","","null","","1454","","3","1","null","null","arrowup","[0.15,0.85,0.325,0.675]","","",""
"sailing-trial","79","603278","0.0-11.0-44.0","","","","false","","","","","","","","","","648.4000000059605","","269.2999999821186","","2","1","arrowright","1","arrowleft","[0.15,0.85,0.325,0.675]","","",""
"sailing-trial","80","607108","0.0-11.0-45.0","","","","false","","","","","","","","","","null","","1939.4000000059605","","3","1","null","null","arrowup","[0.15,0.85,0.325,0.675]","","",""
"sailing-trial","81","611337","0.0-11.0-46.0","","","","false","","","","","","","","","","537.5","","307.7999999821186","","1","1","arrowleft","0","arrowright","[0.15,0.85,0.325,0.675]","","",""
"sailing-trial","82","614386","0.0-11.0-47.0","","","","false","","","","","","","","","","null","","1161.7999999821186","","2","0","null","null","arrowup","[0.15,0.85,0.325,0.675]","","",""
"sailing-trial","83","618547","0.0-11.0-48.0","","","","false","","","","","","","","","","455","","281.7000000178814","","3","1","arrowright","1","arrowright","[0.15,0.85,0.325,0.675]","","",""
"sailing-trial","84","622174","0.0-11.0-49.0","","","","false","","","","","","","","","","null","","1773.1000000238419","","2","0","null","null","arrowup","[0.15,0.85,0.325,0.675]","","",""
"sailing-trial","85","626226","0.0-11.0-50.0","","","","false","","","","","","","","","","523.9000000059605","","300.59999999403954","","1","1","arrowleft","0","arrowright","[0.15,0.85,0.325,0.675]","","",""
"sailing-trial","86","629723","0.0-11.0-51.0","","","","false","","","","","","","","","","null","","1587","","0","0","null","null","arrowup","[0.15,0.85,0.325,0.675]","","",""
"sailing-trial","87","635122","0.0-11.0-52.0","","","","false","","","","","","","","","","2100.399999976158","","667.4000000059605","","0","0","arrowleft","0","arrowleft","[0.15,0.85,0.325,0.675]","","",""
"sailing-trial","88","640350","0.0-11.0-53.0","","","","false","","","","","","","","","","null","","3544.2000000178814","","0","0","null","null","arrowup","[0.15,0.85,0.325,0.675]","","",""
"sailing-trial","89","645356","0.0-11.0-54.0","","","","false","","","","","","","","","","1350.300000011921","","3.4000000059604645","","3","1","arrowright","1","arrowright","[0.15,0.85,0.325,0.675]","","",""
"sailing-trial","90","648509","0.0-11.0-55.0","","","","false","","","","","","","","","","null","","1183.5999999940395","","3","0","null","null","arrowup","[0.15,0.85,0.325,0.675]","","",""
"sailing-trial","91","652397","0.0-11.0-56.0","","","","false","","","","","","","","","","662.0999999940395","","319.7000000178814","","0","0","arrowleft","0","arrowleft","[0.15,0.85,0.325,0.675]","","",""
"sailing-trial","92","655036","0.0-11.0-57.0","","","","false","","","","","","","","","","null","","1367.9000000059605","","2","0","null","null","arrowup","[0.15,0.85,0.325,0.675]","","",""
"sailing-trial","93","659625","0.0-11.0-58.0","","","","false","","","","","","","","","","1096.300000011921","","167.59999999403954","","1","1","arrowleft","0","arrowright","[0.325,0.675,0.15,0.85]","","",""
"sailing-trial","94","662351","0.0-11.0-59.0","","","","false","","","","","","","","","","null","","1002.3000000119209","","0","0","null","null","arrowup","[0.325,0.675,0.15,0.85]","","",""
"sailing-trial","95","666472","0.0-11.0-60.0","","","","false","","","","","","","","","","656.5","","35.60000002384186","","3","1","arrowright","1","arrowright","[0.325,0.675,0.15,0.85]","","",""
"sailing-trial","96","671632","0.0-11.0-61.0","","","","false","","","","","","","","","","null","","2865.699999988079","","3","1","null","null","arrowup","[0.325,0.675,0.15,0.85]","","",""
"sailing-trial","97","675812","0.0-11.0-62.0","","","","false","","","","","","","","","","552.8000000119209","","238.69999998807907","","1","1","arrowleft","0","arrowright","[0.325,0.675,0.15,0.85]","","",""
"sailing-trial","98","678736","0.0-11.0-63.0","","","","false","","","","","","","","","","null","","1160.199999988079","","3","0","null","null","arrowup","[0.325,0.675,0.15,0.85]","","",""
"sailing-trial","99","682776","0.0-11.0-64.0","","","","false","","","","","","","","","","662.5999999940395","","228.90000000596046","","2","0","arrowright","1","arrowleft","[0.325,0.675,0.15,0.85]","","",""
"sailing-trial","100","685474","0.0-11.0-65.0","","","","false","","","","","","","","","","null","","1384.699999988079","","2","0","null","null","arrowup","[0.325,0.675,0.15,0.85]","","",""
"sailing-trial","101","690331","0.0-11.0-66.0","","","","false","","","","","","","","","","1118","","264.19999998807907","","2","0","arrowright","1","arrowleft","[0.325,0.675,0.15,0.85]","","",""
"sailing-trial","102","693562","0.0-11.0-67.0","","","","false","","","","","","","","","","null","","761.4000000059605","","1","1","null","null","arrowup","[0.325,0.675,0.15,0.85]","","",""
"sailing-trial","103","698240","0.0-11.0-68.0","","","","false","","","","","","","","","","969.5","","238","","1","1","arrowleft","0","arrowright","[0.325,0.675,0.15,0.85]","","",""
"sailing-trial","104","702469","0.0-11.0-69.0","","","","false","","","","","","","","","","null","","2046.5","","1","1","null","null","arrowup","[0.325,0.675,0.15,0.85]","","",""
"sailing-trial","105","706413","0.0-11.0-70.0","","","","false","","","","","","","","","","1103.7000000178814","","366","","1","0","arrowleft","0","arrowright","[0.325,0.675,0.15,0.85]","","",""
"sailing-trial","106","710813","0.0-11.0-71.0","","","","false","","","","","","","","","","null","","2073.7000000178814","","1","0","null","null","arrowup","[0.325,0.675,0.15,0.85]","","",""
"sailing-trial","107","715041","0.0-11.0-72.0","","","","false","","","","","","","","","","517.5","","276.59999999403954","","3","1","arrowright","1","arrowright","[0.325,0.675,0.15,0.85]","","",""
"sailing-trial","108","719920","0.0-11.0-73.0","","","","false","","","","","","","","","","null","","2052.5","","0","1","null","null","arrowup","[0.325,0.675,0.15,0.85]","","",""
"sailing-trial","109","724351","0.0-11.0-74.0","","","","false","","","","","","","","","","714.3000000119209","","613.6000000238419","","2","0","arrowright","1","arrowleft","[0.15,0.85,0.325,0.675]","","",""
"sailing-trial","110","727717","0.0-11.0-75.0","","","","false","","","","","","","","","","null","","1697.5","","3","0","null","null","arrowup","[0.15,0.85,0.325,0.675]","","",""
"sailing-trial","111","731617","0.0-11.0-76.0","","","","false","","","","","","","","","","514.9000000059605","","518.5","","0","0","arrowleft","0","arrowleft","[0.15,0.85,0.325,0.675]","","",""
"sailing-trial","112","734645","0.0-11.0-77.0","","","","false","","","","","","","","","","null","","1312.800000011921","","0","0","null","null","arrowup","[0.15,0.85,0.325,0.675]","","",""
"sailing-trial","113","739052","0.0-11.0-78.0","","","","false","","","","","","","","","","536","","67.19999998807907","","1","1","arrowleft","0","arrowright","[0.15,0.85,0.325,0.675]","","",""
"sailing-trial","114","745683","0.0-11.0-79.0","","","","false","","","","","","","","","","null","","5291.600000023842","","2","0","null","null","arrowup","[0.15,0.85,0.325,0.675]","","",""
"sailing-trial","115","750457","0.0-11.0-80.0","","","","false","","","","","","","","","","1009.0999999940395","","229.5","","3","1","arrowright","1","arrowright","[0.15,0.85,0.325,0.675]","","",""
"sailing-trial","116","755770","0.0-11.0-81.0","","","","false","","","","","","","","","","null","","2633.5","","1","1","null","null","arrowup","[0.15,0.85,0.325,0.675]","","",""
"sailing-trial","117","767925","0.0-11.0-82.0","","","","false","","","","","","","","","","3558.0999999940395","","216.5","","1","1","arrowleft","0","arrowright","[0.15,0.85,0.325,0.675]","","",""
"sailing-trial","118","771223","0.0-11.0-83.0","","","","false","","","","","","","","","","null","","1305.4000000059605","","2","1","null","null","arrowup","[0.15,0.85,0.325,0.675]","","",""
"sailing-trial","119","775900","0.0-11.0-84.0","","","","false","","","","","","","","","","872.5999999940395","","166","","1","1","arrowleft","0","arrowright","[0.15,0.85,0.325,0.675]","","",""
"sailing-trial","120","781479","0.0-11.0-85.0","","","","false","","","","","","","","","","null","","3186.199999988079","","1","1","null","null","arrowup","[0.15,0.85,0.325,0.675]","","",""
"sailing-trial","121","785175","0.0-11.0-86.0","","","","false","","","","","","","","","","602.5","","298.2000000178814","","0","0","arrowleft","0","arrowleft","[0.15,0.85,0.325,0.675]","","",""
"sailing-trial","122","788287","0.0-11.0-87.0","","","","false","","","","","","","","","","null","","1326.7999999821186","","3","1","null","null","arrowup","[0.15,0.85,0.325,0.675]","","",""
"sailing-trial","123","792302","0.0-11.0-88.0","","","","false","","","","","","","","","","648.5","","22.400000005960464","","3","1","arrowright","1","arrowright","[0.15,0.85,0.325,0.675]","","",""
"sailing-trial","124","795701","0.0-11.0-89.0","","","","false","","","","","","","","","","null","","1149.800000011921","","1","1","null","null","arrowup","[0.15,0.85,0.325,0.675]","","",""
"sailing-trial","125","800667","0.0-11.0-90.0","","","","false","","","","","","","","","","1557.7999999821186","","438.5","","0","0","arrowleft","0","arrowleft","[0.15,0.85,0.325,0.675]","","",""
"sailing-trial","126","803282","0.0-11.0-91.0","","","","false","","","","","","","","","","null","","1206.800000011921","","2","0","null","null","arrowup","[0.15,0.85,0.325,0.675]","","",""
"sailing-trial","127","807454","0.0-11.0-92.0","","","","false","","","","","","","","","","504.2000000178814","","335.7000000178814","","1","1","arrowleft","0","arrowright","[0.15,0.85,0.325,0.675]","","",""
"sailing-trial","128","813216","0.0-11.0-93.0","","","","false","","","","","","","","","","null","","3594.2999999821186","","3","1","null","null","arrowup","[0.15,0.85,0.325,0.675]","","",""
"sailing-trial","129","818052","0.0-11.0-94.0","","","","false","","","","","","","","","","1371.9000000059605","","37.10000002384186","","2","0","arrowright","1","arrowleft","[0.325,0.675,0.15,0.85]","","",""
"sailing-trial","130","821773","0.0-11.0-95.0","","","","false","","","","","","","","","","null","","1464.800000011921","","0","1","null","null","arrowup","[0.325,0.675,0.15,0.85]","","",""
"sailing-trial","131","828050","0.0-11.0-96.0","","","","false","","","","","","","","","","794.9000000059605","","2129.199999988079","","3","1","arrowright","1","arrowright","[0.325,0.675,0.15,0.85]","","",""
"sailing-trial","132","831199","0.0-11.0-97.0","","","","false","","","","","","","","","","null","","1265.5","","1","1","null","null","arrowup","[0.325,0.675,0.15,0.85]","","",""
"sailing-trial","133","835711","0.0-11.0-98.0","","","","false","","","","","","","","","","1059.7999999821186","","247.40000000596046","","3","1","arrowright","1","arrowright","[0.325,0.675,0.15,0.85]","","",""
"sailing-trial","134","838383","0.0-11.0-99.0","","","","false","","","","","","","","","","null","","881.5","","2","0","null","null","arrowup","[0.325,0.675,0.15,0.85]","","",""
"sailing-trial","135","842605","0.0-11.0-100.0","","","","false","","","","","","","","","","627.3000000119209","","246","","1","1","arrowleft","0","arrowright","[0.325,0.675,0.15,0.85]","","",""
"sailing-trial","136","845613","0.0-11.0-101.0","","","","false","","","","","","","","","","null","","1422.8999999761581","","1","0","null","null","arrowup","[0.325,0.675,0.15,0.85]","","",""
"sailing-trial","137","849783","0.0-11.0-102.0","","","","false","","","","","","","","","","547.8000000119209","","239.59999999403954","","3","1","arrowright","1","arrowright","[0.325,0.675,0.15,0.85]","","",""
"sailing-trial","138","853679","0.0-11.0-103.0","","","","false","","","","","","","","","","null","","1422.5","","3","1","null","null","arrowup","[0.325,0.675,0.15,0.85]","","",""
"sailing-trial","139","859477","0.0-11.0-104.0","","","","false","","","","","","","","","","2654.199999988079","","345.5","","2","0","arrowright","1","arrowleft","[0.325,0.675,0.15,0.85]","","",""
"sailing-trial","140","863918","0.0-11.0-105.0","","","","false","","","","","","","","","","null","","1783.5999999940395","","1","1","null","null","arrowup","[0.325,0.675,0.15,0.85]","","",""
"sailing-trial","141","869160","0.0-11.0-106.0","","","","false","","","","","","","","","","2139.0999999940395","","315","","2","0","arrowright","1","arrowleft","[0.325,0.675,0.15,0.85]","","",""
"sailing-trial","142","878758","0.0-11.0-107.0","","","","false","","","","","","","","","","null","","6593.9000000059605","","1","0","null","null","arrowup","[0.325,0.675,0.15,0.85]","","",""
"sailing-trial","143","886947","0.0-11.0-108.0","","","","false","","","","","","","","","","4180.5","","219.2000000178814","","1","1","arrowleft","0","arrowright","[0.325,0.675,0.15,0.85]","","",""
"sailing-trial","144","893007","0.0-11.0-109.0","","","","false","","","","","","","","","","null","","3390.699999988079","","3","1","null","null","arrowup","[0.325,0.675,0.15,0.85]","","",""
"sailing-trial","145","896919","0.0-11.0-110.0","","","","false","","","","","","","","","","378.2999999821186","","209.60000002384186","","1","1","arrowleft","0","arrowright","[0.325,0.675,0.15,0.85]","","",""
"sailing-trial","146","901617","0.0-11.0-111.0","","","","false","","","","","","","","","","null","","2806.4000000059605","","3","1","null","null","arrowup","[0.325,0.675,0.15,0.85]","","",""
"sailing-trial","147","905638","0.0-11.0-112.0","","","","false","","","","","","","","","","1268.5","","364.30000001192093","","1","0","arrowleft","0","arrowright","[0.85,0.15,0.675,0.325]","","",""
"sailing-trial","148","908677","0.0-11.0-113.0","","","","false","","","","","","","","","","null","","1260.699999988079","","0","1","null","null","arrowup","[0.85,0.15,0.675,0.325]","","",""
"sailing-trial","149","915220","0.0-11.0-114.0","","","","false","","","","","","","","","","1408.6000000238419","","117.5","","2","1","arrowright","1","arrowleft","[0.85,0.15,0.675,0.325]","","",""
"sailing-trial","150","918103","0.0-11.0-115.0","","","","false","","","","","","","","","","null","","1244.199999988079","","2","0","null","null","arrowup","[0.85,0.15,0.675,0.325]","","",""
"sailing-trial","151","922911","0.0-11.0-116.0","","","","false","","","","","","","","","","1911.0999999940395","","32.19999998807907","","3","0","arrowright","1","arrowright","[0.85,0.15,0.675,0.325]","","",""
"sailing-trial","152","925910","0.0-11.0-117.0","","","","false","","","","","","","","","","null","","1126","","0","1","null","null","arrowup","[0.85,0.15,0.675,0.325]","","",""
"sailing-trial","153","930110","0.0-11.0-118.0","","","","false","","","","","","","","","","859.0999999940395","","455.7000000178814","","3","0","arrowright","1","arrowright","[0.85,0.15,0.675,0.325]","","",""
"sailing-trial","154","934700","0.0-11.0-119.0","","","","false","","","","","","","","","","null","","1200","","0","1","null","null","arrowup","[0.85,0.15,0.675,0.325]","","",""
"sailing-trial","155","939414","0.0-11.0-120.0","","","","false","","","","","","","","","","1153.2000000178814","","19.5","","0","1","arrowleft","0","arrowleft","[0.85,0.15,0.675,0.325]","","",""
"sailing-trial","156","944369","0.0-11.0-121.0","","","","false","","","","","","","","","","null","","2761.300000011921","","1","0","null","null","arrowup","[0.85,0.15,0.675,0.325]","","",""
"sailing-trial","157","949105","0.0-11.0-122.0","","","","false","","","","","","","","","","682.2999999821186","","617.7000000178814","","2","1","arrowright","1","arrowleft","[0.85,0.15,0.675,0.325]","","",""
"sailing-trial","158","953334","0.0-11.0-123.0","","","","false","","","","","","","","","","null","","1850.1000000238419","","3","1","null","null","arrowup","[0.85,0.15,0.675,0.325]","","",""
"sailing-trial","159","957829","0.0-11.0-124.0","","","","false","","","","","","","","","","544.4000000059605","","17.200000017881393","","2","1","arrowright","1","arrowleft","[0.85,0.15,0.675,0.325]","","",""
"sailing-trial","160","961192","0.0-11.0-125.0","","","","false","","","","","","","","","","null","","1659.3999999761581","","2","1","null","null","arrowup","[0.85,0.15,0.675,0.325]","","",""
"sailing-trial","161","965456","0.0-11.0-126.0","","","","false","","","","","","","","","","657.8000000119209","","312.40000000596046","","1","1","arrowleft","0","arrowright","[0.85,0.15,0.675,0.325]","","",""
"sailing-trial","162","968446","0.0-11.0-127.0","","","","false","","","","","","","","","","null","","1198.0999999940395","","0","0","null","null","arrowup","[0.85,0.15,0.675,0.325]","","",""
"sailing-trial","163","972017","0.0-11.0-128.0","","","","false","","","","","","","","","","577.8999999761581","","106","","1","0","arrowleft","0","arrowright","[0.85,0.15,0.675,0.325]","","",""
"sailing-trial","164","975429","0.0-11.0-129.0","","","","false","","","","","","","","","","null","","1280.0999999940395","","3","1","null","null","arrowup","[0.85,0.15,0.675,0.325]","","",""
"sailing-trial","165","979494","0.0-11.0-130.0","","","","false","","","","","","","","","","558.5999999940395","","292","","1","0","arrowleft","0","arrowright","[0.675,0.325,0.85,0.15]","","",""
"sailing-trial","166","983066","0.0-11.0-131.0","","","","false","","","","","","","","","","null","","1453.5999999940395","","3","0","null","null","arrowup","[0.675,0.325,0.85,0.15]","","",""
"sailing-trial","167","987366","0.0-11.0-132.0","","","","false","","","","","","","","","","830.5","","265.59999999403954","","3","0","arrowright","1","arrowright","[0.675,0.325,0.85,0.15]","","",""
"sailing-trial","168","991569","0.0-11.0-133.0","","","","false","","","","","","","","","","null","","2760.7000000178814","","1","0","null","null","arrowup","[0.675,0.325,0.85,0.15]","","",""
"sailing-trial","169","997627","0.0-11.0-134.0","","","","false","","","","","","","","","","2008.9000000059605","","310","","2","1","arrowright","1","arrowleft","[0.675,0.325,0.85,0.15]","","",""
"sailing-trial","170","1002522","0.0-11.0-135.0","","","","false","","","","","","","","","","null","","2237.5999999940395","","3","1","null","null","arrowup","[0.675,0.325,0.85,0.15]","","",""
"sailing-trial","171","1014026","0.0-11.0-136.0","","","","false","","","","","","","","","","1371.2000000178814","","6628.5999999940395","","2","1","arrowright","1","arrowleft","[0.675,0.325,0.85,0.15]","","",""
"sailing-trial","172","1019338","0.0-11.0-137.0","","","","false","","","","","","","","","","null","","3316.5999999940395","","0","1","null","null","arrowup","[0.675,0.325,0.85,0.15]","","",""
"sailing-trial","173","1025184","0.0-11.0-138.0","","","","false","","","","","","","","","","2423","","252.2999999821186","","0","1","arrowleft","0","arrowleft","[0.675,0.325,0.85,0.15]","","",""
"sailing-trial","174","1028430","0.0-11.0-139.0","","","","false","","","","","","","","","","null","","1639.7999999821186","","0","0","null","null","arrowup","[0.675,0.325,0.85,0.15]","","",""
"sailing-trial","175","1031999","0.0-11.0-140.0","","","","false","","","","","","","","","","671.9000000059605","","44.5","","3","0","arrowright","1","arrowright","[0.675,0.325,0.85,0.15]","","",""
"sailing-trial","176","1035458","0.0-11.0-141.0","","","","false","","","","","","","","","","null","","2280.800000011921","","1","0","null","null","arrowup","[0.675,0.325,0.85,0.15]","","",""
"sailing-trial","177","1040425","0.0-11.0-142.0","","","","false","","","","","","","","","","1321","","833.4000000059605","","3","0","arrowright","1","arrowright","[0.675,0.325,0.85,0.15]","","",""
"sailing-trial","178","1044874","0.0-11.0-143.0","","","","false","","","","","","","","","","null","","2582","","0","0","null","null","arrowup","[0.675,0.325,0.85,0.15]","","",""
"sailing-trial","179","1049311","0.0-11.0-144.0","","","","false","","","","","","","","","","619.2999999821186","","128.2000000178814","","0","1","arrowleft","0","arrowleft","[0.675,0.325,0.85,0.15]","","",""
"sailing-trial","180","1055003","0.0-11.0-145.0","","","","false","","","","","","","","","","null","","3677","","1","0","null","null","arrowup","[0.675,0.325,0.85,0.15]","","",""
"sailing-trial","181","1063179","0.0-11.0-146.0","","","","false","","","","","","","","","","4279.199999988079","","95.10000002384186","","0","1","arrowleft","0","arrowleft","[0.675,0.325,0.85,0.15]","","",""
"sailing-trial","182","1067909","0.0-11.0-147.0","","","","false","","","","","","","","","","null","","2084.5","","0","1","null","null","arrowup","[0.675,0.325,0.85,0.15]","","",""
"sailing-trial","183","1073272","0.0-11.0-148.0","","","","false","","","","","","","","","","1224.6000000238419","","928.8000000119209","","3","0","arrowright","1","arrowright","[0.675,0.325,0.85,0.15]","","",""
"sailing-trial","184","1081196","0.0-11.0-149.0","","","","false","","","","","","","","","","null","","6095.0999999940395","","3","1","null","null","arrowup","[0.675,0.325,0.85,0.15]","","",""
"sailing-trial","185","1086513","0.0-11.0-150.0","","","","false","","","","","","","","","","1978.699999988079","","400.5","","3","0","arrowright","1","arrowright","[0.85,0.15,0.675,0.325]","","",""
"sailing-trial","186","1089097","0.0-11.0-151.0","","","","false","","","","","","","","","","null","","1221.4000000059605","","0","0","null","null","arrowup","[0.85,0.15,0.675,0.325]","","",""
"sailing-trial","187","1093601","0.0-11.0-152.0","","","","false","","","","","","","","","","880.3000000119209","","297.19999998807907","","2","1","arrowright","1","arrowleft","[0.85,0.15,0.675,0.325]","","",""
"sailing-trial","188","1096932","0.0-11.0-153.0","","","","false","","","","","","","","","","null","","1760.8999999761581","","0","1","null","null","arrowup","[0.85,0.15,0.675,0.325]","","",""
"sailing-trial","189","1101417","0.0-11.0-154.0","","","","false","","","","","","","","","","439.5","","600.1999999880791","","3","0","arrowright","1","arrowright","[0.85,0.15,0.675,0.325]","","",""
"sailing-trial","190","1107989","0.0-11.0-155.0","","","","false","","","","","","","","","","null","","4668.5","","0","1","null","null","arrowup","[0.85,0.15,0.675,0.325]","","",""
"sailing-trial","191","1113933","0.0-11.0-156.0","","","","false","","","","","","","","","","838.6999999880791","","1551","","2","1","arrowright","1","arrowleft","[0.85,0.15,0.675,0.325]","","",""
"sailing-trial","192","1117464","0.0-11.0-157.0","","","","false","","","","","","","","","","null","","1779.300000011921","","3","1","null","null","arrowup","[0.85,0.15,0.675,0.325]","","",""
"sailing-trial","193","1122186","0.0-11.0-158.0","","","","false","","","","","","","","","","643.9000000059605","","331.59999999403954","","1","0","arrowleft","0","arrowright","[0.85,0.15,0.675,0.325]","","",""
"sailing-trial","194","1125338","0.0-11.0-159.0","","","","false","","","","","","","","","","null","","1524.3999999761581","","0","1","null","null","arrowup","[0.85,0.15,0.675,0.325]","","",""
"sailing-trial","195","1129352","0.0-11.0-160.0","","","","false","","","","","","","","","","640.5","","7.200000017881393","","3","1","arrowright","1","arrowright","[0.85,0.15,0.675,0.325]","","",""
"sailing-trial","196","1135895","0.0-11.0-161.0","","","","false","","","","","","","","","","null","","4604.600000023842","","3","1","null","null","arrowup","[0.85,0.15,0.675,0.325]","","",""
"sailing-trial","197","1140209","0.0-11.0-162.0","","","","false","","","","","","","","","","1178.800000011921","","323.7000000178814","","2","1","arrowright","1","arrowleft","[0.85,0.15,0.675,0.325]","","",""
"sailing-trial","198","1142921","0.0-11.0-163.0","","","","false","","","","","","","","","","null","","1088","","2","0","null","null","arrowup","[0.85,0.15,0.675,0.325]","","",""
"sailing-trial","199","1146818","0.0-11.0-164.0","","","","false","","","","","","","","","","898","","222.30000001192093","","1","0","arrowleft","0","arrowright","[0.85,0.15,0.675,0.325]","","",""
"sailing-trial","200","1149415","0.0-11.0-165.0","","","","false","","","","","","","","","","null","","1191.4000000059605","","3","0","null","null","arrowup","[0.85,0.15,0.675,0.325]","","",""
"sailing-trial","201","1154843","0.0-11.0-166.0","","","","false","","","","","","","","","","1392.5","","153.80000001192093","","2","1","arrowright","1","arrowleft","[0.675,0.325,0.85,0.15]","","",""
"sailing-trial","202","1158058","0.0-11.0-167.0","","","","false","","","","","","","","","","null","","1376.5","","1","1","null","null","arrowup","[0.675,0.325,0.85,0.15]","","",""
"sailing-trial","203","1162437","0.0-11.0-168.0","","","","false","","","","","","","","","","981.2999999821186","","130.59999999403954","","1","1","arrowleft","0","arrowright","[0.675,0.325,0.85,0.15]","","",""
"sailing-trial","204","1165060","0.0-11.0-169.0","","","","false","","","","","","","","","","null","","1268.2999999821186","","2","0","null","null","arrowup","[0.675,0.325,0.85,0.15]","","",""
"sailing-trial","205","1169765","0.0-11.0-170.0","","","","false","","","","","","","","","","720.4000000059605","","249.19999998807907","","0","1","arrowleft","0","arrowleft","[0.675,0.325,0.85,0.15]","","",""
"sailing-trial","206","1173181","0.0-11.0-171.0","","","","false","","","","","","","","","","null","","1691","","0","0","null","null","arrowup","[0.675,0.325,0.85,0.15]","","",""
"sailing-trial","207","1176842","0.0-11.0-172.0","","","","false","","","","","","","","","","554.6000000238419","","306.2999999821186","","3","0","arrowright","1","arrowright","[0.675,0.325,0.85,0.15]","","",""
"sailing-trial","208","1180015","0.0-11.0-173.0","","","","false","","","","","","","","","","null","","1352.300000011921","","3","0","null","null","arrowup","[0.675,0.325,0.85,0.15]","","",""
"sailing-trial","209","1184834","0.0-11.0-174.0","","","","false","","","","","","","","","","1025.800000011921","","27.600000023841858","","2","1","arrowright","1","arrowleft","[0.675,0.325,0.85,0.15]","","",""
"sailing-trial","210","1189059","0.0-11.0-175.0","","","","false","","","","","","","","","","null","","2917","","3","0","null","null","arrowup","[0.675,0.325,0.85,0.15]","","",""
"sailing-trial","211","1193322","0.0-11.0-176.0","","","","false","","","","","","","","","","1061.4000000059605","","224.7000000178814","","3","0","arrowright","1","arrowright","[0.675,0.325,0.85,0.15]","","",""
"sailing-trial","212","1197204","0.0-11.0-177.0","","","","false","","","","","","","","","","null","","1957.8999999761581","","2","1","null","null","arrowup","[0.675,0.325,0.85,0.15]","","",""
"sailing-trial","213","1200474","0.0-11.0-178.0","","","","false","","","","","","","","","","418.59999999403954","","125.69999998807907","","1","0","arrowleft","0","arrowright","[0.675,0.325,0.85,0.15]","","",""
"sailing-trial","214","1203488","0.0-11.0-179.0","","","","false","","","","","","","","","","null","","1477","","3","0","null","null","arrowup","[0.675,0.325,0.85,0.15]","","",""
"sailing-trial","215","1209681","0.0-11.0-180.0","","","","false","","","","","","","","","","1115.0999999940395","","1034.9000000059605","","3","0","arrowright","1","arrowright","[0.675,0.325,0.85,0.15]","","",""
"sailing-trial","216","1213497","0.0-11.0-181.0","","","","false","","","","","","","","","","null","","1776.5999999940395","","3","0","null","null","arrowup","[0.675,0.325,0.85,0.15]","","",""
"sailing-trial","217","1220903","0.0-11.0-182.0","","","","false","","","","","","","","","","4150.5999999940395","","232.30000001192093","","0","0","arrowleft","0","arrowleft","[0.675,0.325,0.85,0.15]","","",""
"sailing-trial","218","1224561","0.0-11.0-183.0","","","","false","","","","","","","","","","null","","1312.4000000059605","","2","1","null","null","arrowup","[0.675,0.325,0.85,0.15]","","",""
"sailing-trial","219","1230776","0.0-11.0-184.0","","","","false","","","","","","","","","","1762.0999999940395","","385.19999998807907","","3","0","arrowright","1","arrowright","[0.325,0.675,0.15,0.85]","","",""
"sailing-trial","220","1235868","0.0-11.0-185.0","","","","false","","","","","","","","","","null","","2468","","1","1","null","null","arrowup","[0.325,0.675,0.15,0.85]","","",""
"sailing-trial","221","1241481","0.0-11.0-186.0","","","","false","","","","","","","","","","2523.9000000059605","","206.40000000596046","","1","0","arrowleft","0","arrowright","[0.325,0.675,0.15,0.85]","","",""
"sailing-trial","222","1246042","0.0-11.0-187.0","","","","false","","","","","","","","","","null","","2049.5","","1","1","null","null","arrowup","[0.325,0.675,0.15,0.85]","","",""
"sailing-trial","223","1250456","0.0-11.0-188.0","","","","false","","","","","","","","","","1267.699999988079","","426.5","","0","0","arrowleft","0","arrowleft","[0.325,0.675,0.15,0.85]","","",""
"sailing-trial","224","1252840","0.0-11.0-189.0","","","","false","","","","","","","","","","null","","1257.5999999940395","","2","0","null","null","arrowup","[0.325,0.675,0.15,0.85]","","",""
"sailing-trial","225","1257530","0.0-11.0-190.0","","","","false","","","","","","","","","","1086.4000000059605","","242.2000000178814","","3","1","arrowright","1","arrowright","[0.325,0.675,0.15,0.85]","","",""
"sailing-trial","226","1261060","0.0-11.0-191.0","","","","false","","","","","","","","","","null","","983.5999999940395","","1","1","null","null","arrowup","[0.325,0.675,0.15,0.85]","","",""
"sailing-trial","227","1264531","0.0-11.0-192.0","","","","false","","","","","","","","","","497.69999998807907","","342.2000000178814","","0","0","arrowleft","0","arrowleft","[0.325,0.675,0.15,0.85]","","",""
"sailing-trial","228","1267770","0.0-11.0-193.0","","","","false","","","","","","","","","","null","","1138.5999999940395","","3","1","null","null","arrowup","[0.325,0.675,0.15,0.85]","","",""
"sailing-trial","229","1273400","0.0-11.0-194.0","","","","false","","","","","","","","","","1490","","433.09999999403954","","2","1","arrowright","1","arrowleft","[0.325,0.675,0.15,0.85]","","",""
"sailing-trial","230","1276962","0.0-11.0-195.0","","","","false","","","","","","","","","","null","","1138.1000000238419","","3","1","null","null","arrowup","[0.325,0.675,0.15,0.85]","","",""
"sailing-trial","231","1282274","0.0-11.0-196.0","","","","false","","","","","","","","","","1321.5999999940395","","299.19999998807907","","3","1","arrowright","1","arrowright","[0.325,0.675,0.15,0.85]","","",""
"sailing-trial","232","1285370","0.0-11.0-197.0","","","","false","","","","","","","","","","null","","831.9000000059605","","1","1","null","null","arrowup","[0.325,0.675,0.15,0.85]","","",""
"sailing-trial","233","1288752","0.0-11.0-198.0","","","","false","","","","","","","","","","61.400000005960464","","472.10000002384186","","1","1","arrowleft","0","arrowright","[0.325,0.675,0.15,0.85]","","",""
"sailing-trial","234","1292115","0.0-11.0-199.0","","","","false","","","","","","","","","","null","","1771.0999999940395","","1","1","null","null","arrowup","[0.325,0.675,0.15,0.85]","","",""
"sailing-trial","235","1296815","0.0-11.0-200.0","","","","false","","","","","","","","","","133","","504.09999999403954","","2","0","arrowright","1","arrowleft","[0.325,0.675,0.15,0.85]","","",""
"sailing-trial","236","1300092","0.0-11.0-201.0","","","","false","","","","","","","","","","null","","1653.199999988079","","1","1","null","null","arrowup","[0.325,0.675,0.15,0.85]","","",""
"sailing-trial","237","1303903","0.0-11.0-202.0","","","","false","","","","","","","","","","176.39999997615814","","310.19999998807907","","1","1","arrowleft","0","arrowright","[0.325,0.675,0.15,0.85]","","",""
"sailing-trial","238","1306326","0.0-11.0-203.0","","","","false","","","","","","","","","","null","","1365.4000000059605","","1","0","null","null","arrowup","[0.325,0.675,0.15,0.85]","","",""
"sailing-trial","239","1310365","0.0-11.0-204.0","","","","false","","","","","","","","","","550.0999999940395","","147.09999999403954","","1","1","arrowleft","0","arrowright","[0.325,0.675,0.15,0.85]","","",""
"sailing-trial","240","1314044","0.0-11.0-205.0","","","","false","","","","","","","","","","null","","1752.5999999940395","","3","1","null","null","arrowup","[0.325,0.675,0.15,0.85]","","",""
"sailing-trial","241","1321088","0.0-11.0-206.0","","","","false","","","","","","","","","","946","","62.69999998807907","","2","1","arrowright","1","arrowleft","[0.675,0.325,0.85,0.15]","","",""
"sailing-trial","242","1324283","0.0-11.0-207.0","","","","false","","","","","","","","","","null","","897","","0","1","null","null","arrowup","[0.675,0.325,0.85,0.15]","","",""
"sailing-trial","243","1328232","0.0-11.0-208.0","","","","false","","","","","","","","","","448.09999999403954","","98.7999999821186","","2","1","arrowright","1","arrowleft","[0.675,0.325,0.85,0.15]","","",""
"sailing-trial","244","1330907","0.0-11.0-209.0","","","","false","","","","","","","","","","null","","1607.3999999761581","","0","0","null","null","arrowup","[0.675,0.325,0.85,0.15]","","",""
"sailing-trial","245","1335664","0.0-11.0-210.0","","","","false","","","","","","","","","","682.4000000059605","","1330","","1","0","arrowleft","0","arrowright","[0.675,0.325,0.85,0.15]","","",""
"sailing-trial","246","1339519","0.0-11.0-211.0","","","","false","","","","","","","","","","null","","2239","","2","1","null","null","arrowup","[0.675,0.325,0.85,0.15]","","",""
"sailing-trial","247","1343751","0.0-11.0-212.0","","","","false","","","","","","","","","","1244.2999999821186","","207.30000001192093","","3","0","arrowright","1","arrowright","[0.675,0.325,0.85,0.15]","","",""
"sailing-trial","248","1349810","0.0-11.0-213.0","","","","false","","","","","","","","","","null","","3805.9000000059605","","1","1","null","null","arrowup","[0.675,0.325,0.85,0.15]","","",""
"sailing-trial","249","1354823","0.0-11.0-214.0","","","","false","","","","","","","","","","1393","","23.5","","1","0","arrowleft","0","arrowright","[0.675,0.325,0.85,0.15]","","",""
"sailing-trial","250","1358671","0.0-11.0-215.0","","","","false","","","","","","","","","","null","","1277.7999999821186","","1","0","null","null","arrowup","[0.675,0.325,0.85,0.15]","","",""
"sailing-trial","251","1362776","0.0-11.0-216.0","","","","false","","","","","","","","","","1104.800000011921","","151.80000001192093","","2","0","arrowright","1","arrowleft","[0.675,0.325,0.85,0.15]","","",""
"sailing-trial","252","1366819","0.0-11.0-217.0","","","","false","","","","","","","","","","null","","1713.2000000178814","","3","0","null","null","arrowup","[0.675,0.325,0.85,0.15]","","",""
"sailing-trial","253","1371475","0.0-11.0-218.0","","","","false","","","","","","","","","","797.8000000119209","","149.40000000596046","","2","1","arrowright","1","arrowleft","[0.675,0.325,0.85,0.15]","","",""
"sailing-trial","254","1377634","0.0-11.0-219.0","","","","false","","","","","","","","","","null","","1104","","0","1","null","null","arrowup","[0.675,0.325,0.85,0.15]","","",""
"sailing-trial","255","1384489","0.0-11.0-220.0","","","","false","","","","","","","","","","2200.300000011921","","820.1000000238419","","0","0","arrowleft","0","arrowleft","[0.675,0.325,0.85,0.15]","","",""
"sailing-trial","256","1389091","0.0-11.0-221.0","","","","false","","","","","","","","","","null","","2846","","2","1","null","null","arrowup","[0.675,0.325,0.85,0.15]","","",""
"sailing-trial","257","1394019","0.0-11.0-222.0","","","","false","","","","","","","","","","1492.4000000059605","","174.69999998807907","","3","0","arrowright","1","arrowright","[0.85,0.15,0.675,0.325]","","",""
"sailing-trial","258","1400023","0.0-11.0-223.0","","","","false","","","","","","","","","","null","","4081.5","","3","0","null","null","arrowup","[0.85,0.15,0.675,0.325]","","",""
"sailing-trial","259","1404411","0.0-11.0-224.0","","","","false","","","","","","","","","","740.8000000119209","","336.39999997615814","","2","1","arrowright","1","arrowleft","[0.85,0.15,0.675,0.325]","","",""
"sailing-trial","260","1407639","0.0-11.0-225.0","","","","false","","","","","","","","","","null","","1929.0999999940395","","1","0","null","null","arrowup","[0.85,0.15,0.675,0.325]","","",""
"sailing-trial","261","1412985","0.0-11.0-226.0","","","","false","","","","","","","","","","1658.5","","296.7000000178814","","2","1","arrowright","1","arrowleft","[0.85,0.15,0.675,0.325]","","",""
"sailing-trial","262","1418442","0.0-11.0-227.0","","","","false","","","","","","","","","","null","","4147.100000023842","","3","0","null","null","arrowup","[0.85,0.15,0.675,0.325]","","",""
"sailing-trial","263","1422754","0.0-11.0-228.0","","","","false","","","","","","","","","","1272.300000011921","","277","","3","0","arrowright","1","arrowright","[0.85,0.15,0.675,0.325]","","",""
"sailing-trial","264","1426039","0.0-11.0-229.0","","","","false","","","","","","","","","","null","","1570.6000000238419","","3","1","null","null","arrowup","[0.85,0.15,0.675,0.325]","","",""
"sailing-trial","265","1429427","0.0-11.0-230.0","","","","false","","","","","","","","","","391","","38.400000005960464","","1","0","arrowleft","0","arrowright","[0.85,0.15,0.675,0.325]","","",""
"sailing-trial","266","1434714","0.0-11.0-231.0","","","","false","","","","","","","","","","null","","4019.300000011921","","3","0","null","null","arrowup","[0.85,0.15,0.675,0.325]","","",""
"sailing-trial","267","1440178","0.0-11.0-232.0","","","","false","","","","","","","","","","1278.6000000238419","","775.5999999940395","","1","0","arrowleft","0","arrowright","[0.85,0.15,0.675,0.325]","","",""
"sailing-trial","268","1445172","0.0-11.0-233.0","","","","false","","","","","","","","","","null","","2137","","2","1","null","null","arrowup","[0.85,0.15,0.675,0.325]","","",""
"sailing-trial","269","1448837","0.0-11.0-234.0","","","","false","","","","","","","","","","722.3000000119209","","15","","2","0","arrowright","1","arrowleft","[0.85,0.15,0.675,0.325]","","",""
"sailing-trial","270","1454015","0.0-11.0-235.0","","","","false","","","","","","","","","","null","","3118.4000000059605","","0","1","null","null","arrowup","[0.85,0.15,0.675,0.325]","","",""
"sailing-trial","271","1458443","0.0-11.0-236.0","","","","false","","","","","","","","","","759.6000000238419","","175.09999999403954","","2","1","arrowright","1","arrowleft","[0.85,0.15,0.675,0.325]","","",""
"sailing-trial","272","1462488","0.0-11.0-237.0","","","","false","","","","","","","","","","null","","1898.699999988079","","2","1","null","null","arrowup","[0.85,0.15,0.675,0.325]","","",""
"sailing-trial","273","1466525","0.0-11.0-238.0","","","","false","","","","","","","","","","540.6000000238419","","38.19999998807907","","1","0","arrowleft","0","arrowright","[0.85,0.15,0.675,0.325]","","",""
"sailing-trial","274","1469899","0.0-11.0-239.0","","","","false","","","","","","","","","","null","","1725.300000011921","","0","1","null","null","arrowup","[0.85,0.15,0.675,0.325]","","",""
"sailing-trial","275","1473700","0.0-11.0-240.0","","","","false","","","","","","","","","","519.6999999880791","","225.30000001192093","","3","0","arrowright","1","arrowright","[0.85,0.15,0.675,0.325]","","",""
"sailing-trial","276","1477226","0.0-11.0-241.0","","","","false","","","","","","","","","","null","","1225","","0","1","null","null","arrowup","[0.85,0.15,0.675,0.325]","","",""
"sailing-trial","277","1480865","0.0-11.0-242.0","","","","false","","","","","","","","","","544.0999999940395","","279.5","","3","0","arrowright","1","arrowright","[0.675,0.325,0.85,0.15]","","",""
"sailing-trial","278","1486571","0.0-11.0-243.0","","","","false","","","","","","","","","","null","","4503.4000000059605","","3","0","null","null","arrowup","[0.675,0.325,0.85,0.15]","","",""
"sailing-trial","279","1491712","0.0-11.0-244.0","","","","false","","","","","","","","","","1771.4000000059605","","87.2000000178814","","2","1","arrowright","1","arrowleft","[0.675,0.325,0.85,0.15]","","",""
"sailing-trial","280","1494034","0.0-11.0-245.0","","","","false","","","","","","","","","","null","","1010.2999999821186","","3","0","null","null","arrowup","[0.675,0.325,0.85,0.15]","","",""
"sailing-trial","281","1498804","0.0-11.0-246.0","","","","false","","","","","","","","","","650.3000000119209","","802.7999999821186","","1","1","arrowleft","0","arrowright","[0.675,0.325,0.85,0.15]","","",""
"sailing-trial","282","1501736","0.0-11.0-247.0","","","","false","","","","","","","","","","null","","1329.199999988079","","2","1","null","null","arrowup","[0.675,0.325,0.85,0.15]","","",""
"sailing-trial","283","1504853","0.0-11.0-248.0","","","","false","","","","","","","","","","409.19999998807907","","18.30000001192093","","0","0","arrowleft","0","arrowleft","[0.675,0.325,0.85,0.15]","","",""
"sailing-trial","284","1509343","0.0-11.0-249.0","","","","false","","","","","","","","","","null","","1707","","0","1","null","null","arrowup","[0.675,0.325,0.85,0.15]","","",""
"sailing-trial","285","1513511","0.0-11.0-250.0","","","","false","","","","","","","","","","530.1999999880791","","327.90000000596046","","3","0","arrowright","1","arrowright","[0.675,0.325,0.85,0.15]","","",""
"sailing-trial","286","1518019","0.0-11.0-251.0","","","","false","","","","","","","","","","null","","2561.2999999821186","","1","0","null","null","arrowup","[0.675,0.325,0.85,0.15]","","",""
"sailing-trial","287","1525130","0.0-11.0-252.0","","","","false","","","","","","","","","","2488.7999999821186","","139.60000002384186","","2","1","arrowright","1","arrowleft","[0.675,0.325,0.85,0.15]","","",""
"sailing-trial","288","1534050","0.0-11.0-253.0","","","","false","","","","","","","","","","null","","7130.899999976158","","0","0","null","null","arrowup","[0.675,0.325,0.85,0.15]","","",""
"sailing-trial","289","1542806","0.0-11.0-254.0","","","","false","","","","","","","","","","5530.699999988079","","356.39999997615814","","0","0","arrowleft","0","arrowleft","[0.675,0.325,0.85,0.15]","","",""
"sailing-trial","290","1551487","0.0-11.0-255.0","","","","false","","","","","","","","","","null","","6040.4000000059605","","2","1","null","null","arrowup","[0.675,0.325,0.85,0.15]","","",""
"sailing-trial","291","1555478","0.0-11.0-256.0","","","","false","","","","","","","","","","1111","","140","","3","0","arrowright","1","arrowright","[0.675,0.325,0.85,0.15]","","",""
"sailing-trial","292","1560497","0.0-11.0-257.0","","","","false","","","","","","","","","","null","","1632.7999999821186","","0","1","null","null","arrowup","[0.675,0.325,0.85,0.15]","","",""
"sailing-trial","293","1566284","0.0-11.0-258.0","","","","false","","","","","","","","","","1642.5","","346.30000001192093","","3","0","arrowright","1","arrowright","[0.675,0.325,0.85,0.15]","","",""
"sailing-trial","294","1575983","0.0-11.0-259.0","","","","false","","","","","","","","","","null","","7106","","2","1","null","null","arrowup","[0.675,0.325,0.85,0.15]","","",""
"sailing-trial","295","1586102","0.0-11.0-260.0","","","","false","","","","","","","","","","7103.800000011921","","280.5","","1","0","arrowleft","0","arrowright","[0.675,0.325,0.85,0.15]","","",""
"sailing-trial","296","1595480","0.0-11.0-261.0","","","","false","","","","","","","","","","null","","6697.699999988079","","0","1","null","null","arrowup","[0.675,0.325,0.85,0.15]","","",""
"sailing-trial","297","1599345","0.0-11.0-262.0","","","","false","","","","","","","","","","610.0999999940395","","529.6999999880791","","1","0","arrowleft","0","arrowright","[0.85,0.15,0.675,0.325]","","",""
"sailing-trial","298","1602402","0.0-11.0-263.0","","","","false","","","","","","","","","","null","","1978.5999999940395","","1","0","null","null","arrowup","[0.85,0.15,0.675,0.325]","","",""
"sailing-trial","299","1606195","0.0-11.0-264.0","","","","false","","","","","","","","","","820.7000000178814","","68","","3","0","arrowright","1","arrowright","[0.85,0.15,0.675,0.325]","","",""
"sailing-trial","300","1610215","0.0-11.0-265.0","","","","false","","","","","","","","","","null","","1775.300000011921","","2","0","null","null","arrowup","[0.85,0.15,0.675,0.325]","","",""
"sailing-trial","301","1614641","0.0-11.0-266.0","","","","false","","","","","","","","","","1016.8000000119209","","496.7000000178814","","2","0","arrowright","1","arrowleft","[0.85,0.15,0.675,0.325]","","",""
"sailing-trial","302","1616738","0.0-11.0-267.0","","","","false","","","","","","","","","","null","","905","","2","0","null","null","arrowup","[0.85,0.15,0.675,0.325]","","",""
"sailing-trial","303","1621056","0.0-11.0-268.0","","","","false","","","","","","","","","","798.5","","133.2999999821186","","0","1","arrowleft","0","arrowleft","[0.85,0.15,0.675,0.325]","","",""
"sailing-trial","304","1624681","0.0-11.0-269.0","","","","false","","","","","","","","","","null","","1906.7999999821186","","3","0","null","null","arrowup","[0.85,0.15,0.675,0.325]","","",""
"sailing-trial","305","1629316","0.0-11.0-270.0","","","","false","","","","","","","","","","731.2000000178814","","541.7000000178814","","1","1","arrowleft","0","arrowright","[0.85,0.15,0.675,0.325]","","",""
"sailing-trial","306","1633444","0.0-11.0-271.0","","","","false","","","","","","","","","","null","","1702.2999999821186","","0","1","null","null","arrowup","[0.85,0.15,0.675,0.325]","","",""
"sailing-trial","307","1637957","0.0-11.0-272.0","","","","false","","","","","","","","","","401.5","","790","","0","1","arrowleft","0","arrowleft","[0.85,0.15,0.675,0.325]","","",""
"sailing-trial","308","1641508","0.0-11.0-273.0","","","","false","","","","","","","","","","null","","1888.199999988079","","1","0","null","null","arrowup","[0.85,0.15,0.675,0.325]","","",""
"sailing-trial","309","1645500","0.0-11.0-274.0","","","","false","","","","","","","","","","744","","338.5","","3","0","arrowright","1","arrowright","[0.85,0.15,0.675,0.325]","","",""
"sailing-trial","310","1650580","0.0-11.0-275.0","","","","false","","","","","","","","","","null","","3183.300000011921","","1","0","null","null","arrowup","[0.85,0.15,0.675,0.325]","","",""
"sailing-trial","311","1655562","0.0-11.0-276.0","","","","false","","","","","","","","","","1331.300000011921","","821.8000000119209","","1","0","arrowleft","0","arrowright","[0.85,0.15,0.675,0.325]","","",""
"sailing-trial","312","1659221","0.0-11.0-277.0","","","","false","","","","","","","","","","null","","1653.800000011921","","1","1","null","null","arrowup","[0.85,0.15,0.675,0.325]","","",""
"sailing-trial","313","1663564","0.0-11.0-278.0","","","","false","","","","","","","","","","571.9000000059605","","358.5","","3","1","arrowright","1","arrowright","[0.85,0.15,0.675,0.325]","","",""
"sailing-trial","314","1666314","0.0-11.0-279.0","","","","false","","","","","","","","","","null","","1126","","3","1","null","null","arrowup","[0.85,0.15,0.675,0.325]","","",""
"sailing-trial","315","1670495","0.0-11.0-280.0","","","","false","","","","","","","","","","458.10000002384186","","126.19999998807907","","2","1","arrowright","1","arrowleft","[0.85,0.15,0.675,0.325]","","",""
"sailing-trial","316","1673126","0.0-11.0-281.0","","","","false","","","","","","","","","","null","","1531.8999999761581","","3","0","null","null","arrowup","[0.85,0.15,0.675,0.325]","","",""
"sailing-trial","317","1677120","0.0-11.0-282.0","","","","false","","","","","","","","","","502","","41.10000002384186","","0","1","arrowleft","0","arrowleft","[0.85,0.15,0.675,0.325]","","",""
"sailing-trial","318","1681118","0.0-11.0-283.0","","","","false","","","","","","","","","","null","","2864.4000000059605","","3","0","null","null","arrowup","[0.85,0.15,0.675,0.325]","","",""
"sailing-trial","319","1687111","0.0-11.0-284.0","","","","false","","","","","","","","","","1862.7999999821186","","496.69999998807907","","2","1","arrowright","1","arrowleft","[0.675,0.325,0.85,0.15]","","",""
"sailing-trial","320","1692190","0.0-11.0-285.0","","","","false","","","","","","","","","","null","","3430.9000000059605","","2","1","null","null","arrowup","[0.675,0.325,0.85,0.15]","","",""
"sailing-trial","321","1696234","0.0-11.0-286.0","","","","false","","","","","","","","","","682.3000000119209","","614.5999999940395","","1","0","arrowleft","0","arrowright","[0.675,0.325,0.85,0.15]","","",""
"sailing-trial","322","1699916","0.0-11.0-287.0","","","","false","","","","","","","","","","null","","2130.7999999821186","","3","1","null","null","arrowup","[0.675,0.325,0.85,0.15]","","",""
"sailing-trial","323","1704980","0.0-11.0-288.0","","","","false","","","","","","","","","","575.2999999821186","","456.2000000178814","","3","0","arrowright","1","arrowright","[0.675,0.325,0.85,0.15]","","",""
"sailing-trial","324","1708115","0.0-11.0-289.0","","","","false","","","","","","","","","","null","","1916.800000011921","","1","0","null","null","arrowup","[0.675,0.325,0.85,0.15]","","",""
"sailing-trial","325","1711782","0.0-11.0-290.0","","","","false","","","","","","","","","","828.5","","24.200000017881393","","1","0","arrowleft","0","arrowright","[0.675,0.325,0.85,0.15]","","",""
"sailing-trial","326","1716296","0.0-11.0-291.0","","","","false","","","","","","","","","","null","","3477.5999999940395","","1","0","null","null","arrowup","[0.675,0.325,0.85,0.15]","","",""
"sailing-trial","327","1721112","0.0-11.0-292.0","","","","false","","","","","","","","","","858.5999999940395","","635.4000000059605","","0","1","arrowleft","0","arrowleft","[0.675,0.325,0.85,0.15]","","",""
"sailing-trial","328","1725973","0.0-11.0-293.0","","","","false","","","","","","","","","","null","","1433.5999999940395","","2","1","null","null","arrowup","[0.675,0.325,0.85,0.15]","","",""
"sailing-trial","329","1730997","0.0-11.0-294.0","","","","false","","","","","","","","","","1715.5999999940395","","188.30000001192093","","3","0","arrowright","1","arrowright","[0.675,0.325,0.85,0.15]","","",""
"sailing-trial","330","1735379","0.0-11.0-295.0","","","","false","","","","","","","","","","null","","2435","","1","0","null","null","arrowup","[0.675,0.325,0.85,0.15]","","",""
"sailing-trial","331","1740527","0.0-11.0-296.0","","","","false","","","","","","","","","","1313.699999988079","","388.40000000596046","","0","1","arrowleft","0","arrowleft","[0.675,0.325,0.85,0.15]","","",""
"sailing-trial","332","1744273","0.0-11.0-297.0","","","","false","","","","","","","","","","null","","1347.800000011921","","2","1","null","null","arrowup","[0.675,0.325,0.85,0.15]","","",""
"sailing-trial","333","1747971","0.0-11.0-298.0","","","","false","","","","","","","","","","667.5999999940395","","237.39999997615814","","3","0","arrowright","1","arrowright","[0.675,0.325,0.85,0.15]","","",""
"sailing-trial","334","1753765","0.0-11.0-299.0","","","","false","","","","","","","","","","null","","3404.699999988079","","2","1","null","null","arrowup","[0.675,0.325,0.85,0.15]","","",""
"sailing-trial","335","1757979","0.0-11.0-300.0","","","","false","","","","","","","","","","617.2000000178814","","361.80000001192093","","3","1","arrowright","1","arrowright","[0.675,0.325,0.85,0.15]","","",""
"sailing-trial","336","1761558","0.0-11.0-301.0","","","","false","","","","","","","","","","null","","1253.800000011921","","0","1","null","null","arrowup","[0.675,0.325,0.85,0.15]","","",""
"sailing-trial","337","1766686","0.0-11.0-302.0","","","","false","","","","","","","","","","480.2999999821186","","955.7999999821186","","3","1","arrowright","1","arrowright","[0.15,0.85,0.325,0.675]","","",""
"sailing-trial","338","1769514","0.0-11.0-303.0","","","","false","","","","","","","","","","null","","1387","","0","0","null","null","arrowup","[0.15,0.85,0.325,0.675]","","",""
"sailing-trial","339","1778130","0.0-11.0-304.0","","","","false","","","","","","","","","","4393.5999999940395","","187.90000000596046","","3","0","arrowright","1","arrowright","[0.15,0.85,0.325,0.675]","","",""
"sailing-trial","340","1781550","0.0-11.0-305.0","","","","false","","","","","","","","","","null","","1494.300000011921","","3","0","null","null","arrowup","[0.15,0.85,0.325,0.675]","","",""
"sailing-trial","341","1785030","0.0-11.0-306.0","","","","false","","","","","","","","","","486.69999998807907","","175.7999999821186","","2","0","arrowright","1","arrowleft","[0.15,0.85,0.325,0.675]","","",""
"sailing-trial","342","1788665","0.0-11.0-307.0","","","","false","","","","","","","","","","null","","1448.5","","2","1","null","null","arrowup","[0.15,0.85,0.325,0.675]","","",""
"sailing-trial","343","1792904","0.0-11.0-308.0","","","","false","","","","","","","","","","572.2000000178814","","339.30000001192093","","0","0","arrowleft","0","arrowleft","[0.15,0.85,0.325,0.675]","","",""
"sailing-trial","344","1796793","0.0-11.0-309.0","","","","false","","","","","","","","","","null","","1468.9000000059605","","3","1","null","null","arrowup","[0.15,0.85,0.325,0.675]","","",""
"sailing-trial","345","1800942","0.0-11.0-310.0","","","","false","","","","","","","","","","499.09999999403954","","455.40000000596046","","2","0","arrowright","1","arrowleft","[0.15,0.85,0.325,0.675]","","",""
"sailing-trial","346","1805384","0.0-11.0-311.0","","","","false","","","","","","","","","","null","","1743.699999988079","","3","1","null","null","arrowup","[0.15,0.85,0.325,0.675]","","",""
"sailing-trial","347","1810245","0.0-11.0-312.0","","","","false","","","","","","","","","","1118.4000000059605","","314.69999998807907","","3","1","arrowright","1","arrowright","[0.15,0.85,0.325,0.675]","","",""
"sailing-trial","348","1814624","0.0-11.0-313.0","","","","false","","","","","","","","","","null","","2139.300000011921","","1","1","null","null","arrowup","[0.15,0.85,0.325,0.675]","","",""
"sailing-trial","349","1819412","0.0-11.0-314.0","","","","false","","","","","","","","","","1599.199999988079","","395.69999998807907","","0","0","arrowleft","0","arrowleft","[0.15,0.85,0.325,0.675]","","",""
"sailing-trial","350","1823765","0.0-11.0-315.0","","","","false","","","","","","","","","","null","","1548.7999999821186","","1","1","null","null","arrowup","[0.15,0.85,0.325,0.675]","","",""
"sailing-trial","351","1828645","0.0-11.0-316.0","","","","false","","","","","","","","","","798.1000000238419","","471.7000000178814","","3","1","arrowright","1","arrowright","[0.15,0.85,0.325,0.675]","","",""
"sailing-trial","352","1831265","0.0-11.0-317.0","","","","false","","","","","","","","","","null","","1162.5","","2","0","null","null","arrowup","[0.15,0.85,0.325,0.675]","","",""
"sailing-trial","353","1838734","0.0-11.0-318.0","","","","false","","","","","","","","","","964.8000000119209","","2832.5","","1","1","arrowleft","0","arrowright","[0.15,0.85,0.325,0.675]","","",""
"sailing-trial","354","1842098","0.0-11.0-319.0","","","","false","","","","","","","","","","null","","1678.7000000178814","","2","0","null","null","arrowup","[0.15,0.85,0.325,0.675]","","",""
"sailing-trial","355","1846462","0.0-11.0-320.0","","","","false","","","","","","","","","","795.4000000059605","","741.7000000178814","","0","0","arrowleft","0","arrowleft","[0.325,0.675,0.15,0.85]","","",""
"sailing-trial","356","1849541","0.0-11.0-321.0","","","","false","","","","","","","","","","null","","1437.7000000178814","","0","1","null","null","arrowup","[0.325,0.675,0.15,0.85]","","",""
"sailing-trial","357","1853765","0.0-11.0-322.0","","","","false","","","","","","","","","","661.5","","590.1999999880791","","1","0","arrowleft","0","arrowright","[0.325,0.675,0.15,0.85]","","",""
"sailing-trial","358","1857600","0.0-11.0-323.0","","","","false","","","","","","","","","","null","","2251.7999999821186","","2","0","null","null","arrowup","[0.325,0.675,0.15,0.85]","","",""
"sailing-trial","359","1862179","0.0-11.0-324.0","","","","false","","","","","","","","","","645.7999999821186","","115.39999997615814","","3","1","arrowright","1","arrowright","[0.325,0.675,0.15,0.85]","","",""
"sailing-trial","360","1874118","0.0-11.0-325.0","","","","false","","","","","","","","","","null","","6227","","0","1","null","null","arrowup","[0.325,0.675,0.15,0.85]","","",""
"sailing-trial","361","1879531","0.0-11.0-326.0","","","","false","","","","","","","","","","1538.4000000059605","","417.40000000596046","","3","1","arrowright","1","arrowright","[0.325,0.675,0.15,0.85]","","",""
"sailing-trial","362","1885167","0.0-11.0-327.0","","","","false","","","","","","","","","","null","","3343","","0","0","null","null","arrowup","[0.325,0.675,0.15,0.85]","","",""
"sailing-trial","363","1889621","0.0-11.0-328.0","","","","false","","","","","","","","","","1468","","162.90000000596046","","1","1","arrowleft","0","arrowright","[0.325,0.675,0.15,0.85]","","",""
"sailing-trial","364","1893168","0.0-11.0-329.0","","","","false","","","","","","","","","","null","","1600.9000000059605","","3","1","null","null","arrowup","[0.325,0.675,0.15,0.85]","","",""
"sailing-trial","365","1897064","0.0-11.0-330.0","","","","false","","","","","","","","","","481.7000000178814","","4","","3","1","arrowright","1","arrowright","[0.325,0.675,0.15,0.85]","","",""
"sailing-trial","366","1912068","0.0-11.0-331.0","","","","true","","","","","","","","","","null","","null","","null","null","null","null","null","[0.325,0.675,0.15,0.85]","","",""
"sailing-trial","367","1916293","0.0-11.0-332.0","","","","false","","","","","","","","","","264.7000000178814","","782.3000000119209","","0","0","arrowleft","0","arrowleft","[0.325,0.675,0.15,0.85]","","",""
"sailing-trial","368","1919509","0.0-11.0-333.0","","","","false","","","","","","","","","","null","","940.5999999940395","","1","1","null","null","arrowup","[0.325,0.675,0.15,0.85]","","",""
"sailing-trial","369","1923988","0.0-11.0-334.0","","","","false","","","","","","","","","","710.8000000119209","","392.80000001192093","","3","1","arrowright","1","arrowright","[0.325,0.675,0.15,0.85]","","",""
"sailing-trial","370","1927356","0.0-11.0-335.0","","","","false","","","","","","","","","","null","","1377","","0","0","null","null","arrowup","[0.325,0.675,0.15,0.85]","","",""
"sailing-trial","371","1932081","0.0-11.0-336.0","","","","false","","","","","","","","","","1340.699999988079","","46.400000005960464","","3","1","arrowright","1","arrowright","[0.15,0.85,0.325,0.675]","","",""
"sailing-trial","372","1937207","0.0-11.0-337.0","","","","false","","","","","","","","","","null","","3161.5999999940395","","3","0","null","null","arrowup","[0.15,0.85,0.325,0.675]","","",""
"sailing-trial","373","1947689","0.0-11.0-338.0","","","","false","","","","","","","","","","5806.299999982119","","1263.1000000238419","","0","0","arrowleft","0","arrowleft","[0.15,0.85,0.325,0.675]","","",""
"sailing-trial","374","1952610","0.0-11.0-339.0","","","","false","","","","","","","","","","null","","2578.5","","3","1","null","null","arrowup","[0.15,0.85,0.325,0.675]","","",""
"sailing-trial","375","1959920","0.0-11.0-340.0","","","","false","","","","","","","","","","1479.5999999940395","","329.90000000596046","","3","1","arrowright","1","arrowright","[0.15,0.85,0.325,0.675]","","",""
"sailing-trial","376","1965144","0.0-11.0-341.0","","","","false","","","","","","","","","","null","","2633.5999999940395","","0","0","null","null","arrowup","[0.15,0.85,0.325,0.675]","","",""
"sailing-trial","377","1970881","0.0-11.0-342.0","","","","false","","","","","","","","","","1187.0999999940395","","590.4000000059605","","2","0","arrowright","1","arrowleft","[0.15,0.85,0.325,0.675]","","",""
"sailing-trial","378","1985885","0.0-11.0-343.0","","","","true","","","","","","","","","","null","","null","","null","null","null","null","null","[0.15,0.85,0.325,0.675]","","",""
"sailing-trial","379","1991842","0.0-11.0-344.0","","","","false","","","","","","","","","","1535","","639.5999999940395","","1","1","arrowleft","0","arrowright","[0.15,0.85,0.325,0.675]","","",""
"sailing-trial","380","1996331","0.0-11.0-345.0","","","","false","","","","","","","","","","null","","3124.199999988079","","2","0","null","null","arrowup","[0.15,0.85,0.325,0.675]","","",""
"sailing-trial","381","2000879","0.0-11.0-346.0","","","","false","","","","","","","","","","1316.5999999940395","","440.2000000178814","","2","0","arrowright","1","arrowleft","[0.15,0.85,0.325,0.675]","","",""
"sailing-trial","382","2004264","0.0-11.0-347.0","","","","false","","","","","","","","","","null","","1448.9000000059605","","0","0","null","null","arrowup","[0.15,0.85,0.325,0.675]","","",""
"sailing-trial","383","2008261","0.0-11.0-348.0","","","","false","","","","","","","","","","549.0999999940395","","14.699999988079071","","1","1","arrowleft","0","arrowright","[0.15,0.85,0.325,0.675]","","",""
"sailing-trial","384","2010581","0.0-11.0-349.0","","","","false","","","","","","","","","","null","","1182.7000000178814","","2","0","null","null","arrowup","[0.15,0.85,0.325,0.675]","","",""
"sailing-trial","385","2015708","0.0-11.0-350.0","","","","false","","","","","","","","","","1399","","446","","3","0","arrowright","1","arrowright","[0.15,0.85,0.325,0.675]","","",""
"sailing-trial","386","2018684","0.0-11.0-351.0","","","","false","","","","","","","","","","null","","1135.0999999940395","","1","1","null","null","arrowup","[0.15,0.85,0.325,0.675]","","",""
"sailing-trial","387","2026375","0.0-11.0-352.0","","","","false","","","","","","","","","","2496.300000011921","","837.3000000119209","","3","1","arrowright","1","arrowright","[0.325,0.675,0.15,0.85]","","",""
"sailing-trial","388","2031405","0.0-11.0-353.0","","","","false","","","","","","","","","","null","","2704.2000000178814","","1","1","null","null","arrowup","[0.325,0.675,0.15,0.85]","","",""
"sailing-trial","389","2035749","0.0-11.0-354.0","","","","false","","","","","","","","","","463.7000000178814","","416.19999998807907","","1","1","arrowleft","0","arrowright","[0.325,0.675,0.15,0.85]","","",""
"sailing-trial","390","2040488","0.0-11.0-355.0","","","","false","","","","","","","","","","null","","2649.5999999940395","","0","0","null","null","arrowup","[0.325,0.675,0.15,0.85]","","",""
"sailing-trial","391","2044541","0.0-11.0-356.0","","","","false","","","","","","","","","","546.5","","45","","3","1","arrowright","1","arrowright","[0.325,0.675,0.15,0.85]","","",""
"sailing-trial","392","2049270","0.0-11.0-357.0","","","","false","","","","","","","","","","null","","3057.199999988079","","1","1","null","null","arrowup","[0.325,0.675,0.15,0.85]","","",""
"sailing-trial","393","2053572","0.0-11.0-358.0","","","","false","","","","","","","","","","1069.1000000238419","","394.2999999821186","","0","0","arrowleft","0","arrowleft","[0.325,0.675,0.15,0.85]","","",""
"sailing-trial","394","2056471","0.0-11.0-359.0","","","","false","","","","","","","","","","null","","1294.7000000178814","","2","0","null","null","arrowup","[0.325,0.675,0.15,0.85]","","",""
"sailing-trial","395","2060223","0.0-11.0-360.0","","","","false","","","","","","","","","","615.4000000059605","","55","","1","0","arrowleft","0","arrowright","[0.325,0.675,0.15,0.85]","","",""
"sailing-trial","396","2063409","0.0-11.0-361.0","","","","false","","","","","","","","","","null","","1433.2000000178814","","2","0","null","null","arrowup","[0.325,0.675,0.15,0.85]","","",""
"sailing-trial","397","2067658","0.0-11.0-362.0","","","","false","","","","","","","","","","1038.5","","399.59999999403954","","0","0","arrowleft","0","arrowleft","[0.325,0.675,0.15,0.85]","","",""
"sailing-trial","398","2072604","0.0-11.0-363.0","","","","false","","","","","","","","","","null","","3205.9000000059605","","1","0","null","null","arrowup","[0.325,0.675,0.15,0.85]","","",""
"sailing-trial","399","2076777","0.0-11.0-364.0","","","","false","","","","","","","","","","557.0999999940395","","250.19999998807907","","3","1","arrowright","1","arrowright","[0.325,0.675,0.15,0.85]","","",""
"sailing-trial","400","2082567","0.0-11.0-365.0","","","","false","","","","","","","","","","null","","3228.699999988079","","2","0","null","null","arrowup","[0.325,0.675,0.15,0.85]","","",""
"sailing-trial","401","2088651","0.0-11.0-366.0","","","","false","","","","","","","","","","1463.5999999940395","","523.1999999880791","","3","1","arrowright","1","arrowright","[0.325,0.675,0.15,0.85]","","",""
"sailing-trial","402","2093220","0.0-11.0-367.0","","","","false","","","","","","","","","","null","","2734.2000000178814","","1","0","null","null","arrowup","[0.325,0.675,0.15,0.85]","","",""
"sailing-trial","403","2097558","0.0-11.0-368.0","","","","false","","","","","","","","","","571.5","","509.5","","0","1","arrowleft","0","arrowleft","[0.675,0.325,0.85,0.15]","","",""
"sailing-trial","404","2100222","0.0-11.0-369.0","","","","false","","","","","","","","","","null","","1070.5","","2","1","null","null","arrowup","[0.675,0.325,0.85,0.15]","","",""
"sailing-trial","405","2104042","0.0-11.0-370.0","","","","false","","","","","","","","","","494.40000000596046","","90.7999999821186","","1","0","arrowleft","0","arrowright","[0.675,0.325,0.85,0.15]","","",""
"sailing-trial","406","2106710","0.0-11.0-371.0","","","","false","","","","","","","","","","null","","1435.7999999821186","","0","0","null","null","arrowup","[0.675,0.325,0.85,0.15]","","",""
"sailing-trial","407","2110227","0.0-11.0-372.0","","","","false","","","","","","","","","","532.6999999880791","","188.59999999403954","","1","0","arrowleft","0","arrowright","[0.675,0.325,0.85,0.15]","","",""
"sailing-trial","408","2113745","0.0-11.0-373.0","","","","false","","","","","","","","","","null","","1299.5","","0","1","null","null","arrowup","[0.675,0.325,0.85,0.15]","","",""
"sailing-trial","409","2117300","0.0-11.0-374.0","","","","false","","","","","","","","","","142","","364.5","","3","0","arrowright","1","arrowright","[0.675,0.325,0.85,0.15]","","",""
"sailing-trial","410","2120387","0.0-11.0-375.0","","","","false","","","","","","","","","","null","","1453.2999999821186","","2","1","null","null","arrowup","[0.675,0.325,0.85,0.15]","","",""
"sailing-trial","411","2124983","0.0-11.0-376.0","","","","false","","","","","","","","","","275.5","","37.400000005960464","","2","1","arrowright","1","arrowleft","[0.675,0.325,0.85,0.15]","","",""
"sailing-trial","412","2129442","0.0-11.0-377.0","","","","false","","","","","","","","","","null","","2870","","3","0","null","null","arrowup","[0.675,0.325,0.85,0.15]","","",""
"sailing-trial","413","2134164","0.0-11.0-378.0","","","","false","","","","","","","","","","536.4000000059605","","1003.8000000119209","","0","0","arrowleft","0","arrowleft","[0.675,0.325,0.85,0.15]","","",""
"sailing-trial","414","2139624","0.0-11.0-379.0","","","","false","","","","","","","","","","null","","2447.7999999821186","","1","0","null","null","arrowup","[0.675,0.325,0.85,0.15]","","",""
"sailing-trial","415","2145181","0.0-11.0-380.0","","","","false","","","","","","","","","","1456.5999999940395","","480.2000000178814","","3","1","arrowright","1","arrowright","[0.675,0.325,0.85,0.15]","","",""
"sailing-trial","416","2150541","0.0-11.0-381.0","","","","false","","","","","","","","","","null","","2500.100000023842","","2","1","null","null","arrowup","[0.675,0.325,0.85,0.15]","","",""
"sailing-trial","417","2155770","0.0-11.0-382.0","","","","false","","","","","","","","","","1449.5","","452.5","","2","1","arrowright","1","arrowleft","[0.675,0.325,0.85,0.15]","","",""
"sailing-trial","418","2159552","0.0-11.0-383.0","","","","false","","","","","","","","","","null","","2054","","1","0","null","null","arrowup","[0.675,0.325,0.85,0.15]","","",""
"sailing-trial","419","2164563","0.0-11.0-384.0","","","","false","","","","","","","","","","500.19999998807907","","1122.6000000238419","","0","1","arrowleft","0","arrowleft","[0.85,0.15,0.675,0.325]","","",""
"sailing-trial","420","2167149","0.0-11.0-385.0","","","","false","","","","","","","","","","null","","1144.9000000059605","","1","0","null","null","arrowup","[0.85,0.15,0.675,0.325]","","",""
"sailing-trial","421","2171552","0.0-11.0-386.0","","","","false","","","","","","","","","","1150.9000000059605","","517.2999999821186","","0","0","arrowleft","0","arrowleft","[0.85,0.15,0.675,0.325]","","",""
"sailing-trial","422","2174620","0.0-11.0-387.0","","","","false","","","","","","","","","","null","","1484.7999999821186","","0","0","null","null","arrowup","[0.85,0.15,0.675,0.325]","","",""
"sailing-trial","423","2178309","0.0-11.0-388.0","","","","false","","","","","","","","","","386.90000000596046","","371.7999999821186","","3","0","arrowright","1","arrowright","[0.85,0.15,0.675,0.325]","","",""
"sailing-trial","424","2183020","0.0-11.0-389.0","","","","false","","","","","","","","","","null","","2538.9000000059605","","3","0","null","null","arrowup","[0.85,0.15,0.675,0.325]","","",""
"sailing-trial","425","2188623","0.0-11.0-390.0","","","","false","","","","","","","","","","1176.5999999940395","","507","","2","1","arrowright","1","arrowleft","[0.85,0.15,0.675,0.325]","","",""
"sailing-trial","426","2194086","0.0-11.0-391.0","","","","false","","","","","","","","","","null","","3111.4000000059605","","0","1","null","null","arrowup","[0.85,0.15,0.675,0.325]","","",""
"sailing-trial","427","2201778","0.0-11.0-392.0","","","","false","","","","","","","","","","3901","","79.59999999403954","","2","1","arrowright","1","arrowleft","[0.85,0.15,0.675,0.325]","","",""
"sailing-trial","428","2207855","0.0-11.0-393.0","","","","false","","","","","","","","","","null","","2556.699999988079","","1","1","null","null","arrowup","[0.85,0.15,0.675,0.325]","","",""
"sailing-trial","429","2213983","0.0-11.0-394.0","","","","false","","","","","","","","","","1548.5999999940395","","562.2999999821186","","2","1","arrowright","1","arrowleft","[0.85,0.15,0.675,0.325]","","",""
"sailing-trial","430","2219884","0.0-11.0-395.0","","","","false","","","","","","","","","","null","","4310","","1","0","null","null","arrowup","[0.85,0.15,0.675,0.325]","","",""
"sailing-trial","431","2224524","0.0-11.0-396.0","","","","false","","","","","","","","","","502.80000001192093","","472.09999999403954","","3","0","arrowright","1","arrowright","[0.85,0.15,0.675,0.325]","","",""
"sailing-trial","432","2228701","0.0-11.0-397.0","","","","false","","","","","","","","","","null","","1769.0999999940395","","1","1","null","null","arrowup","[0.85,0.15,0.675,0.325]","","",""
"sailing-trial","433","2238695","0.0-11.0-398.0","","","","false","","","","","","","","","","5799.9000000059605","","161.19999998807907","","1","0","arrowleft","0","arrowright","[0.85,0.15,0.675,0.325]","","",""
"sailing-trial","434","2242928","0.0-11.0-399.0","","","","false","","","","","","","","","","null","","2333.5999999940395","","2","0","null","null","arrowup","[0.85,0.15,0.675,0.325]","","",""
"instructions","435","2257700","0.0-12.0","","","","","","","","","","14771.699999988079","","","","","","","","","","","","","","","","[{""page_index"":0,""viewing_time"":14771.09999999404}]"
"survey-debrief","436","2333909","0.0-13.0","","","","","","","","","","76207.19999998808","","","","","","","","","","","","","","{""difficulty"":""1"",""fun"":""2"",""clarity"":""5"",""strategy"":""no"",""feedback"":""no""}","",""
