"trial_type","trial_index","time_elapsed","internal_node_id","value","metadata","success","timeout","failed_images","failed_audio","failed_video","browser_interaction","low_quality","rt","stimulus","response","button_pressed","island_rt","island_response","boat_rt","boat_response","boat","reward","island_key","island","boat_key","reward_probabilities","responses","num_errors","view_history"
"pavlovia","0","2","0.0-0.0","","","","","","","","","","","","","","","","","","","","","","","","","",""
"call-function","1","3","0.0-1.0","","{""task_version"":""sailing_part1_v1"",""task_condition"":""good"",""boats"":[""B"",""A"",""D"",""C""],""boats_demo"":[""E"",""H"",""G"",""F""],""islands"":[""B"",""A""],""subject_id"":""14226"",""age"":""19"",""gender"":""Male""}","","","","","","","","","","","","","","","","","","","","","","","",""
"preload","2","2183","0.0-2.0","","","true","false","[]","[]","[]","[{""event"":""fullscreenenter"",""trial"":3,""time"":4743}]","false","","","","","","","","","","","","","","","","",""
"fullscreen","3","5724","0.0-3.0","","","true","","","","","","","","","","","","","","","","","","","","","","",""
"audio-keyboard-response","4","9370","0.0-4.0-0.0","","","","","","","","","","3024","audio/beep_loop.wav"," ","","","","","","","","","","","","","",""
"audio-test","5","11551","0.0-4.0-1.0","","","","","","","","","","null","audio/turtle.mp3","","3","","","","","","","","","","","","",""
"audio-test","6","14659","0.0-4.0-2.0","","","","","","","","","","null","audio/shark.mp3","","2","","","","","","","","","","","","",""
"sailing-instructions","7","46877","0.0-5.0-0.0-0.0","","","","","","","","","","","","","","null","null","null","null","null","null","","","","","","",""
"sailing-trial","8","52978","0.0-5.0-0.0-1.0-0.0","","","","false","","","","","","","","","","4992.800000011921","","null","","null","null","arrowleft","0","null","null","","",""
"sailing-trial","9","55446","0.0-5.0-0.0-1.0-1.0","","","","false","","","","","","","","","","1341.1000000238419","","null","","null","null","arrowright","1","null","null","","",""
"sailing-trial","10","57995","0.0-5.0-0.0-1.0-2.0","","","","false","","","","","","","","","","1430.300000011921","","null","","null","null","arrowleft","0","null","null","","",""
"sailing-instructions","11","103941","0.0-5.0-0.0-2.0","","","","","","","","","","","","","","null","null","null","null","0","null","","","","","","",""
"sailing-trial","12","109176","0.0-5.0-0.0-3.0-0.0","","","","false","","","","","","","","","","null","","1675.800000011921","","2","1","null","null","arrowleft","[1,1,1,1]","","",""
"sailing-trial","13","113560","0.0-5.0-0.0-3.0-1.0","","","","false","","","","","","","","","","null","","944.3000000119209","","3","1","null","null","arrowright","[1,1,1,1]","","",""
"sailing-trial","14","117946","0.0-5.0-0.0-3.0-2.0","","","","false","","","","","","","","","","null","","1135","","2","0","null","null","arrowleft","[0,0,0,0]","","",""
"sailing-instructions","15","125757","0.0-5.0-0.0-4.0","","","","","","","","","","","","","","null","null","null","null","null","null","","","","","","",""
"sailing-comprehension","16","141616","0.0-5.0-0.0-5.0","","","","","","","","","","12293.100000023842","","","","","","","","","","","","","","[""true"",""true"",""false"",""true""]","0",""
"sailing-instructions","17","208558","0.0-6.0-0.0-0.0","","","","","","","","","","","","","","null","null","null","null","null","null","","","","","","",""
"sailing-comprehension","18","220184","0.0-6.0-0.0-1.0","","","","","","","","","","10261.899999976158","","","","","","","","","","","","","","[""true"",""false"",""true""]","0",""
"sailing-instructions","19","234756","0.0-7.0-0.0-0.0","","","","","","","","","","","","","","null","null","null","null","null","null","","","","","","",""
"sailing-trial","20","240222","0.0-7.0-0.0-1.0-0.0","","","","false","","","","","","","","","","null","","2900.899999976158","","0","0","null","null","arrowup","[0.2,0.8,0.2,0.8]","","",""
"sailing-trial","21","244592","0.0-7.0-0.0-1.0-1.0","","","","false","","","","","","","","","","null","","2192.5","","1","1","null","null","arrowup","[0.2,0.8,0.2,0.8]","","",""
"sailing-trial","22","248444","0.0-7.0-0.0-1.0-2.0","","","","false","","","","","","","","","","null","","1496.300000011921","","2","1","null","null","arrowup","[0.2,0.8,0.2,0.8]","","",""
"sailing-trial","23","251390","0.0-7.0-0.0-1.0-3.0","","","","false","","","","","","","","","","null","","1210.6000000238419","","3","0","null","null","arrowup","[0.2,0.8,0.2,0.8]","","",""
"sailing-comprehension","24","259814","0.0-7.0-0.0-2.0","","","","","","","","","","6926.5","","","","","","","","","","","","","","[""false""]","0",""
"sailing-instructions","25","270867","0.0-8.0-0.0-0.0","","","","","","","","","","","","","","null","null","null","null","null","null","","","","","","",""
"sailing-comprehension","26","274833","0.0-8.0-0.0-1.0","","","","","","","","","","2969.099999964237","","","","","","","","","","","","","","[""true""]","0",""
"sailing-instructions","27","301989","0.0-9.0-0.0-0.0","","","","","","","","","","","","","","null","null","null","null","null","null","","","","","","",""
"sailing-trial","28","308332","0.0-9.0-0.0-1.0-0.0","","","","false","","","","","","","","","","1597.300000011921","","1450.5999999642372","","2","0","arrowright","1","arrowleft","[0.2,0.8,0.2,0.8]","","",""
"sailing-trial","29","312977","0.0-9.0-0.0-1.0-1.0","","","","false","","","","","","","","","","869.5999999642372","","646.5","","0","0","arrowleft","0","arrowleft","[0.2,0.8,0.2,0.8]","","",""
"sailing-trial","30","315998","0.0-9.0-0.0-1.0-2.0","","","","false","","","","","","","","","","null","","1268.3999999761581","","0","0","null","null","arrowup","[0.2,0.8,0.2,0.8]","","",""
"sailing-trial","31","320027","0.0-9.0-0.0-1.0-3.0","","","","false","","","","","","","","","","934.8000000119209","","1.199999988079071","","3","1","arrowright","1","arrowright","[0.2,0.8,0.2,0.8]","","",""
"sailing-trial","32","323046","0.0-9.0-0.0-1.0-4.0","","","","false","","","","","","","","","","null","","1058.5999999642372","","3","1","null","null","arrowup","[0.2,0.8,0.2,0.8]","","",""
"sailing-trial","33","326809","0.0-9.0-0.0-1.0-5.0","","","","false","","","","","","","","","","759.6999999880791","","5.399999976158142","","1","1","arrowleft","0","arrowright","[0.2,0.8,0.2,0.8]","","",""
"sailing-instructions","34","357351","0.0-10.0","","","","","","","","","","","","","","null","null","null","null","null","null","","","","","","",""
"sailing-trial","35","363013","0.0-11.0-0.0","","","","false","","","","","","","","","","1480.5999999642372","","139.0999999642372","","0","0","arrowleft","0","arrowleft","[0.675,0.325,0.85,0.15]","","",""
"sailing-trial","36","366060","0.0-11.0-1.0","","","","false","","","","","","","","","","null","","1136.3999999761581","","2","1","null","null","arrowup","[0.675,0.325,0.85,0.15]","","",""
"sailing-trial","37","370209","0.0-11.0-2.0","","","","false","","","","","","","","","","610.0999999642372","","533","","2","1","arrowright","1","arrowleft","[0.675,0.325,0.85,0.15]","","",""
"sailing-trial","38","372828","0.0-11.0-3.0","","","","false","","","","","","","","","","null","","740.4000000357628","","1","1","null","null","arrowup","[0.675,0.325,0.85,0.15]","","",""
"sailing-trial","39","376545","0.0-11.0-4.0","","","","false","","","","","","","","","","734.3999999761581","","2.800000011920929","","1","1","arrowleft","0","arrowright","[0.675,0.325,0.85,0.15]","","",""
"sailing-trial","40","379295","0.0-11.0-5.0","","","","false","","","","","","","","","","null","","893","","0","1","null","null","arrowup","[0.675,0.325,0.85,0.15]","","",""
"sailing-trial","41","383341","0.0-11.0-6.0","","","","false","","","","","","","","","","549","","535.1999999880791","","2","1","arrowright","1","arrowleft","[0.675,0.325,0.85,0.15]","","",""
"sailing-trial","42","385791","0.0-11.0-7.0","","","","false","","","","","","","","","","null","","640.2000000476837","","0","1","null","null","arrowup","[0.675,0.325,0.85,0.15]","","",""
"sailing-trial","43","389383","0.0-11.0-8.0","","","","false","","","","","","","","","","564.6999999880791","","329.69999998807907","","3","0","arrowright","1","arrowright","[0.675,0.325,0.85,0.15]","","",""
"sailing-trial","44","391792","0.0-11.0-9.0","","","","false","","","","","","","","","","null","","578.5","","0","1","null","null","arrowup","[0.675,0.325,0.85,0.15]","","",""
"sailing-trial","45","395101","0.0-11.0-10.0","","","","false","","","","","","","","","","514.8999999761581","","46.39999997615814","","0","0","arrowleft","0","arrowleft","[0.675,0.325,0.85,0.15]","","",""
"sailing-trial","46","398679","0.0-11.0-11.0","","","","false","","","","","","","","","","null","","544.3000000119209","","3","0","null","null","arrowup","[0.675,0.325,0.85,0.15]","","",""
"sailing-trial","47","403027","0.0-11.0-12.0","","","","false","","","","","","","","","","588.8000000119209","","880.0999999642372","","2","1","arrowright","1","arrowleft","[0.675,0.325,0.85,0.15]","","",""
"sailing-trial","48","405609","0.0-11.0-13.0","","","","false","","","","","","","","","","null","","805.1999999880791","","1","1","null","null","arrowup","[0.675,0.325,0.85,0.15]","","",""
"sailing-trial","49","410513","0.0-11.0-14.0","","","","false","","","","","","","","","","522.8999999761581","","349.19999998807907","","3","0","arrowright","1","arrowright","[0.675,0.325,0.85,0.15]","","",""
"sailing-trial","50","412671","0.0-11.0-15.0","","","","false","","","","","","","","","","null","","852.8999999761581","","1","0","null","null","arrowup","[0.675,0.325,0.85,0.15]","","",""
"sailing-trial","51","417597","0.0-11.0-16.0","","","","false","","","","","","","","","","575.8000000119209","","297","","0","0","arrowleft","0","arrowleft","[0.15,0.85,0.325,0.675]","","",""
"sailing-trial","52","419724","0.0-11.0-17.0","","","","false","","","","","","","","","","null","","861.5","","2","0","null","null","arrowup","[0.15,0.85,0.325,0.675]","","",""
"sailing-trial","53","423744","0.0-11.0-18.0","","","","false","","","","","","","","","","542.6999999880791","","523.8000000119209","","2","1","arrowright","1","arrowleft","[0.15,0.85,0.325,0.675]","","",""
"sailing-trial","54","427061","0.0-11.0-19.0","","","","false","","","","","","","","","","null","","1493.5","","1","1","null","null","arrowup","[0.15,0.85,0.325,0.675]","","",""
"sailing-trial","55","432031","0.0-11.0-20.0","","","","false","","","","","","","","","","528.9000000357628","","380.39999997615814","","0","0","arrowleft","0","arrowleft","[0.15,0.85,0.325,0.675]","","",""
"sailing-trial","56","435880","0.0-11.0-21.0","","","","false","","","","","","","","","","null","","847","","2","0","null","null","arrowup","[0.15,0.85,0.325,0.675]","","",""
"sailing-trial","57","440744","0.0-11.0-22.0","","","","false","","","","","","","","","","477.39999997615814","","377","","2","0","arrowright","1","arrowleft","[0.15,0.85,0.325,0.675]","","",""
"sailing-trial","58","443819","0.0-11.0-23.0","","","","false","","","","","","","","","","null","","609.6999999880791","","1","0","null","null","arrowup","[0.15,0.85,0.325,0.675]","","",""
"sailing-trial","59","448779","0.0-11.0-24.0","","","","false","","","","","","","","","","457.19999998807907","","471.10000002384186","","0","0","arrowleft","0","arrowleft","[0.15,0.85,0.325,0.675]","","",""
"sailing-trial","60","451093","0.0-11.0-25.0","","","","false","","","","","","","","","","null","","513.1000000238419","","0","1","null","null","arrowup","[0.15,0.85,0.325,0.675]","","",""
"sailing-trial","61","456179","0.0-11.0-26.0","","","","false","","","","","","","","","","589.8000000119209","","447.60000002384186","","2","0","arrowright","1","arrowleft","[0.15,0.85,0.325,0.675]","","",""
"sailing-trial","62","459126","0.0-11.0-27.0","","","","false","","","","","","","","","","null","","1003.1000000238419","","2","1","null","null","arrowup","[0.15,0.85,0.325,0.675]","","",""
"sailing-trial","63","463713","0.0-11.0-28.0","","","","false","","","","","","","","","","532.8000000119209","","9.899999976158142","","0","0","arrowleft","0","arrowleft","[0.15,0.85,0.325,0.675]","","",""
"sailing-trial","64","467314","0.0-11.0-29.0","","","","false","","","","","","","","","","null","","601.5999999642372","","1","0","null","null","arrowup","[0.15,0.85,0.325,0.675]","","",""
"sailing-trial","65","471327","0.0-11.0-30.0","","","","false","","","","","","","","","","689.8999999761581","","438.80000001192093","","2","1","arrowright","1","arrowleft","[0.15,0.85,0.325,0.675]","","",""
"sailing-trial","66","474960","0.0-11.0-31.0","","","","false","","","","","","","","","","null","","1721.0999999642372","","3","1","null","null","arrowup","[0.15,0.85,0.325,0.675]","","",""
"sailing-trial","67","479798","0.0-11.0-32.0","","","","false","","","","","","","","","","638.1999999880791","","150","","0","0","arrowleft","0","arrowleft","[0.325,0.675,0.15,0.85]","","",""
"sailing-trial","68","482727","0.0-11.0-33.0","","","","false","","","","","","","","","","null","","969.7999999523163","","1","1","null","null","arrowup","[0.325,0.675,0.15,0.85]","","",""
"sailing-trial","69","487727","0.0-11.0-34.0","","","","false","","","","","","","","","","750","","218.39999997615814","","2","0","arrowright","1","arrowleft","[0.325,0.675,0.15,0.85]","","",""
"sailing-trial","70","490241","0.0-11.0-35.0","","","","false","","","","","","","","","","null","","733.8000000119209","","3","1","null","null","arrowup","[0.325,0.675,0.15,0.85]","","",""
"sailing-trial","71","493841","0.0-11.0-36.0","","","","false","","","","","","","","","","662.2000000476837","","55.40000003576279","","0","1","arrowleft","0","arrowleft","[0.325,0.675,0.15,0.85]","","",""
"sailing-trial","72","497814","0.0-11.0-37.0","","","","false","","","","","","","","","","null","","943.3000000119209","","2","0","null","null","arrowup","[0.325,0.675,0.15,0.85]","","",""
"sailing-trial","73","502780","0.0-11.0-38.0","","","","false","","","","","","","","","","530.4000000357628","","394.39999997615814","","0","0","arrowleft","0","arrowleft","[0.325,0.675,0.15,0.85]","","",""
"sailing-trial","74","505744","0.0-11.0-39.0","","","","false","","","","","","","","","","null","","731.2000000476837","","3","1","null","null","arrowup","[0.325,0.675,0.15,0.85]","","",""
"sailing-trial","75","510530","0.0-11.0-40.0","","","","false","","","","","","","","","","663.5","","62.30000001192093","","2","0","arrowright","1","arrowleft","[0.325,0.675,0.15,0.85]","","",""
"sailing-trial","76","513342","0.0-11.0-41.0","","","","false","","","","","","","","","","null","","631.8000000119209","","3","1","null","null","arrowup","[0.325,0.675,0.15,0.85]","","",""
"sailing-trial","77","516894","0.0-11.0-42.0","","","","false","","","","","","","","","","642.3000000119209","","44.19999998807907","","1","1","arrowleft","0","arrowright","[0.325,0.675,0.15,0.85]","","",""
"sailing-trial","78","520778","0.0-11.0-43.0","","","","false","","","","","","","","","","null","","868.5","","2","0","null","null","arrowup","[0.325,0.675,0.15,0.85]","","",""
"sailing-trial","79","525780","0.0-11.0-44.0","","","","false","","","","","","","","","","556.5999999642372","","409.39999997615814","","2","0","arrowright","1","arrowleft","[0.325,0.675,0.15,0.85]","","",""
"sailing-trial","80","528578","0.0-11.0-45.0","","","","false","","","","","","","","","","null","","970.6999999880791","","3","1","null","null","arrowup","[0.325,0.675,0.15,0.85]","","",""
"sailing-trial","81","533343","0.0-11.0-46.0","","","","false","","","","","","","","","","500.89999997615814","","225.9000000357628","","1","0","arrowleft","0","arrowright","[0.325,0.675,0.15,0.85]","","",""
"sailing-trial","82","536945","0.0-11.0-47.0","","","","false","","","","","","","","","","null","","575.3000000119209","","2","0","null","null","arrowup","[0.325,0.675,0.15,0.85]","","",""
"sailing-trial","83","540975","0.0-11.0-48.0","","","","false","","","","","","","","","","614.9000000357628","","253.70000004768372","","2","1","arrowright","1","arrowleft","[0.325,0.675,0.15,0.85]","","",""
"sailing-trial","84","543628","0.0-11.0-49.0","","","","false","","","","","","","","","","null","","824.1999999880791","","1","1","null","null","arrowup","[0.325,0.675,0.15,0.85]","","",""
"sailing-trial","85","547875","0.0-11.0-50.0","","","","false","","","","","","","","","","628.5","","245.9000000357628","","1","1","arrowleft","0","arrowright","[0.15,0.85,0.325,0.675]","","",""
"sailing-trial","86","551779","0.0-11.0-51.0","","","","false","","","","","","","","","","null","","904.6999999880791","","1","0","null","null","arrowup","[0.15,0.85,0.325,0.675]","","",""
"sailing-trial","87","555826","0.0-11.0-52.0","","","","false","","","","","","","","","","631","","495.30000001192093","","0","1","arrowleft","0","arrowleft","[0.15,0.85,0.325,0.675]","","",""
"sailing-trial","88","559680","0.0-11.0-53.0","","","","false","","","","","","","","","","null","","851.5","","0","0","null","null","arrowup","[0.15,0.85,0.325,0.675]","","",""
"sailing-trial","89","564746","0.0-11.0-54.0","","","","false","","","","","","","","","","601","","415.10000002384186","","0","0","arrowleft","0","arrowleft","[0.15,0.85,0.325,0.675]","","",""
"sailing-trial","90","567443","0.0-11.0-55.0","","","","false","","","","","","","","","","null","","877.3000000119209","","2","1","null","null","arrowup","[0.15,0.85,0.325,0.675]","","",""
"sailing-trial","91","571341","0.0-11.0-56.0","","","","false","","","","","","","","","","932.0999999642372","","61.90000003576279","","2","1","arrowright","1","arrowleft","[0.15,0.85,0.325,0.675]","","",""
"sailing-trial","92","575230","0.0-11.0-57.0","","","","false","","","","","","","","","","null","","884.5","","2","0","null","null","arrowup","[0.15,0.85,0.325,0.675]","","",""
"sailing-trial","93","579057","0.0-11.0-58.0","","","","false","","","","","","","","","","595.2999999523163","","406.5999999642372","","1","1","arrowleft","0","arrowright","[0.15,0.85,0.325,0.675]","","",""
"sailing-trial","94","582980","0.0-11.0-59.0","","","","false","","","","","","","","","","null","","921.1999999880791","","0","0","null","null","arrowup","[0.15,0.85,0.325,0.675]","","",""
"sailing-trial","95","587726","0.0-11.0-60.0","","","","false","","","","","","","","","","635.3999999761581","","63","","0","0","arrowleft","0","arrowleft","[0.15,0.85,0.325,0.675]","","",""
"sailing-trial","96","590311","0.0-11.0-61.0","","","","false","","","","","","","","","","null","","673.9000000357628","","1","1","null","null","arrowup","[0.15,0.85,0.325,0.675]","","",""
"sailing-trial","97","595013","0.0-11.0-62.0","","","","false","","","","","","","","","","600.3999999761581","","53.700000047683716","","2","0","arrowright","1","arrowleft","[0.15,0.85,0.325,0.675]","","",""
"sailing-trial","98","598928","0.0-11.0-63.0","","","","false","","","","","","","","","","null","","895.6000000238419","","0","0","null","null","arrowup","[0.15,0.85,0.325,0.675]","","",""
"sailing-trial","99","604079","0.0-11.0-64.0","","","","false","","","","","","","","","","701.6999999880791","","415.80000001192093","","0","0","arrowleft","0","arrowleft","[0.15,0.85,0.325,0.675]","","",""
"sailing-trial","100","607947","0.0-11.0-65.0","","","","false","","","","","","","","","","null","","851","","0","0","null","null","arrowup","[0.15,0.85,0.325,0.675]","","",""
"sailing-trial","101","612843","0.0-11.0-66.0","","","","false","","","","","","","","","","596.1999999880791","","271.19999998807907","","2","0","arrowright","1","arrowleft","[0.15,0.85,0.325,0.675]","","",""
"sailing-trial","102","615377","0.0-11.0-67.0","","","","false","","","","","","","","","","null","","688.7999999523163","","1","1","null","null","arrowup","[0.15,0.85,0.325,0.675]","","",""
"sailing-trial","103","619224","0.0-11.0-68.0","","","","false","","","","","","","","","","659.5","","238","","1","1","arrowleft","0","arrowright","[0.15,0.85,0.325,0.675]","","",""
"sailing-trial","104","622994","0.0-11.0-69.0","","","","false","","","","","","","","","","null","","764.6999999880791","","3","0","null","null","arrowup","[0.15,0.85,0.325,0.675]","","",""
"sailing-trial","105","626709","0.0-11.0-70.0","","","","false","","","","","","","","","","642.9000000357628","","138.69999998807907","","1","1","arrowleft","0","arrowright","[0.15,0.85,0.325,0.675]","","",""
"sailing-trial","106","630479","0.0-11.0-71.0","","","","false","","","","","","","","","","null","","756","","3","0","null","null","arrowup","[0.15,0.85,0.325,0.675]","","",""
"sailing-trial","107","634227","0.0-11.0-72.0","","","","false","","","","","","","","","","550.9000000357628","","288","","1","1","arrowleft","0","arrowright","[0.325,0.675,0.15,0.85]","","",""
"sailing-trial","108","637110","0.0-11.0-73.0","","","","false","","","","","","","","","","null","","1061.800000011921","","1","1","null","null","arrowup","[0.325,0.675,0.15,0.85]","","",""
"sailing-trial","109","641092","0.0-11.0-74.0","","","","false","","","","","","","","","","592.6999999880791","","540.8000000119209","","1","1","arrowleft","0","arrowright","[0.325,0.675,0.15,0.85]","","",""
"sailing-trial","110","643991","0.0-11.0-75.0","","","","false","","","","","","","","","","null","","1092","","3","1","null","null","arrowup","[0.325,0.675,0.15,0.85]","","",""
"sailing-trial","111","648793","0.0-11.0-76.0","","","","false","","","","","","","","","","651.3000000119209","","117.60000002384186","","1","0","arrowleft","0","arrowright","[0.325,0.675,0.15,0.85]","","",""
"sailing-trial","112","651443","0.0-11.0-77.0","","","","false","","","","","","","","","","null","","620","","3","1","null","null","arrowup","[0.325,0.675,0.15,0.85]","","",""
"sailing-trial","113","655111","0.0-11.0-78.0","","","","false","","","","","","","","","","566.3000000119209","","170.29999995231628","","3","1","arrowright","1","arrowright","[0.325,0.675,0.15,0.85]","","",""
"sailing-trial","114","658930","0.0-11.0-79.0","","","","false","","","","","","","","","","null","","793.1000000238419","","0","0","null","null","arrowup","[0.325,0.675,0.15,0.85]","","",""
"sailing-trial","115","662576","0.0-11.0-80.0","","","","false","","","","","","","","","","623.3000000119209","","108.5","","3","1","arrowright","1","arrowright","[0.325,0.675,0.15,0.85]","","",""
"sailing-trial","116","665261","0.0-11.0-81.0","","","","false","","","","","","","","","","null","","764.5","","3","1","null","null","arrowup","[0.325,0.675,0.15,0.85]","","",""
"sailing-trial","117","668726","0.0-11.0-82.0","","","","false","","","","","","","","","","600.6999999880791","","35.89999997615814","","3","1","arrowright","1","arrowright","[0.325,0.675,0.15,0.85]","","",""
"sailing-trial","118","671641","0.0-11.0-83.0","","","","false","","","","","","","","","","null","","1179.300000011921","","3","1","null","null","arrowup","[0.325,0.675,0.15,0.85]","","",""
"sailing-trial","119","675591","0.0-11.0-84.0","","","","false","","","","","","","","","","684.6000000238419","","430","","3","1","arrowright","1","arrowright","[0.325,0.675,0.15,0.85]","","",""
"sailing-trial","120","679480","0.0-11.0-85.0","","","","false","","","","","","","","","","null","","881","","1","0","null","null","arrowup","[0.325,0.675,0.15,0.85]","","",""
"sailing-trial","121","683743","0.0-11.0-86.0","","","","false","","","","","","","","","","566.3999999761581","","714.3000000119209","","3","1","arrowright","1","arrowright","[0.325,0.675,0.15,0.85]","","",""
"sailing-trial","122","687665","0.0-11.0-87.0","","","","false","","","","","","","","","","null","","895.3999999761581","","1","0","null","null","arrowup","[0.325,0.675,0.15,0.85]","","",""
"sailing-trial","123","690920","0.0-11.0-88.0","","","","false","","","","","","","","","","560.8000000119209","","492.60000002384186","","3","0","arrowright","1","arrowright","[0.325,0.675,0.15,0.85]","","",""
"sailing-trial","124","695346","0.0-11.0-89.0","","","","false","","","","","","","","","","null","","1406.5999999642372","","1","0","null","null","arrowup","[0.325,0.675,0.15,0.85]","","",""
"sailing-trial","125","700076","0.0-11.0-90.0","","","","false","","","","","","","","","","1373.3999999761581","","429.5999999642372","","3","1","arrowright","1","arrowright","[0.325,0.675,0.15,0.85]","","",""
"sailing-trial","126","704013","0.0-11.0-91.0","","","","false","","","","","","","","","","null","","932.1000000238419","","3","0","null","null","arrowup","[0.325,0.675,0.15,0.85]","","",""
"sailing-trial","127","708829","0.0-11.0-92.0","","","","false","","","","","","","","","","530.1999999880791","","252.39999997615814","","2","0","arrowright","1","arrowleft","[0.15,0.85,0.325,0.675]","","",""
"sailing-trial","128","711459","0.0-11.0-93.0","","","","false","","","","","","","","","","null","","727.5","","2","1","null","null","arrowup","[0.15,0.85,0.325,0.675]","","",""
"sailing-trial","129","716313","0.0-11.0-94.0","","","","false","","","","","","","","","","523.6000000238419","","288.30000001192093","","2","0","arrowright","1","arrowleft","[0.15,0.85,0.325,0.675]","","",""
"sailing-trial","130","718790","0.0-11.0-95.0","","","","false","","","","","","","","","","null","","649","","2","1","null","null","arrowup","[0.15,0.85,0.325,0.675]","","",""
"sailing-trial","131","722612","0.0-11.0-96.0","","","","false","","","","","","","","","","462.10000002384186","","445.19999998807907","","3","1","arrowright","1","arrowright","[0.15,0.85,0.325,0.675]","","",""
"sailing-trial","132","725443","0.0-11.0-97.0","","","","false","","","","","","","","","","null","","931.4000000357628","","3","1","null","null","arrowup","[0.15,0.85,0.325,0.675]","","",""
"sailing-trial","133","730344","0.0-11.0-98.0","","","","false","","","","","","","","","","548.1000000238419","","295.19999998807907","","3","0","arrowright","1","arrowright","[0.15,0.85,0.325,0.675]","","",""
"sailing-trial","134","733827","0.0-11.0-99.0","","","","false","","","","","","","","","","null","","1256.3999999761581","","3","1","null","null","arrowup","[0.15,0.85,0.325,0.675]","","",""
"sailing-trial","135","738829","0.0-11.0-100.0","","","","false","","","","","","","","","","635.5","","323.60000002384186","","1","0","arrowleft","0","arrowright","[0.15,0.85,0.325,0.675]","","",""
"sailing-trial","136","742512","0.0-11.0-101.0","","","","false","","","","","","","","","","null","","666.8000000119209","","0","0","null","null","arrowup","[0.15,0.85,0.325,0.675]","","",""
"sailing-trial","137","746979","0.0-11.0-102.0","","","","false","","","","","","","","","","433.60000002384186","","9.099999964237213","","0","0","arrowleft","0","arrowleft","[0.15,0.85,0.325,0.675]","","",""
"sailing-trial","138","749607","0.0-11.0-103.0","","","","false","","","","","","","","","","null","","712.2000000476837","","3","1","null","null","arrowup","[0.15,0.85,0.325,0.675]","","",""
"sailing-trial","139","752991","0.0-11.0-104.0","","","","false","","","","","","","","","","462.89999997615814","","42.89999997615814","","3","1","arrowright","1","arrowright","[0.15,0.85,0.325,0.675]","","",""
"sailing-trial","140","757377","0.0-11.0-105.0","","","","false","","","","","","","","","","null","","1358.199999988079","","2","0","null","null","arrowup","[0.15,0.85,0.325,0.675]","","",""
"sailing-trial","141","760676","0.0-11.0-106.0","","","","false","","","","","","","","","","398.10000002384186","","91.90000003576279","","3","1","arrowright","1","arrowright","[0.15,0.85,0.325,0.675]","","",""
"sailing-trial","142","763557","0.0-11.0-107.0","","","","false","","","","","","","","","","null","","1086.300000011921","","1","1","null","null","arrowup","[0.15,0.85,0.325,0.675]","","",""
"sailing-trial","143","767125","0.0-11.0-108.0","","","","false","","","","","","","","","","555.6000000238419","","77.09999996423721","","1","1","arrowleft","0","arrowright","[0.15,0.85,0.325,0.675]","","",""
"sailing-trial","144","771262","0.0-11.0-109.0","","","","false","","","","","","","","","","null","","1113.3999999761581","","1","0","null","null","arrowup","[0.15,0.85,0.325,0.675]","","",""
"sailing-trial","145","775043","0.0-11.0-110.0","","","","false","","","","","","","","","","696.6000000238419","","240","","1","1","arrowleft","0","arrowright","[0.15,0.85,0.325,0.675]","","",""
"sailing-trial","146","779063","0.0-11.0-111.0","","","","false","","","","","","","","","","null","","1002.7000000476837","","0","0","null","null","arrowup","[0.15,0.85,0.325,0.675]","","",""
"sailing-trial","147","782675","0.0-11.0-112.0","","","","false","","","","","","","","","","585.1000000238419","","190.80000001192093","","1","1","arrowleft","0","arrowright","[0.15,0.85,0.325,0.675]","","",""
"sailing-trial","148","785442","0.0-11.0-113.0","","","","false","","","","","","","","","","null","","977.4000000357628","","3","1","null","null","arrowup","[0.15,0.85,0.325,0.675]","","",""
"sailing-trial","149","789457","0.0-11.0-114.0","","","","false","","","","","","","","","","767.1000000238419","","401.5","","3","1","arrowright","1","arrowright","[0.15,0.85,0.325,0.675]","","",""
"sailing-trial","150","793341","0.0-11.0-115.0","","","","false","","","","","","","","","","null","","871.8999999761581","","3","0","null","null","arrowup","[0.15,0.85,0.325,0.675]","","",""
"sailing-trial","151","797127","0.0-11.0-116.0","","","","false","","","","","","","","","","539.8999999761581","","410.0999999642372","","1","1","arrowleft","0","arrowright","[0.325,0.675,0.15,0.85]","","",""
"sailing-trial","152","801129","0.0-11.0-117.0","","","","false","","","","","","","","","","null","","984.5999999642372","","1","0","null","null","arrowup","[0.325,0.675,0.15,0.85]","","",""
"sailing-trial","153","805026","0.0-11.0-118.0","","","","false","","","","","","","","","","664.8999999761581","","375.80000001192093","","1","1","arrowleft","0","arrowright","[0.325,0.675,0.15,0.85]","","",""
"sailing-trial","154","808993","0.0-11.0-119.0","","","","false","","","","","","","","","","null","","939.4000000357628","","0","0","null","null","arrowup","[0.325,0.675,0.15,0.85]","","",""
"sailing-trial","155","812992","0.0-11.0-120.0","","","","false","","","","","","","","","","540.6000000238419","","641","","3","1","arrowright","1","arrowright","[0.325,0.675,0.15,0.85]","","",""
"sailing-trial","156","816143","0.0-11.0-121.0","","","","false","","","","","","","","","","null","","1349.7000000476837","","0","1","null","null","arrowup","[0.325,0.675,0.15,0.85]","","",""
"sailing-trial","157","820025","0.0-11.0-122.0","","","","false","","","","","","","","","","602.3000000119209","","293.60000002384186","","3","1","arrowright","1","arrowright","[0.325,0.675,0.15,0.85]","","",""
"sailing-trial","158","824058","0.0-11.0-123.0","","","","false","","","","","","","","","","null","","1018.8000000119209","","0","0","null","null","arrowup","[0.325,0.675,0.15,0.85]","","",""
"sailing-trial","159","827839","0.0-11.0-124.0","","","","false","","","","","","","","","","645.6000000238419","","317.30000001192093","","3","1","arrowright","1","arrowright","[0.325,0.675,0.15,0.85]","","",""
"sailing-trial","160","830474","0.0-11.0-125.0","","","","false","","","","","","","","","","null","","830.6000000238419","","2","1","null","null","arrowup","[0.325,0.675,0.15,0.85]","","",""
"sailing-trial","161","833680","0.0-11.0-126.0","","","","false","","","","","","","","","","664.1000000238419","","273.2999999523163","","2","0","arrowright","1","arrowleft","[0.325,0.675,0.15,0.85]","","",""
"sailing-trial","162","837429","0.0-11.0-127.0","","","","false","","","","","","","","","","null","","748.5","","2","0","null","null","arrowup","[0.325,0.675,0.15,0.85]","","",""
"sailing-trial","163","842111","0.0-11.0-128.0","","","","false","","","","","","","","","","613.1999999880791","","53.299999952316284","","3","0","arrowright","1","arrowright","[0.325,0.675,0.15,0.85]","","",""
"sailing-trial","164","845691","0.0-11.0-129.0","","","","false","","","","","","","","","","null","","561","","0","0","null","null","arrowup","[0.325,0.675,0.15,0.85]","","",""
"sailing-trial","165","850561","0.0-11.0-130.0","","","","false","","","","","","","","","","464.5","","352.69999998807907","","1","0","arrowleft","0","arrowright","[0.325,0.675,0.15,0.85]","","",""
"sailing-trial","166","853139","0.0-11.0-131.0","","","","false","","","","","","","","","","null","","701.6999999880791","","3","1","null","null","arrowup","[0.325,0.675,0.15,0.85]","","",""
"sailing-trial","167","856692","0.0-11.0-132.0","","","","false","","","","","","","","","","638.5","","44.299999952316284","","3","1","arrowright","1","arrowright","[0.15,0.85,0.325,0.675]","","",""
"sailing-trial","168","859374","0.0-11.0-133.0","","","","false","","","","","","","","","","null","","891.0999999642372","","2","1","null","null","arrowup","[0.15,0.85,0.325,0.675]","","",""
"sailing-trial","169","863073","0.0-11.0-134.0","","","","false","","","","","","","","","","487.5","","453.5","","1","1","arrowleft","0","arrowright","[0.15,0.85,0.325,0.675]","","",""
"sailing-trial","170","865856","0.0-11.0-135.0","","","","false","","","","","","","","","","null","","884","","2","1","null","null","arrowup","[0.15,0.85,0.325,0.675]","","",""
"sailing-trial","171","870545","0.0-11.0-136.0","","","","false","","","","","","","","","","570.7000000476837","","80.89999997615814","","2","0","arrowright","1","arrowleft","[0.15,0.85,0.325,0.675]","","",""
"sailing-trial","172","873274","0.0-11.0-137.0","","","","false","","","","","","","","","","null","","848.1000000238419","","1","1","null","null","arrowup","[0.15,0.85,0.325,0.675]","","",""
"sailing-trial","173","877240","0.0-11.0-138.0","","","","false","","","","","","","","","","624.6999999880791","","510.69999998807907","","2","1","arrowright","1","arrowleft","[0.15,0.85,0.325,0.675]","","",""
"sailing-trial","174","879977","0.0-11.0-139.0","","","","false","","","","","","","","","","null","","912.8000000119209","","1","1","null","null","arrowup","[0.15,0.85,0.325,0.675]","","",""
"sailing-trial","175","885327","0.0-11.0-140.0","","","","false","","","","","","","","","","822.5999999642372","","500.89999997615814","","3","0","arrowright","1","arrowright","[0.15,0.85,0.325,0.675]","","",""
"sailing-trial","176","889012","0.0-11.0-141.0","","","","false","","","","","","","","","","null","","672.6999999880791","","0","0","null","null","arrowup","[0.15,0.85,0.325,0.675]","","",""
"sailing-trial","177","894045","0.0-11.0-142.0","","","","false","","","","","","","","","","592.8999999761581","","384.60000002384186","","0","0","arrowleft","0","arrowleft","[0.15,0.85,0.325,0.675]","","",""
"sailing-trial","178","898626","0.0-11.0-143.0","","","","false","","","","","","","","","","null","","1584.5","","3","0","null","null","arrowup","[0.15,0.85,0.325,0.675]","","",""
"sailing-trial","179","902407","0.0-11.0-144.0","","","","false","","","","","","","","","","632.4000000357628","","346.89999997615814","","2","1","arrowright","1","arrowleft","[0.15,0.85,0.325,0.675]","","",""
"sailing-trial","180","905139","0.0-11.0-145.0","","","","false","","","","","","","","","","null","","968.5","","2","1","null","null","arrowup","[0.15,0.85,0.325,0.675]","","",""
"sailing-trial","181","909861","0.0-11.0-146.0","","","","false","","","","","","","","","","614.6000000238419","","69.30000001192093","","0","0","arrowleft","0","arrowleft","[0.15,0.85,0.325,0.675]","","",""
"sailing-trial","182","913795","0.0-11.0-147.0","","","","false","","","","","","","","","","null","","934.8000000119209","","3","0","null","null","arrowup","[0.15,0.85,0.325,0.675]","","",""
"sailing-trial","183","917759","0.0-11.0-148.0","","","","false","","","","","","","","","","1568.699999988079","","114.39999997615814","","2","0","arrowright","1","arrowleft","[0.15,0.85,0.325,0.675]","","",""
"sailing-trial","184","920409","0.0-11.0-149.0","","","","false","","","","","","","","","","null","","786.3999999761581","","1","1","null","null","arrowup","[0.15,0.85,0.325,0.675]","","",""
"sailing-trial","185","924273","0.0-11.0-150.0","","","","false","","","","","","","","","","748.1999999880791","","319.80000001192093","","1","1","arrowleft","0","arrowright","[0.15,0.85,0.325,0.675]","","",""
"sailing-trial","186","926401","0.0-11.0-151.0","","","","false","","","","","","","","","","null","","848.1999999880791","","2","0","null","null","arrowup","[0.15,0.85,0.325,0.675]","","",""
"sailing-trial","187","929381","0.0-11.0-152.0","","","","false","","","","","","","","","","434","","261.19999998807907","","1","0","arrowleft","0","arrowright","[0.85,0.15,0.675,0.325]","","",""
"sailing-trial","188","931841","0.0-11.0-153.0","","","","false","","","","","","","","","","null","","637.8000000119209","","0","1","null","null","arrowup","[0.85,0.15,0.675,0.325]","","",""
"sailing-trial","189","935425","0.0-11.0-154.0","","","","false","","","","","","","","","","505.30000001192093","","195.20000004768372","","0","1","arrowleft","0","arrowleft","[0.85,0.15,0.675,0.325]","","",""
"sailing-trial","190","939392","0.0-11.0-155.0","","","","false","","","","","","","","","","null","","970.2000000476837","","1","0","null","null","arrowup","[0.85,0.15,0.675,0.325]","","",""
"sailing-trial","191","942363","0.0-11.0-156.0","","","","false","","","","","","","","","","603.1000000238419","","7.600000023841858","","2","0","arrowright","1","arrowleft","[0.85,0.15,0.675,0.325]","","",""
"sailing-trial","192","945009","0.0-11.0-157.0","","","","false","","","","","","","","","","null","","780.3000000119209","","0","1","null","null","arrowup","[0.85,0.15,0.675,0.325]","","",""
"sailing-trial","193","950447","0.0-11.0-158.0","","","","false","","","","","","","","","","1186.800000011921","","209.60000002384186","","1","0","arrowleft","0","arrowright","[0.85,0.15,0.675,0.325]","","",""
"sailing-trial","194","953076","0.0-11.0-159.0","","","","false","","","","","","","","","","null","","811.6000000238419","","3","1","null","null","arrowup","[0.85,0.15,0.675,0.325]","","",""
"sailing-trial","195","957110","0.0-11.0-160.0","","","","false","","","","","","","","","","644.5999999642372","","435.39999997615814","","1","1","arrowleft","0","arrowright","[0.85,0.15,0.675,0.325]","","",""
"sailing-trial","196","961094","0.0-11.0-161.0","","","","false","","","","","","","","","","null","","954.6999999880791","","3","0","null","null","arrowup","[0.85,0.15,0.675,0.325]","","",""
"sailing-trial","197","966458","0.0-11.0-162.0","","","","false","","","","","","","","","","790.0999999642372","","142.39999997615814","","0","1","arrowleft","0","arrowleft","[0.85,0.15,0.675,0.325]","","",""
"sailing-trial","198","970444","0.0-11.0-163.0","","","","false","","","","","","","","","","null","","985.4000000357628","","1","0","null","null","arrowup","[0.85,0.15,0.675,0.325]","","",""
"sailing-trial","199","975762","0.0-11.0-164.0","","","","false","","","","","","","","","","943.1999999880791","","351","","0","0","arrowleft","0","arrowleft","[0.85,0.15,0.675,0.325]","","",""
"sailing-trial","200","979175","0.0-11.0-165.0","","","","false","","","","","","","","","","null","","910.2999999523163","","2","1","null","null","arrowup","[0.85,0.15,0.675,0.325]","","",""
"sailing-trial","201","986474","0.0-11.0-166.0","","","","false","","","","","","","","","","2320.699999988079","","1680.5999999642372","","0","1","arrowleft","0","arrowleft","[0.85,0.15,0.675,0.325]","","",""
"sailing-trial","202","990245","0.0-11.0-167.0","","","","false","","","","","","","","","","null","","756.8000000119209","","1","0","null","null","arrowup","[0.85,0.15,0.675,0.325]","","",""
"sailing-trial","203","995224","0.0-11.0-168.0","","","","false","","","","","","","","","","504.19999998807907","","421.10000002384186","","1","0","arrowleft","0","arrowright","[0.85,0.15,0.675,0.325]","","",""
"sailing-trial","204","999127","0.0-11.0-169.0","","","","false","","","","","","","","","","null","","883.9000000357628","","1","0","null","null","arrowup","[0.85,0.15,0.675,0.325]","","",""
"sailing-trial","205","1004578","0.0-11.0-170.0","","","","false","","","","","","","","","","1209.5","","210.30000001192093","","0","0","arrowleft","0","arrowleft","[0.85,0.15,0.675,0.325]","","",""
"sailing-trial","206","1008225","0.0-11.0-171.0","","","","false","","","","","","","","","","null","","619.5999999642372","","1","0","null","null","arrowup","[0.85,0.15,0.675,0.325]","","",""
"sailing-trial","207","1012812","0.0-11.0-172.0","","","","false","","","","","","","","","","443.7000000476837","","61.80000001192093","","2","0","arrowright","1","arrowleft","[0.325,0.675,0.15,0.85]","","",""
"sailing-trial","208","1015407","0.0-11.0-173.0","","","","false","","","","","","","","","","null","","655.8000000119209","","2","1","null","null","arrowup","[0.325,0.675,0.15,0.85]","","",""
"sailing-trial","209","1019325","0.0-11.0-174.0","","","","false","","","","","","","","","","684.5","","83.80000001192093","","3","1","arrowright","1","arrowright","[0.325,0.675,0.15,0.85]","","",""
"sailing-trial","210","1021942","0.0-11.0-175.0","","","","false","","","","","","","","","","null","","811.3000000119209","","3","1","null","null","arrowup","[0.325,0.675,0.15,0.85]","","",""
"sailing-trial","211","1025625","0.0-11.0-176.0","","","","false","","","","","","","","","","634.5999999642372","","192.79999995231628","","3","1","arrowright","1","arrowright","[0.325,0.675,0.15,0.85]","","",""
"sailing-trial","212","1029477","0.0-11.0-177.0","","","","false","","","","","","","","","","null","","835.1000000238419","","2","0","null","null","arrowup","[0.325,0.675,0.15,0.85]","","",""
"sailing-trial","213","1033121","0.0-11.0-178.0","","","","false","","","","","","","","","","655.5999999642372","","66.19999998807907","","3","1","arrowright","1","arrowright","[0.325,0.675,0.15,0.85]","","",""
"sailing-trial","214","1036158","0.0-11.0-179.0","","","","false","","","","","","","","","","null","","928","","1","1","null","null","arrowup","[0.325,0.675,0.15,0.85]","","",""
"sailing-trial","215","1040342","0.0-11.0-180.0","","","","false","","","","","","","","","","569.7999999523163","","510.30000001192093","","3","1","arrowright","1","arrowright","[0.325,0.675,0.15,0.85]","","",""
"sailing-trial","216","1043176","0.0-11.0-181.0","","","","false","","","","","","","","","","null","","770.3000000119209","","1","1","null","null","arrowup","[0.325,0.675,0.15,0.85]","","",""
"sailing-trial","217","1047322","0.0-11.0-182.0","","","","false","","","","","","","","","","422.19999998807907","","707.4000000357628","","3","1","arrowright","1","arrowright","[0.325,0.675,0.15,0.85]","","",""
"sailing-trial","218","1050358","0.0-11.0-183.0","","","","false","","","","","","","","","","null","","1024.199999988079","","1","1","null","null","arrowup","[0.325,0.675,0.15,0.85]","","",""
"sailing-trial","219","1055642","0.0-11.0-184.0","","","","false","","","","","","","","","","924.6999999880791","","222.80000001192093","","3","1","arrowright","1","arrowright","[0.325,0.675,0.15,0.85]","","",""
"sailing-trial","220","1059558","0.0-11.0-185.0","","","","false","","","","","","","","","","null","","901.1999999880791","","2","0","null","null","arrowup","[0.325,0.675,0.15,0.85]","","",""
"sailing-trial","221","1064109","0.0-11.0-186.0","","","","false","","","","","","","","","","1580.7000000476837","","29.5","","3","1","arrowright","1","arrowright","[0.325,0.675,0.15,0.85]","","",""
"sailing-trial","222","1067774","0.0-11.0-187.0","","","","false","","","","","","","","","","null","","1614.699999988079","","0","1","null","null","arrowup","[0.325,0.675,0.15,0.85]","","",""
"sailing-trial","223","1072740","0.0-11.0-188.0","","","","false","","","","","","","","","","763","","1183","","3","1","arrowright","1","arrowright","[0.325,0.675,0.15,0.85]","","",""
"sailing-trial","224","1075974","0.0-11.0-189.0","","","","false","","","","","","","","","","null","","1293.2000000476837","","1","1","null","null","arrowup","[0.325,0.675,0.15,0.85]","","",""
"sailing-trial","225","1080007","0.0-11.0-190.0","","","","false","","","","","","","","","","593.3000000119209","","354.39999997615814","","3","1","arrowright","1","arrowright","[0.15,0.85,0.325,0.675]","","",""
"sailing-trial","226","1084578","0.0-11.0-191.0","","","","false","","","","","","","","","","null","","1556.800000011921","","0","0","null","null","arrowup","[0.15,0.85,0.325,0.675]","","",""
"sailing-trial","227","1089126","0.0-11.0-192.0","","","","false","","","","","","","","","","446.89999997615814","","86","","3","0","arrowright","1","arrowright","[0.15,0.85,0.325,0.675]","","",""
"sailing-trial","228","1092091","0.0-11.0-193.0","","","","false","","","","","","","","","","null","","881.5999999642372","","3","1","null","null","arrowup","[0.15,0.85,0.325,0.675]","","",""
"sailing-trial","229","1095608","0.0-11.0-194.0","","","","false","","","","","","","","","","547.9000000357628","","71.89999997615814","","3","1","arrowright","1","arrowright","[0.15,0.85,0.325,0.675]","","",""
"sailing-trial","230","1098341","0.0-11.0-195.0","","","","false","","","","","","","","","","null","","853.8000000119209","","3","1","null","null","arrowup","[0.15,0.85,0.325,0.675]","","",""
"sailing-trial","231","1102354","0.0-11.0-196.0","","","","false","","","","","","","","","","650.3000000119209","","431.7000000476837","","3","1","arrowright","1","arrowright","[0.15,0.85,0.325,0.675]","","",""
"sailing-trial","232","1105257","0.0-11.0-197.0","","","","false","","","","","","","","","","null","","1058.5999999642372","","1","1","null","null","arrowup","[0.15,0.85,0.325,0.675]","","",""
"sailing-trial","233","1108922","0.0-11.0-198.0","","","","false","","","","","","","","","","526.6000000238419","","278.10000002384186","","3","1","arrowright","1","arrowright","[0.15,0.85,0.325,0.675]","","",""
"sailing-trial","234","1113096","0.0-11.0-199.0","","","","false","","","","","","","","","","null","","1152.699999988079","","2","0","null","null","arrowup","[0.15,0.85,0.325,0.675]","","",""
"sailing-trial","235","1118544","0.0-11.0-200.0","","","","false","","","","","","","","","","537.5","","884.8000000119209","","3","0","arrowright","1","arrowright","[0.15,0.85,0.325,0.675]","","",""
"sailing-trial","236","1122345","0.0-11.0-201.0","","","","false","","","","","","","","","","null","","776.0999999642372","","0","0","null","null","arrowup","[0.15,0.85,0.325,0.675]","","",""
"sailing-trial","237","1126290","0.0-11.0-202.0","","","","false","","","","","","","","","","436.5","","217.19999998807907","","3","1","arrowright","1","arrowright","[0.15,0.85,0.325,0.675]","","",""
"sailing-trial","238","1130075","0.0-11.0-203.0","","","","false","","","","","","","","","","null","","1703","","3","1","null","null","arrowup","[0.15,0.85,0.325,0.675]","","",""
"sailing-trial","239","1133658","0.0-11.0-204.0","","","","false","","","","","","","","","","453.39999997615814","","257.19999998807907","","3","1","arrowright","1","arrowright","[0.15,0.85,0.325,0.675]","","",""
"sailing-trial","240","1138157","0.0-11.0-205.0","","","","false","","","","","","","","","","null","","1502.300000011921","","2","0","null","null","arrowup","[0.15,0.85,0.325,0.675]","","",""
"sailing-trial","241","1142840","0.0-11.0-206.0","","","","false","","","","","","","","","","639.8000000119209","","887.3999999761581","","3","1","arrowright","1","arrowright","[0.15,0.85,0.325,0.675]","","",""
"sailing-trial","242","1147112","0.0-11.0-207.0","","","","false","","","","","","","","","","null","","1257.699999988079","","2","0","null","null","arrowup","[0.15,0.85,0.325,0.675]","","",""
"sailing-trial","243","1150989","0.0-11.0-208.0","","","","false","","","","","","","","","","761.1999999880791","","34.89999997615814","","3","1","arrowright","1","arrowright","[0.15,0.85,0.325,0.675]","","",""
"sailing-trial","244","1155160","0.0-11.0-209.0","","","","false","","","","","","","","","","null","","1160","","3","0","null","null","arrowup","[0.15,0.85,0.325,0.675]","","",""
"sailing-trial","245","1159240","0.0-11.0-210.0","","","","false","","","","","","","","","","525.7000000476837","","609.5","","3","1","arrowright","1","arrowright","[0.325,0.675,0.15,0.85]","","",""
"sailing-trial","246","1162008","0.0-11.0-211.0","","","","false","","","","","","","","","","null","","959.5","","0","1","null","null","arrowup","[0.325,0.675,0.15,0.85]","","",""
"sailing-trial","247","1166041","0.0-11.0-212.0","","","","false","","","","","","","","","","648.5","","383.30000001192093","","3","1","arrowright","1","arrowright","[0.325,0.675,0.15,0.85]","","",""
"sailing-trial","248","1169824","0.0-11.0-213.0","","","","false","","","","","","","","","","null","","757.5","","3","0","null","null","arrowup","[0.325,0.675,0.15,0.85]","","",""
"sailing-trial","249","1173842","0.0-11.0-214.0","","","","false","","","","","","","","","","622.8000000119209","","512.8999999761581","","3","1","arrowright","1","arrowright","[0.325,0.675,0.15,0.85]","","",""
"sailing-trial","250","1177844","0.0-11.0-215.0","","","","false","","","","","","","","","","null","","997.6000000238419","","3","0","null","null","arrowup","[0.325,0.675,0.15,0.85]","","",""
"sailing-trial","251","1181607","0.0-11.0-216.0","","","","false","","","","","","","","","","573.3999999761581","","384.89999997615814","","3","1","arrowright","1","arrowright","[0.325,0.675,0.15,0.85]","","",""
"sailing-trial","252","1185474","0.0-11.0-217.0","","","","false","","","","","","","","","","null","","862.2999999523163","","1","0","null","null","arrowup","[0.325,0.675,0.15,0.85]","","",""
"sailing-trial","253","1189541","0.0-11.0-218.0","","","","false","","","","","","","","","","510.39999997615814","","473","","3","1","arrowright","1","arrowright","[0.325,0.675,0.15,0.85]","","",""
"sailing-trial","254","1193324","0.0-11.0-219.0","","","","false","","","","","","","","","","null","","1641.800000011921","","1","1","null","null","arrowup","[0.325,0.675,0.15,0.85]","","",""
"sailing-trial","255","1198575","0.0-11.0-220.0","","","","false","","","","","","","","","","1369.1000000238419","","1004.1999999880791","","3","1","arrowright","1","arrowright","[0.325,0.675,0.15,0.85]","","",""
"sailing-trial","256","1202978","0.0-11.0-221.0","","","","false","","","","","","","","","","null","","1395.0999999642372","","0","0","null","null","arrowup","[0.325,0.675,0.15,0.85]","","",""
"sailing-trial","257","1207025","0.0-11.0-222.0","","","","false","","","","","","","","","","649.6000000238419","","304.89999997615814","","3","1","arrowright","1","arrowright","[0.325,0.675,0.15,0.85]","","",""
"sailing-trial","258","1209808","0.0-11.0-223.0","","","","false","","","","","","","","","","null","","927.9000000357628","","1","1","null","null","arrowup","[0.325,0.675,0.15,0.85]","","",""
"sailing-trial","259","1213708","0.0-11.0-224.0","","","","false","","","","","","","","","","568.8000000119209","","324.89999997615814","","3","1","arrowright","1","arrowright","[0.325,0.675,0.15,0.85]","","",""
"sailing-trial","260","1217793","0.0-11.0-225.0","","","","false","","","","","","","","","","null","","1075.300000011921","","2","0","null","null","arrowup","[0.325,0.675,0.15,0.85]","","",""
"sailing-trial","261","1221408","0.0-11.0-226.0","","","","false","","","","","","","","","","380.19999998807907","","76.5","","3","1","arrowright","1","arrowright","[0.325,0.675,0.15,0.85]","","",""
"sailing-trial","262","1225328","0.0-11.0-227.0","","","","false","","","","","","","","","","null","","903.6999999880791","","2","0","null","null","arrowup","[0.325,0.675,0.15,0.85]","","",""
"sailing-trial","263","1229791","0.0-11.0-228.0","","","","false","","","","","","","","","","138.5","","1542","","3","1","arrowright","1","arrowright","[0.675,0.325,0.85,0.15]","","",""
"sailing-trial","264","1233306","0.0-11.0-229.0","","","","false","","","","","","","","","","null","","1703.4000000357628","","2","1","null","null","arrowup","[0.675,0.325,0.85,0.15]","","",""
"sailing-trial","265","1238212","0.0-11.0-230.0","","","","false","","","","","","","","","","746.5999999642372","","137.60000002384186","","3","0","arrowright","1","arrowright","[0.675,0.325,0.85,0.15]","","",""
"sailing-trial","266","1241241","0.0-11.0-231.0","","","","false","","","","","","","","","","null","","892.0999999642372","","2","1","null","null","arrowup","[0.675,0.325,0.85,0.15]","","",""
"sailing-trial","267","1246956","0.0-11.0-232.0","","","","false","","","","","","","","","","1351.5","","322.30000001192093","","3","0","arrowright","1","arrowright","[0.675,0.325,0.85,0.15]","","",""
"sailing-trial","268","1250440","0.0-11.0-233.0","","","","false","","","","","","","","","","null","","1113.6000000238419","","2","1","null","null","arrowup","[0.675,0.325,0.85,0.15]","","",""
"sailing-trial","269","1257773","0.0-11.0-234.0","","","","false","","","","","","","","","","2205.300000011921","","1087.1000000238419","","3","0","arrowright","1","arrowright","[0.675,0.325,0.85,0.15]","","",""
"sailing-trial","270","1261855","0.0-11.0-235.0","","","","false","","","","","","","","","","null","","1796.8999999761581","","0","1","null","null","arrowup","[0.675,0.325,0.85,0.15]","","",""
"sailing-trial","271","1265840","0.0-11.0-236.0","","","","false","","","","","","","","","","719.7999999523163","","76.69999998807907","","0","1","arrowleft","0","arrowleft","[0.675,0.325,0.85,0.15]","","",""
"sailing-trial","272","1268356","0.0-11.0-237.0","","","","false","","","","","","","","","","null","","688.2000000476837","","2","1","null","null","arrowup","[0.675,0.325,0.85,0.15]","","",""
"sailing-trial","273","1273244","0.0-11.0-238.0","","","","false","","","","","","","","","","617.8999999761581","","218.20000004768372","","0","0","arrowleft","0","arrowleft","[0.675,0.325,0.85,0.15]","","",""
"sailing-trial","274","1277459","0.0-11.0-239.0","","","","false","","","","","","","","","","null","","1194.800000011921","","1","0","null","null","arrowup","[0.675,0.325,0.85,0.15]","","",""
"sailing-trial","275","1282489","0.0-11.0-240.0","","","","false","","","","","","","","","","2057.2000000476837","","153","","0","1","arrowleft","0","arrowleft","[0.675,0.325,0.85,0.15]","","",""
"sailing-trial","276","1285773","0.0-11.0-241.0","","","","false","","","","","","","","","","null","","1513.6000000238419","","2","1","null","null","arrowup","[0.675,0.325,0.85,0.15]","","",""
"sailing-trial","277","1290518","0.0-11.0-242.0","","","","false","","","","","","","","","","530.5","","215.69999998807907","","0","0","arrowleft","0","arrowleft","[0.675,0.325,0.85,0.15]","","",""
"sailing-trial","278","1293457","0.0-11.0-243.0","","","","false","","","","","","","","","","null","","1031.800000011921","","1","1","null","null","arrowup","[0.675,0.325,0.85,0.15]","","",""
"sailing-trial","279","1298890","0.0-11.0-244.0","","","","false","","","","","","","","","","1198.8999999761581","","768.1999999880791","","0","1","arrowleft","0","arrowleft","[0.675,0.325,0.85,0.15]","","",""
"sailing-trial","280","1303661","0.0-11.0-245.0","","","","false","","","","","","","","","","null","","1761.199999988079","","1","0","null","null","arrowup","[0.675,0.325,0.85,0.15]","","",""
"sailing-trial","281","1308926","0.0-11.0-246.0","","","","false","","","","","","","","","","847.6000000238419","","395.39999997615814","","0","0","arrowleft","0","arrowleft","[0.675,0.325,0.85,0.15]","","",""
"sailing-trial","282","1312842","0.0-11.0-247.0","","","","false","","","","","","","","","","null","","913.3999999761581","","1","0","null","null","arrowup","[0.675,0.325,0.85,0.15]","","",""
"sailing-trial","283","1317142","0.0-11.0-248.0","","","","false","","","","","","","","","","744.6000000238419","","396.80000001192093","","0","1","arrowleft","0","arrowleft","[0.675,0.325,0.85,0.15]","","",""
"sailing-trial","284","1320941","0.0-11.0-249.0","","","","false","","","","","","","","","","null","","1824","","0","1","null","null","arrowup","[0.675,0.325,0.85,0.15]","","",""
"sailing-trial","285","1325241","0.0-11.0-250.0","","","","false","","","","","","","","","","965.1000000238419","","448.89999997615814","","0","1","arrowleft","0","arrowleft","[0.85,0.15,0.675,0.325]","","",""
"sailing-trial","286","1328290","0.0-11.0-251.0","","","","false","","","","","","","","","","null","","1118.6000000238419","","3","1","null","null","arrowup","[0.85,0.15,0.675,0.325]","","",""
"sailing-trial","287","1332824","0.0-11.0-252.0","","","","false","","","","","","","","","","910.4000000357628","","744.0999999642372","","0","1","arrowleft","0","arrowleft","[0.85,0.15,0.675,0.325]","","",""
"sailing-trial","288","1336940","0.0-11.0-253.0","","","","false","","","","","","","","","","null","","1099.3999999761581","","1","0","null","null","arrowup","[0.85,0.15,0.675,0.325]","","",""
"sailing-trial","289","1340805","0.0-11.0-254.0","","","","false","","","","","","","","","","788.8000000119209","","378.30000001192093","","0","1","arrowleft","0","arrowleft","[0.85,0.15,0.675,0.325]","","",""
"sailing-trial","290","1343775","0.0-11.0-255.0","","","","false","","","","","","","","","","null","","1157.7000000476837","","0","1","null","null","arrowup","[0.85,0.15,0.675,0.325]","","",""
"sailing-trial","291","1349209","0.0-11.0-256.0","","","","false","","","","","","","","","","944.3000000119209","","467.30000001192093","","1","0","arrowleft","0","arrowright","[0.85,0.15,0.675,0.325]","","",""
"sailing-trial","292","1352189","0.0-11.0-257.0","","","","false","","","","","","","","","","null","","1059.699999988079","","2","1","null","null","arrowup","[0.85,0.15,0.675,0.325]","","",""
"sailing-trial","293","1356371","0.0-11.0-258.0","","","","false","","","","","","","","","","925.1000000238419","","23.80000001192093","","0","1","arrowleft","0","arrowleft","[0.85,0.15,0.675,0.325]","","",""
"sailing-trial","294","1360441","0.0-11.0-259.0","","","","false","","","","","","","","","","null","","1067.1000000238419","","3","0","null","null","arrowup","[0.85,0.15,0.675,0.325]","","",""
"sailing-trial","295","1364808","0.0-11.0-260.0","","","","false","","","","","","","","","","1194.6000000238419","","312.80000001192093","","0","1","arrowleft","0","arrowleft","[0.85,0.15,0.675,0.325]","","",""
"sailing-trial","296","1368876","0.0-11.0-261.0","","","","false","","","","","","","","","","null","","1065.5999999642372","","1","0","null","null","arrowup","[0.85,0.15,0.675,0.325]","","",""
"sailing-trial","297","1373740","0.0-11.0-262.0","","","","false","","","","","","","","","","755.3999999761581","","86.60000002384186","","0","0","arrowleft","0","arrowleft","[0.85,0.15,0.675,0.325]","","",""
"sailing-trial","298","1378192","0.0-11.0-263.0","","","","false","","","","","","","","","","null","","1440.8999999761581","","3","0","null","null","arrowup","[0.85,0.15,0.675,0.325]","","",""
"sailing-trial","299","1383374","0.0-11.0-264.0","","","","false","","","","","","","","","","1069.5999999642372","","91.39999997615814","","3","0","arrowright","1","arrowright","[0.85,0.15,0.675,0.325]","","",""
"sailing-trial","300","1386440","0.0-11.0-265.0","","","","false","","","","","","","","","","null","","989.8000000119209","","0","1","null","null","arrowup","[0.85,0.15,0.675,0.325]","","",""
"sailing-trial","301","1390071","0.0-11.0-266.0","","","","false","","","","","","","","","","505.19999998807907","","224.19999998807907","","0","1","arrowleft","0","arrowleft","[0.675,0.325,0.85,0.15]","","",""
"sailing-trial","302","1392991","0.0-11.0-267.0","","","","false","","","","","","","","","","null","","1082.5999999642372","","3","1","null","null","arrowup","[0.675,0.325,0.85,0.15]","","",""
"sailing-trial","303","1398206","0.0-11.0-268.0","","","","false","","","","","","","","","","1721.6000000238419","","88.69999998807907","","0","1","arrowleft","0","arrowleft","[0.675,0.325,0.85,0.15]","","",""
"sailing-trial","304","1401707","0.0-11.0-269.0","","","","false","","","","","","","","","","null","","1693.5999999642372","","2","1","null","null","arrowup","[0.675,0.325,0.85,0.15]","","",""
"sailing-trial","305","1405671","0.0-11.0-270.0","","","","false","","","","","","","","","","493.9000000357628","","404","","0","1","arrowleft","0","arrowleft","[0.675,0.325,0.85,0.15]","","",""
"sailing-trial","306","1407741","0.0-11.0-271.0","","","","false","","","","","","","","","","null","","809.8999999761581","","3","0","null","null","arrowup","[0.675,0.325,0.85,0.15]","","",""
"sailing-trial","307","1411337","0.0-11.0-272.0","","","","false","","","","","","","","","","518","","255","","0","1","arrowleft","0","arrowleft","[0.675,0.325,0.85,0.15]","","",""
"sailing-trial","308","1414456","0.0-11.0-273.0","","","","false","","","","","","","","","","null","","1221.699999988079","","0","1","null","null","arrowup","[0.675,0.325,0.85,0.15]","","",""
"sailing-trial","309","1418688","0.0-11.0-274.0","","","","false","","","","","","","","","","805.6000000238419","","386.80000001192093","","0","1","arrowleft","0","arrowleft","[0.675,0.325,0.85,0.15]","","",""
"sailing-trial","310","1422057","0.0-11.0-275.0","","","","false","","","","","","","","","","null","","1554.800000011921","","3","1","null","null","arrowup","[0.675,0.325,0.85,0.15]","","",""
"sailing-trial","311","1425589","0.0-11.0-276.0","","","","false","","","","","","","","","","520.3000000119209","","269","","0","1","arrowleft","0","arrowleft","[0.675,0.325,0.85,0.15]","","",""
"sailing-trial","312","1428541","0.0-11.0-277.0","","","","false","","","","","","","","","","null","","1163.2000000476837","","0","1","null","null","arrowup","[0.675,0.325,0.85,0.15]","","",""
"sailing-trial","313","1432058","0.0-11.0-278.0","","","","false","","","","","","","","","","528.3999999761581","","178.5","","0","1","arrowleft","0","arrowleft","[0.675,0.325,0.85,0.15]","","",""
"sailing-trial","314","1436108","0.0-11.0-279.0","","","","false","","","","","","","","","","null","","1031.5999999642372","","0","0","null","null","arrowup","[0.675,0.325,0.85,0.15]","","",""
"sailing-trial","315","1440123","0.0-11.0-280.0","","","","false","","","","","","","","","","1110.7000000476837","","82.10000002384186","","2","1","arrowright","1","arrowleft","[0.675,0.325,0.85,0.15]","","",""
"sailing-trial","316","1443074","0.0-11.0-281.0","","","","false","","","","","","","","","","null","","1171","","0","1","null","null","arrowup","[0.675,0.325,0.85,0.15]","","",""
"sailing-trial","317","1447057","0.0-11.0-282.0","","","","false","","","","","","","","","","534.3000000119209","","700.3000000119209","","2","1","arrowright","1","arrowleft","[0.85,0.15,0.675,0.325]","","",""
"sailing-trial","318","1450140","0.0-11.0-283.0","","","","false","","","","","","","","","","null","","1228.0999999642372","","3","1","null","null","arrowup","[0.85,0.15,0.675,0.325]","","",""
"sailing-trial","319","1453194","0.0-11.0-284.0","","","","false","","","","","","","","","","571.3999999761581","","179.80000001192093","","2","0","arrowright","1","arrowleft","[0.85,0.15,0.675,0.325]","","",""
"sailing-trial","320","1455409","0.0-11.0-285.0","","","","false","","","","","","","","","","null","","917.5999999642372","","2","0","null","null","arrowup","[0.85,0.15,0.675,0.325]","","",""
"sailing-trial","321","1460559","0.0-11.0-286.0","","","","false","","","","","","","","","","637","","491.39999997615814","","3","0","arrowright","1","arrowright","[0.85,0.15,0.675,0.325]","","",""
"sailing-trial","322","1464191","0.0-11.0-287.0","","","","false","","","","","","","","","","null","","636.6999999880791","","3","0","null","null","arrowup","[0.85,0.15,0.675,0.325]","","",""
"sailing-trial","323","1468057","0.0-11.0-288.0","","","","false","","","","","","","","","","612.4000000357628","","290.80000001192093","","0","1","arrowleft","0","arrowleft","[0.85,0.15,0.675,0.325]","","",""
"sailing-trial","324","1470888","0.0-11.0-289.0","","","","false","","","","","","","","","","null","","1046.9000000357628","","3","1","null","null","arrowup","[0.85,0.15,0.675,0.325]","","",""
"sailing-trial","325","1474289","0.0-11.0-290.0","","","","false","","","","","","","","","","443.80000001192093","","33.299999952316284","","0","1","arrowleft","0","arrowleft","[0.85,0.15,0.675,0.325]","","",""
"sailing-trial","326","1477838","0.0-11.0-291.0","","","","false","","","","","","","","","","null","","1063.300000011921","","0","1","null","null","arrowup","[0.85,0.15,0.675,0.325]","","",""
"sailing-trial","327","1481941","0.0-11.0-292.0","","","","false","","","","","","","","","","667.3000000119209","","670.3000000119209","","0","1","arrowleft","0","arrowleft","[0.85,0.15,0.675,0.325]","","",""
"sailing-trial","328","1486010","0.0-11.0-293.0","","","","false","","","","","","","","","","null","","1047.300000011921","","3","0","null","null","arrowup","[0.85,0.15,0.675,0.325]","","",""
"sailing-trial","329","1490389","0.0-11.0-294.0","","","","false","","","","","","","","","","1247","","303.9000000357628","","0","1","arrowleft","0","arrowleft","[0.85,0.15,0.675,0.325]","","",""
"sailing-trial","330","1494409","0.0-11.0-295.0","","","","false","","","","","","","","","","null","","992.5999999642372","","1","0","null","null","arrowup","[0.85,0.15,0.675,0.325]","","",""
"sailing-trial","331","1498105","0.0-11.0-296.0","","","","false","","","","","","","","","","654.6999999880791","","117.69999998807907","","0","1","arrowleft","0","arrowleft","[0.85,0.15,0.675,0.325]","","",""
"sailing-trial","332","1500755","0.0-11.0-297.0","","","","false","","","","","","","","","","null","","876","","0","1","null","null","arrowup","[0.85,0.15,0.675,0.325]","","",""
"sailing-trial","333","1505359","0.0-11.0-298.0","","","","false","","","","","","","","","","488","","78.09999996423721","","0","0","arrowleft","0","arrowleft","[0.675,0.325,0.85,0.15]","","",""
"sailing-trial","334","1508073","0.0-11.0-299.0","","","","false","","","","","","","","","","null","","964.5","","2","1","null","null","arrowup","[0.675,0.325,0.85,0.15]","","",""
"sailing-trial","335","1512974","0.0-11.0-300.0","","","","false","","","","","","","","","","604.1999999880791","","246.39999997615814","","0","0","arrowleft","0","arrowleft","[0.675,0.325,0.85,0.15]","","",""
"sailing-trial","336","1515607","0.0-11.0-301.0","","","","false","","","","","","","","","","null","","793.5999999642372","","0","1","null","null","arrowup","[0.675,0.325,0.85,0.15]","","",""
"sailing-trial","337","1520344","0.0-11.0-302.0","","","","false","","","","","","","","","","623.3999999761581","","57.19999998807907","","0","0","arrowleft","0","arrowleft","[0.675,0.325,0.85,0.15]","","",""
"sailing-trial","338","1522425","0.0-11.0-303.0","","","","false","","","","","","","","","","null","","828","","1","0","null","null","arrowup","[0.675,0.325,0.85,0.15]","","",""
"sailing-trial","339","1527393","0.0-11.0-304.0","","","","false","","","","","","","","","","675.6999999880791","","231.30000001192093","","0","0","arrowleft","0","arrowleft","[0.675,0.325,0.85,0.15]","","",""
"sailing-trial","340","1529857","0.0-11.0-305.0","","","","false","","","","","","","","","","null","","571.8999999761581","","2","1","null","null","arrowup","[0.675,0.325,0.85,0.15]","","",""
"sailing-trial","341","1533238","0.0-11.0-306.0","","","","false","","","","","","","","","","450.5","","132.9000000357628","","2","1","arrowright","1","arrowleft","[0.675,0.325,0.85,0.15]","","",""
"sailing-trial","342","1536007","0.0-11.0-307.0","","","","false","","","","","","","","","","null","","999.3000000119209","","0","1","null","null","arrowup","[0.675,0.325,0.85,0.15]","","",""
"sailing-trial","343","1539304","0.0-11.0-308.0","","","","false","","","","","","","","","","394.80000001192093","","179.69999998807907","","2","1","arrowright","1","arrowleft","[0.675,0.325,0.85,0.15]","","",""
"sailing-trial","344","1542023","0.0-11.0-309.0","","","","false","","","","","","","","","","null","","958.8000000119209","","2","1","null","null","arrowup","[0.675,0.325,0.85,0.15]","","",""
"sailing-trial","345","1545874","0.0-11.0-310.0","","","","false","","","","","","","","","","707.4000000357628","","64.40000003576279","","2","1","arrowright","1","arrowleft","[0.675,0.325,0.85,0.15]","","",""
"sailing-trial","346","1547948","0.0-11.0-311.0","","","","false","","","","","","","","","","null","","815.0999999642372","","1","0","null","null","arrowup","[0.675,0.325,0.85,0.15]","","",""
"sailing-trial","347","1551440","0.0-11.0-312.0","","","","false","","","","","","","","","","475.5","","176.80000001192093","","2","1","arrowright","1","arrowleft","[0.675,0.325,0.85,0.15]","","",""
"sailing-trial","348","1554989","0.0-11.0-313.0","","","","false","","","","","","","","","","null","","1155.199999988079","","0","1","null","null","arrowup","[0.675,0.325,0.85,0.15]","","",""
"sailing-trial","349","1560125","0.0-11.0-314.0","","","","false","","","","","","","","","","804","","295.5","","2","0","arrowright","1","arrowleft","[0.325,0.675,0.15,0.85]","","",""
"sailing-trial","350","1564023","0.0-11.0-315.0","","","","false","","","","","","","","","","null","","883.8000000119209","","2","0","null","null","arrowup","[0.325,0.675,0.15,0.85]","","",""
"sailing-trial","351","1568776","0.0-11.0-316.0","","","","false","","","","","","","","","","435.19999998807907","","291.10000002384186","","0","0","arrowleft","0","arrowleft","[0.325,0.675,0.15,0.85]","","",""
"sailing-trial","352","1571187","0.0-11.0-317.0","","","","false","","","","","","","","","","null","","597.8999999761581","","1","1","null","null","arrowup","[0.325,0.675,0.15,0.85]","","",""
"sailing-trial","353","1574041","0.0-11.0-318.0","","","","false","","","","","","","","","","513.0999999642372","","17.80000001192093","","1","0","arrowleft","0","arrowright","[0.325,0.675,0.15,0.85]","","",""
"sailing-trial","354","1578008","0.0-11.0-319.0","","","","false","","","","","","","","","","null","","951.3000000119209","","3","0","null","null","arrowup","[0.325,0.675,0.15,0.85]","","",""
"sailing-trial","355","1582304","0.0-11.0-320.0","","","","false","","","","","","","","","","593.8999999761581","","905.1999999880791","","1","1","arrowleft","0","arrowright","[0.325,0.675,0.15,0.85]","","",""
"sailing-trial","356","1585173","0.0-11.0-321.0","","","","false","","","","","","","","","","null","","1049.1000000238419","","3","1","null","null","arrowup","[0.325,0.675,0.15,0.85]","","",""
"sailing-trial","357","1590309","0.0-11.0-322.0","","","","false","","","","","","","","","","542.1000000238419","","561.6000000238419","","1","0","arrowleft","0","arrowright","[0.325,0.675,0.15,0.85]","","",""
"sailing-trial","358","1593339","0.0-11.0-323.0","","","","false","","","","","","","","","","null","","925.1000000238419","","0","1","null","null","arrowup","[0.325,0.675,0.15,0.85]","","",""
"sailing-trial","359","1597639","0.0-11.0-324.0","","","","false","","","","","","","","","","466.2000000476837","","992.7999999523163","","0","1","arrowleft","0","arrowleft","[0.325,0.675,0.15,0.85]","","",""
"sailing-trial","360","1600304","0.0-11.0-325.0","","","","false","","","","","","","","","","null","","864.7000000476837","","1","1","null","null","arrowup","[0.325,0.675,0.15,0.85]","","",""
"sailing-trial","361","1605738","0.0-11.0-326.0","","","","false","","","","","","","","","","1275.699999988079","","100.19999998807907","","0","0","arrowleft","0","arrowleft","[0.325,0.675,0.15,0.85]","","",""
"sailing-trial","362","1609860","0.0-11.0-327.0","","","","false","","","","","","","","","","null","","1102.699999988079","","1","0","null","null","arrowup","[0.325,0.675,0.15,0.85]","","",""
"sailing-trial","363","1613837","0.0-11.0-328.0","","","","false","","","","","","","","","","803.1999999880791","","305.69999998807907","","2","1","arrowright","1","arrowleft","[0.325,0.675,0.15,0.85]","","",""
"sailing-trial","364","1617522","0.0-11.0-329.0","","","","false","","","","","","","","","","null","","1883.5","","3","1","null","null","arrowup","[0.325,0.675,0.15,0.85]","","",""
"sailing-trial","365","1622673","0.0-11.0-330.0","","","","false","","","","","","","","","","943.8000000119209","","169.30000001192093","","0","0","arrowleft","0","arrowleft","[0.325,0.675,0.15,0.85]","","",""
"sailing-trial","366","1625404","0.0-11.0-331.0","","","","false","","","","","","","","","","null","","900.6999999880791","","1","1","null","null","arrowup","[0.325,0.675,0.15,0.85]","","",""
"sailing-trial","367","1630174","0.0-11.0-332.0","","","","false","","","","","","","","","","539.8999999761581","","178","","3","0","arrowright","1","arrowright","[0.15,0.85,0.325,0.675]","","",""
"sailing-trial","368","1633053","0.0-11.0-333.0","","","","false","","","","","","","","","","null","","1012.5","","3","1","null","null","arrowup","[0.15,0.85,0.325,0.675]","","",""
"sailing-trial","369","1638177","0.0-11.0-334.0","","","","false","","","","","","","","","","661.1000000238419","","414.4000000357628","","0","0","arrowleft","0","arrowleft","[0.15,0.85,0.325,0.675]","","",""
"sailing-trial","370","1642407","0.0-11.0-335.0","","","","false","","","","","","","","","","null","","1228.300000011921","","0","0","null","null","arrowup","[0.15,0.85,0.325,0.675]","","",""
"sailing-trial","371","1646455","0.0-11.0-336.0","","","","false","","","","","","","","","","541.1000000238419","","539.7999999523163","","1","1","arrowleft","0","arrowright","[0.15,0.85,0.325,0.675]","","",""
"sailing-trial","372","1650123","0.0-11.0-337.0","","","","false","","","","","","","","","","null","","653.3999999761581","","0","0","null","null","arrowup","[0.15,0.85,0.325,0.675]","","",""
"sailing-trial","373","1653921","0.0-11.0-338.0","","","","false","","","","","","","","","","390.7000000476837","","399","","1","1","arrowleft","0","arrowright","[0.15,0.85,0.325,0.675]","","",""
"sailing-trial","374","1658487","0.0-11.0-339.0","","","","false","","","","","","","","","","null","","2759.800000011921","","2","1","null","null","arrowup","[0.15,0.85,0.325,0.675]","","",""
"sailing-trial","375","1662253","0.0-11.0-340.0","","","","false","","","","","","","","","","515.7000000476837","","349.80000001192093","","1","1","arrowleft","0","arrowright","[0.15,0.85,0.325,0.675]","","",""
"sailing-trial","376","1666222","0.0-11.0-341.0","","","","false","","","","","","","","","","null","","2182.399999976158","","1","1","null","null","arrowup","[0.15,0.85,0.325,0.675]","","",""
"sailing-trial","377","1674923","0.0-11.0-342.0","","","","false","","","","","","","","","","5003.600000023842","","446.39999997615814","","1","1","arrowleft","0","arrowright","[0.15,0.85,0.325,0.675]","","",""
"sailing-trial","378","1679943","0.0-11.0-343.0","","","","false","","","","","","","","","","null","","2014.5","","3","0","null","null","arrowup","[0.15,0.85,0.325,0.675]","","",""
"sailing-trial","379","1686074","0.0-11.0-344.0","","","","false","","","","","","","","","","1047","","1757","","1","1","arrowleft","0","arrowright","[0.15,0.85,0.325,0.675]","","",""
"sailing-trial","380","1689139","0.0-11.0-345.0","","","","false","","","","","","","","","","null","","956.8999999761581","","3","1","null","null","arrowup","[0.15,0.85,0.325,0.675]","","",""
"sailing-trial","381","1694724","0.0-11.0-346.0","","","","false","","","","","","","","","","1160.699999988079","","366.5","","0","0","arrowleft","0","arrowleft","[0.15,0.85,0.325,0.675]","","",""
"sailing-trial","382","1698205","0.0-11.0-347.0","","","","false","","","","","","","","","","null","","948.6000000238419","","3","1","null","null","arrowup","[0.15,0.85,0.325,0.675]","","",""
"sailing-trial","383","1703376","0.0-11.0-348.0","","","","false","","","","","","","","","","970.6000000238419","","151.69999998807907","","2","0","arrowright","1","arrowleft","[0.325,0.675,0.15,0.85]","","",""
"sailing-trial","384","1707125","0.0-11.0-349.0","","","","false","","","","","","","","","","null","","720.7000000476837","","0","0","null","null","arrowup","[0.325,0.675,0.15,0.85]","","",""
"sailing-trial","385","1712875","0.0-11.0-350.0","","","","false","","","","","","","","","","924.3000000119209","","776.8999999761581","","2","0","arrowright","1","arrowleft","[0.325,0.675,0.15,0.85]","","",""
"sailing-trial","386","1715739","0.0-11.0-351.0","","","","false","","","","","","","","","","null","","764.8000000119209","","1","1","null","null","arrowup","[0.325,0.675,0.15,0.85]","","",""
"sailing-trial","387","1718656","0.0-11.0-352.0","","","","false","","","","","","","","","","564.1000000238419","","9.300000011920929","","1","0","arrowleft","0","arrowright","[0.325,0.675,0.15,0.85]","","",""
"sailing-trial","388","1720745","0.0-11.0-353.0","","","","false","","","","","","","","","","null","","848.5999999642372","","2","0","null","null","arrowup","[0.325,0.675,0.15,0.85]","","",""
"sailing-trial","389","1723760","0.0-11.0-354.0","","","","false","","","","","","","","","","509.5","","215.69999998807907","","0","0","arrowleft","0","arrowleft","[0.325,0.675,0.15,0.85]","","",""
"sailing-trial","390","1725876","0.0-11.0-355.0","","","","false","","","","","","","","","","null","","866.3000000119209","","0","0","null","null","arrowup","[0.325,0.675,0.15,0.85]","","",""
"sailing-trial","391","1729539","0.0-11.0-356.0","","","","false","","","","","","","","","","777.6999999880791","","38.89999997615814","","3","1","arrowright","1","arrowright","[0.325,0.675,0.15,0.85]","","",""
"sailing-trial","392","1732103","0.0-11.0-357.0","","","","false","","","","","","","","","","null","","767","","0","1","null","null","arrowup","[0.325,0.675,0.15,0.85]","","",""
"sailing-trial","393","1737293","0.0-11.0-358.0","","","","false","","","","","","","","","","736.6000000238419","","415.19999998807907","","1","0","arrowleft","0","arrowright","[0.325,0.675,0.15,0.85]","","",""
"sailing-trial","394","1743941","0.0-11.0-359.0","","","","false","","","","","","","","","","null","","3620.300000011921","","0","0","null","null","arrowup","[0.325,0.675,0.15,0.85]","","",""
"sailing-trial","395","1748426","0.0-11.0-360.0","","","","false","","","","","","","","","","401.9000000357628","","30.19999998807907","","0","0","arrowleft","0","arrowleft","[0.325,0.675,0.15,0.85]","","",""
"sailing-trial","396","1752440","0.0-11.0-361.0","","","","false","","","","","","","","","","null","","1001.8999999761581","","2","0","null","null","arrowup","[0.325,0.675,0.15,0.85]","","",""
"sailing-trial","397","1757190","0.0-11.0-362.0","","","","false","","","","","","","","","","665.8000000119209","","25.799999952316284","","2","0","arrowright","1","arrowleft","[0.325,0.675,0.15,0.85]","","",""
"sailing-trial","398","1760775","0.0-11.0-363.0","","","","false","","","","","","","","","","null","","579.5","","0","0","null","null","arrowup","[0.325,0.675,0.15,0.85]","","",""
"sailing-trial","399","1764604","0.0-11.0-364.0","","","","false","","","","","","","","","","170","","705","","3","1","arrowright","1","arrowright","[0.85,0.15,0.675,0.325]","","",""
"sailing-trial","400","1767573","0.0-11.0-365.0","","","","false","","","","","","","","","","null","","759.3000000119209","","0","1","null","null","arrowup","[0.85,0.15,0.675,0.325]","","",""
"sailing-trial","401","1772310","0.0-11.0-366.0","","","","false","","","","","","","","","","398.80000001192093","","338.30000001192093","","3","0","arrowright","1","arrowright","[0.85,0.15,0.675,0.325]","","",""
"sailing-trial","402","1775955","0.0-11.0-367.0","","","","false","","","","","","","","","","null","","620.7999999523163","","3","0","null","null","arrowup","[0.85,0.15,0.675,0.325]","","",""
"sailing-trial","403","1779923","0.0-11.0-368.0","","","","false","","","","","","","","","","675.8999999761581","","406.19999998807907","","3","1","arrowright","1","arrowright","[0.85,0.15,0.675,0.325]","","",""
"sailing-trial","404","1782112","0.0-11.0-369.0","","","","false","","","","","","","","","","null","","863.3000000119209","","2","0","null","null","arrowup","[0.85,0.15,0.675,0.325]","","",""
"sailing-trial","405","1787189","0.0-11.0-370.0","","","","false","","","","","","","","","","531.5","","518.5","","3","0","arrowright","1","arrowright","[0.85,0.15,0.675,0.325]","","",""
"sailing-trial","406","1791059","0.0-11.0-371.0","","","","false","","","","","","","","","","null","","857.6000000238419","","3","0","null","null","arrowup","[0.85,0.15,0.675,0.325]","","",""
"sailing-trial","407","1800241","0.0-11.0-372.0","","","","false","","","","","","","","","","4813.799999952316","","314","","1","0","arrowleft","0","arrowright","[0.85,0.15,0.675,0.325]","","",""
"sailing-trial","408","1805093","0.0-11.0-373.0","","","","false","","","","","","","","","","null","","1830.699999988079","","2","0","null","null","arrowup","[0.85,0.15,0.675,0.325]","","",""
"sailing-trial","409","1809489","0.0-11.0-374.0","","","","false","","","","","","","","","","886.9000000357628","","208.5","","0","1","arrowleft","0","arrowleft","[0.85,0.15,0.675,0.325]","","",""
"sailing-trial","410","1812271","0.0-11.0-375.0","","","","false","","","","","","","","","","null","","844.6000000238419","","0","1","null","null","arrowup","[0.85,0.15,0.675,0.325]","","",""
"sailing-trial","411","1816389","0.0-11.0-376.0","","","","false","","","","","","","","","","787.1000000238419","","218.80000001192093","","0","1","arrowleft","0","arrowleft","[0.85,0.15,0.675,0.325]","","",""
"sailing-trial","412","1818753","0.0-11.0-377.0","","","","false","","","","","","","","","","null","","555.5","","0","1","null","null","arrowup","[0.85,0.15,0.675,0.325]","","",""
"sailing-trial","413","1822389","0.0-11.0-378.0","","","","false","","","","","","","","","","434.39999997615814","","324.89999997615814","","0","1","arrowleft","0","arrowleft","[0.85,0.15,0.675,0.325]","","",""
"sailing-trial","414","1825072","0.0-11.0-379.0","","","","false","","","","","","","","","","null","","888.9000000357628","","2","1","null","null","arrowup","[0.85,0.15,0.675,0.325]","","",""
"sailing-trial","415","1829139","0.0-11.0-380.0","","","","false","","","","","","","","","","906.5","","247.5","","0","1","arrowleft","0","arrowleft","[0.85,0.15,0.675,0.325]","","",""
"sailing-trial","416","1833041","0.0-11.0-381.0","","","","false","","","","","","","","","","null","","888.9000000357628","","0","0","null","null","arrowup","[0.85,0.15,0.675,0.325]","","",""
"sailing-trial","417","1836840","0.0-11.0-382.0","","","","false","","","","","","","","","","672.6999999880791","","89","","0","1","arrowleft","0","arrowleft","[0.675,0.325,0.85,0.15]","","",""
"sailing-trial","418","1841374","0.0-11.0-383.0","","","","false","","","","","","","","","","null","","1519.300000011921","","3","0","null","null","arrowup","[0.675,0.325,0.85,0.15]","","",""
"sailing-trial","419","1846655","0.0-11.0-384.0","","","","false","","","","","","","","","","1915.5999999642372","","246.0999999642372","","0","1","arrowleft","0","arrowleft","[0.675,0.325,0.85,0.15]","","",""
"sailing-trial","420","1850087","0.0-11.0-385.0","","","","false","","","","","","","","","","null","","1114","","2","1","null","null","arrowup","[0.675,0.325,0.85,0.15]","","",""
"sailing-trial","421","1853346","0.0-11.0-386.0","","","","false","","","","","","","","","","769.6999999880791","","184.39999997615814","","0","0","arrowleft","0","arrowleft","[0.675,0.325,0.85,0.15]","","",""
"sailing-trial","422","1855837","0.0-11.0-387.0","","","","false","","","","","","","","","","null","","669.3999999761581","","1","1","null","null","arrowup","[0.675,0.325,0.85,0.15]","","",""
"sailing-trial","423","1859504","0.0-11.0-388.0","","","","false","","","","","","","","","","363.7000000476837","","379.5","","1","1","arrowleft","0","arrowright","[0.675,0.325,0.85,0.15]","","",""
"sailing-trial","424","1863222","0.0-11.0-389.0","","","","false","","","","","","","","","","null","","1886.699999988079","","2","1","null","null","arrowup","[0.675,0.325,0.85,0.15]","","",""
"sailing-trial","425","1879246","0.0-11.0-390.0","","","","true","","","","","","","","","","1017","","null","","null","null","arrowright","1","null","[0.675,0.325,0.85,0.15]","","",""
"sailing-trial","426","1883142","0.0-11.0-391.0","","","","false","","","","","","","","","","null","","869.3999999761581","","0","0","null","null","arrowup","[0.675,0.325,0.85,0.15]","","",""
"sailing-trial","427","1886955","0.0-11.0-392.0","","","","false","","","","","","","","","","840.4000000357628","","168.0999999642372","","0","1","arrowleft","0","arrowleft","[0.675,0.325,0.85,0.15]","","",""
"sailing-trial","428","1889755","0.0-11.0-393.0","","","","false","","","","","","","","","","null","","766.1000000238419","","2","1","null","null","arrowup","[0.675,0.325,0.85,0.15]","","",""
"sailing-trial","429","1894071","0.0-11.0-394.0","","","","false","","","","","","","","","","872.6999999880791","","508.60000002384186","","2","1","arrowright","1","arrowleft","[0.675,0.325,0.85,0.15]","","",""
"sailing-trial","430","1896821","0.0-11.0-395.0","","","","false","","","","","","","","","","null","","908.8999999761581","","2","1","null","null","arrowup","[0.675,0.325,0.85,0.15]","","",""
"sailing-trial","431","1899816","0.0-11.0-396.0","","","","false","","","","","","","","","","542.4000000357628","","118.40000003576279","","1","0","arrowleft","0","arrowright","[0.675,0.325,0.85,0.15]","","",""
"sailing-trial","432","1902372","0.0-11.0-397.0","","","","false","","","","","","","","","","null","","797.5","","2","1","null","null","arrowup","[0.675,0.325,0.85,0.15]","","",""
"sailing-trial","433","1905970","0.0-11.0-398.0","","","","false","","","","","","","","","","521","","126.70000004768372","","0","1","arrowleft","0","arrowleft","[0.675,0.325,0.85,0.15]","","",""
"sailing-trial","434","1908939","0.0-11.0-399.0","","","","false","","","","","","","","","","null","","1204.300000011921","","0","1","null","null","arrowup","[0.675,0.325,0.85,0.15]","","",""
"instructions","435","1914634","0.0-12.0","","","","","","","","","","5693.199999988079","","","","","","","","","","","","","","","","[{""page_index"":0,""viewing_time"":5692}]"
"survey-debrief","436","1930844","0.0-13.0","","","","","","","","","","16207.199999988079","","","","","","","","","","","","","","{""difficulty"":""3"",""fun"":""1"",""clarity"":""5"",""strategy"":"""",""feedback"":""""}","",""
