"trial_type","trial_index","time_elapsed","internal_node_id","value","metadata","success","timeout","failed_images","failed_audio","failed_video","browser_interaction","low_quality","rt","stimulus","response","button_pressed","island_rt","island_response","boat_rt","boat_response","boat","reward","island_key","island","boat_key","reward_probabilities","responses","num_errors","view_history"
"pavlovia","0","5","0.0-0.0","","","","","","","","","","","","","","","","","","","","","","","","","",""
"call-function","1","8","0.0-1.0","","{""task_version"":""sr_pilot_v2"",""task_condition"":""good"",""boats"":[""A"",""C"",""D"",""B""],""boats_demo"":[""H"",""G"",""F"",""E""],""islands"":[""A"",""B""],""subject_id"":""13841"",""age"":""11"",""gender"":""Male""}","","","","","","","","","","","","","","","","","","","","","","","",""
"preload","2","4822","0.0-2.0","","","true","false","[]","[]","[]","[{""event"":""fullscreenenter"",""trial"":3,""time"":18240}]","false","","","","","","","","","","","","","","","","",""
"fullscreen","3","19209","0.0-3.0","","","true","","","","","","","","","","","","","","","","","","","","","","",""
"audio-keyboard-response","4","23510","0.0-4.0-0.0","","","","","","","","","","3733.3333333333335","audio/beep_loop.wav"," ","","","","","","","","","","","","","",""
"audio-test","5","26354","0.0-4.0-1.0","","","","","","","","","","null","audio/turtle.mp3","","3","","","","","","","","","","","","",""
"audio-test","6","29105","0.0-4.0-2.0","","","","","","","","","","null","audio/shark.mp3","","2","","","","","","","","","","","","",""
"sailing-instructions","7","62401","0.0-5.0-0.0-0.0","","","","","","","","","","","","","","null","null","null","null","null","null","","","","","","",""
"sailing-trial","8","66320","0.0-5.0-0.0-1.0-0.0","","","","false","","","","","","","","","","2787.2999999523163","","null","","null","null","arrowleft","0","null","null","","",""
"sailing-trial","9","68531","0.0-5.0-0.0-1.0-1.0","","","","false","","","","","","","","","","1067.7999999523163","","null","","null","null","arrowright","1","null","null","","",""
"sailing-trial","10","70844","0.0-5.0-0.0-1.0-2.0","","","","false","","","","","","","","","","1190.2999999523163","","null","","null","null","arrowright","1","null","null","","",""
"sailing-instructions","11","114673","0.0-5.0-0.0-2.0","","","","","","","","","","","","","","null","null","null","null","0","null","","","","","","",""
"sailing-trial","12","121516","0.0-5.0-0.0-3.0-0.0","","","","false","","","","","","","","","","null","","3194.9000000953674","","2","1","null","null","arrowleft","[1,1,1,1]","","",""
"sailing-trial","13","124732","0.0-5.0-0.0-3.0-1.0","","","","false","","","","","","","","","","null","","508.5","","3","1","null","null","arrowright","[1,1,1,1]","","",""
"sailing-trial","14","129045","0.0-5.0-0.0-3.0-2.0","","","","false","","","","","","","","","","null","","746.6000001430511","","2","0","null","null","arrowleft","[0,0,0,0]","","",""
"sailing-instructions","15","136449","0.0-5.0-0.0-4.0","","","","","","","","","","","","","","null","null","null","null","null","null","","","","","","",""
"sailing-comprehension","16","156720","0.0-5.0-0.0-5.0","","","","","","","","","","17581.299999952316","","","","","","","","","","","","","","[""true"",""true"",""false"",""true""]","0",""
"sailing-instructions","17","218945","0.0-6.0-0.0-0.0","","","","","","","","","","","","","","null","null","null","null","null","null","","","","","","",""
"sailing-comprehension","18","256983","0.0-6.0-0.0-1.0","","","","","","","","","","27630","","","","","","","","","","","","","","[""true"",""true"",""true""]","1",""
"sailing-instructions","19","321041","0.0-6.0-0.1-0.1","","","","","","","","","","","","","","null","null","null","null","null","null","","","","","","",""
"sailing-comprehension","20","348560","0.0-6.0-0.1-1.1","","","","","","","","","","23686.60000014305","","","","","","","","","","","","","","[""true"",""false"",""true""]","0",""
"sailing-instructions","21","363537","0.0-7.0-0.0-0.0","","","","","","","","","","","","","","null","null","null","null","null","null","","","","","","",""
"sailing-trial","22","371737","0.0-7.0-0.0-1.0-0.0","","","","false","","","","","","","","","","null","","5982.5","","0","0","null","null","arrowup","[0.2,0.8,0.2,0.8]","","",""
"sailing-trial","23","375375","0.0-7.0-0.0-1.0-1.0","","","","false","","","","","","","","","","null","","1327.0999999046326","","1","1","null","null","arrowup","[0.2,0.8,0.2,0.8]","","",""
"sailing-trial","24","377532","0.0-7.0-0.0-1.0-2.0","","","","false","","","","","","","","","","null","","815.9000000953674","","2","0","null","null","arrowup","[0.2,0.8,0.2,0.8]","","",""
"sailing-trial","25","380055","0.0-7.0-0.0-1.0-3.0","","","","false","","","","","","","","","","null","","692.3000001907349","","3","1","null","null","arrowup","[0.2,0.8,0.2,0.8]","","",""
"sailing-comprehension","26","391882","0.0-7.0-0.0-2.0","","","","","","","","","","9112.599999904633","","","","","","","","","","","","","","[""false""]","0",""
"sailing-instructions","27","402650","0.0-8.0-0.0-0.0","","","","","","","","","","","","","","null","null","null","null","null","null","","","","","","",""
"sailing-comprehension","28","412783","0.0-8.0-0.0-1.0","","","","","","","","","","4645.699999809265","","","","","","","","","","","","","","[""true""]","0",""
"sailing-instructions","29","434384","0.0-9.0-0.0-0.0","","","","","","","","","","","","","","null","null","null","null","null","null","","","","","","",""
"sailing-trial","30","441550","0.0-9.0-0.0-1.0-0.0","","","","false","","","","","","","","","","920.4000000953674","","1253.1000001430511","","0","0","arrowleft","0","arrowleft","[0.2,0.8,0.2,0.8]","","",""
"sailing-trial","31","446015","0.0-9.0-0.0-1.0-1.0","","","","false","","","","","","","","","","783.6000001430511","","118.90000009536743","","3","1","arrowright","1","arrowright","[0.2,0.8,0.2,0.8]","","",""
"sailing-trial","32","449476","0.0-9.0-0.0-1.0-2.0","","","","false","","","","","","","","","","null","","1559.9000000953674","","0","0","null","null","arrowup","[0.2,0.8,0.2,0.8]","","",""
"sailing-trial","33","453772","0.0-9.0-0.0-1.0-3.0","","","","false","","","","","","","","","","1054","","510.89999985694885","","2","0","arrowright","1","arrowleft","[0.2,0.8,0.2,0.8]","","",""
"sailing-trial","34","457602","0.0-9.0-0.0-1.0-4.0","","","","false","","","","","","","","","","null","","1764.3000001907349","","3","1","null","null","arrowup","[0.2,0.8,0.2,0.8]","","",""
"sailing-trial","35","461863","0.0-9.0-0.0-1.0-5.0","","","","false","","","","","","","","","","1218.8000001907349","","350.59999990463257","","3","0","arrowright","1","arrowright","[0.2,0.8,0.2,0.8]","","",""
"sailing-instructions","36","487074","0.0-10.0","","","","","","","","","","","","","","null","null","null","null","null","null","","","","","","",""
"sailing-trial","37","493369","0.0-11.0-0.0","","","","false","","","","","","","","","","1581.2999999523163","","560.5","","0","1","arrowleft","0","arrowleft","[0.325,0.675,0.85,0.15]","","",""
"sailing-trial","38","496648","0.0-11.0-1.0","","","","false","","","","","","","","","","null","","1242.2999999523163","","1","1","null","null","arrowup","[0.325,0.675,0.85,0.15]","","",""
"sailing-trial","39","500809","0.0-11.0-2.0","","","","false","","","","","","","","","","992.8999998569489","","451.5","","1","0","arrowleft","0","arrowright","[0.325,0.675,0.85,0.15]","","",""
"sailing-trial","40","504168","0.0-11.0-3.0","","","","false","","","","","","","","","","null","","1244.9000000953674","","2","1","null","null","arrowup","[0.325,0.675,0.85,0.15]","","",""
"sailing-trial","41","508158","0.0-11.0-4.0","","","","false","","","","","","","","","","1145.2000000476837","","422.09999990463257","","0","0","arrowleft","0","arrowleft","[0.325,0.675,0.85,0.15]","","",""
"sailing-trial","42","511135","0.0-11.0-5.0","","","","false","","","","","","","","","","null","","1188.0999999046326","","0","0","null","null","arrowup","[0.325,0.675,0.85,0.15]","","",""
"sailing-trial","43","515441","0.0-11.0-6.0","","","","false","","","","","","","","","","797","","602.9000000953674","","3","0","arrowright","1","arrowright","[0.325,0.675,0.85,0.15]","","",""
"sailing-trial","44","518591","0.0-11.0-7.0","","","","false","","","","","","","","","","null","","931.3999998569489","","2","1","null","null","arrowup","[0.325,0.675,0.85,0.15]","","",""
"sailing-trial","45","523373","0.0-11.0-8.0","","","","false","","","","","","","","","","877.6999998092651","","518.2000000476837","","2","1","arrowright","1","arrowleft","[0.325,0.675,0.85,0.15]","","",""
"sailing-trial","46","526350","0.0-11.0-9.0","","","","false","","","","","","","","","","null","","1086.2000000476837","","0","0","null","null","arrowup","[0.325,0.675,0.85,0.15]","","",""
"sailing-trial","47","530884","0.0-11.0-10.0","","","","false","","","","","","","","","","934.0999999046326","","550.5","","0","1","arrowleft","0","arrowleft","[0.325,0.675,0.85,0.15]","","",""
"sailing-trial","48","533752","0.0-11.0-11.0","","","","false","","","","","","","","","","null","","1304.5","","3","0","null","null","arrowup","[0.325,0.675,0.85,0.15]","","",""
"sailing-trial","49","539689","0.0-11.0-12.0","","","","false","","","","","","","","","","714.8999998569489","","2174.100000143051","","3","1","arrowright","1","arrowright","[0.325,0.675,0.85,0.15]","","",""
"sailing-trial","50","542441","0.0-11.0-13.0","","","","false","","","","","","","","","","null","","1127.2999999523163","","3","0","null","null","arrowup","[0.325,0.675,0.85,0.15]","","",""
"sailing-trial","51","546571","0.0-11.0-14.0","","","","false","","","","","","","","","","1512.2999999523163","","133.20000004768372","","0","0","arrowleft","0","arrowleft","[0.325,0.675,0.85,0.15]","","",""
"sailing-trial","52","549795","0.0-11.0-15.0","","","","false","","","","","","","","","","null","","1107.7000000476837","","1","1","null","null","arrowup","[0.325,0.675,0.85,0.15]","","",""
"sailing-trial","53","554541","0.0-11.0-16.0","","","","false","","","","","","","","","","1594.6000001430511","","133.5","","1","1","arrowleft","0","arrowright","[0.325,0.675,0.85,0.15]","","",""
"sailing-trial","54","557488","0.0-11.0-17.0","","","","false","","","","","","","","","","null","","885.6000001430511","","2","1","null","null","arrowup","[0.325,0.675,0.85,0.15]","","",""
"sailing-trial","55","564797","0.0-11.0-18.0","","","","false","","","","","","","","","","702.5","","3518.0999999046326","","1","1","arrowleft","0","arrowright","[0.15,0.85,0.675,0.325]","","",""
"sailing-trial","56","567509","0.0-11.0-19.0","","","","false","","","","","","","","","","null","","1248.1999998092651","","2","0","null","null","arrowup","[0.15,0.85,0.675,0.325]","","",""
"sailing-trial","57","573190","0.0-11.0-20.0","","","","false","","","","","","","","","","859.5","","597.0999999046326","","1","1","arrowleft","0","arrowright","[0.15,0.85,0.675,0.325]","","",""
"sailing-trial","58","576303","0.0-11.0-21.0","","","","false","","","","","","","","","","null","","990.5999999046326","","2","1","null","null","arrowup","[0.15,0.85,0.675,0.325]","","",""
"sailing-trial","59","580999","0.0-11.0-22.0","","","","false","","","","","","","","","","986.5","","299.2000000476837","","2","1","arrowright","1","arrowleft","[0.15,0.85,0.675,0.325]","","",""
"sailing-trial","60","584030","0.0-11.0-23.0","","","","false","","","","","","","","","","null","","884.0999999046326","","3","1","null","null","arrowup","[0.15,0.85,0.675,0.325]","","",""
"sailing-trial","61","587892","0.0-11.0-24.0","","","","false","","","","","","","","","","702.7000000476837","","251","","3","1","arrowright","1","arrowright","[0.15,0.85,0.675,0.325]","","",""
"sailing-trial","62","590889","0.0-11.0-25.0","","","","false","","","","","","","","","","null","","1107.1999998092651","","1","1","null","null","arrowup","[0.15,0.85,0.675,0.325]","","",""
"sailing-trial","63","594100","0.0-11.0-26.0","","","","false","","","","","","","","","","531","","250.40000009536743","","0","0","arrowleft","0","arrowleft","[0.15,0.85,0.675,0.325]","","",""
"sailing-trial","64","596475","0.0-11.0-27.0","","","","false","","","","","","","","","","null","","1006","","0","0","null","null","arrowup","[0.15,0.85,0.675,0.325]","","",""
"sailing-trial","65","600031","0.0-11.0-28.0","","","","false","","","","","","","","","","476.80000019073486","","224.5","","3","1","arrowright","1","arrowright","[0.15,0.85,0.675,0.325]","","",""
"sailing-trial","66","602369","0.0-11.0-29.0","","","","false","","","","","","","","","","null","","966.3000001907349","","0","0","null","null","arrowup","[0.15,0.85,0.675,0.325]","","",""
"sailing-trial","67","606517","0.0-11.0-30.0","","","","false","","","","","","","","","","720.1000001430511","","461.7999999523163","","1","0","arrowleft","0","arrowright","[0.15,0.85,0.675,0.325]","","",""
"sailing-trial","68","609238","0.0-11.0-31.0","","","","false","","","","","","","","","","null","","935.5","","0","1","null","null","arrowup","[0.15,0.85,0.675,0.325]","","",""
"sailing-trial","69","613430","0.0-11.0-32.0","","","","false","","","","","","","","","","1030.3999998569489","","275.39999985694885","","3","0","arrowright","1","arrowright","[0.15,0.85,0.675,0.325]","","",""
"sailing-trial","70","616065","0.0-11.0-33.0","","","","false","","","","","","","","","","null","","844.7999999523163","","1","1","null","null","arrowup","[0.15,0.85,0.675,0.325]","","",""
"sailing-trial","71","619093","0.0-11.0-34.0","","","","false","","","","","","","","","","506.10000014305115","","97.29999995231628","","0","0","arrowleft","0","arrowleft","[0.15,0.85,0.675,0.325]","","",""
"sailing-trial","72","622838","0.0-11.0-35.0","","","","false","","","","","","","","","","null","","1203.2999999523163","","3","0","null","null","arrowup","[0.15,0.85,0.675,0.325]","","",""
"sailing-trial","73","626488","0.0-11.0-36.0","","","","false","","","","","","","","","","654.7000000476837","","141.79999995231628","","2","1","arrowright","1","arrowleft","[0.325,0.675,0.85,0.15]","","",""
"sailing-trial","74","629233","0.0-11.0-37.0","","","","false","","","","","","","","","","null","","1003.4000000953674","","2","1","null","null","arrowup","[0.325,0.675,0.85,0.15]","","",""
"sailing-trial","75","632765","0.0-11.0-38.0","","","","false","","","","","","","","","","544.0999999046326","","183.70000004768372","","2","1","arrowright","1","arrowleft","[0.325,0.675,0.85,0.15]","","",""
"sailing-trial","76","636161","0.0-11.0-39.0","","","","false","","","","","","","","","","null","","815.4000000953674","","2","1","null","null","arrowup","[0.325,0.675,0.85,0.15]","","",""
"sailing-trial","77","640073","0.0-11.0-40.0","","","","false","","","","","","","","","","778.6000001430511","","293.2000000476837","","2","1","arrowright","1","arrowleft","[0.325,0.675,0.85,0.15]","","",""
"sailing-trial","78","643389","0.0-11.0-41.0","","","","false","","","","","","","","","","null","","1018.4000000953674","","0","0","null","null","arrowup","[0.325,0.675,0.85,0.15]","","",""
"sailing-trial","79","649814","0.0-11.0-42.0","","","","false","","","","","","","","","","877.2999999523163","","2056.0999999046326","","2","1","arrowright","1","arrowleft","[0.325,0.675,0.85,0.15]","","",""
"sailing-trial","80","653143","0.0-11.0-43.0","","","","false","","","","","","","","","","null","","970.5","","1","1","null","null","arrowup","[0.325,0.675,0.85,0.15]","","",""
"sailing-trial","81","657256","0.0-11.0-44.0","","","","false","","","","","","","","","","920.6000001430511","","101.39999985694885","","2","1","arrowright","1","arrowleft","[0.325,0.675,0.85,0.15]","","",""
"sailing-trial","82","659683","0.0-11.0-45.0","","","","false","","","","","","","","","","null","","867.7999999523163","","0","0","null","null","arrowup","[0.325,0.675,0.85,0.15]","","",""
"sailing-trial","83","664200","0.0-11.0-46.0","","","","false","","","","","","","","","","655.1000001430511","","471.7999999523163","","2","1","arrowright","1","arrowleft","[0.325,0.675,0.85,0.15]","","",""
"sailing-trial","84","666845","0.0-11.0-47.0","","","","false","","","","","","","","","","null","","844.7999999523163","","2","1","null","null","arrowup","[0.325,0.675,0.85,0.15]","","",""
"sailing-trial","85","670576","0.0-11.0-48.0","","","","false","","","","","","","","","","669","","178.60000014305115","","2","1","arrowright","1","arrowleft","[0.325,0.675,0.85,0.15]","","",""
"sailing-trial","86","673574","0.0-11.0-49.0","","","","false","","","","","","","","","","null","","872.5","","1","1","null","null","arrowup","[0.325,0.675,0.85,0.15]","","",""
"sailing-trial","87","676884","0.0-11.0-50.0","","","","false","","","","","","","","","","465.80000019073486","","89","","1","0","arrowleft","0","arrowright","[0.325,0.675,0.85,0.15]","","",""
"sailing-trial","88","678955","0.0-11.0-51.0","","","","false","","","","","","","","","","null","","837.8999998569489","","3","0","null","null","arrowup","[0.325,0.675,0.85,0.15]","","",""
"sailing-trial","89","683481","0.0-11.0-52.0","","","","false","","","","","","","","","","833.7999999523163","","371.7000000476837","","1","1","arrowleft","0","arrowright","[0.325,0.675,0.85,0.15]","","",""
"sailing-trial","90","686493","0.0-11.0-53.0","","","","false","","","","","","","","","","null","","988.4000000953674","","2","1","null","null","arrowup","[0.325,0.675,0.85,0.15]","","",""
"sailing-trial","91","690158","0.0-11.0-54.0","","","","false","","","","","","","","","","480.5","","13.899999856948853","","2","1","arrowright","1","arrowleft","[0.325,0.675,0.85,0.15]","","",""
"sailing-trial","92","693019","0.0-11.0-55.0","","","","false","","","","","","","","","","null","","814.8000001907349","","0","0","null","null","arrowup","[0.325,0.675,0.85,0.15]","","",""
"sailing-trial","93","696650","0.0-11.0-56.0","","","","false","","","","","","","","","","583.5","","162.70000004768372","","2","1","arrowright","1","arrowleft","[0.15,0.85,0.675,0.325]","","",""
"sailing-trial","94","699516","0.0-11.0-57.0","","","","false","","","","","","","","","","null","","1105.5","","2","1","null","null","arrowup","[0.15,0.85,0.675,0.325]","","",""
"sailing-trial","95","703076","0.0-11.0-58.0","","","","false","","","","","","","","","","421","","322.09999990463257","","2","1","arrowright","1","arrowleft","[0.15,0.85,0.675,0.325]","","",""
"sailing-trial","96","705741","0.0-11.0-59.0","","","","false","","","","","","","","","","null","","864","","2","1","null","null","arrowup","[0.15,0.85,0.675,0.325]","","",""
"sailing-trial","97","709454","0.0-11.0-60.0","","","","false","","","","","","","","","","533.0999999046326","","411","","2","1","arrowright","1","arrowleft","[0.15,0.85,0.675,0.325]","","",""
"sailing-trial","98","712700","0.0-11.0-61.0","","","","false","","","","","","","","","","null","","1170","","1","1","null","null","arrowup","[0.15,0.85,0.675,0.325]","","",""
"sailing-trial","99","716582","0.0-11.0-62.0","","","","false","","","","","","","","","","819.2000000476837","","187.20000004768372","","2","1","arrowright","1","arrowleft","[0.15,0.85,0.675,0.325]","","",""
"sailing-trial","100","719712","0.0-11.0-63.0","","","","false","","","","","","","","","","null","","1117.5","","2","1","null","null","arrowup","[0.15,0.85,0.675,0.325]","","",""
"sailing-trial","101","723750","0.0-11.0-64.0","","","","false","","","","","","","","","","524.6000001430511","","1137.0999999046326","","2","0","arrowright","1","arrowleft","[0.15,0.85,0.675,0.325]","","",""
"sailing-trial","102","726437","0.0-11.0-65.0","","","","false","","","","","","","","","","null","","901.2000000476837","","1","1","null","null","arrowup","[0.15,0.85,0.675,0.325]","","",""
"sailing-trial","103","730401","0.0-11.0-66.0","","","","false","","","","","","","","","","551.1000001430511","","347.5","","2","1","arrowright","1","arrowleft","[0.15,0.85,0.675,0.325]","","",""
"sailing-trial","104","732486","0.0-11.0-67.0","","","","false","","","","","","","","","","null","","816.2000000476837","","0","0","null","null","arrowup","[0.15,0.85,0.675,0.325]","","",""
"sailing-trial","105","736511","0.0-11.0-68.0","","","","false","","","","","","","","","","800.5999999046326","","249","","2","1","arrowright","1","arrowleft","[0.15,0.85,0.675,0.325]","","",""
"sailing-trial","106","738838","0.0-11.0-69.0","","","","false","","","","","","","","","","null","","966","","3","0","null","null","arrowup","[0.15,0.85,0.675,0.325]","","",""
"sailing-trial","107","742471","0.0-11.0-70.0","","","","false","","","","","","","","","","790.7999999523163","","54.700000047683716","","1","1","arrowleft","0","arrowright","[0.15,0.85,0.675,0.325]","","",""
"sailing-trial","108","744554","0.0-11.0-71.0","","","","false","","","","","","","","","","null","","872.7000000476837","","2","0","null","null","arrowup","[0.15,0.85,0.675,0.325]","","",""
"sailing-trial","109","748432","0.0-11.0-72.0","","","","false","","","","","","","","","","679.7000000476837","","356.40000009536743","","1","1","arrowleft","0","arrowright","[0.15,0.85,0.675,0.325]","","",""
"sailing-trial","110","750548","0.0-11.0-73.0","","","","false","","","","","","","","","","null","","847.5","","0","0","null","null","arrowup","[0.15,0.85,0.675,0.325]","","",""
"sailing-trial","111","754859","0.0-11.0-74.0","","","","false","","","","","","","","","","776.3999998569489","","118","","1","1","arrowleft","0","arrowright","[0.15,0.85,0.675,0.325]","","",""
"sailing-trial","112","758072","0.0-11.0-75.0","","","","false","","","","","","","","","","null","","824.5","","2","1","null","null","arrowup","[0.15,0.85,0.675,0.325]","","",""
"sailing-trial","113","761644","0.0-11.0-76.0","","","","false","","","","","","","","","","687.7999999523163","","351.5","","1","0","arrowleft","0","arrowright","[0.675,0.325,0.15,0.85]","","",""
"sailing-trial","114","764597","0.0-11.0-77.0","","","","false","","","","","","","","","","null","","1586.5","","3","0","null","null","arrowup","[0.675,0.325,0.15,0.85]","","",""
"sailing-trial","115","768479","0.0-11.0-78.0","","","","false","","","","","","","","","","698.3000001907349","","258.2999999523163","","3","1","arrowright","1","arrowright","[0.675,0.325,0.15,0.85]","","",""
"sailing-trial","116","771508","0.0-11.0-79.0","","","","false","","","","","","","","","","null","","1247.5","","3","1","null","null","arrowup","[0.675,0.325,0.15,0.85]","","",""
"sailing-trial","117","775272","0.0-11.0-80.0","","","","false","","","","","","","","","","561.7000000476837","","430.2000000476837","","3","1","arrowright","1","arrowright","[0.675,0.325,0.15,0.85]","","",""
"sailing-trial","118","777595","0.0-11.0-81.0","","","","false","","","","","","","","","","null","","1110.2000000476837","","2","0","null","null","arrowup","[0.675,0.325,0.15,0.85]","","",""
"sailing-trial","119","781018","0.0-11.0-82.0","","","","false","","","","","","","","","","459.7000000476837","","147.40000009536743","","3","1","arrowright","1","arrowright","[0.675,0.325,0.15,0.85]","","",""
"sailing-trial","120","783267","0.0-11.0-83.0","","","","false","","","","","","","","","","null","","967.6000001430511","","1","0","null","null","arrowup","[0.675,0.325,0.15,0.85]","","",""
"sailing-trial","121","786978","0.0-11.0-84.0","","","","false","","","","","","","","","","604","","343.60000014305115","","3","1","arrowright","1","arrowright","[0.675,0.325,0.15,0.85]","","",""
"sailing-trial","122","789491","0.0-11.0-85.0","","","","false","","","","","","","","","","null","","693.0999999046326","","0","1","null","null","arrowup","[0.675,0.325,0.15,0.85]","","",""
"sailing-trial","123","792840","0.0-11.0-86.0","","","","false","","","","","","","","","","385.09999990463257","","133.20000004768372","","0","1","arrowleft","0","arrowleft","[0.675,0.325,0.15,0.85]","","",""
"sailing-trial","124","794931","0.0-11.0-87.0","","","","false","","","","","","","","","","null","","873.0999999046326","","2","0","null","null","arrowup","[0.675,0.325,0.15,0.85]","","",""
"sailing-trial","125","799016","0.0-11.0-88.0","","","","false","","","","","","","","","","482.09999990463257","","375.40000009536743","","3","1","arrowright","1","arrowright","[0.675,0.325,0.15,0.85]","","",""
"sailing-trial","126","800870","0.0-11.0-89.0","","","","false","","","","","","","","","","null","","729.3999998569489","","2","0","null","null","arrowup","[0.675,0.325,0.15,0.85]","","",""
"sailing-trial","127","804443","0.0-11.0-90.0","","","","false","","","","","","","","","","639.5999999046326","","227.59999990463257","","0","1","arrowleft","0","arrowleft","[0.675,0.325,0.15,0.85]","","",""
"sailing-trial","128","806625","0.0-11.0-91.0","","","","false","","","","","","","","","","null","","671.5","","2","1","null","null","arrowup","[0.675,0.325,0.15,0.85]","","",""
"sailing-trial","129","810054","0.0-11.0-92.0","","","","false","","","","","","","","","","516.5","","95.59999990463257","","3","1","arrowright","1","arrowright","[0.85,0.15,0.325,0.675]","","",""
"sailing-trial","130","812651","0.0-11.0-93.0","","","","false","","","","","","","","","","null","","865.2999999523163","","0","1","null","null","arrowup","[0.85,0.15,0.325,0.675]","","",""
"sailing-trial","131","816083","0.0-11.0-94.0","","","","false","","","","","","","","","","572","","35.5","","0","1","arrowleft","0","arrowleft","[0.85,0.15,0.325,0.675]","","",""
"sailing-trial","132","818746","0.0-11.0-95.0","","","","false","","","","","","","","","","null","","771.7000000476837","","0","1","null","null","arrowup","[0.85,0.15,0.325,0.675]","","",""
"sailing-trial","133","822092","0.0-11.0-96.0","","","","false","","","","","","","","","","348.39999985694885","","380.09999990463257","","0","1","arrowleft","0","arrowleft","[0.85,0.15,0.325,0.675]","","",""
"sailing-trial","134","824404","0.0-11.0-97.0","","","","false","","","","","","","","","","null","","713","","2","0","null","null","arrowup","[0.85,0.15,0.325,0.675]","","",""
"sailing-trial","135","827839","0.0-11.0-98.0","","","","false","","","","","","","","","","464","","120.5","","3","1","arrowright","1","arrowright","[0.85,0.15,0.325,0.675]","","",""
"sailing-trial","136","830159","0.0-11.0-99.0","","","","false","","","","","","","","","","null","","890.3999998569489","","1","0","null","null","arrowup","[0.85,0.15,0.325,0.675]","","",""
"sailing-trial","137","833682","0.0-11.0-100.0","","","","false","","","","","","","","","","505.7000000476837","","254.09999990463257","","3","1","arrowright","1","arrowright","[0.85,0.15,0.325,0.675]","","",""
"sailing-trial","138","835578","0.0-11.0-101.0","","","","false","","","","","","","","","","null","","648.2000000476837","","2","0","null","null","arrowup","[0.85,0.15,0.325,0.675]","","",""
"sailing-trial","139","839078","0.0-11.0-102.0","","","","false","","","","","","","","","","463","","231.09999990463257","","3","1","arrowright","1","arrowright","[0.85,0.15,0.325,0.675]","","",""
"sailing-trial","140","841456","0.0-11.0-103.0","","","","false","","","","","","","","","","null","","780.0999999046326","","0","1","null","null","arrowup","[0.85,0.15,0.325,0.675]","","",""
"sailing-trial","141","844888","0.0-11.0-104.0","","","","false","","","","","","","","","","376.2000000476837","","237.79999995231628","","0","1","arrowleft","0","arrowleft","[0.85,0.15,0.325,0.675]","","",""
"sailing-trial","142","846859","0.0-11.0-105.0","","","","false","","","","","","","","","","null","","769.5999999046326","","0","0","null","null","arrowup","[0.85,0.15,0.325,0.675]","","",""
"sailing-trial","143","850200","0.0-11.0-106.0","","","","false","","","","","","","","","","376.7999999523163","","143.19999980926514","","3","1","arrowright","1","arrowright","[0.85,0.15,0.325,0.675]","","",""
"sailing-trial","144","852066","0.0-11.0-107.0","","","","false","","","","","","","","","","null","","742.1999998092651","","1","0","null","null","arrowup","[0.85,0.15,0.325,0.675]","","",""
"sailing-trial","145","855677","0.0-11.0-108.0","","","","false","","","","","","","","","","479.10000014305115","","327.2000000476837","","3","1","arrowright","1","arrowright","[0.85,0.15,0.325,0.675]","","",""
"sailing-trial","146","857943","0.0-11.0-109.0","","","","false","","","","","","","","","","null","","733.7000000476837","","2","1","null","null","arrowup","[0.85,0.15,0.325,0.675]","","",""
"sailing-trial","147","861674","0.0-11.0-110.0","","","","false","","","","","","","","","","668","","267.2999999523163","","3","1","arrowright","1","arrowright","[0.675,0.325,0.15,0.85]","","",""
"sailing-trial","148","863563","0.0-11.0-111.0","","","","false","","","","","","","","","","null","","830","","0","0","null","null","arrowup","[0.675,0.325,0.15,0.85]","","",""
"sailing-trial","149","866899","0.0-11.0-112.0","","","","false","","","","","","","","","","560","","47.09999990463257","","3","1","arrowright","1","arrowright","[0.675,0.325,0.15,0.85]","","",""
"sailing-trial","150","869187","0.0-11.0-113.0","","","","false","","","","","","","","","","null","","811.2999999523163","","1","0","null","null","arrowup","[0.675,0.325,0.15,0.85]","","",""
"sailing-trial","151","875240","0.0-11.0-114.0","","","","false","","","","","","","","","","470","","2632.4000000953674","","2","1","arrowright","1","arrowleft","[0.675,0.325,0.15,0.85]","","",""
"sailing-trial","152","877784","0.0-11.0-115.0","","","","false","","","","","","","","","","null","","1140.9000000953674","","2","0","null","null","arrowup","[0.675,0.325,0.15,0.85]","","",""
"sailing-trial","153","881367","0.0-11.0-116.0","","","","false","","","","","","","","","","427.10000014305115","","319.5","","3","1","arrowright","1","arrowright","[0.675,0.325,0.15,0.85]","","",""
"sailing-trial","154","883964","0.0-11.0-117.0","","","","false","","","","","","","","","","null","","941.7999999523163","","0","1","null","null","arrowup","[0.675,0.325,0.15,0.85]","","",""
"sailing-trial","155","887428","0.0-11.0-118.0","","","","false","","","","","","","","","","568.7000000476837","","116.5","","3","1","arrowright","1","arrowright","[0.675,0.325,0.15,0.85]","","",""
"sailing-trial","156","890243","0.0-11.0-119.0","","","","false","","","","","","","","","","null","","1118.9000000953674","","1","1","null","null","arrowup","[0.675,0.325,0.15,0.85]","","",""
"sailing-trial","157","893250","0.0-11.0-120.0","","","","false","","","","","","","","","","447.39999985694885","","341.5","","3","0","arrowright","1","arrowright","[0.675,0.325,0.15,0.85]","","",""
"sailing-trial","158","895359","0.0-11.0-121.0","","","","false","","","","","","","","","","null","","880.2000000476837","","2","0","null","null","arrowup","[0.675,0.325,0.15,0.85]","","",""
"sailing-trial","159","898308","0.0-11.0-122.0","","","","false","","","","","","","","","","356.40000009536743","","180","","3","0","arrowright","1","arrowright","[0.675,0.325,0.15,0.85]","","",""
"sailing-trial","160","900250","0.0-11.0-123.0","","","","false","","","","","","","","","","null","","856.0999999046326","","1","0","null","null","arrowup","[0.675,0.325,0.15,0.85]","","",""
"sailing-trial","161","903507","0.0-11.0-124.0","","","","false","","","","","","","","","","604","","105.20000004768372","","1","0","arrowleft","0","arrowright","[0.675,0.325,0.15,0.85]","","",""
"sailing-trial","162","905501","0.0-11.0-125.0","","","","false","","","","","","","","","","null","","879.6999998092651","","1","0","null","null","arrowup","[0.675,0.325,0.15,0.85]","","",""
"sailing-trial","163","908900","0.0-11.0-126.0","","","","false","","","","","","","","","","435.40000009536743","","76.30000019073486","","0","0","arrowleft","0","arrowleft","[0.15,0.85,0.675,0.325]","","",""
"sailing-trial","164","911400","0.0-11.0-127.0","","","","false","","","","","","","","","","null","","1055.1000001430511","","0","0","null","null","arrowup","[0.15,0.85,0.675,0.325]","","",""
"sailing-trial","165","922904","0.0-11.0-128.0","","","","false","","","","","","","","","","7713.600000143051","","937.3000001907349","","2","0","arrowright","1","arrowleft","[0.15,0.85,0.675,0.325]","","",""
"sailing-trial","166","925574","0.0-11.0-129.0","","","","false","","","","","","","","","","null","","1244","","0","0","null","null","arrowup","[0.15,0.85,0.675,0.325]","","",""
"sailing-trial","167","931396","0.0-11.0-130.0","","","","false","","","","","","","","","","420.09999990463257","","3073.7999999523163","","3","0","arrowright","1","arrowright","[0.15,0.85,0.675,0.325]","","",""
"sailing-trial","168","933602","0.0-11.0-131.0","","","","false","","","","","","","","","","null","","993.2999999523163","","3","0","null","null","arrowup","[0.15,0.85,0.675,0.325]","","",""
"sailing-trial","169","937463","0.0-11.0-132.0","","","","false","","","","","","","","","","690.7999999523163","","30.40000009536743","","1","1","arrowleft","0","arrowright","[0.15,0.85,0.675,0.325]","","",""
"sailing-trial","170","939910","0.0-11.0-133.0","","","","false","","","","","","","","","","null","","751.3999998569489","","2","1","null","null","arrowup","[0.15,0.85,0.675,0.325]","","",""
"sailing-trial","171","943373","0.0-11.0-134.0","","","","false","","","","","","","","","","546.3999998569489","","209.40000009536743","","2","1","arrowright","1","arrowleft","[0.15,0.85,0.675,0.325]","","",""
"sailing-trial","172","946054","0.0-11.0-135.0","","","","false","","","","","","","","","","null","","877.0999999046326","","3","1","null","null","arrowup","[0.15,0.85,0.675,0.325]","","",""
"sailing-trial","173","949533","0.0-11.0-136.0","","","","false","","","","","","","","","","627.3999998569489","","60.90000009536743","","1","1","arrowleft","0","arrowright","[0.15,0.85,0.675,0.325]","","",""
"sailing-trial","174","951512","0.0-11.0-137.0","","","","false","","","","","","","","","","null","","923.9000000953674","","3","0","null","null","arrowup","[0.15,0.85,0.675,0.325]","","",""
"sailing-trial","175","955151","0.0-11.0-138.0","","","","false","","","","","","","","","","524","","735.8999998569489","","1","0","arrowleft","0","arrowright","[0.15,0.85,0.675,0.325]","","",""
"sailing-trial","176","957608","0.0-11.0-139.0","","","","false","","","","","","","","","","null","","875.7000000476837","","1","1","null","null","arrowup","[0.15,0.85,0.675,0.325]","","",""
"sailing-trial","177","960888","0.0-11.0-140.0","","","","false","","","","","","","","","","565.7999999523163","","363.5","","2","0","arrowright","1","arrowleft","[0.15,0.85,0.675,0.325]","","",""
"sailing-trial","178","963269","0.0-11.0-141.0","","","","false","","","","","","","","","","null","","805.1000001430511","","1","1","null","null","arrowup","[0.15,0.85,0.675,0.325]","","",""
"sailing-trial","179","966534","0.0-11.0-142.0","","","","false","","","","","","","","","","597.7999999523163","","359.2000000476837","","1","0","arrowleft","0","arrowright","[0.85,0.15,0.325,0.675]","","",""
"sailing-trial","180","969413","0.0-11.0-143.0","","","","false","","","","","","","","","","null","","1091","","1","1","null","null","arrowup","[0.85,0.15,0.325,0.675]","","",""
"sailing-trial","181","973208","0.0-11.0-144.0","","","","false","","","","","","","","","","644.3999998569489","","201.20000004768372","","1","1","arrowleft","0","arrowright","[0.85,0.15,0.325,0.675]","","",""
"sailing-trial","182","975807","0.0-11.0-145.0","","","","false","","","","","","","","","","null","","832","","0","1","null","null","arrowup","[0.85,0.15,0.325,0.675]","","",""
"sailing-trial","183","979869","0.0-11.0-146.0","","","","false","","","","","","","","","","639.3999998569489","","255.29999995231628","","1","1","arrowleft","0","arrowright","[0.85,0.15,0.325,0.675]","","",""
"sailing-trial","184","981994","0.0-11.0-147.0","","","","false","","","","","","","","","","null","","894.5","","3","0","null","null","arrowup","[0.85,0.15,0.325,0.675]","","",""
"sailing-trial","185","985407","0.0-11.0-148.0","","","","false","","","","","","","","","","491.90000009536743","","478.90000009536743","","1","0","arrowleft","0","arrowright","[0.85,0.15,0.325,0.675]","","",""
"sailing-trial","186","989127","0.0-11.0-149.0","","","","false","","","","","","","","","","null","","1938.5999999046326","","0","1","null","null","arrowup","[0.85,0.15,0.325,0.675]","","",""
"sailing-trial","187","992012","0.0-11.0-150.0","","","","false","","","","","","","","","","385.39999985694885","","294.10000014305115","","0","0","arrowleft","0","arrowleft","[0.85,0.15,0.325,0.675]","","",""
"sailing-trial","188","994421","0.0-11.0-151.0","","","","false","","","","","","","","","","null","","827.9000000953674","","0","1","null","null","arrowup","[0.85,0.15,0.325,0.675]","","",""
"sailing-trial","189","997251","0.0-11.0-152.0","","","","false","","","","","","","","","","382.5","","167.70000004768372","","2","0","arrowright","1","arrowleft","[0.85,0.15,0.325,0.675]","","",""
"sailing-trial","190","999392","0.0-11.0-153.0","","","","false","","","","","","","","","","null","","931.0999999046326","","2","0","null","null","arrowup","[0.85,0.15,0.325,0.675]","","",""
"sailing-trial","191","1002627","0.0-11.0-154.0","","","","false","","","","","","","","","","459","","294.89999985694885","","1","0","arrowleft","0","arrowright","[0.85,0.15,0.325,0.675]","","",""
"sailing-trial","192","1004725","0.0-11.0-155.0","","","","false","","","","","","","","","","null","","851","","1","0","null","null","arrowup","[0.85,0.15,0.325,0.675]","","",""
"sailing-trial","193","1008524","0.0-11.0-156.0","","","","false","","","","","","","","","","418.59999990463257","","486.09999990463257","","0","1","arrowleft","0","arrowleft","[0.85,0.15,0.325,0.675]","","",""
"sailing-trial","194","1011087","0.0-11.0-157.0","","","","false","","","","","","","","","","null","","723.7999999523163","","3","1","null","null","arrowup","[0.85,0.15,0.325,0.675]","","",""
"sailing-trial","195","1014384","0.0-11.0-158.0","","","","false","","","","","","","","","","355.40000009536743","","103.20000004768372","","0","1","arrowleft","0","arrowleft","[0.675,0.325,0.15,0.85]","","",""
"sailing-trial","196","1016453","0.0-11.0-159.0","","","","false","","","","","","","","","","null","","797.0999999046326","","2","0","null","null","arrowup","[0.675,0.325,0.15,0.85]","","",""
"sailing-trial","197","1019629","0.0-11.0-160.0","","","","false","","","","","","","","","","352.7000000476837","","23.699999809265137","","0","1","arrowleft","0","arrowleft","[0.675,0.325,0.15,0.85]","","",""
"sailing-trial","198","1021977","0.0-11.0-161.0","","","","false","","","","","","","","","","null","","1062.0999999046326","","1","0","null","null","arrowup","[0.675,0.325,0.15,0.85]","","",""
"sailing-trial","199","1024943","0.0-11.0-162.0","","","","false","","","","","","","","","","395.90000009536743","","16.700000047683716","","0","0","arrowleft","0","arrowleft","[0.675,0.325,0.15,0.85]","","",""
"sailing-trial","200","1027456","0.0-11.0-163.0","","","","false","","","","","","","","","","null","","885.8999998569489","","2","1","null","null","arrowup","[0.675,0.325,0.15,0.85]","","",""
"sailing-trial","201","1030777","0.0-11.0-164.0","","","","false","","","","","","","","","","672.8999998569489","","305","","2","0","arrowright","1","arrowleft","[0.675,0.325,0.15,0.85]","","",""
"sailing-trial","202","1032988","0.0-11.0-165.0","","","","false","","","","","","","","","","null","","1000.2000000476837","","2","0","null","null","arrowup","[0.675,0.325,0.15,0.85]","","",""
"sailing-trial","203","1036362","0.0-11.0-166.0","","","","false","","","","","","","","","","570","","194.5","","2","1","arrowright","1","arrowleft","[0.675,0.325,0.15,0.85]","","",""
"sailing-trial","204","1038977","0.0-11.0-167.0","","","","false","","","","","","","","","","null","","893.5","","3","1","null","null","arrowup","[0.675,0.325,0.15,0.85]","","",""
"sailing-trial","205","1045859","0.0-11.0-168.0","","","","false","","","","","","","","","","2882.7000000476837","","1122.7999999523163","","2","0","arrowright","1","arrowleft","[0.675,0.325,0.15,0.85]","","",""
"sailing-trial","206","1051300","0.0-11.0-169.0","","","","false","","","","","","","","","","null","","3057","","3","1","null","null","arrowup","[0.675,0.325,0.15,0.85]","","",""
"sailing-trial","207","1059141","0.0-11.0-170.0","","","","false","","","","","","","","","","997.2000000476837","","3358.5","","3","1","arrowright","1","arrowright","[0.675,0.325,0.15,0.85]","","",""
"sailing-trial","208","1062853","0.0-11.0-171.0","","","","false","","","","","","","","","","null","","1284.2999999523163","","1","1","null","null","arrowup","[0.675,0.325,0.15,0.85]","","",""
"sailing-trial","209","1066634","0.0-11.0-172.0","","","","false","","","","","","","","","","527.0999999046326","","250.20000004768372","","3","1","arrowright","1","arrowright","[0.675,0.325,0.15,0.85]","","",""
"sailing-trial","210","1071046","0.0-11.0-173.0","","","","false","","","","","","","","","","null","","2746.5","","3","1","null","null","arrowup","[0.675,0.325,0.15,0.85]","","",""
"sailing-trial","211","1074958","0.0-11.0-174.0","","","","false","","","","","","","","","","508.2999999523163","","158.59999990463257","","3","1","arrowright","1","arrowright","[0.675,0.325,0.15,0.85]","","",""
"sailing-trial","212","1078138","0.0-11.0-175.0","","","","false","","","","","","","","","","null","","1110.7999999523163","","3","1","null","null","arrowup","[0.675,0.325,0.15,0.85]","","",""
"sailing-trial","213","1082617","0.0-11.0-176.0","","","","false","","","","","","","","","","928.1000001430511","","1482.5999999046326","","3","0","arrowright","1","arrowright","[0.85,0.15,0.325,0.675]","","",""
"sailing-trial","214","1085095","0.0-11.0-177.0","","","","false","","","","","","","","","","null","","1437","","1","0","null","null","arrowup","[0.85,0.15,0.325,0.675]","","",""
"sailing-trial","215","1089179","0.0-11.0-178.0","","","","false","","","","","","","","","","638","","301.7000000476837","","0","1","arrowleft","0","arrowleft","[0.85,0.15,0.325,0.675]","","",""
"sailing-trial","216","1093789","0.0-11.0-179.0","","","","false","","","","","","","","","","null","","1186.8999998569489","","2","1","null","null","arrowup","[0.85,0.15,0.325,0.675]","","",""
"sailing-trial","217","1097853","0.0-11.0-180.0","","","","false","","","","","","","","","","469.90000009536743","","518.1999998092651","","0","1","arrowleft","0","arrowleft","[0.85,0.15,0.325,0.675]","","",""
"sailing-trial","218","1100866","0.0-11.0-181.0","","","","false","","","","","","","","","","null","","1176.3999998569489","","2","1","null","null","arrowup","[0.85,0.15,0.325,0.675]","","",""
"sailing-trial","219","1104011","0.0-11.0-182.0","","","","false","","","","","","","","","","483.2999999523163","","344.7999999523163","","2","0","arrowright","1","arrowleft","[0.85,0.15,0.325,0.675]","","",""
"sailing-trial","220","1106948","0.0-11.0-183.0","","","","false","","","","","","","","","","null","","1713.1000001430511","","1","0","null","null","arrowup","[0.85,0.15,0.325,0.675]","","",""
"sailing-trial","221","1110656","0.0-11.0-184.0","","","","false","","","","","","","","","","550.2999999523163","","381.2000000476837","","0","1","arrowleft","0","arrowleft","[0.85,0.15,0.325,0.675]","","",""
"sailing-trial","222","1113888","0.0-11.0-185.0","","","","false","","","","","","","","","","null","","1014.5999999046326","","1","1","null","null","arrowup","[0.85,0.15,0.325,0.675]","","",""
"sailing-trial","223","1119797","0.0-11.0-186.0","","","","false","","","","","","","","","","425.5","","2779.0999999046326","","0","1","arrowleft","0","arrowleft","[0.85,0.15,0.325,0.675]","","",""
"sailing-trial","224","1122746","0.0-11.0-187.0","","","","false","","","","","","","","","","null","","1200.1000001430511","","3","1","null","null","arrowup","[0.85,0.15,0.325,0.675]","","",""
"sailing-trial","225","1127357","0.0-11.0-188.0","","","","false","","","","","","","","","","628.3999998569489","","259.39999985694885","","0","1","arrowleft","0","arrowleft","[0.85,0.15,0.325,0.675]","","",""
"sailing-trial","226","1129738","0.0-11.0-189.0","","","","false","","","","","","","","","","null","","831.7999999523163","","2","1","null","null","arrowup","[0.85,0.15,0.325,0.675]","","",""
"sailing-trial","227","1134832","0.0-11.0-190.0","","","","false","","","","","","","","","","477.10000014305115","","1448.7000000476837","","0","1","arrowleft","0","arrowleft","[0.85,0.15,0.325,0.675]","","",""
"sailing-trial","228","1137864","0.0-11.0-191.0","","","","false","","","","","","","","","","null","","954.0999999046326","","2","1","null","null","arrowup","[0.85,0.15,0.325,0.675]","","",""
"sailing-trial","229","1141025","0.0-11.0-192.0","","","","false","","","","","","","","","","513.8000001907349","","258.2000000476837","","2","0","arrowright","1","arrowleft","[0.15,0.85,0.675,0.325]","","",""
"sailing-trial","230","1143210","0.0-11.0-193.0","","","","false","","","","","","","","","","null","","966.0999999046326","","1","0","null","null","arrowup","[0.15,0.85,0.675,0.325]","","",""
"sailing-trial","231","1147154","0.0-11.0-194.0","","","","false","","","","","","","","","","470.90000009536743","","420.89999985694885","","1","1","arrowleft","0","arrowright","[0.15,0.85,0.675,0.325]","","",""
"sailing-trial","232","1149563","0.0-11.0-195.0","","","","false","","","","","","","","","","null","","812.8999998569489","","0","0","null","null","arrowup","[0.15,0.85,0.675,0.325]","","",""
"sailing-trial","233","1153380","0.0-11.0-196.0","","","","false","","","","","","","","","","689.2999999523163","","145.10000014305115","","1","1","arrowleft","0","arrowright","[0.15,0.85,0.675,0.325]","","",""
"sailing-trial","234","1156277","0.0-11.0-197.0","","","","false","","","","","","","","","","null","","1051.2999999523163","","1","1","null","null","arrowup","[0.15,0.85,0.675,0.325]","","",""
"sailing-trial","235","1159974","0.0-11.0-198.0","","","","false","","","","","","","","","","388.69999980926514","","29.299999952316284","","1","1","arrowleft","0","arrowright","[0.15,0.85,0.675,0.325]","","",""
"sailing-trial","236","1162425","0.0-11.0-199.0","","","","false","","","","","","","","","","null","","1249.2000000476837","","0","0","null","null","arrowup","[0.15,0.85,0.675,0.325]","","",""
"sailing-trial","237","1166019","0.0-11.0-200.0","","","","false","","","","","","","","","","617","","104.39999985694885","","1","1","arrowleft","0","arrowright","[0.15,0.85,0.675,0.325]","","",""
"sailing-trial","238","1168635","0.0-11.0-201.0","","","","false","","","","","","","","","","null","","810.5999999046326","","2","0","null","null","arrowup","[0.15,0.85,0.675,0.325]","","",""
"sailing-trial","239","1173945","0.0-11.0-202.0","","","","false","","","","","","","","","","597.7000000476837","","1988.0999999046326","","1","1","arrowleft","0","arrowright","[0.15,0.85,0.675,0.325]","","",""
"sailing-trial","240","1176691","0.0-11.0-203.0","","","","false","","","","","","","","","","null","","993.0999999046326","","3","1","null","null","arrowup","[0.15,0.85,0.675,0.325]","","",""
"sailing-trial","241","1180405","0.0-11.0-204.0","","","","false","","","","","","","","","","690.2000000476837","","113.89999985694885","","1","1","arrowleft","0","arrowright","[0.15,0.85,0.675,0.325]","","",""
"sailing-trial","242","1182666","0.0-11.0-205.0","","","","false","","","","","","","","","","null","","798.2999999523163","","0","0","null","null","arrowup","[0.15,0.85,0.675,0.325]","","",""
"sailing-trial","243","1186014","0.0-11.0-206.0","","","","false","","","","","","","","","","391","","283.5","","1","1","arrowleft","0","arrowright","[0.15,0.85,0.675,0.325]","","",""
"sailing-trial","244","1188177","0.0-11.0-207.0","","","","false","","","","","","","","","","null","","799.1000001430511","","0","0","null","null","arrowup","[0.15,0.85,0.675,0.325]","","",""
"sailing-trial","245","1191825","0.0-11.0-208.0","","","","false","","","","","","","","","","446.80000019073486","","350.60000014305115","","1","1","arrowleft","0","arrowright","[0.15,0.85,0.675,0.325]","","",""
"sailing-trial","246","1195140","0.0-11.0-209.0","","","","false","","","","","","","","","","null","","1672.2000000476837","","0","1","null","null","arrowup","[0.15,0.85,0.675,0.325]","","",""
"sailing-trial","247","1198985","0.0-11.0-210.0","","","","false","","","","","","","","","","593.1999998092651","","249.10000014305115","","1","1","arrowleft","0","arrowright","[0.325,0.675,0.85,0.15]","","",""
"sailing-trial","248","1201237","0.0-11.0-211.0","","","","false","","","","","","","","","","null","","984.2000000476837","","1","0","null","null","arrowup","[0.325,0.675,0.85,0.15]","","",""
"sailing-trial","249","1205295","0.0-11.0-212.0","","","","false","","","","","","","","","","558.7999999523163","","697.5999999046326","","3","1","arrowright","1","arrowright","[0.325,0.675,0.85,0.15]","","",""
"sailing-trial","250","1207992","0.0-11.0-213.0","","","","false","","","","","","","","","","null","","998.5","","0","1","null","null","arrowup","[0.325,0.675,0.85,0.15]","","",""
"sailing-trial","251","1211456","0.0-11.0-214.0","","","","false","","","","","","","","","","488.60000014305115","","187","","3","1","arrowright","1","arrowright","[0.325,0.675,0.85,0.15]","","",""
"sailing-trial","252","1214287","0.0-11.0-215.0","","","","false","","","","","","","","","","null","","1152.3000001907349","","0","1","null","null","arrowup","[0.325,0.675,0.85,0.15]","","",""
"sailing-trial","253","1217833","0.0-11.0-216.0","","","","false","","","","","","","","","","495.2999999523163","","177.79999995231628","","1","1","arrowleft","0","arrowright","[0.325,0.675,0.85,0.15]","","",""
"sailing-trial","254","1220299","0.0-11.0-217.0","","","","false","","","","","","","","","","null","","867.7000000476837","","1","1","null","null","arrowup","[0.325,0.675,0.85,0.15]","","",""
"sailing-trial","255","1223414","0.0-11.0-218.0","","","","false","","","","","","","","","","429.2000000476837","","383.90000009536743","","0","0","arrowleft","0","arrowleft","[0.325,0.675,0.85,0.15]","","",""
"sailing-trial","256","1226222","0.0-11.0-219.0","","","","false","","","","","","","","","","null","","1525.8000001907349","","0","0","null","null","arrowup","[0.325,0.675,0.85,0.15]","","",""
"sailing-trial","257","1229207","0.0-11.0-220.0","","","","false","","","","","","","","","","481.7999999523163","","174.80000019073486","","3","0","arrowright","1","arrowright","[0.325,0.675,0.85,0.15]","","",""
"sailing-trial","258","1231375","0.0-11.0-221.0","","","","false","","","","","","","","","","null","","856.1000001430511","","1","0","null","null","arrowup","[0.325,0.675,0.85,0.15]","","",""
"sailing-trial","259","1235983","0.0-11.0-222.0","","","","false","","","","","","","","","","1213.8999998569489","","94.19999980926514","","1","1","arrowleft","0","arrowright","[0.325,0.675,0.85,0.15]","","",""
"sailing-trial","260","1239178","0.0-11.0-223.0","","","","false","","","","","","","","","","null","","951.3999998569489","","1","1","null","null","arrowup","[0.325,0.675,0.85,0.15]","","",""
"sailing-trial","261","1242824","0.0-11.0-224.0","","","","false","","","","","","","","","","532.7000000476837","","312.39999985694885","","1","1","arrowleft","0","arrowright","[0.325,0.675,0.85,0.15]","","",""
"sailing-trial","262","1245472","0.0-11.0-225.0","","","","false","","","","","","","","","","null","","973.7999999523163","","3","1","null","null","arrowup","[0.325,0.675,0.85,0.15]","","",""
"sailing-trial","263","1248614","0.0-11.0-226.0","","","","false","","","","","","","","","","577.3999998569489","","238.59999990463257","","1","0","arrowleft","0","arrowright","[0.85,0.15,0.325,0.675]","","",""
"sailing-trial","264","1252600","0.0-11.0-227.0","","","","false","","","","","","","","","","null","","2331.2999999523163","","3","1","null","null","arrowup","[0.85,0.15,0.325,0.675]","","",""
"sailing-trial","265","1255796","0.0-11.0-228.0","","","","false","","","","","","","","","","56.700000047683716","","368.40000009536743","","2","1","arrowright","1","arrowleft","[0.85,0.15,0.325,0.675]","","",""
"sailing-trial","266","1258794","0.0-11.0-229.0","","","","false","","","","","","","","","","null","","795.1000001430511","","1","1","null","null","arrowup","[0.85,0.15,0.325,0.675]","","",""
"sailing-trial","267","1262855","0.0-11.0-230.0","","","","false","","","","","","","","","","823","","400.39999985694885","","3","1","arrowright","1","arrowright","[0.85,0.15,0.325,0.675]","","",""
"sailing-trial","268","1264807","0.0-11.0-231.0","","","","false","","","","","","","","","","null","","821.8999998569489","","3","0","null","null","arrowup","[0.85,0.15,0.325,0.675]","","",""
"sailing-trial","269","1267624","0.0-11.0-232.0","","","","false","","","","","","","","","","336.59999990463257","","397.5","","1","0","arrowleft","0","arrowright","[0.85,0.15,0.325,0.675]","","",""
"sailing-trial","270","1269533","0.0-11.0-233.0","","","","false","","","","","","","","","","null","","818","","2","0","null","null","arrowup","[0.85,0.15,0.325,0.675]","","",""
"sailing-trial","271","1273096","0.0-11.0-234.0","","","","false","","","","","","","","","","552.8999998569489","","217.40000009536743","","2","1","arrowright","1","arrowleft","[0.85,0.15,0.325,0.675]","","",""
"sailing-trial","272","1275858","0.0-11.0-235.0","","","","false","","","","","","","","","","null","","818.8000001907349","","3","1","null","null","arrowup","[0.85,0.15,0.325,0.675]","","",""
"sailing-trial","273","1279388","0.0-11.0-236.0","","","","false","","","","","","","","","","523.5999999046326","","189.80000019073486","","2","1","arrowright","1","arrowleft","[0.85,0.15,0.325,0.675]","","",""
"sailing-trial","274","1283051","0.0-11.0-237.0","","","","false","","","","","","","","","","null","","1672.6999998092651","","0","1","null","null","arrowup","[0.85,0.15,0.325,0.675]","","",""
"sailing-trial","275","1288645","0.0-11.0-238.0","","","","false","","","","","","","","","","884.5","","1099.4000000953674","","3","1","arrowright","1","arrowright","[0.85,0.15,0.325,0.675]","","",""
"sailing-trial","276","1290916","0.0-11.0-239.0","","","","false","","","","","","","","","","null","","1185.8000001907349","","1","0","null","null","arrowup","[0.85,0.15,0.325,0.675]","","",""
"sailing-trial","277","1293784","0.0-11.0-240.0","","","","false","","","","","","","","","","489.5","","156.79999995231628","","1","0","arrowleft","0","arrowright","[0.85,0.15,0.325,0.675]","","",""
"sailing-trial","278","1295716","0.0-11.0-241.0","","","","false","","","","","","","","","","null","","822.6999998092651","","2","0","null","null","arrowup","[0.85,0.15,0.325,0.675]","","",""
"sailing-trial","279","1298377","0.0-11.0-242.0","","","","false","","","","","","","","","","365.2000000476837","","99.80000019073486","","3","0","arrowright","1","arrowright","[0.15,0.85,0.675,0.325]","","",""
"sailing-trial","280","1300410","0.0-11.0-243.0","","","","false","","","","","","","","","","null","","853.6999998092651","","2","0","null","null","arrowup","[0.15,0.85,0.675,0.325]","","",""
"sailing-trial","281","1303764","0.0-11.0-244.0","","","","false","","","","","","","","","","394.40000009536743","","377.90000009536743","","3","1","arrowright","1","arrowright","[0.15,0.85,0.675,0.325]","","",""
"sailing-trial","282","1306121","0.0-11.0-245.0","","","","false","","","","","","","","","","null","","803.9000000953674","","2","1","null","null","arrowup","[0.15,0.85,0.675,0.325]","","",""
"sailing-trial","283","1309637","0.0-11.0-246.0","","","","false","","","","","","","","","","367.2000000476837","","516.9000000953674","","3","0","arrowright","1","arrowright","[0.15,0.85,0.675,0.325]","","",""
"sailing-trial","284","1311654","0.0-11.0-247.0","","","","false","","","","","","","","","","null","","874.7000000476837","","3","0","null","null","arrowup","[0.15,0.85,0.675,0.325]","","",""
"sailing-trial","285","1315194","0.0-11.0-248.0","","","","false","","","","","","","","","","353","","669.1999998092651","","1","0","arrowleft","0","arrowright","[0.15,0.85,0.675,0.325]","","",""
"sailing-trial","286","1317917","0.0-11.0-249.0","","","","false","","","","","","","","","","null","","850.7000000476837","","2","1","null","null","arrowup","[0.15,0.85,0.675,0.325]","","",""
"sailing-trial","287","1321448","0.0-11.0-250.0","","","","false","","","","","","","","","","422","","214.90000009536743","","0","1","arrowleft","0","arrowleft","[0.15,0.85,0.675,0.325]","","",""
"sailing-trial","288","1323298","0.0-11.0-251.0","","","","false","","","","","","","","","","null","","814.5999999046326","","3","0","null","null","arrowup","[0.15,0.85,0.675,0.325]","","",""
"sailing-trial","289","1326171","0.0-11.0-252.0","","","","false","","","","","","","","","","465.5","","144.70000004768372","","0","0","arrowleft","0","arrowleft","[0.15,0.85,0.675,0.325]","","",""
"sailing-trial","290","1328439","0.0-11.0-253.0","","","","false","","","","","","","","","","null","","689.7999999523163","","3","1","null","null","arrowup","[0.15,0.85,0.675,0.325]","","",""
"sailing-trial","291","1331689","0.0-11.0-254.0","","","","false","","","","","","","","","","675.5","","292.7999999523163","","3","0","arrowright","1","arrowright","[0.15,0.85,0.675,0.325]","","",""
"sailing-trial","292","1334534","0.0-11.0-255.0","","","","false","","","","","","","","","","null","","1265.2000000476837","","1","1","null","null","arrowup","[0.15,0.85,0.675,0.325]","","",""
"sailing-trial","293","1340061","0.0-11.0-256.0","","","","false","","","","","","","","","","1849.7000000476837","","370.60000014305115","","3","1","arrowright","1","arrowright","[0.15,0.85,0.675,0.325]","","",""
"sailing-trial","294","1343058","0.0-11.0-257.0","","","","false","","","","","","","","","","null","","1229.2000000476837","","2","1","null","null","arrowup","[0.15,0.85,0.675,0.325]","","",""
"sailing-trial","295","1346969","0.0-11.0-258.0","","","","false","","","","","","","","","","1296.4000000953674","","472.09999990463257","","0","0","arrowleft","0","arrowleft","[0.15,0.85,0.675,0.325]","","",""
"sailing-trial","296","1349618","0.0-11.0-259.0","","","","false","","","","","","","","","","null","","907.2999999523163","","1","1","null","null","arrowup","[0.15,0.85,0.675,0.325]","","",""
"sailing-trial","297","1353130","0.0-11.0-260.0","","","","false","","","","","","","","","","995.0999999046326","","243.69999980926514","","3","0","arrowright","1","arrowright","[0.15,0.85,0.675,0.325]","","",""
"sailing-trial","298","1355981","0.0-11.0-261.0","","","","false","","","","","","","","","","null","","880.7000000476837","","0","1","null","null","arrowup","[0.15,0.85,0.675,0.325]","","",""
"sailing-trial","299","1361897","0.0-11.0-262.0","","","","false","","","","","","","","","","723.5","","2613.9000000953674","","1","0","arrowleft","0","arrowright","[0.15,0.85,0.675,0.325]","","",""
"sailing-trial","300","1364248","0.0-11.0-263.0","","","","false","","","","","","","","","","null","","1109.4000000953674","","0","0","null","null","arrowup","[0.15,0.85,0.675,0.325]","","",""
"sailing-trial","301","1367819","0.0-11.0-264.0","","","","false","","","","","","","","","","844","","288.5","","0","0","arrowleft","0","arrowleft","[0.325,0.675,0.85,0.15]","","",""
"sailing-trial","302","1370765","0.0-11.0-265.0","","","","false","","","","","","","","","","null","","1299","","1","1","null","null","arrowup","[0.325,0.675,0.85,0.15]","","",""
"sailing-trial","303","1374427","0.0-11.0-266.0","","","","false","","","","","","","","","","572.0999999046326","","474.5","","1","1","arrowleft","0","arrowright","[0.325,0.675,0.85,0.15]","","",""
"sailing-trial","304","1378438","0.0-11.0-267.0","","","","false","","","","","","","","","","null","","2806.899999856949","","1","0","null","null","arrowup","[0.325,0.675,0.85,0.15]","","",""
"sailing-trial","305","1382503","0.0-11.0-268.0","","","","false","","","","","","","","","","645.7999999523163","","534.7000000476837","","0","1","arrowleft","0","arrowleft","[0.325,0.675,0.85,0.15]","","",""
"sailing-trial","306","1385189","0.0-11.0-269.0","","","","false","","","","","","","","","","null","","1341.9000000953674","","1","0","null","null","arrowup","[0.325,0.675,0.85,0.15]","","",""
"sailing-trial","307","1392928","0.0-11.0-270.0","","","","false","","","","","","","","","","4638.5","","736.2000000476837","","0","0","arrowleft","0","arrowleft","[0.325,0.675,0.85,0.15]","","",""
"sailing-trial","308","1395658","0.0-11.0-271.0","","","","false","","","","","","","","","","null","","940.6000001430511","","2","1","null","null","arrowup","[0.325,0.675,0.85,0.15]","","",""
"sailing-trial","309","1399237","0.0-11.0-272.0","","","","false","","","","","","","","","","425.09999990463257","","249.20000004768372","","2","1","arrowright","1","arrowleft","[0.325,0.675,0.85,0.15]","","",""
"sailing-trial","310","1403232","0.0-11.0-273.0","","","","false","","","","","","","","","","null","","2229.2999999523163","","2","1","null","null","arrowup","[0.325,0.675,0.85,0.15]","","",""
"sailing-trial","311","1407612","0.0-11.0-274.0","","","","false","","","","","","","","","","1058.5","","512.1000001430511","","2","1","arrowright","1","arrowleft","[0.325,0.675,0.85,0.15]","","",""
"sailing-trial","312","1410242","0.0-11.0-275.0","","","","false","","","","","","","","","","null","","819.7000000476837","","1","1","null","null","arrowup","[0.325,0.675,0.85,0.15]","","",""
"sailing-trial","313","1413723","0.0-11.0-276.0","","","","false","","","","","","","","","","621.5","","221.40000009536743","","2","1","arrowright","1","arrowleft","[0.325,0.675,0.85,0.15]","","",""
"sailing-trial","314","1415575","0.0-11.0-277.0","","","","false","","","","","","","","","","null","","765.2999999523163","","2","0","null","null","arrowup","[0.325,0.675,0.85,0.15]","","",""
"sailing-trial","315","1418474","0.0-11.0-278.0","","","","false","","","","","","","","","","530.2000000476837","","182.79999995231628","","0","0","arrowleft","0","arrowleft","[0.325,0.675,0.85,0.15]","","",""
"sailing-trial","316","1420502","0.0-11.0-279.0","","","","false","","","","","","","","","","null","","836.7000000476837","","3","0","null","null","arrowup","[0.325,0.675,0.85,0.15]","","",""
"sailing-trial","317","1423597","0.0-11.0-280.0","","","","false","","","","","","","","","","536.3999998569489","","523","","0","0","arrowleft","0","arrowleft","[0.325,0.675,0.85,0.15]","","",""
"sailing-trial","318","1426297","0.0-11.0-281.0","","","","false","","","","","","","","","","null","","1325.5999999046326","","3","0","null","null","arrowup","[0.325,0.675,0.85,0.15]","","",""
"sailing-trial","319","1431256","0.0-11.0-282.0","","","","false","","","","","","","","","","449.2999999523163","","336.39999985694885","","2","1","arrowright","1","arrowleft","[0.325,0.675,0.85,0.15]","","",""
"sailing-trial","320","1435017","0.0-11.0-283.0","","","","false","","","","","","","","","","null","","1867.4000000953674","","3","1","null","null","arrowup","[0.325,0.675,0.85,0.15]","","",""
"sailing-trial","321","1438462","0.0-11.0-284.0","","","","false","","","","","","","","","","381.40000009536743","","259.59999990463257","","3","0","arrowright","1","arrowright","[0.15,0.85,0.675,0.325]","","",""
"sailing-trial","322","1440914","0.0-11.0-285.0","","","","false","","","","","","","","","","null","","1170","","0","0","null","null","arrowup","[0.15,0.85,0.675,0.325]","","",""
"sailing-trial","323","1444055","0.0-11.0-286.0","","","","false","","","","","","","","","","663","","209.09999990463257","","2","0","arrowright","1","arrowleft","[0.15,0.85,0.675,0.325]","","",""
"sailing-trial","324","1446757","0.0-11.0-287.0","","","","false","","","","","","","","","","null","","903.6999998092651","","0","1","null","null","arrowup","[0.15,0.85,0.675,0.325]","","",""
"sailing-trial","325","1449911","0.0-11.0-288.0","","","","false","","","","","","","","","","517.8999998569489","","331.2999999523163","","0","0","arrowleft","0","arrowleft","[0.15,0.85,0.675,0.325]","","",""
"sailing-trial","326","1453841","0.0-11.0-289.0","","","","false","","","","","","","","","","null","","2673.5","","3","0","null","null","arrowup","[0.15,0.85,0.675,0.325]","","",""
"sailing-trial","327","1456880","0.0-11.0-290.0","","","","false","","","","","","","","","","643.7999999523163","","40.09999990463257","","0","0","arrowleft","0","arrowleft","[0.15,0.85,0.675,0.325]","","",""
"sailing-trial","328","1459012","0.0-11.0-291.0","","","","false","","","","","","","","","","null","","997.7000000476837","","1","0","null","null","arrowup","[0.15,0.85,0.675,0.325]","","",""
"sailing-trial","329","1463217","0.0-11.0-292.0","","","","false","","","","","","","","","","1906.5","","194.90000009536743","","2","0","arrowright","1","arrowleft","[0.15,0.85,0.675,0.325]","","",""
"sailing-trial","330","1465272","0.0-11.0-293.0","","","","false","","","","","","","","","","null","","896.7999999523163","","0","0","null","null","arrowup","[0.15,0.85,0.675,0.325]","","",""
"sailing-trial","331","1468482","0.0-11.0-294.0","","","","false","","","","","","","","","","659.9000000953674","","221.69999980926514","","3","0","arrowright","1","arrowright","[0.15,0.85,0.675,0.325]","","",""
"sailing-trial","332","1470731","0.0-11.0-295.0","","","","false","","","","","","","","","","null","","703.5","","2","1","null","null","arrowup","[0.15,0.85,0.675,0.325]","","",""
"sailing-trial","333","1474580","0.0-11.0-296.0","","","","false","","","","","","","","","","815.2999999523163","","198.89999985694885","","2","1","arrowright","1","arrowleft","[0.15,0.85,0.675,0.325]","","",""
"sailing-trial","334","1476894","0.0-11.0-297.0","","","","false","","","","","","","","","","null","","782.9000000953674","","1","1","null","null","arrowup","[0.15,0.85,0.675,0.325]","","",""
"sailing-trial","335","1479857","0.0-11.0-298.0","","","","false","","","","","","","","","","444.2999999523163","","300.7000000476837","","2","0","arrowright","1","arrowleft","[0.15,0.85,0.675,0.325]","","",""
"sailing-trial","336","1482437","0.0-11.0-299.0","","","","false","","","","","","","","","","null","","951.7999999523163","","1","1","null","null","arrowup","[0.15,0.85,0.675,0.325]","","",""
"sailing-trial","337","1485602","0.0-11.0-300.0","","","","false","","","","","","","","","","197.90000009536743","","6.299999952316284","","1","1","arrowleft","0","arrowright","[0.325,0.675,0.85,0.15]","","",""
"sailing-trial","338","1487625","0.0-11.0-301.0","","","","false","","","","","","","","","","null","","828.0999999046326","","3","0","null","null","arrowup","[0.325,0.675,0.85,0.15]","","",""
"sailing-trial","339","1492178","0.0-11.0-302.0","","","","false","","","","","","","","","","472","","476.5","","1","1","arrowleft","0","arrowright","[0.325,0.675,0.85,0.15]","","",""
"sailing-trial","340","1494685","0.0-11.0-303.0","","","","false","","","","","","","","","","null","","964.5999999046326","","3","0","null","null","arrowup","[0.325,0.675,0.85,0.15]","","",""
"sailing-trial","341","1498688","0.0-11.0-304.0","","","","false","","","","","","","","","","907.6000001430511","","278.7999999523163","","1","1","arrowleft","0","arrowright","[0.325,0.675,0.85,0.15]","","",""
"sailing-trial","342","1500547","0.0-11.0-305.0","","","","false","","","","","","","","","","null","","749.7999999523163","","0","0","null","null","arrowup","[0.325,0.675,0.85,0.15]","","",""
"sailing-trial","343","1504233","0.0-11.0-306.0","","","","false","","","","","","","","","","637.7000000476837","","408.7999999523163","","1","1","arrowleft","0","arrowright","[0.325,0.675,0.85,0.15]","","",""
"sailing-trial","344","1506299","0.0-11.0-307.0","","","","false","","","","","","","","","","null","","911.7000000476837","","0","0","null","null","arrowup","[0.325,0.675,0.85,0.15]","","",""
"sailing-trial","345","1510143","0.0-11.0-308.0","","","","false","","","","","","","","","","599.2999999523163","","425.10000014305115","","1","1","arrowleft","0","arrowright","[0.325,0.675,0.85,0.15]","","",""
"sailing-trial","346","1512420","0.0-11.0-309.0","","","","false","","","","","","","","","","null","","837.9000000953674","","3","0","null","null","arrowup","[0.325,0.675,0.85,0.15]","","",""
"sailing-trial","347","1515721","0.0-11.0-310.0","","","","false","","","","","","","","","","582.2999999523163","","116.60000014305115","","1","1","arrowleft","0","arrowright","[0.325,0.675,0.85,0.15]","","",""
"sailing-trial","348","1517524","0.0-11.0-311.0","","","","false","","","","","","","","","","null","","765.9000000953674","","3","0","null","null","arrowup","[0.325,0.675,0.85,0.15]","","",""
"sailing-trial","349","1520158","0.0-11.0-312.0","","","","false","","","","","","","","","","509.2999999523163","","32.700000047683716","","1","0","arrowleft","0","arrowright","[0.325,0.675,0.85,0.15]","","",""
"sailing-trial","350","1522323","0.0-11.0-313.0","","","","false","","","","","","","","","","null","","1067.7000000476837","","3","0","null","null","arrowup","[0.325,0.675,0.85,0.15]","","",""
"sailing-trial","351","1525095","0.0-11.0-314.0","","","","false","","","","","","","","","","348.59999990463257","","108","","3","0","arrowright","1","arrowright","[0.325,0.675,0.85,0.15]","","",""
"sailing-trial","352","1527383","0.0-11.0-315.0","","","","false","","","","","","","","","","null","","843.4000000953674","","0","0","null","null","arrowup","[0.325,0.675,0.85,0.15]","","",""
"sailing-trial","353","1530755","0.0-11.0-316.0","","","","false","","","","","","","","","","342.7999999523163","","277.7999999523163","","1","1","arrowleft","0","arrowright","[0.15,0.85,0.675,0.325]","","",""
"sailing-trial","354","1532649","0.0-11.0-317.0","","","","false","","","","","","","","","","null","","730.3999998569489","","2","0","null","null","arrowup","[0.15,0.85,0.675,0.325]","","",""
"sailing-trial","355","1536635","0.0-11.0-318.0","","","","false","","","","","","","","","","998","","393.7999999523163","","1","1","arrowleft","0","arrowright","[0.15,0.85,0.675,0.325]","","",""
"sailing-trial","356","1539349","0.0-11.0-319.0","","","","false","","","","","","","","","","null","","836.5","","3","1","null","null","arrowup","[0.15,0.85,0.675,0.325]","","",""
"sailing-trial","357","1542395","0.0-11.0-320.0","","","","false","","","","","","","","","","324.5","","3","","1","1","arrowleft","0","arrowright","[0.15,0.85,0.675,0.325]","","",""
"sailing-trial","358","1544469","0.0-11.0-321.0","","","","false","","","","","","","","","","null","","889.7000000476837","","3","0","null","null","arrowup","[0.15,0.85,0.675,0.325]","","",""
"sailing-trial","359","1548105","0.0-11.0-322.0","","","","false","","","","","","","","","","398.7999999523163","","222","","1","1","arrowleft","0","arrowright","[0.15,0.85,0.675,0.325]","","",""
"sailing-trial","360","1549911","0.0-11.0-323.0","","","","false","","","","","","","","","","null","","642","","0","0","null","null","arrowup","[0.15,0.85,0.675,0.325]","","",""
"sailing-trial","361","1554134","0.0-11.0-324.0","","","","false","","","","","","","","","","843.7000000476837","","514.4000000953674","","1","1","arrowleft","0","arrowright","[0.15,0.85,0.675,0.325]","","",""
"sailing-trial","362","1556330","0.0-11.0-325.0","","","","false","","","","","","","","","","null","","619.2000000476837","","1","1","null","null","arrowup","[0.15,0.85,0.675,0.325]","","",""
"sailing-trial","363","1559761","0.0-11.0-326.0","","","","false","","","","","","","","","","274.2999999523163","","475.09999990463257","","1","1","arrowleft","0","arrowright","[0.15,0.85,0.675,0.325]","","",""
"sailing-trial","364","1562258","0.0-11.0-327.0","","","","false","","","","","","","","","","null","","819","","3","1","null","null","arrowup","[0.15,0.85,0.675,0.325]","","",""
"sailing-trial","365","1565721","0.0-11.0-328.0","","","","false","","","","","","","","","","395.90000009536743","","195.40000009536743","","1","1","arrowleft","0","arrowright","[0.15,0.85,0.675,0.325]","","",""
"sailing-trial","366","1567571","0.0-11.0-329.0","","","","false","","","","","","","","","","null","","622.3999998569489","","3","0","null","null","arrowup","[0.15,0.85,0.675,0.325]","","",""
"sailing-trial","367","1571001","0.0-11.0-330.0","","","","false","","","","","","","","","","562.7999999523163","","141.5","","1","1","arrowleft","0","arrowright","[0.15,0.85,0.675,0.325]","","",""
"sailing-trial","368","1573314","0.0-11.0-331.0","","","","false","","","","","","","","","","null","","670.6000001430511","","1","1","null","null","arrowup","[0.15,0.85,0.675,0.325]","","",""
"sailing-trial","369","1576710","0.0-11.0-332.0","","","","false","","","","","","","","","","438.09999990463257","","196.39999985694885","","1","1","arrowleft","0","arrowright","[0.15,0.85,0.675,0.325]","","",""
"sailing-trial","370","1579108","0.0-11.0-333.0","","","","false","","","","","","","","","","null","","729.2999999523163","","2","1","null","null","arrowup","[0.15,0.85,0.675,0.325]","","",""
"sailing-trial","371","1582322","0.0-11.0-334.0","","","","false","","","","","","","","","","471.59999990463257","","54.700000047683716","","1","1","arrowleft","0","arrowright","[0.15,0.85,0.675,0.325]","","",""
"sailing-trial","372","1584197","0.0-11.0-335.0","","","","false","","","","","","","","","","null","","792.5999999046326","","1","0","null","null","arrowup","[0.15,0.85,0.675,0.325]","","",""
"sailing-trial","373","1588449","0.0-11.0-336.0","","","","false","","","","","","","","","","1105.2000000476837","","139.20000004768372","","2","1","arrowright","1","arrowleft","[0.15,0.85,0.675,0.325]","","",""
"sailing-trial","374","1590691","0.0-11.0-337.0","","","","false","","","","","","","","","","null","","810.5","","2","0","null","null","arrowup","[0.15,0.85,0.675,0.325]","","",""
"sailing-trial","375","1595564","0.0-11.0-338.0","","","","false","","","","","","","","","","626.2000000476837","","205.79999995231628","","0","0","arrowleft","0","arrowleft","[0.15,0.85,0.675,0.325]","","",""
"sailing-trial","376","1599159","0.0-11.0-339.0","","","","false","","","","","","","","","","null","","2216.9000000953674","","3","0","null","null","arrowup","[0.15,0.85,0.675,0.325]","","",""
"sailing-trial","377","1602651","0.0-11.0-340.0","","","","false","","","","","","","","","","1077.9000000953674","","194.5","","1","0","arrowleft","0","arrowright","[0.325,0.675,0.85,0.15]","","",""
"sailing-trial","378","1605066","0.0-11.0-341.0","","","","false","","","","","","","","","","null","","759","","3","1","null","null","arrowup","[0.325,0.675,0.85,0.15]","","",""
"sailing-trial","379","1607541","0.0-11.0-342.0","","","","false","","","","","","","","","","103.70000004768372","","109.20000004768372","","3","0","arrowright","1","arrowright","[0.325,0.675,0.85,0.15]","","",""
"sailing-trial","380","1610129","0.0-11.0-343.0","","","","false","","","","","","","","","","null","","829.7999999523163","","1","1","null","null","arrowup","[0.325,0.675,0.85,0.15]","","",""
"sailing-trial","381","1613357","0.0-11.0-344.0","","","","false","","","","","","","","","","133.30000019073486","","232.20000004768372","","1","1","arrowleft","0","arrowright","[0.325,0.675,0.85,0.15]","","",""
"sailing-trial","382","1616021","0.0-11.0-345.0","","","","false","","","","","","","","","","null","","779.4000000953674","","0","1","null","null","arrowup","[0.325,0.675,0.85,0.15]","","",""
"sailing-trial","383","1619203","0.0-11.0-346.0","","","","false","","","","","","","","","","372","","123","","1","1","arrowleft","0","arrowright","[0.325,0.675,0.85,0.15]","","",""
"sailing-trial","384","1621799","0.0-11.0-347.0","","","","false","","","","","","","","","","null","","1016.9000000953674","","1","1","null","null","arrowup","[0.325,0.675,0.85,0.15]","","",""
"sailing-trial","385","1624536","0.0-11.0-348.0","","","","false","","","","","","","","","","361.69999980926514","","123.79999995231628","","1","0","arrowleft","0","arrowright","[0.325,0.675,0.85,0.15]","","",""
"sailing-trial","386","1627045","0.0-11.0-349.0","","","","false","","","","","","","","","","null","","870.5","","1","1","null","null","arrowup","[0.325,0.675,0.85,0.15]","","",""
"sailing-trial","387","1630174","0.0-11.0-350.0","","","","false","","","","","","","","","","99.39999985694885","","251.89999985694885","","1","1","arrowleft","0","arrowright","[0.325,0.675,0.85,0.15]","","",""
"sailing-trial","388","1632237","0.0-11.0-351.0","","","","false","","","","","","","","","","null","","1018.0999999046326","","0","0","null","null","arrowup","[0.325,0.675,0.85,0.15]","","",""
"sailing-trial","389","1635795","0.0-11.0-352.0","","","","false","","","","","","","","","","910.2999999523163","","145.5","","1","0","arrowleft","0","arrowright","[0.325,0.675,0.85,0.15]","","",""
"sailing-trial","390","1638266","0.0-11.0-353.0","","","","false","","","","","","","","","","null","","491","","2","1","null","null","arrowup","[0.325,0.675,0.85,0.15]","","",""
"sailing-trial","391","1641329","0.0-11.0-354.0","","","","false","","","","","","","","","","33.69999980926514","","203.80000019073486","","2","1","arrowright","1","arrowleft","[0.325,0.675,0.85,0.15]","","",""
"sailing-trial","392","1643693","0.0-11.0-355.0","","","","false","","","","","","","","","","null","","813.8999998569489","","3","1","null","null","arrowup","[0.325,0.675,0.85,0.15]","","",""
"sailing-trial","393","1646645","0.0-11.0-356.0","","","","false","","","","","","","","","","185.90000009536743","","114.10000014305115","","2","1","arrowright","1","arrowleft","[0.325,0.675,0.85,0.15]","","",""
"sailing-trial","394","1648669","0.0-11.0-357.0","","","","false","","","","","","","","","","null","","774.5","","0","0","null","null","arrowup","[0.325,0.675,0.85,0.15]","","",""
"sailing-trial","395","1651861","0.0-11.0-358.0","","","","false","","","","","","","","","","380.2999999523163","","493.2000000476837","","3","0","arrowright","1","arrowright","[0.325,0.675,0.85,0.15]","","",""
"sailing-trial","396","1654532","0.0-11.0-359.0","","","","false","","","","","","","","","","null","","682.5","","0","1","null","null","arrowup","[0.325,0.675,0.85,0.15]","","",""
"sailing-trial","397","1656914","0.0-11.0-360.0","","","","false","","","","","","","","","","32.59999990463257","","5","","0","0","arrowleft","0","arrowleft","[0.15,0.85,0.675,0.325]","","",""
"sailing-trial","398","1659860","0.0-11.0-361.0","","","","false","","","","","","","","","","null","","892","","1","1","null","null","arrowup","[0.15,0.85,0.675,0.325]","","",""
"sailing-trial","399","1664142","0.0-11.0-362.0","","","","false","","","","","","","","","","785.5","","486.5","","2","1","arrowright","1","arrowleft","[0.15,0.85,0.675,0.325]","","",""
"sailing-trial","400","1666102","0.0-11.0-363.0","","","","false","","","","","","","","","","null","","920.8999998569489","","0","0","null","null","arrowup","[0.15,0.85,0.675,0.325]","","",""
"sailing-trial","401","1669106","0.0-11.0-364.0","","","","false","","","","","","","","","","675.5999999046326","","167.10000014305115","","2","0","arrowright","1","arrowleft","[0.15,0.85,0.675,0.325]","","",""
"sailing-trial","402","1670910","0.0-11.0-365.0","","","","false","","","","","","","","","","null","","785.2999999523163","","0","0","null","null","arrowup","[0.15,0.85,0.675,0.325]","","",""
"sailing-trial","403","1674077","0.0-11.0-366.0","","","","false","","","","","","","","","","465.2999999523163","","372.2000000476837","","3","0","arrowright","1","arrowright","[0.15,0.85,0.675,0.325]","","",""
"sailing-trial","404","1675681","0.0-11.0-367.0","","","","false","","","","","","","","","","null","","554.1000001430511","","3","0","null","null","arrowup","[0.15,0.85,0.675,0.325]","","",""
"sailing-trial","405","1678665","0.0-11.0-368.0","","","","false","","","","","","","","","","655.5","","54.09999990463257","","2","0","arrowright","1","arrowleft","[0.15,0.85,0.675,0.325]","","",""
"sailing-trial","406","1680804","0.0-11.0-369.0","","","","false","","","","","","","","","","null","","784.4000000953674","","3","0","null","null","arrowup","[0.15,0.85,0.675,0.325]","","",""
"sailing-trial","407","1683415","0.0-11.0-370.0","","","","false","","","","","","","","","","302.5","","223.40000009536743","","0","0","arrowleft","0","arrowleft","[0.15,0.85,0.675,0.325]","","",""
"sailing-trial","408","1685935","0.0-11.0-371.0","","","","false","","","","","","","","","","null","","745.1999998092651","","3","1","null","null","arrowup","[0.15,0.85,0.675,0.325]","","",""
"sailing-trial","409","1688441","0.0-11.0-372.0","","","","false","","","","","","","","","","54.80000019073486","","144.29999995231628","","0","0","arrowleft","0","arrowleft","[0.15,0.85,0.675,0.325]","","",""
"sailing-trial","410","1691048","0.0-11.0-373.0","","","","false","","","","","","","","","","null","","755.3999998569489","","3","1","null","null","arrowup","[0.15,0.85,0.675,0.325]","","",""
"sailing-trial","411","1693981","0.0-11.0-374.0","","","","false","","","","","","","","","","264.09999990463257","","327.19999980926514","","3","0","arrowright","1","arrowright","[0.15,0.85,0.675,0.325]","","",""
"sailing-trial","412","1698536","0.0-11.0-375.0","","","","false","","","","","","","","","","null","","3251","","3","0","null","null","arrowup","[0.15,0.85,0.675,0.325]","","",""
"sailing-trial","413","1702069","0.0-11.0-376.0","","","","false","","","","","","","","","","453","","199.30000019073486","","3","1","arrowright","1","arrowright","[0.15,0.85,0.675,0.325]","","",""
"sailing-trial","414","1704724","0.0-11.0-377.0","","","","false","","","","","","","","","","null","","1587.3999998569489","","3","0","null","null","arrowup","[0.15,0.85,0.675,0.325]","","",""
"sailing-trial","415","1708630","0.0-11.0-378.0","","","","false","","","","","","","","","","487.7999999523163","","306","","1","1","arrowleft","0","arrowright","[0.325,0.675,0.85,0.15]","","",""
"sailing-trial","416","1711260","0.0-11.0-379.0","","","","false","","","","","","","","","","null","","860.1999998092651","","2","1","null","null","arrowup","[0.325,0.675,0.85,0.15]","","",""
"sailing-trial","417","1713991","0.0-11.0-380.0","","","","false","","","","","","","","","","341.40000009536743","","140.59999990463257","","1","0","arrowleft","0","arrowright","[0.325,0.675,0.85,0.15]","","",""
"sailing-trial","418","1715845","0.0-11.0-381.0","","","","false","","","","","","","","","","null","","781.2000000476837","","0","0","null","null","arrowup","[0.325,0.675,0.85,0.15]","","",""
"sailing-trial","419","1718440","0.0-11.0-382.0","","","","false","","","","","","","","","","345","","151.40000009536743","","1","0","arrowleft","0","arrowright","[0.325,0.675,0.85,0.15]","","",""
"sailing-trial","420","1721273","0.0-11.0-383.0","","","","false","","","","","","","","","","null","","1149.4000000953674","","0","0","null","null","arrowup","[0.325,0.675,0.85,0.15]","","",""
"sailing-trial","421","1725948","0.0-11.0-384.0","","","","false","","","","","","","","","","2370.7000000476837","","275.5","","0","0","arrowleft","0","arrowleft","[0.325,0.675,0.85,0.15]","","",""
"sailing-trial","422","1728793","0.0-11.0-385.0","","","","false","","","","","","","","","","null","","979.0999999046326","","1","1","null","null","arrowup","[0.325,0.675,0.85,0.15]","","",""
"sailing-trial","423","1731874","0.0-11.0-386.0","","","","false","","","","","","","","","","143.30000019073486","","217.79999995231628","","1","1","arrowleft","0","arrowright","[0.325,0.675,0.85,0.15]","","",""
"sailing-trial","424","1733707","0.0-11.0-387.0","","","","false","","","","","","","","","","null","","749.4000000953674","","3","0","null","null","arrowup","[0.325,0.675,0.85,0.15]","","",""
"sailing-trial","425","1737020","0.0-11.0-388.0","","","","false","","","","","","","","","","401.2999999523163","","311.5","","1","1","arrowleft","0","arrowright","[0.325,0.675,0.85,0.15]","","",""
"sailing-trial","426","1739500","0.0-11.0-389.0","","","","false","","","","","","","","","","null","","769.9000000953674","","2","1","null","null","arrowup","[0.325,0.675,0.85,0.15]","","",""
"sailing-trial","427","1742929","0.0-11.0-390.0","","","","false","","","","","","","","","","395.59999990463257","","192.79999995231628","","1","1","arrowleft","0","arrowright","[0.325,0.675,0.85,0.15]","","",""
"sailing-trial","428","1744828","0.0-11.0-391.0","","","","false","","","","","","","","","","null","","832","","0","0","null","null","arrowup","[0.325,0.675,0.85,0.15]","","",""
"sailing-trial","429","1748507","0.0-11.0-392.0","","","","false","","","","","","","","","","526.0999999046326","","339","","1","1","arrowleft","0","arrowright","[0.325,0.675,0.85,0.15]","","",""
"sailing-trial","430","1751154","0.0-11.0-393.0","","","","false","","","","","","","","","","null","","844","","2","1","null","null","arrowup","[0.325,0.675,0.85,0.15]","","",""
"sailing-trial","431","1753813","0.0-11.0-394.0","","","","false","","","","","","","","","","199.89999985694885","","198.70000004768372","","2","0","arrowright","1","arrowleft","[0.325,0.675,0.85,0.15]","","",""
"sailing-trial","432","1755882","0.0-11.0-395.0","","","","false","","","","","","","","","","null","","945.9000000953674","","3","0","null","null","arrowup","[0.325,0.675,0.85,0.15]","","",""
"sailing-trial","433","1760978","0.0-11.0-396.0","","","","false","","","","","","","","","","1187.5999999046326","","334.89999985694885","","1","1","arrowleft","0","arrowright","[0.325,0.675,0.85,0.15]","","",""
"sailing-trial","434","1762954","0.0-11.0-397.0","","","","false","","","","","","","","","","null","","777.0999999046326","","1","0","null","null","arrowup","[0.325,0.675,0.85,0.15]","","",""
"sailing-trial","435","1769304","0.0-11.0-398.0","","","","false","","","","","","","","","","2338.899999856949","","325.90000009536743","","1","1","arrowleft","0","arrowright","[0.325,0.675,0.85,0.15]","","",""
"sailing-trial","436","1772766","0.0-11.0-399.0","","","","false","","","","","","","","","","null","","1153.5999999046326","","0","1","null","null","arrowup","[0.325,0.675,0.85,0.15]","","",""
"instructions","437","1780570","0.0-12.0","","","","","","","","","","7803.299999952316","","","","","","","","","","","","","","","","[{""page_index"":0,""viewing_time"":7802}]"
"survey-debrief","438","1901939","0.0-13.0","","","","","","","","","","121366","","","","","","","","","","","","","","{""difficulty"":""5"",""fun"":""3"",""clarity"":""5"",""strategy"":""when you get a lot of treasure from a store I kept on getting from that store"",""feedback"":""no""}","",""
