"trial_type","trial_index","time_elapsed","internal_node_id","value","metadata","success","timeout","failed_images","failed_audio","failed_video","browser_interaction","low_quality","rt","stimulus","response","button_pressed","island_rt","island_response","boat_rt","boat_response","boat","reward","island_key","island","boat_key","reward_probabilities","responses","num_errors"
"pavlovia","0","17","0.0-0.0","","","","","","","","","","","","","","","","","","","","","","","","",""
"call-function","1","19","0.0-1.0","","{""task_version"":""sailing_part1_v1"",""task_condition"":""good"",""boats"":[""A"",""B"",""C"",""D""],""boats_demo"":[""E"",""G"",""F"",""H""],""islands"":[""B"",""A""],""subject_id"":""13789"",""age"":""8"",""gender"":""Male""}","","","","","","","","","","","","","","","","","","","","","","",""
"preload","2","2872","0.0-2.0","","","true","false","[]","[]","[]","[{""event"":""fullscreenenter"",""trial"":3,""time"":20361}]","false","","","","","","","","","","","","","","","",""
"fullscreen","3","21315","0.0-3.0","","","true","","","","","","","","","","","","","","","","","","","","","",""
"audio-keyboard-response","4","24341","0.0-4.0-0.0","","","","","","","","","","2800","audio/beep_loop.wav"," ","","","","","","","","","","","","",""
"audio-test","5","32666","0.0-4.0-1.0","","","","","","","","","","null","audio/turtle.mp3","","3","","","","","","","","","","","",""
"audio-test","6","36082","0.0-4.0-2.0","","","","","","","","","","null","audio/shark.mp3","","2","","","","","","","","","","","",""
"sailing-instructions","7","164122","0.0-5.0-0.0-0.0","","","","","","","","","","","","","","null","null","null","null","null","null","","","","","",""
"sailing-trial","8","198320","0.0-5.0-0.0-1.0-0.0","","","","false","","","","","","","","","","33049.299999952316","","null","","null","null","arrowleft","0","null","null","",""
"sailing-trial","9","222206","0.0-5.0-0.0-1.0-1.0","","","","false","","","","","","","","","","22753.200000047684","","null","","null","null","arrowright","1","null","null","",""
"sailing-trial","10","240003","0.0-5.0-0.0-1.0-2.0","","","","false","","","","","","","","","","16669","","null","","null","null","arrowleft","0","null","null","",""
"sailing-instructions","11","334823","0.0-5.0-0.0-2.0","","","","","","","","","","","","","","null","null","null","null","0","null","","","","","",""
"sailing-trial","12","412891","0.0-5.0-0.0-3.0-0.0","","","","false","","","","","","","","","","null","","53885.700000047684","","2","1","null","null","arrowleft","[1,1,1,1]","",""
"sailing-trial","13","451409","0.0-5.0-0.0-3.0-1.0","","","","false","","","","","","","","","","null","","14492.900000095367","","3","1","null","null","arrowright","[1,1,1,1]","",""
"sailing-trial","14","471200","0.0-5.0-0.0-3.0-2.0","","","","false","","","","","","","","","","null","","15774","","2","0","null","null","arrowleft","[0,0,0,0]","",""
"sailing-instructions","15","493255","0.0-5.0-0.0-4.0","","","","","","","","","","","","","","null","null","null","null","null","null","","","","","",""
"sailing-comprehension","16","620779","0.0-5.0-0.0-5.0","","","","","","","","","","116935.69999992847","","","","","","","","","","","","","","[""true"",""true"",""false"",""true""]","0"
"sailing-instructions","17","763241","0.0-6.0-0.0-0.0","","","","","","","","","","","","","","null","null","null","null","null","null","","","","","",""
"sailing-comprehension","18","933815","0.0-6.0-0.0-1.0","","","","","","","","","","133516.79999995232","","","","","","","","","","","","","","[""true"",""true"",""true""]","1"
"sailing-instructions","19","1212144","0.0-6.0-0.1-0.1","","","","","","","","[{""event"":""fullscreenenter"",""trial"":3,""time"":20361},{""event"":""blur"",""trial"":20,""time"":1278917},{""event"":""focus"",""trial"":20,""time"":1282429}]","false","","","","","null","null","null","null","null","null","","","","","",""
"sailing-comprehension","20","1340328","0.0-6.0-0.1-1.1","","","","","","","","","","112559.79999995232","","","","","","","","","","","","","","[""true"",""false"",""true""]","0"
"sailing-instructions","21","1362456","0.0-7.0-0.0-0.0","","","","","","","","","","","","","","null","null","null","null","null","null","","","","","",""
"sailing-trial","22","1401323","0.0-7.0-0.0-1.0-0.0","","","","false","","","","","","","","","","null","","35795.299999952316","","0","0","null","null","arrowup","[0.2,0.8,0.2,0.8]","",""
"sailing-trial","23","1443937","0.0-7.0-0.0-1.0-1.0","","","","false","","","","","","","","","","null","","29050.5","","1","1","null","null","arrowup","[0.2,0.8,0.2,0.8]","",""
"sailing-trial","24","1524059","0.0-7.0-0.0-1.0-2.0","","","","false","","","","","","","","","","null","","76702.70000004768","","2","0","null","null","arrowup","[0.2,0.8,0.2,0.8]","",""
"sailing-trial","25","1550483","0.0-7.0-0.0-1.0-3.0","","","","false","","","","","","","","","","null","","23402.900000095367","","3","0","null","null","arrowup","[0.2,0.8,0.2,0.8]","",""
"sailing-comprehension","26","1589554","0.0-7.0-0.0-2.0","","","","","","","","","","26080.699999928474","","","","","","","","","","","","","","[""false""]","0"
"sailing-instructions","27","1670181","0.0-8.0-0.0-0.0","","","","","","","","","","","","","","null","null","null","null","null","null","","","","","",""
"sailing-comprehension","28","1686779","0.0-8.0-0.0-1.0","","","","","","","","","","10047.699999928474","","","","","","","","","","","","","","[""true""]","0"
"sailing-instructions","29","1726369","0.0-9.0-0.0-0.0","","","","","","","","","","","","","","null","null","null","null","null","null","","","","","",""
"sailing-trial","30","1747549","0.0-9.0-0.0-1.0-0.0","","","","false","","","","","","","","","","6725.799999952316","","5803.799999952316","","1","1","arrowleft","0","arrowright","[0.2,0.8,0.2,0.8]","",""
"sailing-trial","31","1762543","0.0-9.0-0.0-1.0-1.0","","","","false","","","","","","","","","","4663.100000023842","","6201.100000023842","","0","0","arrowleft","0","arrowleft","[0.2,0.8,0.2,0.8]","",""
"sailing-trial","32","1775404","0.0-9.0-0.0-1.0-2.0","","","","false","","","","","","","","","","null","","9831.799999952316","","0","0","null","null","arrowup","[0.2,0.8,0.2,0.8]","",""
"sailing-trial","33","1790420","0.0-9.0-0.0-1.0-3.0","","","","true","","","","","","","","","","null","","null","","null","null","null","null","null","[0.2,0.8,0.2,0.8]","",""
"sailing-trial","34","1797874","0.0-9.0-0.0-1.0-4.0","","","","false","","","","","","","","","","null","","3185.1999999284744","","3","1","null","null","arrowup","[0.2,0.8,0.2,0.8]","",""
"sailing-trial","35","1806122","0.0-9.0-0.0-1.0-5.0","","","","false","","","","","","","","","","1737.5","","1682","","1","1","arrowleft","0","arrowright","[0.2,0.8,0.2,0.8]","",""
"sailing-instructions","36","1849764","0.0-10.0","","","","","","","","","","","","","","null","null","null","null","null","null","","","","","",""
"sailing-trial","37","1866039","0.0-11.0-0.0","","","","false","","","","","","","","","","8019.599999904633","","3596.7999999523163","","1","0","arrowleft","0","arrowright","[0.325,0.675,0.15,0.85]","",""
"sailing-trial","38","1874246","0.0-11.0-1.0","","","","false","","","","","","","","","","null","","3452.1999999284744","","3","1","null","null","arrowup","[0.325,0.675,0.15,0.85]","",""
"sailing-trial","39","1889364","0.0-11.0-2.0","","","","false","","","","","","","","","","2390.5999999046326","","3766.7000000476837","","1","1","arrowleft","0","arrowright","[0.325,0.675,0.15,0.85]","",""
"sailing-trial","40","1895800","0.0-11.0-3.0","","","","false","","","","","","","","","","null","","2629.100000023842","","3","1","null","null","arrowup","[0.325,0.675,0.15,0.85]","",""
"sailing-trial","41","1902904","0.0-11.0-4.0","","","","false","","","","","","","","","","1229.9000000953674","","1812.3000000715256","","1","0","arrowleft","0","arrowright","[0.325,0.675,0.15,0.85]","",""
"sailing-trial","42","1907590","0.0-11.0-5.0","","","","false","","","","","","","","","","null","","1652.9000000953674","","1","0","null","null","arrowup","[0.325,0.675,0.15,0.85]","",""
"sailing-trial","43","1916070","0.0-11.0-6.0","","","","false","","","","","","","","","","2184.100000023842","","2208.100000023842","","1","0","arrowleft","0","arrowright","[0.325,0.675,0.15,0.85]","",""
"sailing-trial","44","1921504","0.0-11.0-7.0","","","","false","","","","","","","","","","null","","2137.8000000715256","","1","1","null","null","arrowup","[0.325,0.675,0.15,0.85]","",""
"sailing-trial","45","1929463","0.0-11.0-8.0","","","","false","","","","","","","","","","2002.6000000238419","","1768.6999999284744","","2","0","arrowright","1","arrowleft","[0.325,0.675,0.15,0.85]","",""
"sailing-trial","46","1934985","0.0-11.0-9.0","","","","false","","","","","","","","","","null","","2612.3000000715256","","3","1","null","null","arrowup","[0.325,0.675,0.15,0.85]","",""
"sailing-trial","47","1945795","0.0-11.0-10.0","","","","false","","","","","","","","","","2853.7000000476837","","2127.4000000953674","","1","1","arrowleft","0","arrowright","[0.325,0.675,0.15,0.85]","",""
"sailing-trial","48","1953753","0.0-11.0-11.0","","","","false","","","","","","","","","","null","","4933.200000047684","","0","0","null","null","arrowup","[0.325,0.675,0.15,0.85]","",""
"sailing-trial","49","1963626","0.0-11.0-12.0","","","","false","","","","","","","","","","4668","","1451.9000000953674","","1","1","arrowleft","0","arrowright","[0.325,0.675,0.15,0.85]","",""
"sailing-trial","50","1969485","0.0-11.0-13.0","","","","false","","","","","","","","","","null","","2828.5","","0","0","null","null","arrowup","[0.325,0.675,0.15,0.85]","",""
"sailing-trial","51","1977416","0.0-11.0-14.0","","","","false","","","","","","","","","","2851.2999999523163","","1196.2999999523163","","1","1","arrowleft","0","arrowright","[0.325,0.675,0.15,0.85]","",""
"sailing-trial","52","1982143","0.0-11.0-15.0","","","","false","","","","","","","","","","null","","1702.2999999523163","","1","1","null","null","arrowup","[0.325,0.675,0.15,0.85]","",""
"sailing-trial","53","1989087","0.0-11.0-16.0","","","","false","","","","","","","","","","1319.6000000238419","","1444.1999999284744","","2","0","arrowright","1","arrowleft","[0.15,0.85,0.325,0.675]","",""
"sailing-trial","54","1993587","0.0-11.0-17.0","","","","false","","","","","","","","","","null","","1469.3999999761581","","2","0","null","null","arrowup","[0.15,0.85,0.325,0.675]","",""
"sailing-trial","55","2001224","0.0-11.0-18.0","","","","false","","","","","","","","","","2043.2000000476837","","1617.8999999761581","","3","1","arrowright","1","arrowright","[0.15,0.85,0.325,0.675]","",""
"sailing-trial","56","2006140","0.0-11.0-19.0","","","","false","","","","","","","","","","null","","1849.3999999761581","","1","1","null","null","arrowup","[0.15,0.85,0.325,0.675]","",""
"sailing-trial","57","2012160","0.0-11.0-20.0","","","","false","","","","","","","","","","926.3999999761581","","1412.2999999523163","","2","1","arrowright","1","arrowleft","[0.15,0.85,0.325,0.675]","",""
"sailing-trial","58","2017625","0.0-11.0-21.0","","","","false","","","","","","","","","","null","","2447","","3","0","null","null","arrowup","[0.15,0.85,0.325,0.675]","",""
"sailing-trial","59","2026743","0.0-11.0-22.0","","","","false","","","","","","","","","","2255.7000000476837","","1467.6000000238419","","1","1","arrowleft","0","arrowright","[0.15,0.85,0.325,0.675]","",""
"sailing-trial","60","2032367","0.0-11.0-23.0","","","","false","","","","[{""event"":""fullscreenenter"",""trial"":3,""time"":20361},{""event"":""blur"",""trial"":20,""time"":1278917},{""event"":""focus"",""trial"":20,""time"":1282429},{""event"":""blur"",""trial"":61,""time"":2040013}]","false","","","","","null","","2588.2999999523163","","0","0","null","null","arrowup","[0.15,0.85,0.325,0.675]","",""
"sailing-trial","61","2040076","0.0-11.0-24.0","","","","false","","","","[{""event"":""fullscreenenter"",""trial"":3,""time"":20361},{""event"":""blur"",""trial"":20,""time"":1278917},{""event"":""focus"",""trial"":20,""time"":1282429},{""event"":""blur"",""trial"":61,""time"":2040013},{""event"":""focus"",""trial"":62,""time"":2040340}]","false","","","","","2520","","1139.1000000238419","","2","0","arrowright","1","arrowleft","[0.15,0.85,0.325,0.675]","",""
"sailing-trial","62","2045747","0.0-11.0-25.0","","","","false","","","","","","","","","","null","","2656.899999976158","","2","0","null","null","arrowup","[0.15,0.85,0.325,0.675]","",""
"sailing-trial","63","2052990","0.0-11.0-26.0","","","","false","","","","","","","","","","1841.6000000238419","","1544.4000000953674","","1","1","arrowleft","0","arrowright","[0.15,0.85,0.325,0.675]","",""
"sailing-trial","64","2058362","0.0-11.0-27.0","","","","false","","","","","","","","","","null","","2235.0999999046326","","2","1","null","null","arrowup","[0.15,0.85,0.325,0.675]","",""
"sailing-trial","65","2066890","0.0-11.0-28.0","","","","false","","","","","","","","","","3194.399999976158","","1463","","1","1","arrowleft","0","arrowright","[0.15,0.85,0.325,0.675]","",""
"sailing-trial","66","2072362","0.0-11.0-29.0","","","","false","","","","","","","","","","null","","1942.2000000476837","","3","1","null","null","arrowup","[0.15,0.85,0.325,0.675]","",""
"sailing-trial","67","2076660","0.0-11.0-30.0","","","","false","","","","","","","","","","1421.7000000476837","","436","","2","0","arrowright","1","arrowleft","[0.15,0.85,0.325,0.675]","",""
"sailing-trial","68","2080860","0.0-11.0-31.0","","","","false","","","","","","","","","","null","","1163.1000000238419","","2","0","null","null","arrowup","[0.15,0.85,0.325,0.675]","",""
"sailing-trial","69","2085215","0.0-11.0-32.0","","","","false","","","","","","","","","","781.3000000715256","","481","","1","1","arrowleft","0","arrowright","[0.15,0.85,0.325,0.675]","",""
"sailing-trial","70","2088459","0.0-11.0-33.0","","","","false","","","","","","","","","","null","","1250.1999999284744","","3","1","null","null","arrowup","[0.15,0.85,0.325,0.675]","",""
"sailing-trial","71","2092779","0.0-11.0-34.0","","","","false","","","","","","","","","","734.2000000476837","","573.4000000953674","","0","1","arrowleft","0","arrowleft","[0.15,0.85,0.325,0.675]","",""
"sailing-trial","72","2096151","0.0-11.0-35.0","","","","false","","","","","","","","","","null","","786.2000000476837","","0","0","null","null","arrowup","[0.15,0.85,0.325,0.675]","",""
"sailing-trial","73","2100275","0.0-11.0-36.0","","","","false","","","","","","","","","","867.2999999523163","","273.7000000476837","","3","1","arrowright","1","arrowright","[0.15,0.85,0.325,0.675]","",""
"sailing-trial","74","2105073","0.0-11.0-37.0","","","","false","","","","","","","","","","null","","2093.399999976158","","3","0","null","null","arrowup","[0.15,0.85,0.325,0.675]","",""
"sailing-trial","75","2110509","0.0-11.0-38.0","","","","false","","","","","","","","","","1044.8000000715256","","385.2999999523163","","3","0","arrowright","1","arrowright","[0.325,0.675,0.15,0.85]","",""
"sailing-trial","76","2113794","0.0-11.0-39.0","","","","false","","","","","","","","","","null","","1317.6000000238419","","1","1","null","null","arrowup","[0.325,0.675,0.15,0.85]","",""
"sailing-trial","77","2118024","0.0-11.0-40.0","","","","false","","","","","","","","","","656.7000000476837","","409.60000002384186","","1","1","arrowleft","0","arrowright","[0.325,0.675,0.15,0.85]","",""
"sailing-trial","78","2120656","0.0-11.0-41.0","","","","false","","","","","","","","","","null","","812.5","","2","0","null","null","arrowup","[0.325,0.675,0.15,0.85]","",""
"sailing-trial","79","2124856","0.0-11.0-42.0","","","","false","","","","","","","","","","775.2999999523163","","306","","3","1","arrowright","1","arrowright","[0.325,0.675,0.15,0.85]","",""
"sailing-trial","80","2128229","0.0-11.0-43.0","","","","false","","","","","","","","","","null","","1217.8000000715256","","1","1","null","null","arrowup","[0.325,0.675,0.15,0.85]","",""
"sailing-trial","81","2132981","0.0-11.0-44.0","","","","false","","","","","","","","","","1033.2000000476837","","487.60000002384186","","2","0","arrowright","1","arrowleft","[0.325,0.675,0.15,0.85]","",""
"sailing-trial","82","2135667","0.0-11.0-45.0","","","","false","","","","","","","","","","null","","1024.3999999761581","","0","0","null","null","arrowup","[0.325,0.675,0.15,0.85]","",""
"sailing-trial","83","2139175","0.0-11.0-46.0","","","","false","","","","","","","","","","525.6999999284744","","135.70000004768372","","3","0","arrowright","1","arrowright","[0.325,0.675,0.15,0.85]","",""
"sailing-trial","84","2142249","0.0-11.0-47.0","","","","false","","","","","","","","","","null","","980.2000000476837","","3","1","null","null","arrowup","[0.325,0.675,0.15,0.85]","",""
"sailing-trial","85","2146459","0.0-11.0-48.0","","","","false","","","","","","","","","","672.1000000238419","","362.60000002384186","","1","1","arrowleft","0","arrowright","[0.325,0.675,0.15,0.85]","",""
"sailing-trial","86","2150228","0.0-11.0-49.0","","","","false","","","","","","","","","","null","","954.1000000238419","","2","0","null","null","arrowup","[0.325,0.675,0.15,0.85]","",""
"sailing-trial","87","2155166","0.0-11.0-50.0","","","","false","","","","","","","","","","1055.2000000476837","","798.8000000715256","","3","1","arrowright","1","arrowright","[0.325,0.675,0.15,0.85]","",""
"sailing-trial","88","2159753","0.0-11.0-51.0","","","","false","","","","","","","","","","null","","2763.8000000715256","","2","0","null","null","arrowup","[0.325,0.675,0.15,0.85]","",""
"sailing-trial","89","2165226","0.0-11.0-52.0","","","","false","","","","","","","","","","907.7999999523163","","513.1000000238419","","2","0","arrowright","1","arrowleft","[0.325,0.675,0.15,0.85]","",""
"sailing-trial","90","2168474","0.0-11.0-53.0","","","","false","","","","","","","","","","null","","1215.5","","1","1","null","null","arrowup","[0.325,0.675,0.15,0.85]","",""
"sailing-trial","91","2172895","0.0-11.0-54.0","","","","false","","","","","","","","","","942.7000000476837","","320.39999997615814","","0","1","arrowleft","0","arrowleft","[0.325,0.675,0.15,0.85]","",""
"sailing-trial","92","2175563","0.0-11.0-55.0","","","","false","","","","","","","","","","null","","895.1000000238419","","0","0","null","null","arrowup","[0.325,0.675,0.15,0.85]","",""
"sailing-trial","93","2179162","0.0-11.0-56.0","","","","false","","","","","","","","","","754.2999999523163","","270.7999999523163","","2","0","arrowright","1","arrowleft","[0.675,0.325,0.85,0.15]","",""
"sailing-trial","94","2183459","0.0-11.0-57.0","","","","false","","","","","","","","","","null","","1260.5","","1","0","null","null","arrowup","[0.675,0.325,0.85,0.15]","",""
"sailing-trial","95","2191869","0.0-11.0-58.0","","","","false","","","","","","","","","","3717.899999976158","","806.1999999284744","","2","1","arrowright","1","arrowleft","[0.675,0.325,0.85,0.15]","",""
"sailing-trial","96","2196603","0.0-11.0-59.0","","","","false","","","","","","","","","","null","","1970.8999999761581","","0","1","null","null","arrowup","[0.675,0.325,0.85,0.15]","",""
"sailing-trial","97","2203825","0.0-11.0-60.0","","","","false","","","","","","","","","","1607.5","","1527.5999999046326","","3","0","arrowright","1","arrowright","[0.675,0.325,0.85,0.15]","",""
"sailing-trial","98","2208705","0.0-11.0-61.0","","","","false","","","","","","","","","","null","","1832.7999999523163","","3","0","null","null","arrowup","[0.675,0.325,0.85,0.15]","",""
"sailing-trial","99","2218179","0.0-11.0-62.0","","","","false","","","","","","","","","","1262.5999999046326","","2927.600000023842","","0","1","arrowleft","0","arrowleft","[0.675,0.325,0.85,0.15]","",""
"sailing-trial","100","2225135","0.0-11.0-63.0","","","","false","","","","","","","","","","null","","4089.100000023842","","0","1","null","null","arrowup","[0.675,0.325,0.85,0.15]","",""
"sailing-trial","101","2233073","0.0-11.0-64.0","","","","false","","","","","","","","","","2386.5","","1529.7000000476837","","2","1","arrowright","1","arrowleft","[0.675,0.325,0.85,0.15]","",""
"sailing-trial","102","2237717","0.0-11.0-65.0","","","","false","","","","","","","","","","null","","2100.600000023842","","0","1","null","null","arrowup","[0.675,0.325,0.85,0.15]","",""
"sailing-trial","103","2244467","0.0-11.0-66.0","","","","false","","","","","","","","","","2445.100000023842","","780","","2","1","arrowright","1","arrowleft","[0.675,0.325,0.85,0.15]","",""
"sailing-trial","104","2249466","0.0-11.0-67.0","","","","false","","","","","","","","","","null","","1738.7999999523163","","0","1","null","null","arrowup","[0.675,0.325,0.85,0.15]","",""
"sailing-trial","105","2256778","0.0-11.0-68.0","","","","false","","","","","","","","","","2217.7000000476837","","1238.2000000476837","","2","1","arrowright","1","arrowleft","[0.675,0.325,0.85,0.15]","",""
"sailing-trial","106","2261943","0.0-11.0-69.0","","","","false","","","","","","","","","","null","","2371.7999999523163","","0","1","null","null","arrowup","[0.675,0.325,0.85,0.15]","",""
"sailing-trial","107","2267693","0.0-11.0-70.0","","","","false","","","","","","","","","","1367","","842.7000000476837","","2","1","arrowright","1","arrowleft","[0.675,0.325,0.85,0.15]","",""
"sailing-trial","108","2276483","0.0-11.0-71.0","","","","false","","","","","","","","","","null","","2804","","0","1","null","null","arrowup","[0.675,0.325,0.85,0.15]","",""
"sailing-trial","109","2283718","0.0-11.0-72.0","","","","false","","","","","","","","","","1864.1000000238419","","1212.8999999761581","","1","0","arrowleft","0","arrowright","[0.85,0.15,0.675,0.325]","",""
"sailing-trial","110","2290148","0.0-11.0-73.0","","","","false","","","","","","","","","","null","","3381.8000000715256","","2","1","null","null","arrowup","[0.85,0.15,0.675,0.325]","",""
"sailing-trial","111","2296834","0.0-11.0-74.0","","","","false","","","","","","","","","","1578.8000000715256","","1599.1000000238419","","0","1","arrowleft","0","arrowleft","[0.85,0.15,0.675,0.325]","",""
"sailing-trial","112","2301903","0.0-11.0-75.0","","","","false","","","","","","","","","","null","","2027.1999999284744","","2","0","null","null","arrowup","[0.85,0.15,0.675,0.325]","",""
"sailing-trial","113","2308418","0.0-11.0-76.0","","","","false","","","","","","","","","","1808.6999999284744","","1170.2999999523163","","0","1","arrowleft","0","arrowleft","[0.85,0.15,0.675,0.325]","",""
"sailing-trial","114","2312937","0.0-11.0-77.0","","","","false","","","","","","","","","","null","","1737.6000000238419","","3","1","null","null","arrowup","[0.85,0.15,0.675,0.325]","",""
"sailing-trial","115","2318082","0.0-11.0-78.0","","","","false","","","","","","","","","","1396.7999999523163","","278","","0","1","arrowleft","0","arrowleft","[0.85,0.15,0.675,0.325]","",""
"sailing-trial","116","2321749","0.0-11.0-79.0","","","","false","","","","","","","","","","null","","1589.6000000238419","","1","0","null","null","arrowup","[0.85,0.15,0.675,0.325]","",""
"sailing-trial","117","2330603","0.0-11.0-80.0","","","","false","","","","","","","","","","3052.5","","1916.8999999761581","","0","1","arrowleft","0","arrowleft","[0.85,0.15,0.675,0.325]","",""
"sailing-trial","118","2336206","0.0-11.0-81.0","","","","false","","","","","","","","","","null","","3354.399999976158","","3","0","null","null","arrowup","[0.85,0.15,0.675,0.325]","",""
"sailing-trial","119","2344099","0.0-11.0-82.0","","","","false","","","","","","","","","","1346","","2882.899999976158","","0","1","arrowleft","0","arrowleft","[0.85,0.15,0.675,0.325]","",""
"sailing-trial","120","2348502","0.0-11.0-83.0","","","","false","","","","","","","","","","null","","1819.6000000238419","","2","1","null","null","arrowup","[0.85,0.15,0.675,0.325]","",""
"sailing-trial","121","2353766","0.0-11.0-84.0","","","","false","","","","","","","","","","1453","","207.29999995231628","","0","1","arrowleft","0","arrowleft","[0.85,0.15,0.675,0.325]","",""
"sailing-trial","122","2359744","0.0-11.0-85.0","","","","false","","","","","","","","","","null","","3351.100000023842","","2","1","null","null","arrowup","[0.85,0.15,0.675,0.325]","",""
"sailing-trial","123","2367328","0.0-11.0-86.0","","","","false","","","","","","","","","","1066.8999999761581","","2439.7000000476837","","0","0","arrowleft","0","arrowleft","[0.85,0.15,0.675,0.325]","",""
"sailing-trial","124","2379769","0.0-11.0-87.0","","","","false","","","","","","","","","","null","","9120.100000023842","","3","1","null","null","arrowup","[0.85,0.15,0.675,0.325]","",""
"sailing-trial","125","2388821","0.0-11.0-88.0","","","","false","","","","","","","","","","3312.8000000715256","","1977.3999999761581","","0","1","arrowleft","0","arrowleft","[0.85,0.15,0.675,0.325]","",""
"sailing-trial","126","2396801","0.0-11.0-89.0","","","","false","","","","","","","","","","null","","2933","","2","1","null","null","arrowup","[0.85,0.15,0.675,0.325]","",""
"sailing-trial","127","2411813","0.0-11.0-90.0","","","","true","","","","","","","","","","null","","null","","null","null","null","null","null","[0.675,0.325,0.85,0.15]","",""
"sailing-trial","128","2416464","0.0-11.0-91.0","","","","false","","","","","","","","","","null","","1983.8000000715256","","2","1","null","null","arrowup","[0.675,0.325,0.85,0.15]","",""
"sailing-trial","129","2431484","0.0-11.0-92.0","","","","true","","","","","","","","","","null","","null","","null","null","null","null","null","[0.675,0.325,0.85,0.15]","",""
"sailing-trial","130","2437026","0.0-11.0-93.0","","","","false","","","","","","","","","","null","","2503.2000000476837","","3","0","null","null","arrowup","[0.675,0.325,0.85,0.15]","",""
"sailing-trial","131","2446942","0.0-11.0-94.0","","","","false","","","","","","","","","","2942.899999976158","","2796.399999976158","","0","0","arrowleft","0","arrowleft","[0.675,0.325,0.85,0.15]","",""
"sailing-trial","132","2461959","0.0-11.0-95.0","","","","true","","","","","","","","","","null","","null","","null","null","null","null","null","[0.675,0.325,0.85,0.15]","",""
"sailing-trial","133","2469197","0.0-11.0-96.0","","","","false","","","","","","","","","","2833.2000000476837","","348.5","","0","0","arrowleft","0","arrowleft","[0.675,0.325,0.85,0.15]","",""
"sailing-trial","134","2475195","0.0-11.0-97.0","","","","false","","","","","","","","","","null","","2985.600000023842","","1","0","null","null","arrowup","[0.675,0.325,0.85,0.15]","",""
"sailing-trial","135","2482335","0.0-11.0-98.0","","","","false","","","","","","","","","","1554","","1516.2000000476837","","1","0","arrowleft","0","arrowright","[0.675,0.325,0.85,0.15]","",""
"sailing-trial","136","2502576","0.0-11.0-99.0","","","","true","","","","","","","","","","null","","5214.800000071526","","1","1","null","null","arrowup","[0.675,0.325,0.85,0.15]","",""
"sailing-trial","137","2516226","0.0-11.0-100.0","","","","false","","","","","","","","","","6877.100000023842","","2422.899999976158","","3","1","arrowright","1","arrowright","[0.675,0.325,0.85,0.15]","",""
"sailing-trial","138","2521058","0.0-11.0-101.0","","","","false","","","","","","","","","","null","","2208.899999976158","","0","1","null","null","arrowup","[0.675,0.325,0.85,0.15]","",""
"sailing-trial","139","2527105","0.0-11.0-102.0","","","","false","","","","","","","","","","1218.5","","754.9000000953674","","3","0","arrowright","1","arrowright","[0.675,0.325,0.85,0.15]","",""
"sailing-trial","140","2533893","0.0-11.0-103.0","","","","false","","","","","","","","","","null","","1888.6000000238419","","2","1","null","null","arrowup","[0.675,0.325,0.85,0.15]","",""
"sailing-trial","141","2539625","0.0-11.0-104.0","","","","false","","","","","","","","","","1399.6999999284744","","251.69999992847443","","3","0","arrowright","1","arrowright","[0.675,0.325,0.85,0.15]","",""
"sailing-trial","142","2543580","0.0-11.0-105.0","","","","false","","","","","","","","","","null","","1372.4000000953674","","1","1","null","null","arrowup","[0.675,0.325,0.85,0.15]","",""
"sailing-trial","143","2551874","0.0-11.0-106.0","","","","false","","","","","","","","","","1828.7000000476837","","2278.600000023842","","0","0","arrowleft","0","arrowleft","[0.675,0.325,0.85,0.15]","",""
"sailing-trial","144","2558685","0.0-11.0-107.0","","","","false","","","","","","","","","","null","","3765.600000023842","","1","0","null","null","arrowup","[0.675,0.325,0.85,0.15]","",""
"sailing-trial","145","2565456","0.0-11.0-108.0","","","","false","","","","","","","","","","1211.6000000238419","","1486.7000000476837","","0","0","arrowleft","0","arrowleft","[0.15,0.85,0.325,0.675]","",""
"sailing-trial","146","2570761","0.0-11.0-109.0","","","","false","","","","","","","","","","null","","2118.100000023842","","2","1","null","null","arrowup","[0.15,0.85,0.325,0.675]","",""
"sailing-trial","147","2580948","0.0-11.0-110.0","","","","false","","","","","","","","","","3837.100000023842","","2195.2999999523163","","2","0","arrowright","1","arrowleft","[0.15,0.85,0.325,0.675]","",""
"sailing-trial","148","2593258","0.0-11.0-111.0","","","","false","","","","","","","","","","null","","9835","","1","1","null","null","arrowup","[0.15,0.85,0.325,0.675]","",""
"sailing-trial","149","2600467","0.0-11.0-112.0","","","","false","","","","","","","","","","2167.5","","965.8999999761581","","0","0","arrowleft","0","arrowleft","[0.15,0.85,0.325,0.675]","",""
"sailing-trial","150","2608513","0.0-11.0-113.0","","","","false","","","","","","","","","","null","","5335.200000047684","","1","1","null","null","arrowup","[0.15,0.85,0.325,0.675]","",""
"sailing-trial","151","2614903","0.0-11.0-114.0","","","","false","","","","","","","","","","1726.5","","597.6000000238419","","0","0","arrowleft","0","arrowleft","[0.15,0.85,0.325,0.675]","",""
"sailing-trial","152","2622922","0.0-11.0-115.0","","","","false","","","","","","","","","","null","","6027.799999952316","","3","1","null","null","arrowup","[0.15,0.85,0.325,0.675]","",""
"sailing-trial","153","2635942","0.0-11.0-116.0","","","","false","","","","","","","","","","6599.299999952316","","2381.100000023842","","0","0","arrowleft","0","arrowleft","[0.15,0.85,0.325,0.675]","",""
"sailing-trial","154","2642273","0.0-11.0-117.0","","","","false","","","","","","","","","","null","","3858.899999976158","","1","1","null","null","arrowup","[0.15,0.85,0.325,0.675]","",""
"sailing-trial","155","2650503","0.0-11.0-118.0","","","","false","","","","","","","","","","3222.8000000715256","","936.3000000715256","","0","0","arrowleft","0","arrowleft","[0.15,0.85,0.325,0.675]","",""
"sailing-trial","156","2655437","0.0-11.0-119.0","","","","false","","","","","","","","","","null","","2424.6999999284744","","1","1","null","null","arrowup","[0.15,0.85,0.325,0.675]","",""
"sailing-trial","157","2662569","0.0-11.0-120.0","","","","false","","","","","","","","","","2226.7000000476837","","771.8999999761581","","2","0","arrowright","1","arrowleft","[0.15,0.85,0.325,0.675]","",""
"sailing-trial","158","2667794","0.0-11.0-121.0","","","","false","","","","","","","","","","null","","4082.1999999284744","","2","0","null","null","arrowup","[0.15,0.85,0.325,0.675]","",""
"sailing-trial","159","2675437","0.0-11.0-122.0","","","","false","","","","","","","","","","1457.0999999046326","","2166.899999976158","","2","1","arrowright","1","arrowleft","[0.15,0.85,0.325,0.675]","",""
"sailing-trial","160","2681067","0.0-11.0-123.0","","","","false","","","","","","","","","","null","","2585.1999999284744","","3","0","null","null","arrowup","[0.15,0.85,0.325,0.675]","",""
"sailing-trial","161","2688498","0.0-11.0-124.0","","","","false","","","","","","","","","","2345.7999999523163","","1053.5","","2","0","arrowright","1","arrowleft","[0.15,0.85,0.325,0.675]","",""
"sailing-trial","162","2696349","0.0-11.0-125.0","","","","false","","","","","","","","","","null","","5460.799999952316","","3","1","null","null","arrowup","[0.15,0.85,0.325,0.675]","",""
"sailing-trial","163","2702682","0.0-11.0-126.0","","","","false","","","","","","","","","","1890.5","","804.3000000715256","","2","1","arrowright","1","arrowleft","[0.15,0.85,0.325,0.675]","",""
"sailing-trial","164","2707479","0.0-11.0-127.0","","","","false","","","","","","","","","","null","","1934.5","","0","0","null","null","arrowup","[0.15,0.85,0.325,0.675]","",""
"sailing-trial","165","2714854","0.0-11.0-128.0","","","","false","","","","","","","","","","1856.2000000476837","","1481.5","","2","0","arrowright","1","arrowleft","[0.15,0.85,0.325,0.675]","",""
"sailing-trial","166","2724721","0.0-11.0-129.0","","","","false","","","","","","","","","","null","","8626.100000023842","","2","0","null","null","arrowup","[0.15,0.85,0.325,0.675]","",""
"sailing-trial","167","2731855","0.0-11.0-130.0","","","","false","","","","","","","","","","2057.4000000953674","","982.6000000238419","","2","0","arrowright","1","arrowleft","[0.15,0.85,0.325,0.675]","",""
"sailing-trial","168","2736442","0.0-11.0-131.0","","","","false","","","","","","","","","","null","","3339.0999999046326","","2","0","null","null","arrowup","[0.15,0.85,0.325,0.675]","",""
"sailing-trial","169","2743242","0.0-11.0-132.0","","","","false","","","","","","","","","","2028.3999999761581","","641","","0","0","arrowleft","0","arrowleft","[0.325,0.675,0.15,0.85]","",""
"sailing-trial","170","2748413","0.0-11.0-133.0","","","","false","","","","","","","","","","null","","2800.2999999523163","","2","0","null","null","arrowup","[0.325,0.675,0.15,0.85]","",""
"sailing-trial","171","2762220","0.0-11.0-134.0","","","","false","","","","","","","","","","6982.600000023842","","2745.0999999046326","","0","0","arrowleft","0","arrowleft","[0.325,0.675,0.15,0.85]","",""
"sailing-trial","172","2771973","0.0-11.0-135.0","","","","false","","","","","","","","","","null","","6723.899999976158","","0","0","null","null","arrowup","[0.325,0.675,0.15,0.85]","",""
"sailing-trial","173","2790986","0.0-11.0-136.0","","","","false","","","","","","","","","","8619.899999976158","","6337.399999976158","","0","0","arrowleft","0","arrowleft","[0.325,0.675,0.15,0.85]","",""
"sailing-trial","174","2796114","0.0-11.0-137.0","","","","false","","","","","","","","","","null","","3117.2999999523163","","2","1","null","null","arrowup","[0.325,0.675,0.15,0.85]","",""
"sailing-trial","175","2800921","0.0-11.0-138.0","","","","false","","","","","","","","","","1001.6000000238419","","39.5","","0","1","arrowleft","0","arrowleft","[0.325,0.675,0.15,0.85]","",""
"sailing-trial","176","2805567","0.0-11.0-139.0","","","","false","","","","","","","","","","null","","1606","","2","1","null","null","arrowup","[0.325,0.675,0.15,0.85]","",""
"sailing-trial","177","2814047","0.0-11.0-140.0","","","","false","","","","","","","","","","2287","","2731","","1","1","arrowleft","0","arrowright","[0.325,0.675,0.15,0.85]","",""
"sailing-trial","178","2820278","0.0-11.0-141.0","","","","false","","","","","","","","","","null","","3742","","3","1","null","null","arrowup","[0.325,0.675,0.15,0.85]","",""
"sailing-trial","179","2826862","0.0-11.0-142.0","","","","false","","","","","","","","","","1537","","953.5","","0","0","arrowleft","0","arrowleft","[0.325,0.675,0.15,0.85]","",""
"sailing-trial","180","2832549","0.0-11.0-143.0","","","","false","","","","","","","","","","null","","2656.100000023842","","2","0","null","null","arrowup","[0.325,0.675,0.15,0.85]","",""
"sailing-trial","181","2844209","0.0-11.0-144.0","","","","false","","","","","","","","","","5639.900000095367","","2148.7000000476837","","3","1","arrowright","1","arrowright","[0.325,0.675,0.15,0.85]","",""
"sailing-trial","182","2848612","0.0-11.0-145.0","","","","false","","","","","","","","","","null","","2395.8000000715256","","2","0","null","null","arrowup","[0.325,0.675,0.15,0.85]","",""
"sailing-trial","183","2857145","0.0-11.0-146.0","","","","false","","","","","","","","","","2912.399999976158","","1567.4000000953674","","1","0","arrowleft","0","arrowright","[0.325,0.675,0.15,0.85]","",""
"sailing-trial","184","2872169","0.0-11.0-147.0","","","","true","","","","","","","","","","null","","null","","null","null","null","null","null","[0.325,0.675,0.15,0.85]","",""
"sailing-trial","185","2884397","0.0-11.0-148.0","","","","false","","","","[{""event"":""fullscreenenter"",""trial"":3,""time"":20361},{""event"":""blur"",""trial"":20,""time"":1278917},{""event"":""focus"",""trial"":20,""time"":1282429},{""event"":""blur"",""trial"":61,""time"":2040013},{""event"":""focus"",""trial"":62,""time"":2040340},{""event"":""blur"",""trial"":186,""time"":2895779},{""event"":""focus"",""trial"":186,""time"":2896033}]","false","","","","","7844.299999952316","","317.10000002384186","","0","0","arrowleft","0","arrowleft","[0.15,0.85,0.325,0.675]","",""
"sailing-trial","186","2899410","0.0-11.0-149.0","","","","true","","","","","","","","","","null","","null","","null","null","null","null","null","[0.15,0.85,0.325,0.675]","",""
"sailing-trial","187","2914435","0.0-11.0-150.0","","","","true","","","","","","","","","","null","","null","","null","null","null","null","null","[0.15,0.85,0.325,0.675]","",""
"sailing-trial","188","2918620","0.0-11.0-151.0","","","","false","","","","","","","","","","null","","2370.899999976158","","1","1","null","null","arrowup","[0.15,0.85,0.325,0.675]","",""
"sailing-trial","189","2929098","0.0-11.0-152.0","","","","false","","","","","","","","","","5082.300000071526","","1485.2999999523163","","1","1","arrowleft","0","arrowright","[0.15,0.85,0.325,0.675]","",""
"sailing-trial","190","2937884","0.0-11.0-153.0","","","","false","","","","","","","","","","null","","5740.199999928474","","3","0","null","null","arrowup","[0.15,0.85,0.325,0.675]","",""
"sailing-trial","191","2948118","0.0-11.0-154.0","","","","false","","","","","","","","","","4357.5","","1795.7000000476837","","0","0","arrowleft","0","arrowleft","[0.15,0.85,0.325,0.675]","",""
"sailing-trial","192","2953969","0.0-11.0-155.0","","","","false","","","","","","","","","","null","","2812","","0","0","null","null","arrowup","[0.15,0.85,0.325,0.675]","",""
"sailing-trial","193","2965569","0.0-11.0-156.0","","","","false","","","","","","","","","","5603.5","","1949","","1","0","arrowleft","0","arrowright","[0.15,0.85,0.325,0.675]","",""
"sailing-trial","194","2973112","0.0-11.0-157.0","","","","false","","","","","","","","","","null","","4292.799999952316","","3","1","null","null","arrowup","[0.15,0.85,0.325,0.675]","",""
"sailing-trial","195","2981170","0.0-11.0-158.0","","","","false","","","","","","","","","","3579.1999999284744","","940","","2","1","arrowright","1","arrowleft","[0.15,0.85,0.325,0.675]","",""
"sailing-trial","196","2986044","0.0-11.0-159.0","","","","false","","","","","","","","","","null","","2739.5","","3","1","null","null","arrowup","[0.15,0.85,0.325,0.675]","",""
"sailing-trial","197","2996879","0.0-11.0-160.0","","","","false","","","","","","","","","","4569.200000047684","","2212.6999999284744","","0","0","arrowleft","0","arrowleft","[0.15,0.85,0.325,0.675]","",""
"sailing-trial","198","3000210","0.0-11.0-161.0","","","","false","","","","","","","","","","null","","1398.5","","3","1","null","null","arrowup","[0.15,0.85,0.325,0.675]","",""
"sailing-trial","199","3013216","0.0-11.0-162.0","","","","false","","","","[{""event"":""fullscreenenter"",""trial"":3,""time"":20361},{""event"":""blur"",""trial"":20,""time"":1278917},{""event"":""focus"",""trial"":20,""time"":1282429},{""event"":""blur"",""trial"":61,""time"":2040013},{""event"":""focus"",""trial"":62,""time"":2040340},{""event"":""blur"",""trial"":186,""time"":2895779},{""event"":""focus"",""trial"":186,""time"":2896033},{""event"":""blur"",""trial"":200,""time"":3019312},{""event"":""focus"",""trial"":200,""time"":3019887}]","false","","","","","3893.5","","811.3000000715256","","1","1","arrowleft","0","arrowright","[0.15,0.85,0.325,0.675]","",""
"sailing-trial","200","3021731","0.0-11.0-163.0","","","","false","","","","","","","","","","null","","5026.599999904633","","3","1","null","null","arrowup","[0.15,0.85,0.325,0.675]","",""
"sailing-trial","201","3031666","0.0-11.0-164.0","","","","false","","","","","","","","","","4300.799999952316","","1596.7000000476837","","0","0","arrowleft","0","arrowleft","[0.675,0.325,0.85,0.15]","",""
"sailing-trial","202","3036132","0.0-11.0-165.0","","","","false","","","","","","","","","","null","","1434.6999999284744","","1","0","null","null","arrowup","[0.675,0.325,0.85,0.15]","",""
"sailing-trial","203","3041337","0.0-11.0-166.0","","","","false","","","","","","","","","","985.6000000238419","","413.6999999284744","","0","1","arrowleft","0","arrowleft","[0.675,0.325,0.85,0.15]","",""
"sailing-trial","204","3048523","0.0-11.0-167.0","","","","false","","","","","","","","","","null","","4142.100000023842","","3","0","null","null","arrowup","[0.675,0.325,0.85,0.15]","",""
"sailing-trial","205","3055336","0.0-11.0-168.0","","","","false","","","","","","","","","","1524.0999999046326","","1138.1999999284744","","0","1","arrowleft","0","arrowleft","[0.675,0.325,0.85,0.15]","",""
"sailing-trial","206","3061329","0.0-11.0-169.0","","","","false","","","","","","","","","","null","","2956.5","","3","0","null","null","arrowup","[0.675,0.325,0.85,0.15]","",""
"sailing-trial","207","3068974","0.0-11.0-170.0","","","","false","","","","","","","","","","3205.600000023842","","828.2000000476837","","2","1","arrowright","1","arrowleft","[0.675,0.325,0.85,0.15]","",""
"sailing-trial","208","3073597","0.0-11.0-171.0","","","","false","","","","","","","","","","null","","2596.100000023842","","1","1","null","null","arrowup","[0.675,0.325,0.85,0.15]","",""
"sailing-trial","209","3081889","0.0-11.0-172.0","","","","false","","","","","","","","","","2286.399999976158","","1969.5999999046326","","2","0","arrowright","1","arrowleft","[0.675,0.325,0.85,0.15]","",""
"sailing-trial","210","3090976","0.0-11.0-173.0","","","","false","","","","","","","","","","null","","5773.700000047684","","1","1","null","null","arrowup","[0.675,0.325,0.85,0.15]","",""
"sailing-trial","211","3099851","0.0-11.0-174.0","","","","false","","","","","","","","","","3652.9000000953674","","1100.2999999523163","","0","0","arrowleft","0","arrowleft","[0.675,0.325,0.85,0.15]","",""
"sailing-trial","212","3114870","0.0-11.0-175.0","","","","true","","","","","","","","","","null","","null","","null","null","null","null","null","[0.675,0.325,0.85,0.15]","",""
"sailing-trial","213","3123973","0.0-11.0-176.0","","","","false","","","","","","","","","","2934.600000023842","","2118.6999999284744","","1","0","arrowleft","0","arrowright","[0.675,0.325,0.85,0.15]","",""
"sailing-trial","214","3131589","0.0-11.0-177.0","","","","false","","","","","","","","","","null","","4578.100000023842","","1","0","null","null","arrowup","[0.675,0.325,0.85,0.15]","",""
"sailing-trial","215","3139074","0.0-11.0-178.0","","","","false","","","","","","","","","","2237.2999999523163","","1762.6000000238419","","0","1","arrowleft","0","arrowleft","[0.675,0.325,0.85,0.15]","",""
"sailing-trial","216","3143928","0.0-11.0-179.0","","","","false","","","","","","","","","","null","","1811.5","","1","0","null","null","arrowup","[0.675,0.325,0.85,0.15]","",""
"sailing-trial","217","3153250","0.0-11.0-180.0","","","","false","","","","","","","","","","3557.2999999523163","","1665.3000000715256","","0","0","arrowleft","0","arrowleft","[0.675,0.325,0.85,0.15]","",""
"sailing-trial","218","3165905","0.0-11.0-181.0","","","","false","","","","","","","","","","null","","9605.200000047684","","1","0","null","null","arrowup","[0.675,0.325,0.85,0.15]","",""
"sailing-trial","219","3176965","0.0-11.0-182.0","","","","false","","","","","","","","","","4334.799999952316","","2371.6999999284744","","1","1","arrowleft","0","arrowright","[0.675,0.325,0.85,0.15]","",""
"sailing-trial","220","3182437","0.0-11.0-183.0","","","","false","","","","","","","","","","null","","2416.4000000953674","","0","0","null","null","arrowup","[0.675,0.325,0.85,0.15]","",""
"sailing-trial","221","3190582","0.0-11.0-184.0","","","","false","","","","","","","","","","2393.3000000715256","","1006.2000000476837","","0","1","arrowleft","0","arrowleft","[0.85,0.15,0.675,0.325]","",""
"sailing-trial","222","3199306","0.0-11.0-185.0","","","","false","","","","","","","","","","null","","5666.5","","1","0","null","null","arrowup","[0.85,0.15,0.675,0.325]","",""
"sailing-trial","223","3210020","0.0-11.0-186.0","","","","false","","","","","","","","","","5786.800000071526","","855.7999999523163","","1","0","arrowleft","0","arrowright","[0.85,0.15,0.675,0.325]","",""
"sailing-trial","224","3214494","0.0-11.0-187.0","","","","false","","","","","","","","","","null","","2664.7999999523163","","3","0","null","null","arrowup","[0.85,0.15,0.675,0.325]","",""
"sailing-trial","225","3222498","0.0-11.0-188.0","","","","false","","","","","","","","","","2526.399999976158","","1429.6000000238419","","1","0","arrowleft","0","arrowright","[0.85,0.15,0.675,0.325]","",""
"sailing-trial","226","3237521","0.0-11.0-189.0","","","","true","","","","","","","","","","null","","null","","null","null","null","null","null","[0.85,0.15,0.675,0.325]","",""
"sailing-trial","227","3246887","0.0-11.0-190.0","","","","false","","","","","","","","","","2926.899999976158","","1437.2000000476837","","0","1","arrowleft","0","arrowleft","[0.85,0.15,0.675,0.325]","",""
"sailing-trial","228","3252916","0.0-11.0-191.0","","","","false","","","","","","","","","","null","","2988","","0","0","null","null","arrowup","[0.85,0.15,0.675,0.325]","",""
"sailing-trial","229","3266657","0.0-11.0-192.0","","","","false","","","","","","","","","","1654.8999999761581","","2833.600000023842","","0","1","arrowleft","0","arrowleft","[0.85,0.15,0.675,0.325]","",""
"sailing-trial","230","3272136","0.0-11.0-193.0","","","","false","","","","","","","","","","null","","3847.600000023842","","2","1","null","null","arrowup","[0.85,0.15,0.675,0.325]","",""
"sailing-trial","231","3281142","0.0-11.0-194.0","","","","false","","","","","","","","","","1921","","2122.5","","0","1","arrowleft","0","arrowleft","[0.85,0.15,0.675,0.325]","",""
"sailing-trial","232","3286284","0.0-11.0-195.0","","","","false","","","","","","","","","","null","","2117.399999976158","","0","1","null","null","arrowup","[0.85,0.15,0.675,0.325]","",""
"sailing-trial","233","3292616","0.0-11.0-196.0","","","","false","","","","","","","","","","1707.8000000715256","","478.39999997615814","","2","0","arrowright","1","arrowleft","[0.85,0.15,0.675,0.325]","",""
"sailing-trial","234","3297196","0.0-11.0-197.0","","","","false","","","","","","","","","","null","","1992.7000000476837","","2","1","null","null","arrowup","[0.85,0.15,0.675,0.325]","",""
"sailing-trial","235","3302657","0.0-11.0-198.0","","","","false","","","","","","","","","","1648.5999999046326","","477.2999999523163","","2","1","arrowright","1","arrowleft","[0.85,0.15,0.675,0.325]","",""
"sailing-trial","236","3307032","0.0-11.0-199.0","","","","false","","","","","","","","","","null","","1877.0999999046326","","2","1","null","null","arrowup","[0.85,0.15,0.675,0.325]","",""
"sailing-trial","237","3311430","0.0-11.0-200.0","","","","false","","","","","","","","","","844","","433.7999999523163","","2","1","arrowright","1","arrowleft","[0.85,0.15,0.675,0.325]","",""
"sailing-trial","238","3316116","0.0-11.0-201.0","","","","false","","","","","","","","","","null","","1655.7999999523163","","1","0","null","null","arrowup","[0.85,0.15,0.675,0.325]","",""
"sailing-trial","239","3320838","0.0-11.0-202.0","","","","false","","","","","","","","","","895.5","","715.8999999761581","","0","1","arrowleft","0","arrowleft","[0.15,0.85,0.325,0.675]","",""
"sailing-trial","240","3325214","0.0-11.0-203.0","","","","false","","","","","","","","","","null","","1339.6000000238419","","3","0","null","null","arrowup","[0.15,0.85,0.325,0.675]","",""
"sailing-trial","241","3330652","0.0-11.0-204.0","","","","false","","","","","","","","","","705.1000000238419","","671.3000000715256","","2","0","arrowright","1","arrowleft","[0.15,0.85,0.325,0.675]","",""
"sailing-trial","242","3335047","0.0-11.0-205.0","","","","false","","","","","","","","","","null","","1354.9000000953674","","2","0","null","null","arrowup","[0.15,0.85,0.325,0.675]","",""
"sailing-trial","243","3340510","0.0-11.0-206.0","","","","false","","","","","","","","","","688.6999999284744","","685.9000000953674","","0","0","arrowleft","0","arrowleft","[0.15,0.85,0.325,0.675]","",""
"sailing-trial","244","3349023","0.0-11.0-207.0","","","","false","","","","","","","","","","null","","4765.600000023842","","2","1","null","null","arrowup","[0.15,0.85,0.325,0.675]","",""
"sailing-trial","245","3358358","0.0-11.0-208.0","","","","false","","","","","","","","","","2155.5","","3580.5","","0","0","arrowleft","0","arrowleft","[0.15,0.85,0.325,0.675]","",""
"sailing-trial","246","3369214","0.0-11.0-209.0","","","","false","","","","","","","","","","null","","6628.600000023842","","2","1","null","null","arrowup","[0.15,0.85,0.325,0.675]","",""
"sailing-trial","247","3378068","0.0-11.0-210.0","","","","false","","","","","","","","","","3304.0999999046326","","1476.6000000238419","","2","0","arrowright","1","arrowleft","[0.15,0.85,0.325,0.675]","",""
"sailing-trial","248","3385194","0.0-11.0-211.0","","","","false","","","","","","","","","","null","","4088.0999999046326","","0","0","null","null","arrowup","[0.15,0.85,0.325,0.675]","",""
"sailing-trial","249","3399851","0.0-11.0-212.0","","","","false","","","","","","","","","","9959","","666.6999999284744","","2","0","arrowright","1","arrowleft","[0.15,0.85,0.325,0.675]","",""
"sailing-trial","250","3410203","0.0-11.0-213.0","","","","false","","","","","","","","","","null","","7732.899999976158","","3","1","null","null","arrowup","[0.15,0.85,0.325,0.675]","",""
"sailing-trial","251","3416232","0.0-11.0-214.0","","","","false","","","","","","","","","","1385.7000000476837","","577.2000000476837","","2","0","arrowright","1","arrowleft","[0.15,0.85,0.325,0.675]","",""
"sailing-trial","252","3422979","0.0-11.0-215.0","","","","false","","","","","","","","","","null","","3727.7999999523163","","3","0","null","null","arrowup","[0.15,0.85,0.325,0.675]","",""
"sailing-trial","253","3429474","0.0-11.0-216.0","","","","false","","","","","","","","","","1506","","829.1999999284744","","1","0","arrowleft","0","arrowright","[0.15,0.85,0.325,0.675]","",""
"sailing-trial","254","3438392","0.0-11.0-217.0","","","","false","","","","","","","","","","null","","5890.100000023842","","0","0","null","null","arrowup","[0.15,0.85,0.325,0.675]","",""
"sailing-trial","255","3444679","0.0-11.0-218.0","","","","false","","","","","","","","","","1943.5","","606.3999999761581","","2","1","arrowright","1","arrowleft","[0.325,0.675,0.15,0.85]","",""
"sailing-trial","256","3449329","0.0-11.0-219.0","","","","false","","","","","","","","","","null","","1616.5","","2","0","null","null","arrowup","[0.325,0.675,0.15,0.85]","",""
"sailing-trial","257","3457183","0.0-11.0-220.0","","","","false","","","","","","","","","","3298.100000023842","","505.40000009536743","","2","0","arrowright","1","arrowleft","[0.325,0.675,0.15,0.85]","",""
"sailing-trial","258","3462053","0.0-11.0-221.0","","","","false","","","","","","","","","","null","","1839.2000000476837","","0","0","null","null","arrowup","[0.325,0.675,0.15,0.85]","",""
"sailing-trial","259","3467828","0.0-11.0-222.0","","","","false","","","","","","","","","","1213.2999999523163","","498.2000000476837","","0","0","arrowleft","0","arrowleft","[0.325,0.675,0.15,0.85]","",""
"sailing-trial","260","3475700","0.0-11.0-223.0","","","","false","","","","","","","","","","null","","3711.2000000476837","","0","1","null","null","arrowup","[0.325,0.675,0.15,0.85]","",""
"sailing-trial","261","3482882","0.0-11.0-224.0","","","","false","","","","","","","","","","3122.0999999046326","","742.5","","0","1","arrowleft","0","arrowleft","[0.325,0.675,0.15,0.85]","",""
"sailing-trial","262","3490763","0.0-11.0-225.0","","","","false","","","","","","","","","","null","","4843.399999976158","","0","0","null","null","arrowup","[0.325,0.675,0.15,0.85]","",""
"sailing-trial","263","3500506","0.0-11.0-226.0","","","","false","","","","","","","","","","3762.7000000476837","","1574.2000000476837","","0","1","arrowleft","0","arrowleft","[0.325,0.675,0.15,0.85]","",""
"sailing-trial","264","3514051","0.0-11.0-227.0","","","","false","","","","","","","","","","null","","8794.400000095367","","3","1","null","null","arrowup","[0.325,0.675,0.15,0.85]","",""
"sailing-trial","265","3520821","0.0-11.0-228.0","","","","false","","","","","","","","","","1606.2000000476837","","947","","1","1","arrowleft","0","arrowright","[0.325,0.675,0.15,0.85]","",""
"sailing-trial","266","3528298","0.0-11.0-229.0","","","","false","","","","","","","","","","null","","4541.200000047684","","0","0","null","null","arrowup","[0.325,0.675,0.15,0.85]","",""
"sailing-trial","267","3540019","0.0-11.0-230.0","","","","false","","","","","","","","","","5516.100000023842","","2179.6999999284744","","3","1","arrowright","1","arrowright","[0.325,0.675,0.15,0.85]","",""
"sailing-trial","268","3551895","0.0-11.0-231.0","","","","false","","","","","","","","","","null","","8822.5","","1","0","null","null","arrowup","[0.325,0.675,0.15,0.85]","",""
"sailing-trial","269","3561102","0.0-11.0-232.0","","","","false","","","","","","","","","","2133.2999999523163","","3001.5","","0","0","arrowleft","0","arrowleft","[0.325,0.675,0.15,0.85]","",""
"sailing-trial","270","3576126","0.0-11.0-233.0","","","","true","","","","","","","","","","null","","null","","null","null","null","null","null","[0.325,0.675,0.15,0.85]","",""
"sailing-trial","271","3590688","0.0-11.0-234.0","","","","false","","","","","","","","","","9468.699999928474","","1018.3999999761581","","0","0","arrowleft","0","arrowleft","[0.325,0.675,0.15,0.85]","",""
"sailing-trial","272","3605709","0.0-11.0-235.0","","","","true","","","","[{""event"":""fullscreenenter"",""trial"":3,""time"":20361},{""event"":""blur"",""trial"":20,""time"":1278917},{""event"":""focus"",""trial"":20,""time"":1282429},{""event"":""blur"",""trial"":61,""time"":2040013},{""event"":""focus"",""trial"":62,""time"":2040340},{""event"":""blur"",""trial"":186,""time"":2895779},{""event"":""focus"",""trial"":186,""time"":2896033},{""event"":""blur"",""trial"":200,""time"":3019312},{""event"":""focus"",""trial"":200,""time"":3019887},{""event"":""blur"",""trial"":273,""time"":3608172},{""event"":""focus"",""trial"":273,""time"":3609284},{""event"":""blur"",""trial"":273,""time"":3636939},{""event"":""focus"",""trial"":273,""time"":3636948},{""event"":""fullscreenexit"",""trial"":273,""time"":3636964},{""event"":""blur"",""trial"":273,""time"":3650936},{""event"":""focus"",""trial"":273,""time"":3650978}]","false","","","","","null","","null","","null","null","null","null","null","[0.325,0.675,0.15,0.85]","",""
