"trial_type","trial_index","time_elapsed","internal_node_id","value","metadata","browser_interaction","low_quality","success","timeout","failed_images","failed_audio","failed_video","rt","stimulus","response","button_pressed","island_rt","island_response","boat_rt","boat_response","boat","reward","island_key","island","boat_key","reward_probabilities","responses","num_errors","view_history"
"pavlovia","0","4","0.0-0.0","","","","","","","","","","","","","","","","","","","","","","","","","",""
"call-function","1","5","0.0-1.0","","{""task_version"":""sailing_part1_v1"",""task_condition"":""good"",""boats"":[""D"",""B"",""A"",""C""],""boats_demo"":[""G"",""F"",""H"",""E""],""islands"":[""B"",""A""],""subject_id"":""14962"",""age"":""11"",""gender"":""Male""}","[{""event"":""blur"",""trial"":2,""time"":2255},{""event"":""focus"",""trial"":2,""time"":3298}]","false","","","","","","","","","","","","","","","","","","","","","",""
"preload","2","5430","0.0-2.0","","","[{""event"":""blur"",""trial"":2,""time"":2255},{""event"":""focus"",""trial"":2,""time"":3298},{""event"":""fullscreenenter"",""trial"":3,""time"":8524}]","false","true","false","[]","[]","[]","","","","","","","","","","","","","","","","",""
"fullscreen","3","9525","0.0-3.0","","","","","true","","","","","","","","","","","","","","","","","","","","",""
"audio-keyboard-response","4","18454","0.0-4.0-0.0","","","","","","","","","","8429.333333333334","audio/beep_loop.wav"," ","","","","","","","","","","","","","",""
"audio-test","5","22086","0.0-4.0-1.0","","","","","","","","","","null","audio/turtle.mp3","","3","","","","","","","","","","","","",""
"audio-test","6","25366","0.0-4.0-2.0","","","","","","","","","","null","audio/shark.mp3","","2","","","","","","","","","","","","",""
"sailing-instructions","7","60424","0.0-5.0-0.0-0.0","","","","","","","","","","","","","","null","null","null","null","null","null","","","","","","",""
"sailing-trial","8","65165","0.0-5.0-0.0-1.0-0.0","","","","","","false","","","","","","","","3613.7999999523163","","null","","null","null","arrowleft","0","null","null","","",""
"sailing-trial","9","67888","0.0-5.0-0.0-1.0-1.0","","","","","","false","","","","","","","","1588.699999988079","","null","","null","null","arrowright","1","null","null","","",""
"sailing-trial","10","70455","0.0-5.0-0.0-1.0-2.0","","","","","","false","","","","","","","","1409.5","","null","","null","null","arrowleft","0","null","null","","",""
"sailing-instructions","11","110439","0.0-5.0-0.0-2.0","","","","","","","","","","","","","","null","null","null","null","0","null","","","","","","",""
"sailing-trial","12","115881","0.0-5.0-0.0-3.0-0.0","","","","","","false","","","","","","","","null","","2102.100000023842","","2","1","null","null","arrowleft","[1,1,1,1]","","",""
"sailing-trial","13","119354","0.0-5.0-0.0-3.0-1.0","","","","","","false","","","","","","","","null","","675.2000000476837","","3","1","null","null","arrowright","[1,1,1,1]","","",""
"sailing-trial","14","124602","0.0-5.0-0.0-3.0-2.0","","","","","","false","","","","","","","","null","","1673.800000011921","","3","0","null","null","arrowright","[0,0,0,0]","","",""
"sailing-instructions","15","132272","0.0-5.0-0.0-4.0","","","","","","","","","","","","","","null","null","null","null","null","null","","","","","","",""
"sailing-comprehension","16","152426","0.0-5.0-0.0-5.0","","","","","","","","","","18186.69999998808","","","","","","","","","","","","","","[""true"",""true"",""false"",""true""]","0",""
"sailing-instructions","17","214518","0.0-6.0-0.0-0.0","","","","","","","","","","","","","","null","null","null","null","null","null","","","","","","",""
"sailing-comprehension","18","226638","0.0-6.0-0.0-1.0","","","","","","","","","","10500.199999988079","","","","","","","","","","","","","","[""true"",""false"",""true""]","0",""
"sailing-instructions","19","240590","0.0-7.0-0.0-0.0","","","","","","","","","","","","","","null","null","null","null","null","null","","","","","","",""
"sailing-trial","20","246960","0.0-7.0-0.0-1.0-0.0","","","","","","false","","","","","","","","null","","3345","","0","0","null","null","arrowup","[0.2,0.8,0.2,0.8]","","",""
"sailing-trial","21","252109","0.0-7.0-0.0-1.0-1.0","","","","","","false","","","","","","","","null","","2720.800000011921","","1","1","null","null","arrowup","[0.2,0.8,0.2,0.8]","","",""
"sailing-trial","22","255242","0.0-7.0-0.0-1.0-2.0","","","","","","false","","","","","","","","null","","1293.699999988079","","2","0","null","null","arrowup","[0.2,0.8,0.2,0.8]","","",""
"sailing-trial","23","257678","0.0-7.0-0.0-1.0-3.0","","","","","","false","","","","","","","","null","","607.1999999880791","","3","1","null","null","arrowup","[0.2,0.8,0.2,0.8]","","",""
"sailing-comprehension","24","266166","0.0-7.0-0.0-2.0","","","","","","","","","","7764.700000047684","","","","","","","","","","","","","","[""false""]","0",""
"sailing-instructions","25","277198","0.0-8.0-0.0-0.0","","","","","","","","","","","","","","null","null","null","null","null","null","","","","","","",""
"sailing-comprehension","26","282487","0.0-8.0-0.0-1.0","","","","","","","","","","4268.800000011921","","","","","","","","","","","","","","[""true""]","0",""
"sailing-instructions","27","316908","0.0-9.0-0.0-0.0","","","","","","","","","","","","","","null","null","null","null","null","null","","","","","","",""
"sailing-trial","28","322358","0.0-9.0-0.0-1.0-0.0","","","","","","false","","","","","","","","1823.300000011921","","284.60000002384186","","1","1","arrowleft","0","arrowright","[0.2,0.8,0.2,0.8]","","",""
"sailing-trial","29","326612","0.0-9.0-0.0-1.0-1.0","","","","","","false","","","","","","","","705.8000000119209","","393.2000000476837","","2","0","arrowright","1","arrowleft","[0.2,0.8,0.2,0.8]","","",""
"sailing-trial","30","329356","0.0-9.0-0.0-1.0-2.0","","","","","","false","","","","","","","","null","","1446.699999988079","","0","0","null","null","arrowup","[0.2,0.8,0.2,0.8]","","",""
"sailing-trial","31","333907","0.0-9.0-0.0-1.0-3.0","","","","","","false","","","","","","","","774.8000000119209","","1129.800000011921","","0","0","arrowleft","0","arrowleft","[0.2,0.8,0.2,0.8]","","",""
"sailing-trial","32","336870","0.0-9.0-0.0-1.0-4.0","","","","","","false","","","","","","","","null","","1181.6000000238419","","3","1","null","null","arrowup","[0.2,0.8,0.2,0.8]","","",""
"sailing-trial","33","340789","0.0-9.0-0.0-1.0-5.0","","","","","","false","","","","","","","","570.3000000119209","","630.1000000238419","","2","0","arrowright","1","arrowleft","[0.2,0.8,0.2,0.8]","","",""
"sailing-instructions","34","367092","0.0-10.0","","","","","","","","","","","","","","null","null","null","null","null","null","","","","","","",""
"sailing-trial","35","370939","0.0-11.0-0.0","","","","","","false","","","","","","","","1167","","313.69999998807907","","2","0","arrowright","1","arrowleft","[0.325,0.675,0.15,0.85]","","",""
"sailing-trial","36","373994","0.0-11.0-1.0","","","","","","false","","","","","","","","null","","1060.2999999523163","","3","1","null","null","arrowup","[0.325,0.675,0.15,0.85]","","",""
"sailing-trial","37","378090","0.0-11.0-2.0","","","","","","false","","","","","","","","656.7999999523163","","1046.5","","2","0","arrowright","1","arrowleft","[0.325,0.675,0.15,0.85]","","",""
"sailing-trial","38","380339","0.0-11.0-3.0","","","","","","false","","","","","","","","null","","972.8000000119209","","2","0","null","null","arrowup","[0.325,0.675,0.15,0.85]","","",""
"sailing-trial","39","383737","0.0-11.0-4.0","","","","","","false","","","","","","","","629.1999999880791","","25.899999976158142","","3","1","arrowright","1","arrowright","[0.325,0.675,0.15,0.85]","","",""
"sailing-trial","40","386307","0.0-11.0-5.0","","","","","","false","","","","","","","","null","","1262.699999988079","","1","0","null","null","arrowup","[0.325,0.675,0.15,0.85]","","",""
"sailing-trial","41","389486","0.0-11.0-6.0","","","","","","false","","","","","","","","487.39999997615814","","253.5","","0","0","arrowleft","0","arrowleft","[0.325,0.675,0.15,0.85]","","",""
"sailing-trial","42","391817","0.0-11.0-7.0","","","","","","false","","","","","","","","null","","1003","","2","0","null","null","arrowup","[0.325,0.675,0.15,0.85]","","",""
"sailing-trial","43","395995","0.0-11.0-8.0","","","","","","false","","","","","","","","480.89999997615814","","372.9000000357628","","3","1","arrowright","1","arrowright","[0.325,0.675,0.15,0.85]","","",""
"sailing-trial","44","398257","0.0-11.0-9.0","","","","","","false","","","","","","","","null","","1213.699999988079","","2","0","null","null","arrowup","[0.325,0.675,0.15,0.85]","","",""
"sailing-trial","45","401721","0.0-11.0-10.0","","","","","","false","","","","","","","","479.60000002384186","","340.10000002384186","","1","1","arrowleft","0","arrowright","[0.325,0.675,0.15,0.85]","","",""
"sailing-trial","46","404153","0.0-11.0-11.0","","","","","","false","","","","","","","","null","","1078.5","","2","0","null","null","arrowup","[0.325,0.675,0.15,0.85]","","",""
"sailing-trial","47","407587","0.0-11.0-12.0","","","","","","false","","","","","","","","486.5","","336.30000001192093","","3","1","arrowright","1","arrowright","[0.325,0.675,0.15,0.85]","","",""
"sailing-trial","48","410837","0.0-11.0-13.0","","","","","","false","","","","","","","","null","","1044.5","","1","1","null","null","arrowup","[0.325,0.675,0.15,0.85]","","",""
"sailing-trial","49","414171","0.0-11.0-14.0","","","","","","false","","","","","","","","538.6000000238419","","130.5","","0","1","arrowleft","0","arrowleft","[0.325,0.675,0.15,0.85]","","",""
"sailing-trial","50","416497","0.0-11.0-15.0","","","","","","false","","","","","","","","null","","1068.8999999761581","","2","0","null","null","arrowup","[0.325,0.675,0.15,0.85]","","",""
"sailing-trial","51","419226","0.0-11.0-16.0","","","","","","false","","","","","","","","597.9000000357628","","110.30000001192093","","3","0","arrowright","1","arrowright","[0.85,0.15,0.675,0.325]","","",""
"sailing-trial","52","421988","0.0-11.0-17.0","","","","","","false","","","","","","","","null","","1005.7000000476837","","0","1","null","null","arrowup","[0.85,0.15,0.675,0.325]","","",""
"sailing-trial","53","425464","0.0-11.0-18.0","","","","","","false","","","","","","","","875.5","","295.2000000476837","","3","0","arrowright","1","arrowright","[0.85,0.15,0.675,0.325]","","",""
"sailing-trial","54","427904","0.0-11.0-19.0","","","","","","false","","","","","","","","null","","813.8000000119209","","0","1","null","null","arrowup","[0.85,0.15,0.675,0.325]","","",""
"sailing-trial","55","431153","0.0-11.0-20.0","","","","","","false","","","","","","","","446.5999999642372","","236.5","","0","1","arrowleft","0","arrowleft","[0.85,0.15,0.675,0.325]","","",""
"sailing-trial","56","433337","0.0-11.0-21.0","","","","","","false","","","","","","","","null","","1158.9000000357628","","1","0","null","null","arrowup","[0.85,0.15,0.675,0.325]","","",""
"sailing-trial","57","436034","0.0-11.0-22.0","","","","","","false","","","","","","","","486.30000001192093","","10.300000011920929","","1","0","arrowleft","0","arrowright","[0.85,0.15,0.675,0.325]","","",""
"sailing-trial","58","438687","0.0-11.0-23.0","","","","","","false","","","","","","","","null","","893.7000000476837","","0","1","null","null","arrowup","[0.85,0.15,0.675,0.325]","","",""
"sailing-trial","59","441969","0.0-11.0-24.0","","","","","","false","","","","","","","","481.10000002384186","","117.70000004768372","","0","1","arrowleft","0","arrowleft","[0.85,0.15,0.675,0.325]","","",""
"sailing-trial","60","444552","0.0-11.0-25.0","","","","","","false","","","","","","","","null","","1037.800000011921","","0","1","null","null","arrowup","[0.85,0.15,0.675,0.325]","","",""
"sailing-trial","61","448086","0.0-11.0-26.0","","","","","","false","","","","","","","","415.60000002384186","","516.8000000119209","","0","1","arrowleft","0","arrowleft","[0.85,0.15,0.675,0.325]","","",""
"sailing-trial","62","451202","0.0-11.0-27.0","","","","","","false","","","","","","","","null","","993.6000000238419","","3","1","null","null","arrowup","[0.85,0.15,0.675,0.325]","","",""
"sailing-trial","63","454436","0.0-11.0-28.0","","","","","","false","","","","","","","","581.1999999880791","","124.09999996423721","","0","1","arrowleft","0","arrowleft","[0.85,0.15,0.675,0.325]","","",""
"sailing-trial","64","457003","0.0-11.0-29.0","","","","","","false","","","","","","","","null","","882.5999999642372","","2","1","null","null","arrowup","[0.85,0.15,0.675,0.325]","","",""
"sailing-trial","65","460218","0.0-11.0-30.0","","","","","","false","","","","","","","","373","","134.19999998807907","","0","1","arrowleft","0","arrowleft","[0.85,0.15,0.675,0.325]","","",""
"sailing-trial","66","462201","0.0-11.0-31.0","","","","","","false","","","","","","","","null","","853.1999999880791","","1","0","null","null","arrowup","[0.85,0.15,0.675,0.325]","","",""
"sailing-trial","67","465501","0.0-11.0-32.0","","","","","","false","","","","","","","","566.5","","126.10000002384186","","0","1","arrowleft","0","arrowleft","[0.85,0.15,0.675,0.325]","","",""
"sailing-trial","68","467474","0.0-11.0-33.0","","","","","","false","","","","","","","","null","","850.2999999523163","","2","0","null","null","arrowup","[0.85,0.15,0.675,0.325]","","",""
"sailing-trial","69","470584","0.0-11.0-34.0","","","","","","false","","","","","","","","405.5","","169.5","","0","1","arrowleft","0","arrowleft","[0.85,0.15,0.675,0.325]","","",""
"sailing-trial","70","472258","0.0-11.0-35.0","","","","","","false","","","","","","","","null","","599.9000000357628","","3","0","null","null","arrowup","[0.85,0.15,0.675,0.325]","","",""
"sailing-trial","71","475499","0.0-11.0-36.0","","","","","","false","","","","","","","","549.8999999761581","","84.30000001192093","","0","1","arrowleft","0","arrowleft","[0.85,0.15,0.675,0.325]","","",""
"sailing-trial","72","477484","0.0-11.0-37.0","","","","","","false","","","","","","","","null","","422.39999997615814","","0","1","null","null","arrowup","[0.85,0.15,0.675,0.325]","","",""
"sailing-trial","73","481134","0.0-11.0-38.0","","","","","","false","","","","","","","","796.0999999642372","","186.30000001192093","","0","1","arrowleft","0","arrowleft","[0.675,0.325,0.85,0.15]","","",""
"sailing-trial","74","483107","0.0-11.0-39.0","","","","","","false","","","","","","","","null","","914.0999999642372","","1","0","null","null","arrowup","[0.675,0.325,0.85,0.15]","","",""
"sailing-trial","75","486182","0.0-11.0-40.0","","","","","","false","","","","","","","","332.69999998807907","","20","","0","1","arrowleft","0","arrowleft","[0.675,0.325,0.85,0.15]","","",""
"sailing-trial","76","487954","0.0-11.0-41.0","","","","","","false","","","","","","","","null","","712.9000000357628","","1","0","null","null","arrowup","[0.675,0.325,0.85,0.15]","","",""
"sailing-trial","77","491652","0.0-11.0-42.0","","","","","","false","","","","","","","","438","","380.89999997615814","","0","1","arrowleft","0","arrowleft","[0.675,0.325,0.85,0.15]","","",""
"sailing-trial","78","493817","0.0-11.0-43.0","","","","","","false","","","","","","","","null","","620.1999999880791","","3","1","null","null","arrowup","[0.675,0.325,0.85,0.15]","","",""
"sailing-trial","79","496850","0.0-11.0-44.0","","","","","","false","","","","","","","","423.89999997615814","","83.80000001192093","","0","1","arrowleft","0","arrowleft","[0.675,0.325,0.85,0.15]","","",""
"sailing-trial","80","499868","0.0-11.0-45.0","","","","","","false","","","","","","","","null","","1421.5","","0","1","null","null","arrowup","[0.675,0.325,0.85,0.15]","","",""
"sailing-trial","81","503815","0.0-11.0-46.0","","","","","","false","","","","","","","","227.80000001192093","","954.7000000476837","","0","1","arrowleft","0","arrowleft","[0.675,0.325,0.85,0.15]","","",""
"sailing-trial","82","506699","0.0-11.0-47.0","","","","","","false","","","","","","","","null","","943.8000000119209","","2","1","null","null","arrowup","[0.675,0.325,0.85,0.15]","","",""
"sailing-trial","83","510466","0.0-11.0-48.0","","","","","","false","","","","","","","","589.6000000238419","","459.39999997615814","","0","1","arrowleft","0","arrowleft","[0.675,0.325,0.85,0.15]","","",""
"sailing-trial","84","513082","0.0-11.0-49.0","","","","","","false","","","","","","","","null","","1101.800000011921","","0","1","null","null","arrowup","[0.675,0.325,0.85,0.15]","","",""
"sailing-trial","85","516047","0.0-11.0-50.0","","","","","","false","","","","","","","","502","","222.89999997615814","","0","0","arrowleft","0","arrowleft","[0.675,0.325,0.85,0.15]","","",""
"sailing-trial","86","518035","0.0-11.0-51.0","","","","","","false","","","","","","","","null","","960.6000000238419","","1","0","null","null","arrowup","[0.675,0.325,0.85,0.15]","","",""
"sailing-trial","87","521232","0.0-11.0-52.0","","","","","","false","","","","","","","","484.9000000357628","","170.89999997615814","","3","1","arrowright","1","arrowright","[0.675,0.325,0.85,0.15]","","",""
"sailing-trial","88","523457","0.0-11.0-53.0","","","","","","false","","","","","","","","null","","1015.8000000119209","","3","0","null","null","arrowup","[0.675,0.325,0.85,0.15]","","",""
"sailing-trial","89","527115","0.0-11.0-54.0","","","","","","false","","","","","","","","744.3000000119209","","94.90000003576279","","2","1","arrowright","1","arrowleft","[0.85,0.15,0.675,0.325]","","",""
"sailing-trial","90","529682","0.0-11.0-55.0","","","","","","false","","","","","","","","null","","965.1000000238419","","0","1","null","null","arrowup","[0.85,0.15,0.675,0.325]","","",""
"sailing-trial","91","533165","0.0-11.0-56.0","","","","","","false","","","","","","","","568.6000000238419","","205.9000000357628","","2","1","arrowright","1","arrowleft","[0.85,0.15,0.675,0.325]","","",""
"sailing-trial","92","535306","0.0-11.0-57.0","","","","","","false","","","","","","","","null","","1035","","1","0","null","null","arrowup","[0.85,0.15,0.675,0.325]","","",""
"sailing-trial","93","538682","0.0-11.0-58.0","","","","","","false","","","","","","","","485.39999997615814","","153.10000002384186","","2","1","arrowright","1","arrowleft","[0.85,0.15,0.675,0.325]","","",""
"sailing-trial","94","541154","0.0-11.0-59.0","","","","","","false","","","","","","","","null","","1366.5","","1","0","null","null","arrowup","[0.85,0.15,0.675,0.325]","","",""
"sailing-trial","95","544162","0.0-11.0-60.0","","","","","","false","","","","","","","","862.1000000238419","","95.69999998807907","","2","0","arrowright","1","arrowleft","[0.85,0.15,0.675,0.325]","","",""
"sailing-trial","96","546338","0.0-11.0-61.0","","","","","","false","","","","","","","","null","","1062","","2","0","null","null","arrowup","[0.85,0.15,0.675,0.325]","","",""
"sailing-trial","97","549647","0.0-11.0-62.0","","","","","","false","","","","","","","","432.60000002384186","","275","","0","1","arrowleft","0","arrowleft","[0.85,0.15,0.675,0.325]","","",""
"sailing-trial","98","551970","0.0-11.0-63.0","","","","","","false","","","","","","","","null","","1096.3999999761581","","1","0","null","null","arrowup","[0.85,0.15,0.675,0.325]","","",""
"sailing-trial","99","555263","0.0-11.0-64.0","","","","","","false","","","","","","","","455","","216.60000002384186","","0","1","arrowleft","0","arrowleft","[0.85,0.15,0.675,0.325]","","",""
"sailing-trial","100","557345","0.0-11.0-65.0","","","","","","false","","","","","","","","null","","1042.5","","3","0","null","null","arrowup","[0.85,0.15,0.675,0.325]","","",""
"sailing-trial","101","559897","0.0-11.0-66.0","","","","","","false","","","","","","","","375.10000002384186","","108.10000002384186","","0","0","arrowleft","0","arrowleft","[0.85,0.15,0.675,0.325]","","",""
"sailing-trial","102","561906","0.0-11.0-67.0","","","","","","false","","","","","","","","null","","942.2999999523163","","1","0","null","null","arrowup","[0.85,0.15,0.675,0.325]","","",""
"sailing-trial","103","565834","0.0-11.0-68.0","","","","","","false","","","","","","","","1085.6000000238419","","665.5","","3","0","arrowright","1","arrowright","[0.85,0.15,0.675,0.325]","","",""
"sailing-trial","104","567705","0.0-11.0-69.0","","","","","","false","","","","","","","","null","","861.7999999523163","","3","0","null","null","arrowup","[0.85,0.15,0.675,0.325]","","",""
"sailing-trial","105","571429","0.0-11.0-70.0","","","","","","false","","","","","","","","926.1000000238419","","224.39999997615814","","2","1","arrowright","1","arrowleft","[0.85,0.15,0.675,0.325]","","",""
"sailing-trial","106","573474","0.0-11.0-71.0","","","","","","false","","","","","","","","null","","866.3999999761581","","1","0","null","null","arrowup","[0.85,0.15,0.675,0.325]","","",""
"sailing-trial","107","576912","0.0-11.0-72.0","","","","","","false","","","","","","","","831.4000000357628","","52.69999998807907","","2","1","arrowright","1","arrowleft","[0.85,0.15,0.675,0.325]","","",""
"sailing-trial","108","579739","0.0-11.0-73.0","","","","","","false","","","","","","","","null","","1335","","2","0","null","null","arrowup","[0.85,0.15,0.675,0.325]","","",""
"sailing-trial","109","583395","0.0-11.0-74.0","","","","","","false","","","","","","","","595.5","","364.4000000357628","","1","1","arrowleft","0","arrowright","[0.675,0.325,0.85,0.15]","","",""
"sailing-trial","110","585594","0.0-11.0-75.0","","","","","","false","","","","","","","","null","","988.1999999880791","","1","0","null","null","arrowup","[0.675,0.325,0.85,0.15]","","",""
"sailing-trial","111","588945","0.0-11.0-76.0","","","","","","false","","","","","","","","509.60000002384186","","180.69999998807907","","2","1","arrowright","1","arrowleft","[0.675,0.325,0.85,0.15]","","",""
"sailing-trial","112","591562","0.0-11.0-77.0","","","","","","false","","","","","","","","null","","910.5","","0","1","null","null","arrowup","[0.675,0.325,0.85,0.15]","","",""
"sailing-trial","113","594544","0.0-11.0-78.0","","","","","","false","","","","","","","","212.19999998807907","","203","","0","1","arrowleft","0","arrowleft","[0.675,0.325,0.85,0.15]","","",""
"sailing-trial","114","596994","0.0-11.0-79.0","","","","","","false","","","","","","","","null","","863.7000000476837","","0","1","null","null","arrowup","[0.675,0.325,0.85,0.15]","","",""
"sailing-trial","115","600361","0.0-11.0-80.0","","","","","","false","","","","","","","","589.3000000119209","","123","","0","1","arrowleft","0","arrowleft","[0.675,0.325,0.85,0.15]","","",""
"sailing-trial","116","602690","0.0-11.0-81.0","","","","","","false","","","","","","","","null","","1214.0999999642372","","0","0","null","null","arrowup","[0.675,0.325,0.85,0.15]","","",""
"sailing-trial","117","606610","0.0-11.0-82.0","","","","","","false","","","","","","","","492.89999997615814","","755.5","","0","1","arrowleft","0","arrowleft","[0.675,0.325,0.85,0.15]","","",""
"sailing-trial","118","609061","0.0-11.0-83.0","","","","","","false","","","","","","","","null","","884.6999999880791","","0","1","null","null","arrowup","[0.675,0.325,0.85,0.15]","","",""
"sailing-trial","119","611978","0.0-11.0-84.0","","","","","","false","","","","","","","","337.10000002384186","","4.300000011920929","","0","1","arrowleft","0","arrowleft","[0.675,0.325,0.85,0.15]","","",""
"sailing-trial","120","614493","0.0-11.0-85.0","","","","","","false","","","","","","","","null","","956.5","","2","1","null","null","arrowup","[0.675,0.325,0.85,0.15]","","",""
"sailing-trial","121","617417","0.0-11.0-86.0","","","","","","false","","","","","","","","793.7000000476837","","15.599999964237213","","0","0","arrowleft","0","arrowleft","[0.675,0.325,0.85,0.15]","","",""
"sailing-trial","122","619809","0.0-11.0-87.0","","","","","","false","","","","","","","","null","","829.9000000357628","","0","1","null","null","arrowup","[0.675,0.325,0.85,0.15]","","",""
"sailing-trial","123","623228","0.0-11.0-88.0","","","","","","false","","","","","","","","453.5","","313.4000000357628","","0","1","arrowleft","0","arrowleft","[0.675,0.325,0.85,0.15]","","",""
"sailing-trial","124","625289","0.0-11.0-89.0","","","","","","false","","","","","","","","null","","1003.1999999880791","","3","0","null","null","arrowup","[0.675,0.325,0.85,0.15]","","",""
"sailing-trial","125","628442","0.0-11.0-90.0","","","","","","false","","","","","","","","568.1999999880791","","9.900000035762787","","0","1","arrowleft","0","arrowleft","[0.675,0.325,0.85,0.15]","","",""
"sailing-trial","126","631159","0.0-11.0-91.0","","","","","","false","","","","","","","","null","","1076.7000000476837","","2","1","null","null","arrowup","[0.675,0.325,0.85,0.15]","","",""
"sailing-trial","127","634265","0.0-11.0-92.0","","","","","","false","","","","","","","","664.3000000119209","","186.39999997615814","","0","0","arrowleft","0","arrowleft","[0.675,0.325,0.85,0.15]","","",""
"sailing-trial","128","636337","0.0-11.0-93.0","","","","","","false","","","","","","","","null","","965.8000000119209","","3","0","null","null","arrowup","[0.675,0.325,0.85,0.15]","","",""
"sailing-trial","129","639202","0.0-11.0-94.0","","","","","","false","","","","","","","","567.7999999523163","","88.60000002384186","","0","0","arrowleft","0","arrowleft","[0.675,0.325,0.85,0.15]","","",""
"sailing-trial","130","641858","0.0-11.0-95.0","","","","","","false","","","","","","","","null","","1005.2999999523163","","0","1","null","null","arrowup","[0.675,0.325,0.85,0.15]","","",""
"sailing-trial","131","645225","0.0-11.0-96.0","","","","","","false","","","","","","","","637.5","","66.69999998807907","","2","1","arrowright","1","arrowleft","[0.15,0.85,0.325,0.675]","","",""
"sailing-trial","132","647289","0.0-11.0-97.0","","","","","","false","","","","","","","","null","","805.6999999880791","","0","0","null","null","arrowup","[0.15,0.85,0.325,0.675]","","",""
"sailing-trial","133","650623","0.0-11.0-98.0","","","","","","false","","","","","","","","438.19999998807907","","241.10000002384186","","2","1","arrowright","1","arrowleft","[0.15,0.85,0.325,0.675]","","",""
"sailing-trial","134","652993","0.0-11.0-99.0","","","","","","false","","","","","","","","null","","1265.5999999642372","","0","0","null","null","arrowup","[0.15,0.85,0.325,0.675]","","",""
"sailing-trial","135","656308","0.0-11.0-100.0","","","","","","false","","","","","","","","533.3999999761581","","96.89999997615814","","2","1","arrowright","1","arrowleft","[0.15,0.85,0.325,0.675]","","",""
"sailing-trial","136","658040","0.0-11.0-101.0","","","","","","false","","","","","","","","null","","586.8000000119209","","0","0","null","null","arrowup","[0.15,0.85,0.325,0.675]","","",""
"sailing-trial","137","661273","0.0-11.0-102.0","","","","","","false","","","","","","","","470.5","","209.69999998807907","","2","1","arrowright","1","arrowleft","[0.15,0.85,0.325,0.675]","","",""
"sailing-trial","138","662809","0.0-11.0-103.0","","","","","","false","","","","","","","","null","","263.5","","0","0","null","null","arrowup","[0.15,0.85,0.325,0.675]","","",""
"sailing-trial","139","665770","0.0-11.0-104.0","","","","","","false","","","","","","","","333.60000002384186","","175.89999997615814","","0","0","arrowleft","0","arrowleft","[0.15,0.85,0.325,0.675]","","",""
"sailing-trial","140","668089","0.0-11.0-105.0","","","","","","false","","","","","","","","null","","1059.7999999523163","","3","0","null","null","arrowup","[0.15,0.85,0.325,0.675]","","",""
"sailing-trial","141","671001","0.0-11.0-106.0","","","","","","false","","","","","","","","501.5","","238.79999995231628","","2","0","arrowright","1","arrowleft","[0.15,0.85,0.325,0.675]","","",""
"sailing-trial","142","672953","0.0-11.0-107.0","","","","","","false","","","","","","","","null","","940.8000000119209","","2","0","null","null","arrowup","[0.15,0.85,0.325,0.675]","","",""
"sailing-trial","143","676391","0.0-11.0-108.0","","","","","","false","","","","","","","","566.1999999880791","","202.60000002384186","","1","1","arrowleft","0","arrowright","[0.15,0.85,0.325,0.675]","","",""
"sailing-trial","144","679136","0.0-11.0-109.0","","","","","","false","","","","","","","","null","","1551.5","","1","0","null","null","arrowup","[0.15,0.85,0.325,0.675]","","",""
"sailing-trial","145","682050","0.0-11.0-110.0","","","","","","false","","","","","","","","615.4000000357628","","24.399999976158142","","3","0","arrowright","1","arrowright","[0.15,0.85,0.325,0.675]","","",""
"sailing-trial","146","684706","0.0-11.0-111.0","","","","","","false","","","","","","","","null","","1019.9000000357628","","1","1","null","null","arrowup","[0.15,0.85,0.325,0.675]","","",""
"sailing-trial","147","687657","0.0-11.0-112.0","","","","","","false","","","","","","","","652.6999999880791","","145.10000002384186","","1","0","arrowleft","0","arrowright","[0.85,0.15,0.675,0.325]","","",""
"sailing-trial","148","690307","0.0-11.0-113.0","","","","","","false","","","","","","","","null","","1037.300000011921","","2","1","null","null","arrowup","[0.85,0.15,0.675,0.325]","","",""
"sailing-trial","149","694188","0.0-11.0-114.0","","","","","","false","","","","","","","","1019.8000000119209","","162.0999999642372","","2","1","arrowright","1","arrowleft","[0.85,0.15,0.675,0.325]","","",""
"sailing-trial","150","696744","0.0-11.0-115.0","","","","","","false","","","","","","","","null","","1282.3999999761581","","1","0","null","null","arrowup","[0.85,0.15,0.675,0.325]","","",""
"sailing-trial","151","700155","0.0-11.0-116.0","","","","","","false","","","","","","","","614","","209.5","","2","1","arrowright","1","arrowleft","[0.85,0.15,0.675,0.325]","","",""
"sailing-trial","152","702538","0.0-11.0-117.0","","","","","","false","","","","","","","","null","","803.2000000476837","","0","1","null","null","arrowup","[0.85,0.15,0.675,0.325]","","",""
"sailing-trial","153","705356","0.0-11.0-118.0","","","","","","false","","","","","","","","164.69999998807907","","59.09999996423721","","2","1","arrowright","1","arrowleft","[0.85,0.15,0.675,0.325]","","",""
"sailing-trial","154","707905","0.0-11.0-119.0","","","","","","false","","","","","","","","null","","882.1999999880791","","3","1","null","null","arrowup","[0.85,0.15,0.675,0.325]","","",""
"sailing-trial","155","711154","0.0-11.0-120.0","","","","","","false","","","","","","","","454.69999998807907","","233.5","","2","1","arrowright","1","arrowleft","[0.85,0.15,0.675,0.325]","","",""
"sailing-trial","156","713657","0.0-11.0-121.0","","","","","","false","","","","","","","","null","","987.5","","2","1","null","null","arrowup","[0.85,0.15,0.675,0.325]","","",""
"sailing-trial","157","716624","0.0-11.0-122.0","","","","","","false","","","","","","","","575.4000000357628","","135.0999999642372","","2","0","arrowright","1","arrowleft","[0.85,0.15,0.675,0.325]","","",""
"sailing-trial","158","718520","0.0-11.0-123.0","","","","","","false","","","","","","","","null","","848.7999999523163","","3","0","null","null","arrowup","[0.85,0.15,0.675,0.325]","","",""
"sailing-trial","159","721737","0.0-11.0-124.0","","","","","","false","","","","","","","","550","","158.19999998807907","","0","1","arrowleft","0","arrowleft","[0.85,0.15,0.675,0.325]","","",""
"sailing-trial","160","723633","0.0-11.0-125.0","","","","","","false","","","","","","","","null","","733","","0","0","null","null","arrowup","[0.85,0.15,0.675,0.325]","","",""
"sailing-trial","161","727070","0.0-11.0-126.0","","","","","","false","","","","","","","","533.2000000476837","","266.60000002384186","","2","1","arrowright","1","arrowleft","[0.85,0.15,0.675,0.325]","","",""
"sailing-trial","162","729080","0.0-11.0-127.0","","","","","","false","","","","","","","","null","","960.6999999880791","","1","0","null","null","arrowup","[0.85,0.15,0.675,0.325]","","",""
"sailing-trial","163","732536","0.0-11.0-128.0","","","","","","false","","","","","","","","597.8000000119209","","180.39999997615814","","2","1","arrowright","1","arrowleft","[0.85,0.15,0.675,0.325]","","",""
"sailing-trial","164","735238","0.0-11.0-129.0","","","","","","false","","","","","","","","null","","1149.800000011921","","3","1","null","null","arrowup","[0.85,0.15,0.675,0.325]","","",""
"sailing-trial","165","739020","0.0-11.0-130.0","","","","","","false","","","","","","","","832.8000000119209","","222.80000001192093","","2","1","arrowright","1","arrowleft","[0.675,0.325,0.85,0.15]","","",""
"sailing-trial","166","742017","0.0-11.0-131.0","","","","","","false","","","","","","","","null","","1756.2000000476837","","3","0","null","null","arrowup","[0.675,0.325,0.85,0.15]","","",""
"sailing-trial","167","745350","0.0-11.0-132.0","","","","","","false","","","","","","","","421.19999998807907","","177.10000002384186","","2","1","arrowright","1","arrowleft","[0.675,0.325,0.85,0.15]","","",""
"sailing-trial","168","747770","0.0-11.0-133.0","","","","","","false","","","","","","","","null","","906.6000000238419","","0","1","null","null","arrowup","[0.675,0.325,0.85,0.15]","","",""
"sailing-trial","169","751019","0.0-11.0-134.0","","","","","","false","","","","","","","","404","","194.69999998807907","","2","1","arrowright","1","arrowleft","[0.675,0.325,0.85,0.15]","","",""
"sailing-trial","170","752705","0.0-11.0-135.0","","","","","","false","","","","","","","","null","","460.5","","1","0","null","null","arrowup","[0.675,0.325,0.85,0.15]","","",""
"sailing-trial","171","755869","0.0-11.0-136.0","","","","","","false","","","","","","","","252.79999995231628","","331.69999998807907","","0","1","arrowleft","0","arrowleft","[0.675,0.325,0.85,0.15]","","",""
"sailing-trial","172","758369","0.0-11.0-137.0","","","","","","false","","","","","","","","null","","968.9000000357628","","2","1","null","null","arrowup","[0.675,0.325,0.85,0.15]","","",""
"sailing-trial","173","762652","0.0-11.0-138.0","","","","","","false","","","","","","","","1629.1000000238419","","138.69999998807907","","2","1","arrowright","1","arrowleft","[0.675,0.325,0.85,0.15]","","",""
"sailing-trial","174","764744","0.0-11.0-139.0","","","","","","false","","","","","","","","null","","945.6999999880791","","3","0","null","null","arrowup","[0.675,0.325,0.85,0.15]","","",""
"sailing-trial","175","767360","0.0-11.0-140.0","","","","","","false","","","","","","","","365.5","","198.89999997615814","","2","0","arrowright","1","arrowleft","[0.675,0.325,0.85,0.15]","","",""
"sailing-trial","176","769767","0.0-11.0-141.0","","","","","","false","","","","","","","","null","","894.1999999880791","","0","1","null","null","arrowup","[0.675,0.325,0.85,0.15]","","",""
"sailing-trial","177","773049","0.0-11.0-142.0","","","","","","false","","","","","","","","214.89999997615814","","315.39999997615814","","0","1","arrowleft","0","arrowleft","[0.675,0.325,0.85,0.15]","","",""
"sailing-trial","178","775335","0.0-11.0-143.0","","","","","","false","","","","","","","","null","","925.6999999880791","","3","0","null","null","arrowup","[0.675,0.325,0.85,0.15]","","",""
"sailing-trial","179","778500","0.0-11.0-144.0","","","","","","false","","","","","","","","478.80000001192093","","138.80000001192093","","0","1","arrowleft","0","arrowleft","[0.675,0.325,0.85,0.15]","","",""
"sailing-trial","180","781084","0.0-11.0-145.0","","","","","","false","","","","","","","","null","","849.3999999761581","","2","1","null","null","arrowup","[0.675,0.325,0.85,0.15]","","",""
"sailing-trial","181","784485","0.0-11.0-146.0","","","","","","false","","","","","","","","586.4000000357628","","265.30000001192093","","0","1","arrowleft","0","arrowleft","[0.675,0.325,0.85,0.15]","","",""
"sailing-trial","182","787301","0.0-11.0-147.0","","","","","","false","","","","","","","","null","","1263.5","","2","1","null","null","arrowup","[0.675,0.325,0.85,0.15]","","",""
"sailing-trial","183","790683","0.0-11.0-148.0","","","","","","false","","","","","","","","600.5","","174.39999997615814","","0","1","arrowleft","0","arrowleft","[0.675,0.325,0.85,0.15]","","",""
"sailing-trial","184","793315","0.0-11.0-149.0","","","","","","false","","","","","","","","null","","986.3000000119209","","2","1","null","null","arrowup","[0.675,0.325,0.85,0.15]","","",""
"sailing-trial","185","796833","0.0-11.0-150.0","","","","","","false","","","","","","","","443.5","","524.5","","0","1","arrowleft","0","arrowleft","[0.675,0.325,0.85,0.15]","","",""
"sailing-trial","186","799132","0.0-11.0-151.0","","","","","","false","","","","","","","","null","","773.5999999642372","","2","1","null","null","arrowup","[0.675,0.325,0.85,0.15]","","",""
"sailing-trial","187","801496","0.0-11.0-152.0","","","","","","false","","","","","","","","153.60000002384186","","56.89999997615814","","0","0","arrowleft","0","arrowleft","[0.675,0.325,0.85,0.15]","","",""
"sailing-trial","188","803682","0.0-11.0-153.0","","","","","","false","","","","","","","","null","","645.6000000238419","","2","1","null","null","arrowup","[0.675,0.325,0.85,0.15]","","",""
"sailing-trial","189","806633","0.0-11.0-154.0","","","","","","false","","","","","","","","43.5","","231.20000004768372","","2","1","arrowright","1","arrowleft","[0.85,0.15,0.675,0.325]","","",""
"sailing-trial","190","808520","0.0-11.0-155.0","","","","","","false","","","","","","","","null","","877.1999999880791","","2","0","null","null","arrowup","[0.85,0.15,0.675,0.325]","","",""
"sailing-trial","191","811699","0.0-11.0-156.0","","","","","","false","","","","","","","","469.5","","123.90000003576279","","2","1","arrowright","1","arrowleft","[0.85,0.15,0.675,0.325]","","",""
"sailing-trial","192","813801","0.0-11.0-157.0","","","","","","false","","","","","","","","null","","842.9000000357628","","1","0","null","null","arrowup","[0.85,0.15,0.675,0.325]","","",""
"sailing-trial","193","817082","0.0-11.0-158.0","","","","","","false","","","","","","","","300.4000000357628","","81.39999997615814","","2","1","arrowright","1","arrowleft","[0.85,0.15,0.675,0.325]","","",""
"sailing-trial","194","819520","0.0-11.0-159.0","","","","","","false","","","","","","","","null","","1364","","3","0","null","null","arrowup","[0.85,0.15,0.675,0.325]","","",""
"sailing-trial","195","822748","0.0-11.0-160.0","","","","","","false","","","","","","","","517.8000000119209","","83.60000002384186","","2","1","arrowright","1","arrowleft","[0.85,0.15,0.675,0.325]","","",""
"sailing-trial","196","824960","0.0-11.0-161.0","","","","","","false","","","","","","","","null","","1043.699999988079","","1","0","null","null","arrowup","[0.85,0.15,0.675,0.325]","","",""
"sailing-trial","197","828032","0.0-11.0-162.0","","","","","","false","","","","","","","","452.7000000476837","","13.399999976158142","","2","1","arrowright","1","arrowleft","[0.85,0.15,0.675,0.325]","","",""
"sailing-trial","198","830464","0.0-11.0-163.0","","","","","","false","","","","","","","","null","","917.1000000238419","","2","1","null","null","arrowup","[0.85,0.15,0.675,0.325]","","",""
"sailing-trial","199","833330","0.0-11.0-164.0","","","","","","false","","","","","","","","94.69999998807907","","207.89999997615814","","2","1","arrowright","1","arrowleft","[0.85,0.15,0.675,0.325]","","",""
"sailing-trial","200","835376","0.0-11.0-165.0","","","","","","false","","","","","","","","null","","948.5","","2","0","null","null","arrowup","[0.85,0.15,0.675,0.325]","","",""
"sailing-trial","201","838532","0.0-11.0-166.0","","","","","","false","","","","","","","","493.10000002384186","","83.10000002384186","","2","1","arrowright","1","arrowleft","[0.85,0.15,0.675,0.325]","","",""
"sailing-trial","202","841015","0.0-11.0-167.0","","","","","","false","","","","","","","","null","","825.3999999761581","","0","1","null","null","arrowup","[0.85,0.15,0.675,0.325]","","",""
"sailing-trial","203","844380","0.0-11.0-168.0","","","","","","false","","","","","","","","614.3999999761581","","157.30000001192093","","2","1","arrowright","1","arrowleft","[0.85,0.15,0.675,0.325]","","",""
"sailing-trial","204","847347","0.0-11.0-169.0","","","","","","false","","","","","","","","null","","1457","","3","1","null","null","arrowup","[0.85,0.15,0.675,0.325]","","",""
"sailing-trial","205","850400","0.0-11.0-170.0","","","","","","false","","","","","","","","714.9000000357628","","117.30000001192093","","2","0","arrowright","1","arrowleft","[0.15,0.85,0.325,0.675]","","",""
"sailing-trial","206","852312","0.0-11.0-171.0","","","","","","false","","","","","","","","null","","861.3999999761581","","2","0","null","null","arrowup","[0.15,0.85,0.325,0.675]","","",""
"sailing-trial","207","855746","0.0-11.0-172.0","","","","","","false","","","","","","","","613.3999999761581","","250","","3","1","arrowright","1","arrowright","[0.15,0.85,0.325,0.675]","","",""
"sailing-trial","208","858264","0.0-11.0-173.0","","","","","","false","","","","","","","","null","","882.6000000238419","","3","1","null","null","arrowup","[0.15,0.85,0.325,0.675]","","",""
"sailing-trial","209","861128","0.0-11.0-174.0","","","","","","false","","","","","","","","661.5","","90.10000002384186","","3","0","arrowright","1","arrowright","[0.15,0.85,0.325,0.675]","","",""
"sailing-trial","210","863546","0.0-11.0-175.0","","","","","","false","","","","","","","","null","","861.5","","1","1","null","null","arrowup","[0.15,0.85,0.325,0.675]","","",""
"sailing-trial","211","867011","0.0-11.0-176.0","","","","","","false","","","","","","","","611.5","","136.19999998807907","","1","1","arrowleft","0","arrowright","[0.15,0.85,0.325,0.675]","","",""
"sailing-trial","212","869543","0.0-11.0-177.0","","","","","","false","","","","","","","","null","","1226","","1","0","null","null","arrowup","[0.15,0.85,0.325,0.675]","","",""
"sailing-trial","213","872502","0.0-11.0-178.0","","","","","","false","","","","","","","","716.6999999880791","","157.5999999642372","","2","0","arrowright","1","arrowleft","[0.15,0.85,0.325,0.675]","","",""
"sailing-trial","214","874576","0.0-11.0-179.0","","","","","","false","","","","","","","","null","","850.4000000357628","","0","0","null","null","arrowup","[0.15,0.85,0.325,0.675]","","",""
"sailing-trial","215","877828","0.0-11.0-180.0","","","","","","false","","","","","","","","532.9000000357628","","139.0999999642372","","1","1","arrowleft","0","arrowright","[0.15,0.85,0.325,0.675]","","",""
"sailing-trial","216","879776","0.0-11.0-181.0","","","","","","false","","","","","","","","null","","865.5","","0","0","null","null","arrowup","[0.15,0.85,0.325,0.675]","","",""
"sailing-trial","217","883195","0.0-11.0-182.0","","","","","","false","","","","","","","","566","","130.30000001192093","","1","1","arrowleft","0","arrowright","[0.15,0.85,0.325,0.675]","","",""
"sailing-trial","218","885135","0.0-11.0-183.0","","","","","","false","","","","","","","","null","","922.6999999880791","","3","0","null","null","arrowup","[0.15,0.85,0.325,0.675]","","",""
"sailing-trial","219","888628","0.0-11.0-184.0","","","","","","false","","","","","","","","550.2999999523163","","226.89999997615814","","1","1","arrowleft","0","arrowright","[0.15,0.85,0.325,0.675]","","",""
"sailing-trial","220","890543","0.0-11.0-185.0","","","","","","false","","","","","","","","null","","904.5","","3","0","null","null","arrowup","[0.15,0.85,0.325,0.675]","","",""
"sailing-trial","221","893424","0.0-11.0-186.0","","","","","","false","","","","","","","","613.9000000357628","","154.5","","1","0","arrowleft","0","arrowright","[0.325,0.675,0.15,0.85]","","",""
"sailing-trial","222","896093","0.0-11.0-187.0","","","","","","false","","","","","","","","null","","908.6999999880791","","1","1","null","null","arrowup","[0.325,0.675,0.15,0.85]","","",""
"sailing-trial","223","900312","0.0-11.0-188.0","","","","","","false","","","","","","","","674","","315","","1","0","arrowleft","0","arrowright","[0.325,0.675,0.15,0.85]","","",""
"sailing-trial","224","903094","0.0-11.0-189.0","","","","","","false","","","","","","","","null","","1062.0999999642372","","3","1","null","null","arrowup","[0.325,0.675,0.15,0.85]","","",""
"sailing-trial","225","906077","0.0-11.0-190.0","","","","","","false","","","","","","","","352","","39.60000002384186","","3","1","arrowright","1","arrowright","[0.325,0.675,0.15,0.85]","","",""
"sailing-trial","226","908562","0.0-11.0-191.0","","","","","","false","","","","","","","","null","","969","","3","1","null","null","arrowup","[0.325,0.675,0.15,0.85]","","",""
"sailing-trial","227","911008","0.0-11.0-192.0","","","","","","false","","","","","","","","100.09999996423721","","174.69999998807907","","3","0","arrowright","1","arrowright","[0.325,0.675,0.15,0.85]","","",""
"sailing-trial","228","912976","0.0-11.0-193.0","","","","","","false","","","","","","","","null","","806.7000000476837","","2","0","null","null","arrowup","[0.325,0.675,0.15,0.85]","","",""
"sailing-trial","229","916410","0.0-11.0-194.0","","","","","","false","","","","","","","","781.6999999880791","","35.69999998807907","","0","1","arrowleft","0","arrowleft","[0.325,0.675,0.15,0.85]","","",""
"sailing-trial","230","918744","0.0-11.0-195.0","","","","","","false","","","","","","","","null","","819.3000000119209","","1","1","null","null","arrowup","[0.325,0.675,0.15,0.85]","","",""
"sailing-trial","231","922009","0.0-11.0-196.0","","","","","","false","","","","","","","","509.80000001192093","","17","","0","1","arrowleft","0","arrowleft","[0.325,0.675,0.15,0.85]","","",""
"sailing-trial","232","924692","0.0-11.0-197.0","","","","","","false","","","","","","","","null","","892.5","","1","1","null","null","arrowup","[0.325,0.675,0.15,0.85]","","",""
"sailing-trial","233","927599","0.0-11.0-198.0","","","","","","false","","","","","","","","641.7000000476837","","180.9000000357628","","0","0","arrowleft","0","arrowleft","[0.325,0.675,0.15,0.85]","","",""
"sailing-trial","234","930027","0.0-11.0-199.0","","","","","","false","","","","","","","","null","","798.9000000357628","","3","1","null","null","arrowup","[0.325,0.675,0.15,0.85]","","",""
"sailing-trial","235","933175","0.0-11.0-200.0","","","","","","false","","","","","","","","384.80000001192093","","82.59999996423721","","1","1","arrowleft","0","arrowright","[0.325,0.675,0.15,0.85]","","",""
"sailing-trial","236","935742","0.0-11.0-201.0","","","","","","false","","","","","","","","null","","958","","3","1","null","null","arrowup","[0.325,0.675,0.15,0.85]","","",""
"sailing-trial","237","938208","0.0-11.0-202.0","","","","","","false","","","","","","","","367.5","","6.900000035762787","","3","0","arrowright","1","arrowright","[0.15,0.85,0.325,0.675]","","",""
"sailing-trial","238","941109","0.0-11.0-203.0","","","","","","false","","","","","","","","null","","1221.699999988079","","1","1","null","null","arrowup","[0.15,0.85,0.325,0.675]","","",""
"sailing-trial","239","944358","0.0-11.0-204.0","","","","","","false","","","","","","","","512.7999999523163","","186.30000001192093","","1","1","arrowleft","0","arrowright","[0.15,0.85,0.325,0.675]","","",""
"sailing-trial","240","946808","0.0-11.0-205.0","","","","","","false","","","","","","","","null","","862.6999999880791","","1","1","null","null","arrowup","[0.15,0.85,0.325,0.675]","","",""
"sailing-trial","241","950258","0.0-11.0-206.0","","","","","","false","","","","","","","","597","","291.39999997615814","","1","1","arrowleft","0","arrowright","[0.15,0.85,0.325,0.675]","","",""
"sailing-trial","242","952303","0.0-11.0-207.0","","","","","","false","","","","","","","","null","","915.1000000238419","","0","0","null","null","arrowup","[0.15,0.85,0.325,0.675]","","",""
"sailing-trial","243","955672","0.0-11.0-208.0","","","","","","false","","","","","","","","614.3999999761581","","135","","1","1","arrowleft","0","arrowright","[0.15,0.85,0.325,0.675]","","",""
"sailing-trial","244","957791","0.0-11.0-209.0","","","","","","false","","","","","","","","null","","423.30000001192093","","3","1","null","null","arrowup","[0.15,0.85,0.325,0.675]","","",""
"sailing-trial","245","961109","0.0-11.0-210.0","","","","","","false","","","","","","","","600.1999999880791","","196.5999999642372","","1","1","arrowleft","0","arrowright","[0.15,0.85,0.325,0.675]","","",""
"sailing-trial","246","963335","0.0-11.0-211.0","","","","","","false","","","","","","","","null","","984.5","","0","0","null","null","arrowup","[0.15,0.85,0.325,0.675]","","",""
"sailing-trial","247","966991","0.0-11.0-212.0","","","","","","false","","","","","","","","814.2999999523163","","182.29999995231628","","1","1","arrowleft","0","arrowright","[0.15,0.85,0.325,0.675]","","",""
"sailing-trial","248","969825","0.0-11.0-213.0","","","","","","false","","","","","","","","null","","1238.0999999642372","","1","1","null","null","arrowup","[0.15,0.85,0.325,0.675]","","",""
"sailing-trial","249","973157","0.0-11.0-214.0","","","","","","false","","","","","","","","571.6999999880791","","116.10000002384186","","1","1","arrowleft","0","arrowright","[0.15,0.85,0.325,0.675]","","",""
"sailing-trial","250","975223","0.0-11.0-215.0","","","","","","false","","","","","","","","null","","943.6000000238419","","0","0","null","null","arrowup","[0.15,0.85,0.325,0.675]","","",""
"sailing-trial","251","978824","0.0-11.0-216.0","","","","","","false","","","","","","","","550.2999999523163","","246.39999997615814","","1","1","arrowleft","0","arrowright","[0.15,0.85,0.325,0.675]","","",""
"sailing-trial","252","980503","0.0-11.0-217.0","","","","","","false","","","","","","","","null","","605.1000000238419","","0","0","null","null","arrowup","[0.15,0.85,0.325,0.675]","","",""
"sailing-trial","253","983989","0.0-11.0-218.0","","","","","","false","","","","","","","","566","","123","","1","1","arrowleft","0","arrowright","[0.15,0.85,0.325,0.675]","","",""
"sailing-trial","254","986772","0.0-11.0-219.0","","","","","","false","","","","","","","","null","","1143.699999988079","","2","1","null","null","arrowup","[0.15,0.85,0.325,0.675]","","",""
"sailing-trial","255","990041","0.0-11.0-220.0","","","","","","false","","","","","","","","569.9000000357628","","56","","1","1","arrowleft","0","arrowright","[0.325,0.675,0.15,0.85]","","",""
"sailing-trial","256","992215","0.0-11.0-221.0","","","","","","false","","","","","","","","null","","932.4000000357628","","2","0","null","null","arrowup","[0.325,0.675,0.15,0.85]","","",""
"sailing-trial","257","995456","0.0-11.0-222.0","","","","","","false","","","","","","","","552.1000000238419","","72","","1","1","arrowleft","0","arrowright","[0.325,0.675,0.15,0.85]","","",""
"sailing-trial","258","997413","0.0-11.0-223.0","","","","","","false","","","","","","","","null","","932.3000000119209","","0","0","null","null","arrowup","[0.325,0.675,0.15,0.85]","","",""
"sailing-trial","259","1000032","0.0-11.0-224.0","","","","","","false","","","","","","","","130.10000002384186","","353.2999999523163","","1","0","arrowleft","0","arrowright","[0.325,0.675,0.15,0.85]","","",""
"sailing-trial","260","1002167","0.0-11.0-225.0","","","","","","false","","","","","","","","null","","1076.5","","2","0","null","null","arrowup","[0.325,0.675,0.15,0.85]","","",""
"sailing-trial","261","1004983","0.0-11.0-226.0","","","","","","false","","","","","","","","549.3000000119209","","154.60000002384186","","1","0","arrowleft","0","arrowright","[0.325,0.675,0.15,0.85]","","",""
"sailing-trial","262","1006663","0.0-11.0-227.0","","","","","","false","","","","","","","","null","","565.3000000119209","","2","0","null","null","arrowup","[0.325,0.675,0.15,0.85]","","",""
"sailing-trial","263","1009408","0.0-11.0-228.0","","","","","","false","","","","","","","","461.4000000357628","","145.69999998807907","","0","0","arrowleft","0","arrowleft","[0.325,0.675,0.15,0.85]","","",""
"sailing-trial","264","1011804","0.0-11.0-229.0","","","","","","false","","","","","","","","null","","645.3000000119209","","2","1","null","null","arrowup","[0.325,0.675,0.15,0.85]","","",""
"sailing-trial","265","1014559","0.0-11.0-230.0","","","","","","false","","","","","","","","336.5","","183.69999998807907","","2","0","arrowright","1","arrowleft","[0.325,0.675,0.15,0.85]","","",""
"sailing-trial","266","1017105","0.0-11.0-231.0","","","","","","false","","","","","","","","null","","1021.3999999761581","","3","1","null","null","arrowup","[0.325,0.675,0.15,0.85]","","",""
"sailing-trial","267","1020355","0.0-11.0-232.0","","","","","","false","","","","","","","","532.8999999761581","","157.4000000357628","","3","1","arrowright","1","arrowright","[0.325,0.675,0.15,0.85]","","",""
"sailing-trial","268","1022954","0.0-11.0-233.0","","","","","","false","","","","","","","","null","","1081.8999999761581","","3","1","null","null","arrowup","[0.325,0.675,0.15,0.85]","","",""
"sailing-trial","269","1025936","0.0-11.0-234.0","","","","","","false","","","","","","","","147","","2.5","","3","1","arrowright","1","arrowright","[0.325,0.675,0.15,0.85]","","",""
"sailing-trial","270","1027953","0.0-11.0-235.0","","","","","","false","","","","","","","","null","","294.0999999642372","","1","1","null","null","arrowup","[0.325,0.675,0.15,0.85]","","",""
"sailing-trial","271","1030704","0.0-11.0-236.0","","","","","","false","","","","","","","","180.20000004768372","","41.60000002384186","","3","1","arrowright","1","arrowright","[0.325,0.675,0.15,0.85]","","",""
"sailing-trial","272","1032191","0.0-11.0-237.0","","","","","","false","","","","","","","","null","","405.2000000476837","","3","0","null","null","arrowup","[0.325,0.675,0.15,0.85]","","",""
"sailing-trial","273","1035370","0.0-11.0-238.0","","","","","","false","","","","","","","","501.5","","43.200000047683716","","3","1","arrowright","1","arrowright","[0.15,0.85,0.325,0.675]","","",""
"sailing-trial","274","1037127","0.0-11.0-239.0","","","","","","false","","","","","","","","null","","595","","3","0","null","null","arrowup","[0.15,0.85,0.325,0.675]","","",""
"sailing-trial","275","1040120","0.0-11.0-240.0","","","","","","false","","","","","","","","102.30000001192093","","197.9000000357628","","3","1","arrowright","1","arrowright","[0.15,0.85,0.325,0.675]","","",""
"sailing-trial","276","1044217","0.0-11.0-241.0","","","","","","false","","","","","","","","null","","2190.100000023842","","1","1","null","null","arrowup","[0.15,0.85,0.325,0.675]","","",""
"sailing-trial","277","1047103","0.0-11.0-242.0","","","","","","false","","","","","","","","117.09999996423721","","122.69999998807907","","3","1","arrowright","1","arrowright","[0.15,0.85,0.325,0.675]","","",""
"sailing-trial","278","1050007","0.0-11.0-243.0","","","","","","false","","","","","","","","null","","1885.800000011921","","1","0","null","null","arrowup","[0.15,0.85,0.325,0.675]","","",""
"sailing-trial","279","1053376","0.0-11.0-244.0","","","","","","false","","","","","","","","1125.5","","186.70000004768372","","3","0","arrowright","1","arrowright","[0.15,0.85,0.325,0.675]","","",""
"sailing-trial","280","1055919","0.0-11.0-245.0","","","","","","false","","","","","","","","null","","860.6999999880791","","2","1","null","null","arrowup","[0.15,0.85,0.325,0.675]","","",""
"sailing-trial","281","1059602","0.0-11.0-246.0","","","","","","false","","","","","","","","981.1000000238419","","12.799999952316284","","1","1","arrowleft","0","arrowright","[0.15,0.85,0.325,0.675]","","",""
"sailing-trial","282","1062385","0.0-11.0-247.0","","","","","","false","","","","","","","","null","","1162.699999988079","","3","1","null","null","arrowup","[0.15,0.85,0.325,0.675]","","",""
"sailing-trial","283","1066153","0.0-11.0-248.0","","","","","","false","","","","","","","","788.1000000238419","","241.89999997615814","","1","1","arrowleft","0","arrowright","[0.15,0.85,0.325,0.675]","","",""
"sailing-trial","284","1068063","0.0-11.0-249.0","","","","","","false","","","","","","","","null","","819.5","","3","0","null","null","arrowup","[0.15,0.85,0.325,0.675]","","",""
"sailing-trial","285","1071334","0.0-11.0-250.0","","","","","","false","","","","","","","","549.3999999761581","","72.30000001192093","","1","1","arrowleft","0","arrowright","[0.15,0.85,0.325,0.675]","","",""
"sailing-trial","286","1073415","0.0-11.0-251.0","","","","","","false","","","","","","","","null","","902.0999999642372","","2","0","null","null","arrowup","[0.15,0.85,0.325,0.675]","","",""
"sailing-trial","287","1077101","0.0-11.0-252.0","","","","","","false","","","","","","","","677.6999999880791","","196.5","","1","1","arrowleft","0","arrowright","[0.15,0.85,0.325,0.675]","","",""
"sailing-trial","288","1079254","0.0-11.0-253.0","","","","","","false","","","","","","","","null","","1071.199999988079","","0","0","null","null","arrowup","[0.15,0.85,0.325,0.675]","","",""
"sailing-trial","289","1082567","0.0-11.0-254.0","","","","","","false","","","","","","","","494.2999999523163","","205.30000001192093","","1","1","arrowleft","0","arrowright","[0.15,0.85,0.325,0.675]","","",""
"sailing-trial","290","1084694","0.0-11.0-255.0","","","","","","false","","","","","","","","null","","997.2999999523163","","0","0","null","null","arrowup","[0.15,0.85,0.325,0.675]","","",""
"sailing-trial","291","1087783","0.0-11.0-256.0","","","","","","false","","","","","","","","390.19999998807907","","176.69999998807907","","1","1","arrowleft","0","arrowright","[0.15,0.85,0.325,0.675]","","",""
"sailing-trial","292","1089517","0.0-11.0-257.0","","","","","","false","","","","","","","","null","","156.69999998807907","","1","1","null","null","arrowup","[0.15,0.85,0.325,0.675]","","",""
"sailing-trial","293","1092433","0.0-11.0-258.0","","","","","","false","","","","","","","","352.19999998807907","","7.900000035762787","","2","1","arrowright","1","arrowleft","[0.675,0.325,0.85,0.15]","","",""
"sailing-trial","294","1094472","0.0-11.0-259.0","","","","","","false","","","","","","","","null","","827.5","","3","0","null","null","arrowup","[0.675,0.325,0.85,0.15]","","",""
"sailing-trial","295","1097783","0.0-11.0-260.0","","","","","","false","","","","","","","","509.5","","76.10000002384186","","1","1","arrowleft","0","arrowright","[0.675,0.325,0.85,0.15]","","",""
"sailing-trial","296","1099682","0.0-11.0-261.0","","","","","","false","","","","","","","","null","","245.5","","0","1","null","null","arrowup","[0.675,0.325,0.85,0.15]","","",""
"sailing-trial","297","1102431","0.0-11.0-262.0","","","","","","false","","","","","","","","515.8999999761581","","58.5","","1","0","arrowleft","0","arrowright","[0.675,0.325,0.85,0.15]","","",""
"sailing-trial","298","1104950","0.0-11.0-263.0","","","","","","false","","","","","","","","null","","943.1999999880791","","0","1","null","null","arrowup","[0.675,0.325,0.85,0.15]","","",""
"sailing-trial","299","1107759","0.0-11.0-264.0","","","","","","false","","","","","","","","545.5","","135.30000001192093","","1","0","arrowleft","0","arrowright","[0.675,0.325,0.85,0.15]","","",""
"sailing-trial","300","1110278","0.0-11.0-265.0","","","","","","false","","","","","","","","null","","1421.1000000238419","","0","0","null","null","arrowup","[0.675,0.325,0.85,0.15]","","",""
"sailing-trial","301","1113582","0.0-11.0-266.0","","","","","","false","","","","","","","","582.1999999880791","","104.89999997615814","","2","1","arrowright","1","arrowleft","[0.675,0.325,0.85,0.15]","","",""
"sailing-trial","302","1115376","0.0-11.0-267.0","","","","","","false","","","","","","","","null","","781.5999999642372","","1","0","null","null","arrowup","[0.675,0.325,0.85,0.15]","","",""
"sailing-trial","303","1118432","0.0-11.0-268.0","","","","","","false","","","","","","","","451.9000000357628","","90.40000003576279","","2","1","arrowright","1","arrowleft","[0.675,0.325,0.85,0.15]","","",""
"sailing-trial","304","1120998","0.0-11.0-269.0","","","","","","false","","","","","","","","null","","900","","2","1","null","null","arrowup","[0.675,0.325,0.85,0.15]","","",""
"sailing-trial","305","1124248","0.0-11.0-270.0","","","","","","false","","","","","","","","438.4000000357628","","145.89999997615814","","2","1","arrowright","1","arrowleft","[0.675,0.325,0.85,0.15]","","",""
"sailing-trial","306","1126198","0.0-11.0-271.0","","","","","","false","","","","","","","","null","","411.5","","0","1","null","null","arrowup","[0.675,0.325,0.85,0.15]","","",""
"sailing-trial","307","1129399","0.0-11.0-272.0","","","","","","false","","","","","","","","351.2999999523163","","191.10000002384186","","2","1","arrowright","1","arrowleft","[0.675,0.325,0.85,0.15]","","",""
"sailing-trial","308","1131764","0.0-11.0-273.0","","","","","","false","","","","","","","","null","","805.3000000119209","","0","1","null","null","arrowup","[0.675,0.325,0.85,0.15]","","",""
"sailing-trial","309","1135181","0.0-11.0-274.0","","","","","","false","","","","","","","","672","","218.5","","2","1","arrowright","1","arrowleft","[0.675,0.325,0.85,0.15]","","",""
"sailing-trial","310","1137648","0.0-11.0-275.0","","","","","","false","","","","","","","","null","","799","","2","1","null","null","arrowup","[0.675,0.325,0.85,0.15]","","",""
"sailing-trial","311","1140480","0.0-11.0-276.0","","","","","","false","","","","","","","","76.40000003576279","","46.89999997615814","","2","1","arrowright","1","arrowleft","[0.675,0.325,0.85,0.15]","","",""
"sailing-trial","312","1142749","0.0-11.0-277.0","","","","","","false","","","","","","","","null","","676.1000000238419","","1","1","null","null","arrowup","[0.675,0.325,0.85,0.15]","","",""
"sailing-trial","313","1145616","0.0-11.0-278.0","","","","","","false","","","","","","","","88.80000001192093","","227.10000002384186","","2","1","arrowright","1","arrowleft","[0.85,0.15,0.675,0.325]","","",""
"sailing-trial","314","1147335","0.0-11.0-279.0","","","","","","false","","","","","","","","null","","692.8000000119209","","3","0","null","null","arrowup","[0.85,0.15,0.675,0.325]","","",""
"sailing-trial","315","1150682","0.0-11.0-280.0","","","","","","false","","","","","","","","485.60000002384186","","196","","2","1","arrowright","1","arrowleft","[0.85,0.15,0.675,0.325]","","",""
"sailing-trial","316","1153231","0.0-11.0-281.0","","","","","","false","","","","","","","","null","","923.5999999642372","","0","1","null","null","arrowup","[0.85,0.15,0.675,0.325]","","",""
"sailing-trial","317","1156063","0.0-11.0-282.0","","","","","","false","","","","","","","","148.89999997615814","","125.80000001192093","","2","1","arrowright","1","arrowleft","[0.85,0.15,0.675,0.325]","","",""
"sailing-trial","318","1158447","0.0-11.0-283.0","","","","","","false","","","","","","","","null","","669.1999999880791","","2","1","null","null","arrowup","[0.85,0.15,0.675,0.325]","","",""
"sailing-trial","319","1160662","0.0-11.0-284.0","","","","","","false","","","","","","","","70.09999996423721","","25","","2","0","arrowright","1","arrowleft","[0.85,0.15,0.675,0.325]","","",""
"sailing-trial","320","1162519","0.0-11.0-285.0","","","","","","false","","","","","","","","null","","677.5999999642372","","3","0","null","null","arrowup","[0.85,0.15,0.675,0.325]","","",""
"sailing-trial","321","1165562","0.0-11.0-286.0","","","","","","false","","","","","","","","252.89999997615814","","199.4000000357628","","2","1","arrowright","1","arrowleft","[0.85,0.15,0.675,0.325]","","",""
"sailing-trial","322","1167670","0.0-11.0-287.0","","","","","","false","","","","","","","","null","","497.69999998807907","","2","1","null","null","arrowup","[0.85,0.15,0.675,0.325]","","",""
"sailing-trial","323","1170946","0.0-11.0-288.0","","","","","","false","","","","","","","","446.80000001192093","","50.69999998807907","","2","1","arrowright","1","arrowleft","[0.85,0.15,0.675,0.325]","","",""
"sailing-trial","324","1172830","0.0-11.0-289.0","","","","","","false","","","","","","","","null","","707.3000000119209","","3","0","null","null","arrowup","[0.85,0.15,0.675,0.325]","","",""
"sailing-trial","325","1176162","0.0-11.0-290.0","","","","","","false","","","","","","","","534","","96.09999996423721","","2","1","arrowright","1","arrowleft","[0.85,0.15,0.675,0.325]","","",""
"sailing-trial","326","1177278","0.0-11.0-291.0","","","","","","false","","","","","","","","null","","2.800000011920929","","1","0","null","null","arrowup","[0.85,0.15,0.675,0.325]","","",""
"sailing-trial","327","1179790","0.0-11.0-292.0","","","","","","false","","","","","","","","314.89999997615814","","6.300000011920929","","2","0","arrowright","1","arrowleft","[0.85,0.15,0.675,0.325]","","",""
"sailing-trial","328","1181950","0.0-11.0-293.0","","","","","","false","","","","","","","","null","","892.9000000357628","","3","0","null","null","arrowup","[0.85,0.15,0.675,0.325]","","",""
"sailing-trial","329","1185295","0.0-11.0-294.0","","","","","","false","","","","","","","","646.5","","95.29999995231628","","2","1","arrowright","1","arrowleft","[0.85,0.15,0.675,0.325]","","",""
"sailing-trial","330","1187212","0.0-11.0-295.0","","","","","","false","","","","","","","","null","","389.10000002384186","","0","1","null","null","arrowup","[0.85,0.15,0.675,0.325]","","",""
"sailing-trial","331","1190295","0.0-11.0-296.0","","","","","","false","","","","","","","","384.10000002384186","","127.79999995231628","","2","1","arrowright","1","arrowleft","[0.85,0.15,0.675,0.325]","","",""
"sailing-trial","332","1192711","0.0-11.0-297.0","","","","","","false","","","","","","","","null","","773.1999999880791","","1","1","null","null","arrowup","[0.85,0.15,0.675,0.325]","","",""
"sailing-trial","333","1195535","0.0-11.0-298.0","","","","","","false","","","","","","","","461.19999998807907","","152.30000001192093","","2","0","arrowright","1","arrowleft","[0.15,0.85,0.325,0.675]","","",""
"sailing-trial","334","1197911","0.0-11.0-299.0","","","","","","false","","","","","","","","null","","812.8000000119209","","3","1","null","null","arrowup","[0.15,0.85,0.325,0.675]","","",""
"sailing-trial","335","1200734","0.0-11.0-300.0","","","","","","false","","","","","","","","477.2999999523163","","136","","2","0","arrowright","1","arrowleft","[0.15,0.85,0.325,0.675]","","",""
"sailing-trial","336","1202646","0.0-11.0-301.0","","","","","","false","","","","","","","","null","","894.6999999880791","","2","0","null","null","arrowup","[0.15,0.85,0.325,0.675]","","",""
"sailing-trial","337","1205961","0.0-11.0-302.0","","","","","","false","","","","","","","","397.39999997615814","","286.19999998807907","","1","1","arrowleft","0","arrowright","[0.15,0.85,0.325,0.675]","","",""
"sailing-trial","338","1208344","0.0-11.0-303.0","","","","","","false","","","","","","","","null","","867.1999999880791","","3","1","null","null","arrowup","[0.15,0.85,0.325,0.675]","","",""
"sailing-trial","339","1211627","0.0-11.0-304.0","","","","","","false","","","","","","","","573.4000000357628","","180.9000000357628","","1","1","arrowleft","0","arrowright","[0.15,0.85,0.325,0.675]","","",""
"sailing-trial","340","1213646","0.0-11.0-305.0","","","","","","false","","","","","","","","null","","928.7000000476837","","1","0","null","null","arrowup","[0.15,0.85,0.325,0.675]","","",""
"sailing-trial","341","1216876","0.0-11.0-306.0","","","","","","false","","","","","","","","357.19999998807907","","199.5999999642372","","1","1","arrowleft","0","arrowright","[0.15,0.85,0.325,0.675]","","",""
"sailing-trial","342","1219326","0.0-11.0-307.0","","","","","","false","","","","","","","","null","","775.3000000119209","","3","1","null","null","arrowup","[0.15,0.85,0.325,0.675]","","",""
"sailing-trial","343","1221790","0.0-11.0-308.0","","","","","","false","","","","","","","","6.199999988079071","","163.5999999642372","","1","0","arrowleft","0","arrowright","[0.15,0.85,0.325,0.675]","","",""
"sailing-trial","344","1224293","0.0-11.0-309.0","","","","","","false","","","","","","","","null","","846.0999999642372","","2","1","null","null","arrowup","[0.15,0.85,0.325,0.675]","","",""
"sailing-trial","345","1227526","0.0-11.0-310.0","","","","","","false","","","","","","","","411.89999997615814","","172.69999998807907","","1","1","arrowleft","0","arrowright","[0.15,0.85,0.325,0.675]","","",""
"sailing-trial","346","1229709","0.0-11.0-311.0","","","","","","false","","","","","","","","null","","670","","3","1","null","null","arrowup","[0.15,0.85,0.325,0.675]","","",""
"sailing-trial","347","1232151","0.0-11.0-312.0","","","","","","false","","","","","","","","118.60000002384186","","119.70000004768372","","1","0","arrowleft","0","arrowright","[0.15,0.85,0.325,0.675]","","",""
"sailing-trial","348","1234425","0.0-11.0-313.0","","","","","","false","","","","","","","","null","","685.3000000119209","","3","1","null","null","arrowup","[0.15,0.85,0.325,0.675]","","",""
"sailing-trial","349","1237070","0.0-11.0-314.0","","","","","","false","","","","","","","","298.2999999523163","","28.100000023841858","","3","0","arrowright","1","arrowright","[0.15,0.85,0.325,0.675]","","",""
"sailing-trial","350","1239015","0.0-11.0-315.0","","","","","","false","","","","","","","","null","","892.9000000357628","","0","0","null","null","arrowup","[0.15,0.85,0.325,0.675]","","",""
"sailing-trial","351","1242159","0.0-11.0-316.0","","","","","","false","","","","","","","","397.30000001192093","","17.69999998807907","","3","1","arrowright","1","arrowright","[0.325,0.675,0.15,0.85]","","",""
"sailing-trial","352","1244592","0.0-11.0-317.0","","","","","","false","","","","","","","","null","","821.6000000238419","","2","1","null","null","arrowup","[0.325,0.675,0.15,0.85]","","",""
"sailing-trial","353","1247776","0.0-11.0-318.0","","","","","","false","","","","","","","","204","","193.69999998807907","","3","1","arrowright","1","arrowright","[0.325,0.675,0.15,0.85]","","",""
"sailing-trial","354","1249839","0.0-11.0-319.0","","","","","","false","","","","","","","","null","","1043.5","","3","0","null","null","arrowup","[0.325,0.675,0.15,0.85]","","",""
"sailing-trial","355","1252926","0.0-11.0-320.0","","","","","","false","","","","","","","","237.10000002384186","","54.5","","3","1","arrowright","1","arrowright","[0.325,0.675,0.15,0.85]","","",""
"sailing-trial","356","1254478","0.0-11.0-321.0","","","","","","false","","","","","","","","null","","485.5999999642372","","2","0","null","null","arrowup","[0.325,0.675,0.15,0.85]","","",""
"sailing-trial","357","1257108","0.0-11.0-322.0","","","","","","false","","","","","","","","24.100000023841858","","30.100000023841858","","3","1","arrowright","1","arrowright","[0.325,0.675,0.15,0.85]","","",""
"sailing-trial","358","1258547","0.0-11.0-323.0","","","","","","false","","","","","","","","null","","399.19999998807907","","0","0","null","null","arrowup","[0.325,0.675,0.15,0.85]","","",""
"sailing-trial","359","1261357","0.0-11.0-324.0","","","","","","false","","","","","","","","160.30000001192093","","93.5","","3","1","arrowright","1","arrowright","[0.325,0.675,0.15,0.85]","","",""
"sailing-trial","360","1263107","0.0-11.0-325.0","","","","","","false","","","","","","","","null","","199","","3","1","null","null","arrowup","[0.325,0.675,0.15,0.85]","","",""
"sailing-trial","361","1265991","0.0-11.0-326.0","","","","","","false","","","","","","","","128.69999998807907","","137.5","","3","1","arrowright","1","arrowright","[0.325,0.675,0.15,0.85]","","",""
"sailing-trial","362","1267906","0.0-11.0-327.0","","","","","","false","","","","","","","","null","","253.10000002384186","","1","1","null","null","arrowup","[0.325,0.675,0.15,0.85]","","",""
"sailing-trial","363","1270690","0.0-11.0-328.0","","","","","","false","","","","","","","","33.5","","93.80000001192093","","3","1","arrowright","1","arrowright","[0.325,0.675,0.15,0.85]","","",""
"sailing-trial","364","1273074","0.0-11.0-329.0","","","","","","false","","","","","","","","null","","641.2999999523163","","3","1","null","null","arrowup","[0.325,0.675,0.15,0.85]","","",""
"sailing-trial","365","1276107","0.0-11.0-330.0","","","","","","false","","","","","","","","178.0999999642372","","216.60000002384186","","3","1","arrowright","1","arrowright","[0.325,0.675,0.15,0.85]","","",""
"sailing-trial","366","1277973","0.0-11.0-331.0","","","","","","false","","","","","","","","null","","136.70000004768372","","1","1","null","null","arrowup","[0.325,0.675,0.15,0.85]","","",""
"sailing-trial","367","1280973","0.0-11.0-332.0","","","","","","false","","","","","","","","150.89999997615814","","54.700000047683716","","3","1","arrowright","1","arrowright","[0.15,0.85,0.325,0.675]","","",""
"sailing-trial","368","1282918","0.0-11.0-333.0","","","","","","false","","","","","","","","null","","765.8999999761581","","0","0","null","null","arrowup","[0.15,0.85,0.325,0.675]","","",""
"sailing-trial","369","1285470","0.0-11.0-334.0","","","","","","false","","","","","","","","21","","260.80000001192093","","3","0","arrowright","1","arrowright","[0.15,0.85,0.325,0.675]","","",""
"sailing-trial","370","1286622","0.0-11.0-335.0","","","","","","false","","","","","","","","null","","69.89999997615814","","2","0","null","null","arrowup","[0.15,0.85,0.325,0.675]","","",""
"sailing-trial","371","1290006","0.0-11.0-336.0","","","","","","false","","","","","","","","301.69999998807907","","406.80000001192093","","3","1","arrowright","1","arrowright","[0.15,0.85,0.325,0.675]","","",""
"sailing-trial","372","1291839","0.0-11.0-337.0","","","","","","false","","","","","","","","null","","701.5","","3","0","null","null","arrowup","[0.15,0.85,0.325,0.675]","","",""
"sailing-trial","373","1294822","0.0-11.0-338.0","","","","","","false","","","","","","","","332.9000000357628","","36.69999998807907","","3","1","arrowright","1","arrowright","[0.15,0.85,0.325,0.675]","","",""
"sailing-trial","374","1296358","0.0-11.0-339.0","","","","","","false","","","","","","","","null","","421.2000000476837","","0","0","null","null","arrowup","[0.15,0.85,0.325,0.675]","","",""
"sailing-trial","375","1299206","0.0-11.0-340.0","","","","","","false","","","","","","","","269.30000001192093","","18","","3","1","arrowright","1","arrowright","[0.15,0.85,0.325,0.675]","","",""
"sailing-trial","376","1300375","0.0-11.0-341.0","","","","","","false","","","","","","","","null","","118.40000003576279","","1","0","null","null","arrowup","[0.15,0.85,0.325,0.675]","","",""
"sailing-trial","377","1303555","0.0-11.0-342.0","","","","","","false","","","","","","","","380.80000001192093","","62.40000003576279","","3","1","arrowright","1","arrowright","[0.15,0.85,0.325,0.675]","","",""
"sailing-trial","378","1304845","0.0-11.0-343.0","","","","","","false","","","","","","","","null","","200.9000000357628","","3","0","null","null","arrowup","[0.15,0.85,0.325,0.675]","","",""
"sailing-trial","379","1307822","0.0-11.0-344.0","","","","","","false","","","","","","","","174.69999998807907","","3","","3","1","arrowright","1","arrowright","[0.15,0.85,0.325,0.675]","","",""
"sailing-trial","380","1309722","0.0-11.0-345.0","","","","","","false","","","","","","","","null","","325.7999999523163","","1","1","null","null","arrowup","[0.15,0.85,0.325,0.675]","","",""
"sailing-trial","381","1312006","0.0-11.0-346.0","","","","","","false","","","","","","","","220.0999999642372","","23.099999964237213","","3","0","arrowright","1","arrowright","[0.15,0.85,0.325,0.675]","","",""
"sailing-trial","382","1313656","0.0-11.0-347.0","","","","","","false","","","","","","","","null","","53.69999998807907","","1","1","null","null","arrowup","[0.15,0.85,0.325,0.675]","","",""
"sailing-trial","383","1316655","0.0-11.0-348.0","","","","","","false","","","","","","","","227.80000001192093","","121.19999998807907","","3","1","arrowright","1","arrowright","[0.325,0.675,0.15,0.85]","","",""
"sailing-trial","384","1318554","0.0-11.0-349.0","","","","","","false","","","","","","","","null","","341.0999999642372","","3","1","null","null","arrowup","[0.325,0.675,0.15,0.85]","","",""
"sailing-trial","385","1321838","0.0-11.0-350.0","","","","","","false","","","","","","","","282.89999997615814","","211.5999999642372","","3","1","arrowright","1","arrowright","[0.325,0.675,0.15,0.85]","","",""
"sailing-trial","386","1324437","0.0-11.0-351.0","","","","","","false","","","","","","","","null","","997.9000000357628","","0","1","null","null","arrowup","[0.325,0.675,0.15,0.85]","","",""
"sailing-trial","387","1327355","0.0-11.0-352.0","","","","","","false","","","","","","","","326.60000002384186","","63","","3","1","arrowright","1","arrowright","[0.325,0.675,0.15,0.85]","","",""
"sailing-trial","388","1328790","0.0-11.0-353.0","","","","","","false","","","","","","","","null","","185.69999998807907","","2","0","null","null","arrowup","[0.325,0.675,0.15,0.85]","","",""
"sailing-trial","389","1331736","0.0-11.0-354.0","","","","","","false","","","","","","","","302.5","","25.700000047683716","","3","1","arrowright","1","arrowright","[0.325,0.675,0.15,0.85]","","",""
"sailing-trial","390","1333887","0.0-11.0-355.0","","","","","","false","","","","","","","","null","","534.3999999761581","","2","1","null","null","arrowup","[0.325,0.675,0.15,0.85]","","",""
"sailing-trial","391","1336637","0.0-11.0-356.0","","","","","","false","","","","","","","","53.5","","48.10000002384186","","3","1","arrowright","1","arrowright","[0.325,0.675,0.15,0.85]","","",""
"sailing-trial","392","1338358","0.0-11.0-357.0","","","","","","false","","","","","","","","null","","462.39999997615814","","2","0","null","null","arrowup","[0.325,0.675,0.15,0.85]","","",""
"sailing-trial","393","1341187","0.0-11.0-358.0","","","","","","false","","","","","","","","237.80000001192093","","54.200000047683716","","3","1","arrowright","1","arrowright","[0.325,0.675,0.15,0.85]","","",""
"sailing-trial","394","1343920","0.0-11.0-359.0","","","","","","false","","","","","","","","null","","504.80000001192093","","0","1","null","null","arrowup","[0.325,0.675,0.15,0.85]","","",""
"sailing-trial","395","1346886","0.0-11.0-360.0","","","","","","false","","","","","","","","205.10000002384186","","202.10000002384186","","3","1","arrowright","1","arrowright","[0.325,0.675,0.15,0.85]","","",""
"sailing-trial","396","1349271","0.0-11.0-361.0","","","","","","false","","","","","","","","null","","829.3000000119209","","1","1","null","null","arrowup","[0.325,0.675,0.15,0.85]","","",""
"sailing-trial","397","1353022","0.0-11.0-362.0","","","","","","false","","","","","","","","958.1000000238419","","253.60000002384186","","3","0","arrowright","1","arrowright","[0.325,0.675,0.15,0.85]","","",""
"sailing-trial","398","1355287","0.0-11.0-363.0","","","","","","false","","","","","","","","null","","678","","1","1","null","null","arrowup","[0.325,0.675,0.15,0.85]","","",""
"sailing-trial","399","1358035","0.0-11.0-364.0","","","","","","false","","","","","","","","108.79999995231628","","38.60000002384186","","3","1","arrowright","1","arrowright","[0.15,0.85,0.325,0.675]","","",""
"sailing-trial","400","1361903","0.0-11.0-365.0","","","","","","false","","","","","","","","null","","2199.5","","1","1","null","null","arrowup","[0.15,0.85,0.325,0.675]","","",""
"sailing-trial","401","1365201","0.0-11.0-366.0","","","","","","false","","","","","","","","595.8999999761581","","43.30000001192093","","3","1","arrowright","1","arrowright","[0.15,0.85,0.325,0.675]","","",""
"sailing-trial","402","1368885","0.0-11.0-367.0","","","","","","false","","","","","","","","null","","1498.5","","3","1","null","null","arrowup","[0.15,0.85,0.325,0.675]","","",""
"sailing-trial","403","1372235","0.0-11.0-368.0","","","","","","false","","","","","","","","637.5999999642372","","146.5999999642372","","3","1","arrowright","1","arrowright","[0.15,0.85,0.325,0.675]","","",""
"sailing-trial","404","1374501","0.0-11.0-369.0","","","","","","false","","","","","","","","null","","713.2999999523163","","1","1","null","null","arrowup","[0.15,0.85,0.325,0.675]","","",""
"sailing-trial","405","1377401","0.0-11.0-370.0","","","","","","false","","","","","","","","141.60000002384186","","101.59999996423721","","3","1","arrowright","1","arrowright","[0.15,0.85,0.325,0.675]","","",""
"sailing-trial","406","1379982","0.0-11.0-371.0","","","","","","false","","","","","","","","null","","793.8000000119209","","0","1","null","null","arrowup","[0.15,0.85,0.325,0.675]","","",""
"sailing-trial","407","1383117","0.0-11.0-372.0","","","","","","false","","","","","","","","253.80000001192093","","112","","3","1","arrowright","1","arrowright","[0.15,0.85,0.325,0.675]","","",""
"sailing-trial","408","1385165","0.0-11.0-373.0","","","","","","false","","","","","","","","null","","900.9000000357628","","2","0","null","null","arrowup","[0.15,0.85,0.325,0.675]","","",""
"sailing-trial","409","1388118","0.0-11.0-374.0","","","","","","false","","","","","","","","174.19999998807907","","26.099999964237213","","3","1","arrowright","1","arrowright","[0.15,0.85,0.325,0.675]","","",""
"sailing-trial","410","1389445","0.0-11.0-375.0","","","","","","false","","","","","","","","null","","61","","0","0","null","null","arrowup","[0.15,0.85,0.325,0.675]","","",""
"sailing-trial","411","1392367","0.0-11.0-376.0","","","","","","false","","","","","","","","100.30000001192093","","202.19999998807907","","3","1","arrowright","1","arrowright","[0.15,0.85,0.325,0.675]","","",""
"sailing-trial","412","1393557","0.0-11.0-377.0","","","","","","false","","","","","","","","null","","107.40000003576279","","0","0","null","null","arrowup","[0.15,0.85,0.325,0.675]","","",""
"sailing-trial","413","1396366","0.0-11.0-378.0","","","","","","false","","","","","","","","166","","35.90000003576279","","3","1","arrowright","1","arrowright","[0.15,0.85,0.325,0.675]","","",""
"sailing-trial","414","1397950","0.0-11.0-379.0","","","","","","false","","","","","","","","null","","44","","1","1","null","null","arrowup","[0.15,0.85,0.325,0.675]","","",""
"sailing-trial","415","1400599","0.0-11.0-380.0","","","","","","false","","","","","","","","55.19999998807907","","64.79999995231628","","3","1","arrowright","1","arrowright","[0.15,0.85,0.325,0.675]","","",""
"sailing-trial","416","1401997","0.0-11.0-381.0","","","","","","false","","","","","","","","null","","202.5","","0","0","null","null","arrowup","[0.15,0.85,0.325,0.675]","","",""
"sailing-trial","417","1404445","0.0-11.0-382.0","","","","","","false","","","","","","","","117.40000003576279","","139.60000002384186","","3","0","arrowright","1","arrowright","[0.325,0.675,0.15,0.85]","","",""
"sailing-trial","418","1406126","0.0-11.0-383.0","","","","","","false","","","","","","","","null","","612.8000000119209","","0","0","null","null","arrowup","[0.325,0.675,0.15,0.85]","","",""
"sailing-trial","419","1409249","0.0-11.0-384.0","","","","","","false","","","","","","","","468.89999997615814","","97.90000003576279","","3","1","arrowright","1","arrowright","[0.325,0.675,0.15,0.85]","","",""
"sailing-trial","420","1411051","0.0-11.0-385.0","","","","","","false","","","","","","","","null","","153.60000002384186","","1","1","null","null","arrowup","[0.325,0.675,0.15,0.85]","","",""
"sailing-trial","421","1413966","0.0-11.0-386.0","","","","","","false","","","","","","","","169.30000001192093","","56.5","","3","1","arrowright","1","arrowright","[0.325,0.675,0.15,0.85]","","",""
"sailing-trial","422","1415834","0.0-11.0-387.0","","","","","","false","","","","","","","","null","","341.0999999642372","","1","1","null","null","arrowup","[0.325,0.675,0.15,0.85]","","",""
"sailing-trial","423","1418749","0.0-11.0-388.0","","","","","","false","","","","","","","","201.80000001192093","","96.89999997615814","","3","1","arrowright","1","arrowright","[0.325,0.675,0.15,0.85]","","",""
"sailing-trial","424","1420094","0.0-11.0-389.0","","","","","","false","","","","","","","","null","","70","","2","0","null","null","arrowup","[0.325,0.675,0.15,0.85]","","",""
"sailing-trial","425","1422882","0.0-11.0-390.0","","","","","","false","","","","","","","","141.10000002384186","","120.30000001192093","","3","1","arrowright","1","arrowright","[0.325,0.675,0.15,0.85]","","",""
"sailing-trial","426","1423958","0.0-11.0-391.0","","","","","","false","","","","","","","","null","","16.799999952316284","","2","0","null","null","arrowup","[0.325,0.675,0.15,0.85]","","",""
"sailing-trial","427","1426574","0.0-11.0-392.0","","","","","","false","","","","","","","","221.29999995231628","","202.60000002384186","","3","0","arrowright","1","arrowright","[0.325,0.675,0.15,0.85]","","",""
"sailing-trial","428","1428450","0.0-11.0-393.0","","","","","","false","","","","","","","","null","","140.89999997615814","","1","1","null","null","arrowup","[0.325,0.675,0.15,0.85]","","",""
"sailing-trial","429","1431300","0.0-11.0-394.0","","","","","","false","","","","","","","","41.30000001192093","","22.200000047683716","","3","1","arrowright","1","arrowright","[0.325,0.675,0.15,0.85]","","",""
"sailing-trial","430","1432455","0.0-11.0-395.0","","","","","","false","","","","","","","","null","","87.70000004768372","","2","0","null","null","arrowup","[0.325,0.675,0.15,0.85]","","",""
"sailing-trial","431","1435297","0.0-11.0-396.0","","","","","","false","","","","","","","","182.19999998807907","","96.5","","3","1","arrowright","1","arrowright","[0.325,0.675,0.15,0.85]","","",""
"sailing-trial","432","1436381","0.0-11.0-397.0","","","","","","false","","","","","","","","null","","43.59999996423721","","3","0","null","null","arrowup","[0.325,0.675,0.15,0.85]","","",""
"sailing-trial","433","1439266","0.0-11.0-398.0","","","","","","false","","","","","","","","254.39999997615814","","49.40000003576279","","3","1","arrowright","1","arrowright","[0.325,0.675,0.15,0.85]","","",""
"sailing-trial","434","1440661","0.0-11.0-399.0","","","","","","false","","","","","","","","null","","129.60000002384186","","2","0","null","null","arrowup","[0.325,0.675,0.15,0.85]","","",""
"instructions","435","1440938","0.0-12.0","","","","","","","","","","276.0999999642372","","","","","","","","","","","","","","","","[{""page_index"":0,""viewing_time"":275.80000001192093}]"
"survey-debrief","436","1480671","0.0-13.0","","","","","","","","","","39730.80000001192","","","","","","","","","","","","","","{""difficulty"":""3"",""fun"":""2"",""clarity"":""5"",""strategy"":""no"",""feedback"":""no""}","",""
