"trial_type","trial_index","time_elapsed","internal_node_id","value","metadata","success","timeout","failed_images","failed_audio","failed_video","browser_interaction","low_quality","rt","stimulus","response","button_pressed","island_rt","island_response","boat_rt","boat_response","boat","reward","island_key","island","boat_key","reward_probabilities","responses","num_errors","view_history"
"pavlovia","0","10","0.0-0.0","","","","","","","","","","","","","","","","","","","","","","","","","",""
"call-function","1","12","0.0-1.0","","{""task_version"":""sailing_part1_v1"",""task_condition"":""good"",""boats"":[""B"",""C"",""A"",""D""],""boats_demo"":[""H"",""F"",""E"",""G""],""islands"":[""B"",""A""],""subject_id"":""14586"",""age"":""9"",""gender"":""Male""}","","","","","","","","","","","","","","","","","","","","","","","",""
"preload","2","21381","0.0-2.0","","","true","false","[]","[]","[]","[{""event"":""fullscreenenter"",""trial"":3,""time"":44747}]","false","","","","","","","","","","","","","","","","",""
"fullscreen","3","45683","0.0-3.0","","","true","","","","","","","","","","","","","","","","","","","","","","",""
"audio-keyboard-response","4","47655","0.0-4.0-0.0","","","","","","","","","","1610.6666666666667","audio/beep_loop.wav"," ","","","","","","","","","","","","","",""
"audio-test","5","50086","0.0-4.0-1.0","","","","","","","","","","null","audio/turtle.mp3","","3","","","","","","","","","","","","",""
"audio-test","6","52020","0.0-4.0-2.0","","","","","","","","","","null","audio/shark.mp3","","2","","","","","","","","","","","","",""
"sailing-instructions","7","83890","0.0-5.0-0.0-0.0","","","","","","","","","","","","","","null","null","null","null","null","null","","","","","","",""
"sailing-trial","8","87726","0.0-5.0-0.0-1.0-0.0","","","","false","","","","","","","","","","2721.5","","null","","null","null","arrowleft","0","null","null","","",""
"sailing-trial","9","90686","0.0-5.0-0.0-1.0-1.0","","","","false","","","","","","","","","","1825.0999999999767","","null","","null","null","arrowright","1","null","null","","",""
"sailing-trial","10","92800","0.0-5.0-0.0-1.0-2.0","","","","false","","","","","","","","","","989.5","","null","","null","null","arrowleft","0","null","null","","",""
"sailing-instructions","11","136066","0.0-5.0-0.0-2.0","","","","","","","","","","","","","","null","null","null","null","0","null","","","","","","",""
"sailing-trial","12","144323","0.0-5.0-0.0-3.0-0.0","","","","false","","","","","","","","","","null","","4376","","2","1","null","null","arrowleft","[1,1,1,1]","","",""
"sailing-trial","13","151395","0.0-5.0-0.0-3.0-1.0","","","","false","","","","","","","","","","null","","2218.6999999999534","","3","1","null","null","arrowright","[1,1,1,1]","","",""
"sailing-trial","14","156042","0.0-5.0-0.0-3.0-2.0","","","","false","","","","","","","","","","null","","1243.4000000000233","","2","0","null","null","arrowleft","[0,0,0,0]","","",""
"sailing-instructions","15","163185","0.0-5.0-0.0-4.0","","","","","","","","","","","","","","null","null","null","null","null","null","","","","","","",""
"sailing-comprehension","16","193715","0.0-5.0-0.0-5.0","","","","","","","","","","17176.70000000001","","","","","","","","","","","","","","[""true"",""false"",""false"",""true""]","1",""
"sailing-instructions","17","222884","0.0-5.0-0.1-0.1","","","","","","","","","","","","","","null","null","null","null","null","null","","","","","","",""
"sailing-trial","18","225672","0.0-5.0-0.1-1.1-0.1","","","","false","","","","","","","","","","1672.5","","null","","null","null","arrowleft","0","null","null","","",""
"sailing-trial","19","228418","0.0-5.0-0.1-1.1-1.1","","","","false","","","","","","","","","","1621.100000000035","","null","","null","null","arrowright","1","null","null","","",""
"sailing-trial","20","230351","0.0-5.0-0.1-1.1-2.1","","","","false","","","","","","","","","","793.9000000000233","","null","","null","null","arrowleft","0","null","null","","",""
"sailing-instructions","21","276874","0.0-5.0-0.1-2.1","","","","","","","","","","","","","","null","null","null","null","0","null","","","","","","",""
"sailing-trial","22","284282","0.0-5.0-0.1-3.1-0.1","","","","false","","","","","","","","","","null","","3330.5","","2","1","null","null","arrowleft","[1,1,1,1]","","",""
"sailing-trial","23","287962","0.0-5.0-0.1-3.1-1.1","","","","false","","","","","","","","","","null","","362.5","","3","1","null","null","arrowright","[1,1,1,1]","","",""
"sailing-trial","24","290845","0.0-5.0-0.1-3.1-2.1","","","","false","","","","","","","","","","null","","140.09999999997672","","3","0","null","null","arrowright","[0,0,0,0]","","",""
"sailing-instructions","25","298918","0.0-5.0-0.1-4.1","","","","","","","","","","","","","","null","null","null","null","null","null","","","","","","",""
"sailing-comprehension","26","316108","0.0-5.0-0.1-5.1","","","","","","","","","","13919.600000000093","","","","","","","","","","","","","","[""true"",""true"",""false"",""true""]","0",""
"sailing-instructions","27","395349","0.0-6.0-0.0-0.0","","","","","","","","","","","","","","null","null","null","null","null","null","","","","","","",""
"sailing-comprehension","28","413819","0.0-6.0-0.0-1.0","","","","","","","","","","16397.899999999907","","","","","","","","","","","","","","[""true"",""false"",""true""]","0",""
"sailing-instructions","29","428037","0.0-7.0-0.0-0.0","","","","","","","","","","","","","","null","null","null","null","null","null","","","","","","",""
"sailing-trial","30","434448","0.0-7.0-0.0-1.0-0.0","","","","false","","","","","","","","","","null","","3550.5","","0","0","null","null","arrowup","[0.2,0.8,0.2,0.8]","","",""
"sailing-trial","31","437797","0.0-7.0-0.0-1.0-1.0","","","","false","","","","","","","","","","null","","1473.2999999999302","","1","0","null","null","arrowup","[0.2,0.8,0.2,0.8]","","",""
"sailing-trial","32","441702","0.0-7.0-0.0-1.0-2.0","","","","false","","","","","","","","","","null","","1010.2999999999302","","2","0","null","null","arrowup","[0.2,0.8,0.2,0.8]","","",""
"sailing-trial","33","445208","0.0-7.0-0.0-1.0-3.0","","","","false","","","","","","","","","","null","","948.5","","3","1","null","null","arrowup","[0.2,0.8,0.2,0.8]","","",""
"sailing-comprehension","34","453715","0.0-7.0-0.0-2.0","","","","","","","","","","7382.399999999907","","","","","","","","","","","","","","[""true""]","1",""
"sailing-instructions","35","469465","0.0-7.0-0.1-0.1","","","","","","","","","","","","","","null","null","null","null","null","null","","","","","","",""
"sailing-trial","36","472064","0.0-7.0-0.1-1.1-0.1","","","","false","","","","","","","","","","null","","826.1999999999534","","0","0","null","null","arrowup","[0.2,0.8,0.2,0.8]","","",""
"sailing-trial","37","476260","0.0-7.0-0.1-1.1-1.1","","","","false","","","","","","","","","","null","","1392.5","","1","1","null","null","arrowup","[0.2,0.8,0.2,0.8]","","",""
"sailing-trial","38","478262","0.0-7.0-0.1-1.1-2.1","","","","false","","","","","","","","","","null","","574","","2","0","null","null","arrowup","[0.2,0.8,0.2,0.8]","","",""
"sailing-trial","39","481462","0.0-7.0-0.1-1.1-3.1","","","","false","","","","","","","","","","null","","843.2999999999302","","3","0","null","null","arrowup","[0.2,0.8,0.2,0.8]","","",""
"sailing-comprehension","40","486160","0.0-7.0-0.1-2.1","","","","","","","","","","3676.6999999999534","","","","","","","","","","","","","","[""false""]","0",""
"sailing-instructions","41","496910","0.0-8.0-0.0-0.0","","","","","","","","","","","","","","null","null","null","null","null","null","","","","","","",""
"sailing-comprehension","42","501613","0.0-8.0-0.0-1.0","","","","","","","","","","3751.79999999993","","","","","","","","","","","","","","[""true""]","0",""
"sailing-instructions","43","534172","0.0-9.0-0.0-0.0","","","","","","","","","","","","","","null","null","null","null","null","null","","","","","","",""
"sailing-trial","44","542711","0.0-9.0-0.0-1.0-0.0","","","","false","","","","","","","","","","2829.5","","1745.8000000000466","","1","1","arrowleft","0","arrowright","[0.2,0.8,0.2,0.8]","","",""
"sailing-trial","45","548325","0.0-9.0-0.0-1.0-1.0","","","","false","","","","","","","","","","1036.6999999999534","","1340.1999999999534","","3","1","arrowright","1","arrowright","[0.2,0.8,0.2,0.8]","","",""
"sailing-trial","46","552154","0.0-9.0-0.0-1.0-2.0","","","","false","","","","","","","","","","null","","1604.9000000000233","","0","1","null","null","arrowup","[0.2,0.8,0.2,0.8]","","",""
"sailing-trial","47","557200","0.0-9.0-0.0-1.0-3.0","","","","false","","","","","","","","","","1513.1000000000931","","255.90000000002328","","1","1","arrowleft","0","arrowright","[0.2,0.8,0.2,0.8]","","",""
"sailing-trial","48","560695","0.0-9.0-0.0-1.0-4.0","","","","false","","","","","","","","","","null","","1367.6999999999534","","3","1","null","null","arrowup","[0.2,0.8,0.2,0.8]","","",""
"sailing-trial","49","564991","0.0-9.0-0.0-1.0-5.0","","","","false","","","","","","","","","","1133.7000000000698","","394.19999999995343","","2","0","arrowright","1","arrowleft","[0.2,0.8,0.2,0.8]","","",""
"sailing-instructions","50","602135","0.0-10.0","","","","","","","","","","","","","","null","null","null","null","null","null","","","","","","",""
"sailing-trial","51","607031","0.0-11.0-0.0","","","","false","","","","","","","","","","1309.7999999999302","","214.5","","2","0","arrowright","1","arrowleft","[0.675,0.325,0.15,0.85]","","",""
"sailing-trial","52","610235","0.0-11.0-1.0","","","","false","","","","","","","","","","null","","1328.3000000000466","","1","0","null","null","arrowup","[0.675,0.325,0.15,0.85]","","",""
"sailing-trial","53","614158","0.0-11.0-2.0","","","","false","","","","","","","","","","536.1999999999534","","162","","3","1","arrowright","1","arrowright","[0.675,0.325,0.15,0.85]","","",""
"sailing-trial","54","618239","0.0-11.0-3.0","","","","false","","","","","","","","","","null","","1194.7999999999302","","0","1","null","null","arrowup","[0.675,0.325,0.15,0.85]","","",""
"sailing-trial","55","622672","0.0-11.0-4.0","","","","false","","","","","","","","","","922.2999999999302","","358.4000000000233","","1","0","arrowleft","0","arrowright","[0.675,0.325,0.15,0.85]","","",""
"sailing-trial","56","626197","0.0-11.0-5.0","","","","false","","","","","","","","","","null","","907.0999999999767","","2","0","null","null","arrowup","[0.675,0.325,0.15,0.85]","","",""
"sailing-trial","57","630812","0.0-11.0-6.0","","","","false","","","","","","","","","","1128.2999999999302","","505","","1","1","arrowleft","0","arrowright","[0.675,0.325,0.15,0.85]","","",""
"sailing-trial","58","634024","0.0-11.0-7.0","","","","false","","","","","","","","","","null","","1059.3000000000466","","1","1","null","null","arrowup","[0.675,0.325,0.15,0.85]","","",""
"sailing-trial","59","639420","0.0-11.0-8.0","","","","false","","","","","","","","","","846","","1214.9000000000233","","0","1","arrowleft","0","arrowleft","[0.675,0.325,0.15,0.85]","","",""
"sailing-trial","60","642567","0.0-11.0-9.0","","","","false","","","","","","","","","","null","","972.6000000000931","","3","1","null","null","arrowup","[0.675,0.325,0.15,0.85]","","",""
"sailing-trial","61","647562","0.0-11.0-10.0","","","","false","","","","","","","","","","519.8000000000466","","809.7999999999302","","3","1","arrowright","1","arrowright","[0.675,0.325,0.15,0.85]","","",""
"sailing-trial","62","651342","0.0-11.0-11.0","","","","false","","","","","","","","","","null","","1039.6999999999534","","3","1","null","null","arrowup","[0.675,0.325,0.15,0.85]","","",""
"sailing-trial","63","654936","0.0-11.0-12.0","","","","false","","","","","","","","","","655.5","","146.79999999993015","","1","0","arrowleft","0","arrowright","[0.675,0.325,0.15,0.85]","","",""
"sailing-trial","64","658314","0.0-11.0-13.0","","","","false","","","","","","","","","","null","","960.2999999999302","","3","1","null","null","arrowup","[0.675,0.325,0.15,0.85]","","",""
"sailing-trial","65","662664","0.0-11.0-14.0","","","","false","","","","","","","","","","915.8999999999069","","341.5999999999767","","0","1","arrowleft","0","arrowleft","[0.675,0.325,0.15,0.85]","","",""
"sailing-trial","66","666329","0.0-11.0-15.0","","","","false","","","","","","","","","","null","","882.5","","2","0","null","null","arrowup","[0.675,0.325,0.15,0.85]","","",""
"sailing-trial","67","670921","0.0-11.0-16.0","","","","false","","","","","","","","","","760.9000000000233","","718.2999999999302","","3","1","arrowright","1","arrowright","[0.675,0.325,0.15,0.85]","","",""
"sailing-trial","68","673579","0.0-11.0-17.0","","","","false","","","","","","","","","","null","","788","","2","0","null","null","arrowup","[0.675,0.325,0.15,0.85]","","",""
"sailing-trial","69","678066","0.0-11.0-18.0","","","","false","","","","","","","","","","645.6000000000931","","572.5999999999767","","1","0","arrowleft","0","arrowright","[0.675,0.325,0.15,0.85]","","",""
"sailing-trial","70","681113","0.0-11.0-19.0","","","","false","","","","","","","","","","null","","942","","1","0","null","null","arrowup","[0.675,0.325,0.15,0.85]","","",""
"sailing-trial","71","685008","0.0-11.0-20.0","","","","false","","","","","","","","","","701.3000000000466","","117.19999999995343","","0","1","arrowleft","0","arrowleft","[0.85,0.15,0.325,0.675]","","",""
"sailing-trial","72","688195","0.0-11.0-21.0","","","","false","","","","","","","","","","null","","902.2000000000698","","3","0","null","null","arrowup","[0.85,0.15,0.325,0.675]","","",""
"sailing-trial","73","693210","0.0-11.0-22.0","","","","false","","","","","","","","","","909.1999999999534","","653","","3","0","arrowright","1","arrowright","[0.85,0.15,0.325,0.675]","","",""
"sailing-trial","74","696363","0.0-11.0-23.0","","","","false","","","","","","","","","","null","","1014.5999999999767","","2","1","null","null","arrowup","[0.85,0.15,0.325,0.675]","","",""
"sailing-trial","75","700331","0.0-11.0-24.0","","","","false","","","","","","","","","","686.6000000000931","","708.3000000000466","","1","0","arrowleft","0","arrowright","[0.85,0.15,0.325,0.675]","","",""
"sailing-trial","76","704175","0.0-11.0-25.0","","","","false","","","","","","","","","","null","","824.3000000000466","","2","0","null","null","arrowup","[0.85,0.15,0.325,0.675]","","",""
"sailing-trial","77","709437","0.0-11.0-26.0","","","","false","","","","","","","","","","1528.3000000000466","","737.6999999999534","","2","0","arrowright","1","arrowleft","[0.85,0.15,0.325,0.675]","","",""
"sailing-trial","78","712500","0.0-11.0-27.0","","","","false","","","","","","","","","","null","","1115.8999999999069","","0","1","null","null","arrowup","[0.85,0.15,0.325,0.675]","","",""
"sailing-trial","79","717992","0.0-11.0-28.0","","","","false","","","","","","","","","","933.9000000000233","","488.0999999999767","","3","0","arrowright","1","arrowright","[0.85,0.15,0.325,0.675]","","",""
"sailing-trial","80","720874","0.0-11.0-29.0","","","","false","","","","","","","","","","null","","897.7000000000698","","2","0","null","null","arrowup","[0.85,0.15,0.325,0.675]","","",""
"sailing-trial","81","725369","0.0-11.0-30.0","","","","false","","","","","","","","","","1325.0999999999767","","302.19999999995343","","1","0","arrowleft","0","arrowright","[0.85,0.15,0.325,0.675]","","",""
"sailing-trial","82","728782","0.0-11.0-31.0","","","","false","","","","","","","","","","null","","710.0999999999767","","2","0","null","null","arrowup","[0.85,0.15,0.325,0.675]","","",""
"sailing-trial","83","732614","0.0-11.0-32.0","","","","false","","","","","","","","","","444.5","","121.69999999995343","","0","1","arrowleft","0","arrowleft","[0.85,0.15,0.325,0.675]","","",""
"sailing-trial","84","735410","0.0-11.0-33.0","","","","false","","","","","","","","","","null","","1163.2000000000698","","1","0","null","null","arrowup","[0.85,0.15,0.325,0.675]","","",""
"sailing-trial","85","740401","0.0-11.0-34.0","","","","false","","","","","","","","","","810.4000000000233","","471.5","","2","1","arrowright","1","arrowleft","[0.85,0.15,0.325,0.675]","","",""
"sailing-trial","86","744984","0.0-11.0-35.0","","","","false","","","","","","","","","","null","","985.8000000000466","","0","1","null","null","arrowup","[0.85,0.15,0.325,0.675]","","",""
"sailing-trial","87","749381","0.0-11.0-36.0","","","","false","","","","","","","","","","1017.9000000000233","","355.79999999993015","","0","1","arrowleft","0","arrowleft","[0.325,0.675,0.85,0.15]","","",""
"sailing-trial","88","752474","0.0-11.0-37.0","","","","false","","","","","","","","","","null","","902.5","","3","0","null","null","arrowup","[0.325,0.675,0.85,0.15]","","",""
"sailing-trial","89","757247","0.0-11.0-38.0","","","","false","","","","","","","","","","1364.6999999999534","","571","","0","0","arrowleft","0","arrowleft","[0.325,0.675,0.85,0.15]","","",""
"sailing-trial","90","760485","0.0-11.0-39.0","","","","false","","","","","","","","","","null","","977","","3","0","null","null","arrowup","[0.325,0.675,0.85,0.15]","","",""
"sailing-trial","91","764532","0.0-11.0-40.0","","","","false","","","","","","","","","","745.3000000000466","","268.29999999981374","","2","1","arrowright","1","arrowleft","[0.325,0.675,0.85,0.15]","","",""
"sailing-trial","92","767249","0.0-11.0-41.0","","","","false","","","","","","","","","","null","","904.9000000001397","","0","0","null","null","arrowup","[0.325,0.675,0.85,0.15]","","",""
"sailing-trial","93","771255","0.0-11.0-42.0","","","","false","","","","","","","","","","400.60000000009313","","37","","1","1","arrowleft","0","arrowright","[0.325,0.675,0.85,0.15]","","",""
"sailing-trial","94","774621","0.0-11.0-43.0","","","","false","","","","","","","","","","null","","788.9000000001397","","3","1","null","null","arrowup","[0.325,0.675,0.85,0.15]","","",""
"sailing-trial","95","778254","0.0-11.0-44.0","","","","false","","","","","","","","","","215.4000000001397","","544.1999999999534","","2","1","arrowright","1","arrowleft","[0.325,0.675,0.85,0.15]","","",""
"sailing-trial","96","781448","0.0-11.0-45.0","","","","false","","","","","","","","","","null","","862.2999999998137","","2","1","null","null","arrowup","[0.325,0.675,0.85,0.15]","","",""
"sailing-trial","97","789496","0.0-11.0-46.0","","","","false","","","","","","","","","","4988","","104.5","","1","0","arrowleft","0","arrowright","[0.325,0.675,0.85,0.15]","","",""
"sailing-trial","98","792901","0.0-11.0-47.0","","","","false","","","","","","","","","","null","","1001.6000000000931","","1","1","null","null","arrowup","[0.325,0.675,0.85,0.15]","","",""
"sailing-trial","99","796516","0.0-11.0-48.0","","","","false","","","","","","","","","","696.1999999999534","","25.800000000046566","","2","1","arrowright","1","arrowleft","[0.325,0.675,0.85,0.15]","","",""
"sailing-trial","100","798999","0.0-11.0-49.0","","","","false","","","","","","","","","","null","","1171.6999999999534","","0","0","null","null","arrowup","[0.325,0.675,0.85,0.15]","","",""
"sailing-trial","101","803185","0.0-11.0-50.0","","","","false","","","","","","","","","","530.3000000000466","","968.3000000000466","","3","0","arrowright","1","arrowright","[0.325,0.675,0.85,0.15]","","",""
"sailing-trial","102","806315","0.0-11.0-51.0","","","","false","","","","","","","","","","null","","1311.3000000000466","","1","0","null","null","arrowup","[0.325,0.675,0.85,0.15]","","",""
"sailing-trial","103","810269","0.0-11.0-52.0","","","","false","","","","","","","","","","718.1999999999534","","104.5999999998603","","1","1","arrowleft","0","arrowright","[0.325,0.675,0.85,0.15]","","",""
"sailing-trial","104","813697","0.0-11.0-53.0","","","","false","","","","","","","","","","null","","892.1999999999534","","2","1","null","null","arrowup","[0.325,0.675,0.85,0.15]","","",""
"sailing-trial","105","817548","0.0-11.0-54.0","","","","false","","","","","","","","","","511","","222.0999999998603","","1","1","arrowleft","0","arrowright","[0.15,0.85,0.675,0.325]","","",""
"sailing-trial","106","820346","0.0-11.0-55.0","","","","false","","","","","","","","","","null","","882.8000000000466","","2","0","null","null","arrowup","[0.15,0.85,0.675,0.325]","","",""
"sailing-trial","107","824024","0.0-11.0-56.0","","","","false","","","","","","","","","","598","","48.5","","1","1","arrowleft","0","arrowright","[0.15,0.85,0.675,0.325]","","",""
"sailing-trial","108","827051","0.0-11.0-57.0","","","","false","","","","","","","","","","null","","1063","","1","0","null","null","arrowup","[0.15,0.85,0.675,0.325]","","",""
"sailing-trial","109","831529","0.0-11.0-58.0","","","","false","","","","","","","","","","643.5","","436.0999999998603","","1","1","arrowleft","0","arrowright","[0.15,0.85,0.675,0.325]","","",""
"sailing-trial","110","835126","0.0-11.0-59.0","","","","false","","","","","","","","","","null","","718.8000000000466","","3","1","null","null","arrowup","[0.15,0.85,0.675,0.325]","","",""
"sailing-trial","111","839472","0.0-11.0-60.0","","","","false","","","","","","","","","","654.6999999999534","","628.2000000001863","","1","1","arrowleft","0","arrowright","[0.15,0.85,0.675,0.325]","","",""
"sailing-trial","112","843770","0.0-11.0-61.0","","","","false","","","","","","","","","","null","","989.0999999998603","","3","1","null","null","arrowup","[0.15,0.85,0.675,0.325]","","",""
"sailing-trial","113","847878","0.0-11.0-62.0","","","","false","","","","","","","","","","611","","428.5999999998603","","0","0","arrowleft","0","arrowleft","[0.15,0.85,0.675,0.325]","","",""
"sailing-trial","114","850794","0.0-11.0-63.0","","","","false","","","","","","","","","","null","","819.2000000001863","","1","1","null","null","arrowup","[0.15,0.85,0.675,0.325]","","",""
"sailing-trial","115","854675","0.0-11.0-64.0","","","","false","","","","","","","","","","856.4000000001397","","48.199999999953434","","1","1","arrowleft","0","arrowright","[0.15,0.85,0.675,0.325]","","",""
"sailing-trial","116","858362","0.0-11.0-65.0","","","","false","","","","","","","","","","null","","690.8999999999069","","3","0","null","null","arrowup","[0.15,0.85,0.675,0.325]","","",""
"sailing-trial","117","862050","0.0-11.0-66.0","","","","false","","","","","","","","","","628.1999999999534","","106.80000000004657","","1","1","arrowleft","0","arrowright","[0.15,0.85,0.675,0.325]","","",""
"sailing-trial","118","864490","0.0-11.0-67.0","","","","false","","","","","","","","","","null","","997.6000000000931","","0","0","null","null","arrowup","[0.15,0.85,0.675,0.325]","","",""
"sailing-trial","119","868411","0.0-11.0-68.0","","","","false","","","","","","","","","","809.8999999999069","","97.5","","2","1","arrowright","1","arrowleft","[0.15,0.85,0.675,0.325]","","",""
"sailing-trial","120","871729","0.0-11.0-69.0","","","","false","","","","","","","","","","null","","910.8000000000466","","1","1","null","null","arrowup","[0.15,0.85,0.675,0.325]","","",""
"sailing-trial","121","875405","0.0-11.0-70.0","","","","false","","","","","","","","","","165.5","","353.30000000004657","","2","1","arrowright","1","arrowleft","[0.15,0.85,0.675,0.325]","","",""
"sailing-trial","122","878918","0.0-11.0-71.0","","","","false","","","","","","","","","","null","","919.2999999998137","","0","1","null","null","arrowup","[0.15,0.85,0.675,0.325]","","",""
"sailing-trial","123","882685","0.0-11.0-72.0","","","","false","","","","","","","","","","424.5","","380.69999999995343","","0","0","arrowleft","0","arrowleft","[0.15,0.85,0.675,0.325]","","",""
"sailing-trial","124","886262","0.0-11.0-73.0","","","","false","","","","","","","","","","null","","1034.7000000001863","","2","1","null","null","arrowup","[0.15,0.85,0.675,0.325]","","",""
"sailing-trial","125","890393","0.0-11.0-74.0","","","","false","","","","","","","","","","747.5999999998603","","262.0999999998603","","2","1","arrowright","1","arrowleft","[0.15,0.85,0.675,0.325]","","",""
"sailing-trial","126","893686","0.0-11.0-75.0","","","","false","","","","","","","","","","null","","1124.3999999999069","","1","1","null","null","arrowup","[0.15,0.85,0.675,0.325]","","",""
"sailing-trial","127","896899","0.0-11.0-76.0","","","","false","","","","","","","","","","218.69999999995343","","289","","2","0","arrowright","1","arrowleft","[0.85,0.15,0.325,0.675]","","",""
"sailing-trial","128","900446","0.0-11.0-77.0","","","","false","","","","","","","","","","null","","874","","1","1","null","null","arrowup","[0.85,0.15,0.325,0.675]","","",""
"sailing-trial","129","905043","0.0-11.0-78.0","","","","false","","","","","","","","","","524.3000000000466","","714.1000000000931","","3","0","arrowright","1","arrowright","[0.85,0.15,0.325,0.675]","","",""
"sailing-trial","130","909258","0.0-11.0-79.0","","","","false","","","","","","","","","","null","","1332.3999999999069","","3","1","null","null","arrowup","[0.85,0.15,0.325,0.675]","","",""
"sailing-trial","131","913155","0.0-11.0-80.0","","","","false","","","","","","","","","","474.60000000009313","","420.30000000004657","","1","0","arrowleft","0","arrowright","[0.85,0.15,0.325,0.675]","","",""
"sailing-trial","132","917088","0.0-11.0-81.0","","","","false","","","","","","","","","","null","","1967.8999999999069","","1","0","null","null","arrowup","[0.85,0.15,0.325,0.675]","","",""
"sailing-trial","133","921325","0.0-11.0-82.0","","","","false","","","","","","","","","","1065.6000000000931","","244.5","","2","1","arrowright","1","arrowleft","[0.85,0.15,0.325,0.675]","","",""
"sailing-trial","134","924828","0.0-11.0-83.0","","","","false","","","","","","","","","","null","","1084.8999999999069","","0","1","null","null","arrowup","[0.85,0.15,0.325,0.675]","","",""
"sailing-trial","135","928993","0.0-11.0-84.0","","","","false","","","","","","","","","","724.5","","195.89999999990687","","0","0","arrowleft","0","arrowleft","[0.85,0.15,0.325,0.675]","","",""
"sailing-trial","136","932965","0.0-11.0-85.0","","","","false","","","","","","","","","","null","","943","","1","0","null","null","arrowup","[0.85,0.15,0.325,0.675]","","",""
"sailing-trial","137","938461","0.0-11.0-86.0","","","","false","","","","","","","","","","1946.7999999998137","","410.20000000018626","","1","0","arrowleft","0","arrowright","[0.85,0.15,0.325,0.675]","","",""
"sailing-trial","138","941654","0.0-11.0-87.0","","","","false","","","","","","","","","","null","","909","","0","1","null","null","arrowup","[0.85,0.15,0.325,0.675]","","",""
"sailing-trial","139","945404","0.0-11.0-88.0","","","","false","","","","","","","","","","927.3000000000466","","215.5","","3","0","arrowright","1","arrowright","[0.85,0.15,0.325,0.675]","","",""
"sailing-trial","140","948748","0.0-11.0-89.0","","","","false","","","","","","","","","","null","","961.1999999999534","","0","1","null","null","arrowup","[0.85,0.15,0.325,0.675]","","",""
"sailing-trial","141","952394","0.0-11.0-90.0","","","","false","","","","","","","","","","368.5","","356.69999999995343","","2","1","arrowright","1","arrowleft","[0.85,0.15,0.325,0.675]","","",""
"sailing-trial","142","955990","0.0-11.0-91.0","","","","false","","","","","","","","","","null","","1525.3000000000466","","3","1","null","null","arrowup","[0.85,0.15,0.325,0.675]","","",""
"sailing-trial","143","959359","0.0-11.0-92.0","","","","false","","","","","","","","","","518.8999999999069","","208","","1","0","arrowleft","0","arrowright","[0.85,0.15,0.325,0.675]","","",""
"sailing-trial","144","962553","0.0-11.0-93.0","","","","false","","","","","","","","","","null","","1030.6000000000931","","3","0","null","null","arrowup","[0.85,0.15,0.325,0.675]","","",""
"sailing-trial","145","966625","0.0-11.0-94.0","","","","false","","","","","","","","","","654.6000000000931","","267.89999999990687","","0","0","arrowleft","0","arrowleft","[0.325,0.675,0.85,0.15]","","",""
"sailing-trial","146","969846","0.0-11.0-95.0","","","","false","","","","","","","","","","null","","1193.8999999999069","","1","1","null","null","arrowup","[0.325,0.675,0.85,0.15]","","",""
"sailing-trial","147","973490","0.0-11.0-96.0","","","","false","","","","","","","","","","412","","41.39999999990687","","2","1","arrowright","1","arrowleft","[0.325,0.675,0.85,0.15]","","",""
"sailing-trial","148","977340","0.0-11.0-97.0","","","","false","","","","","","","","","","null","","916.6000000000931","","2","1","null","null","arrowup","[0.325,0.675,0.85,0.15]","","",""
"sailing-trial","149","982116","0.0-11.0-98.0","","","","false","","","","","","","","","","304","","483.80000000004657","","2","1","arrowright","1","arrowleft","[0.325,0.675,0.85,0.15]","","",""
"sailing-trial","150","984978","0.0-11.0-99.0","","","","false","","","","","","","","","","null","","851.3000000000466","","3","0","null","null","arrowup","[0.325,0.675,0.85,0.15]","","",""
"sailing-trial","151","989695","0.0-11.0-100.0","","","","false","","","","","","","","","","1092.3000000000466","","410.9000000001397","","1","1","arrowleft","0","arrowright","[0.325,0.675,0.85,0.15]","","",""
"sailing-trial","152","993262","0.0-11.0-101.0","","","","false","","","","","","","","","","null","","1242.8999999999069","","3","0","null","null","arrowup","[0.325,0.675,0.85,0.15]","","",""
"sailing-trial","153","997635","0.0-11.0-102.0","","","","false","","","","","","","","","","919.9000000001397","","255","","2","1","arrowright","1","arrowleft","[0.325,0.675,0.85,0.15]","","",""
"sailing-trial","154","1000029","0.0-11.0-103.0","","","","false","","","","","","","","","","null","","931.8999999999069","","0","0","null","null","arrowup","[0.325,0.675,0.85,0.15]","","",""
"sailing-trial","155","1003664","0.0-11.0-104.0","","","","false","","","","","","","","","","520.8999999999069","","292.19999999995343","","2","0","arrowright","1","arrowleft","[0.325,0.675,0.85,0.15]","","",""
"sailing-trial","156","1006607","0.0-11.0-105.0","","","","false","","","","","","","","","","null","","881.6999999999534","","1","0","null","null","arrowup","[0.325,0.675,0.85,0.15]","","",""
"sailing-trial","157","1010329","0.0-11.0-106.0","","","","false","","","","","","","","","","485.19999999995343","","351.69999999995343","","3","0","arrowright","1","arrowright","[0.325,0.675,0.85,0.15]","","",""
"sailing-trial","158","1013587","0.0-11.0-107.0","","","","false","","","","","","","","","","null","","876.3000000000466","","2","1","null","null","arrowup","[0.325,0.675,0.85,0.15]","","",""
"sailing-trial","159","1017267","0.0-11.0-108.0","","","","false","","","","","","","","","","341.10000000009313","","426.69999999995343","","0","0","arrowleft","0","arrowleft","[0.325,0.675,0.85,0.15]","","",""
"sailing-trial","160","1020361","0.0-11.0-109.0","","","","false","","","","","","","","","","null","","883.7000000001863","","0","1","null","null","arrowup","[0.325,0.675,0.85,0.15]","","",""
"sailing-trial","161","1024492","0.0-11.0-110.0","","","","false","","","","","","","","","","534.8000000000466","","85.10000000009313","","1","1","arrowleft","0","arrowright","[0.325,0.675,0.85,0.15]","","",""
"sailing-trial","162","1027562","0.0-11.0-111.0","","","","false","","","","","","","","","","null","","1149.5","","3","0","null","null","arrowup","[0.325,0.675,0.85,0.15]","","",""
"sailing-trial","163","1031766","0.0-11.0-112.0","","","","false","","","","","","","","","","652.1999999999534","","148.4000000001397","","1","1","arrowleft","0","arrowright","[0.15,0.85,0.675,0.325]","","",""
"sailing-trial","164","1034385","0.0-11.0-113.0","","","","false","","","","","","","","","","null","","823.3000000000466","","2","0","null","null","arrowup","[0.15,0.85,0.675,0.325]","","",""
"sailing-trial","165","1038316","0.0-11.0-114.0","","","","false","","","","","","","","","","789.3999999999069","","244.89999999990687","","1","1","arrowleft","0","arrowright","[0.15,0.85,0.675,0.325]","","",""
"sailing-trial","166","1041344","0.0-11.0-115.0","","","","false","","","","","","","","","","null","","924","","2","1","null","null","arrowup","[0.15,0.85,0.675,0.325]","","",""
"sailing-trial","167","1047107","0.0-11.0-116.0","","","","false","","","","","","","","","","767.3000000000466","","1401.9000000001397","","1","1","arrowleft","0","arrowright","[0.15,0.85,0.675,0.325]","","",""
"sailing-trial","168","1049616","0.0-11.0-117.0","","","","false","","","","","","","","","","null","","957.6999999997206","","0","0","null","null","arrowup","[0.15,0.85,0.675,0.325]","","",""
"sailing-trial","169","1054035","0.0-11.0-118.0","","","","false","","","","","","","","","","827.8999999999069","","393.09999999962747","","2","1","arrowright","1","arrowleft","[0.15,0.85,0.675,0.325]","","",""
"sailing-trial","170","1057429","0.0-11.0-119.0","","","","false","","","","","","","","","","null","","935.3999999999069","","2","1","null","null","arrowup","[0.15,0.85,0.675,0.325]","","",""
"sailing-trial","171","1062258","0.0-11.0-120.0","","","","false","","","","","","","","","","780.2999999998137","","413.20000000018626","","2","1","arrowright","1","arrowleft","[0.15,0.85,0.675,0.325]","","",""
"sailing-trial","172","1065771","0.0-11.0-121.0","","","","false","","","","","","","","","","null","","953.7000000001863","","2","1","null","null","arrowup","[0.15,0.85,0.675,0.325]","","",""
"sailing-trial","173","1071898","0.0-11.0-122.0","","","","false","","","","","","","","","","701.5","","258.29999999981374","","2","1","arrowright","1","arrowleft","[0.15,0.85,0.675,0.325]","","",""
"sailing-trial","174","1075010","0.0-11.0-123.0","","","","false","","","","","","","","","","null","","759.1000000000931","","2","1","null","null","arrowup","[0.15,0.85,0.675,0.325]","","",""
"sailing-trial","175","1079189","0.0-11.0-124.0","","","","false","","","","","","","","","","1022.1000000000931","","51.10000000009313","","2","1","arrowright","1","arrowleft","[0.15,0.85,0.675,0.325]","","",""
"sailing-trial","176","1081967","0.0-11.0-125.0","","","","false","","","","","","","","","","null","","751","","2","0","null","null","arrowup","[0.15,0.85,0.675,0.325]","","",""
"sailing-trial","177","1085565","0.0-11.0-126.0","","","","false","","","","","","","","","","555.7000000001863","","39.5","","3","1","arrowright","1","arrowright","[0.15,0.85,0.675,0.325]","","",""
"sailing-trial","178","1088517","0.0-11.0-127.0","","","","false","","","","","","","","","","null","","842.5","","3","1","null","null","arrowup","[0.15,0.85,0.675,0.325]","","",""
"sailing-trial","179","1092616","0.0-11.0-128.0","","","","false","","","","","","","","","","648","","477.5","","3","0","arrowright","1","arrowright","[0.325,0.675,0.85,0.15]","","",""
"sailing-trial","180","1096403","0.0-11.0-129.0","","","","false","","","","","","","","","","null","","1189.3999999999069","","1","1","null","null","arrowup","[0.325,0.675,0.85,0.15]","","",""
"sailing-trial","181","1099955","0.0-11.0-130.0","","","","false","","","","","","","","","","139.29999999981374","","205.70000000018626","","1","0","arrowleft","0","arrowright","[0.325,0.675,0.85,0.15]","","",""
"sailing-trial","182","1102797","0.0-11.0-131.0","","","","false","","","","","","","","","","null","","961.2000000001863","","3","0","null","null","arrowup","[0.325,0.675,0.85,0.15]","","",""
"sailing-trial","183","1106646","0.0-11.0-132.0","","","","false","","","","","","","","","","620.7000000001863","","161.6999999997206","","0","1","arrowleft","0","arrowleft","[0.325,0.675,0.85,0.15]","","",""
"sailing-trial","184","1109909","0.0-11.0-133.0","","","","false","","","","","","","","","","null","","1285.1999999997206","","0","0","null","null","arrowup","[0.325,0.675,0.85,0.15]","","",""
"sailing-trial","185","1113547","0.0-11.0-134.0","","","","false","","","","","","","","","","979.8000000002794","","335.29999999981374","","1","0","arrowleft","0","arrowright","[0.325,0.675,0.85,0.15]","","",""
"sailing-trial","186","1116904","0.0-11.0-135.0","","","","false","","","","","","","","","","null","","924.7000000001863","","2","1","null","null","arrowup","[0.325,0.675,0.85,0.15]","","",""
"sailing-trial","187","1120701","0.0-11.0-136.0","","","","false","","","","","","","","","","451.70000000018626","","279.3000000002794","","2","1","arrowright","1","arrowleft","[0.325,0.675,0.85,0.15]","","",""
"sailing-trial","188","1123789","0.0-11.0-137.0","","","","false","","","","","","","","","","null","","876.7000000001863","","1","0","null","null","arrowup","[0.325,0.675,0.85,0.15]","","",""
"sailing-trial","189","1128597","0.0-11.0-138.0","","","","false","","","","","","","","","","1475.2000000001863","","208.20000000018626","","1","0","arrowleft","0","arrowright","[0.325,0.675,0.85,0.15]","","",""
"sailing-trial","190","1132057","0.0-11.0-139.0","","","","false","","","","","","","","","","null","","962.1999999997206","","2","1","null","null","arrowup","[0.325,0.675,0.85,0.15]","","",""
"sailing-trial","191","1136568","0.0-11.0-140.0","","","","false","","","","","","","","","","672.8999999999069","","417.39999999990687","","2","1","arrowright","1","arrowleft","[0.325,0.675,0.85,0.15]","","",""
"sailing-trial","192","1139586","0.0-11.0-141.0","","","","false","","","","","","","","","","null","","993.1000000000931","","0","0","null","null","arrowup","[0.325,0.675,0.85,0.15]","","",""
"sailing-trial","193","1143646","0.0-11.0-142.0","","","","false","","","","","","","","","","711.2000000001863","","412.40000000037253","","3","1","arrowright","1","arrowright","[0.325,0.675,0.85,0.15]","","",""
"sailing-trial","194","1146692","0.0-11.0-143.0","","","","false","","","","","","","","","","null","","817.7999999998137","","2","1","null","null","arrowup","[0.325,0.675,0.85,0.15]","","",""
"sailing-trial","195","1149842","0.0-11.0-144.0","","","","false","","","","","","","","","","510.79999999981374","","94.5","","3","0","arrowright","1","arrowright","[0.325,0.675,0.85,0.15]","","",""
"sailing-trial","196","1152889","0.0-11.0-145.0","","","","false","","","","","","","","","","null","","903.2999999998137","","1","0","null","null","arrowup","[0.325,0.675,0.85,0.15]","","",""
"sailing-trial","197","1157095","0.0-11.0-146.0","","","","false","","","","","","","","","","1129.6999999997206","","27.799999999813735","","2","1","arrowright","1","arrowleft","[0.325,0.675,0.85,0.15]","","",""
"sailing-trial","198","1160361","0.0-11.0-147.0","","","","false","","","","","","","","","","null","","1128.6000000000931","","1","1","null","null","arrowup","[0.325,0.675,0.85,0.15]","","",""
"sailing-trial","199","1164208","0.0-11.0-148.0","","","","false","","","","","","","","","","622.8999999999069","","286.29999999981374","","2","1","arrowright","1","arrowleft","[0.325,0.675,0.85,0.15]","","",""
"sailing-trial","200","1167154","0.0-11.0-149.0","","","","false","","","","","","","","","","null","","948.6000000000931","","1","1","null","null","arrowup","[0.325,0.675,0.85,0.15]","","",""
"sailing-trial","201","1171932","0.0-11.0-150.0","","","","false","","","","","","","","","","1028.6999999997206","","41.10000000009313","","2","1","arrowright","1","arrowleft","[0.15,0.85,0.675,0.325]","","",""
"sailing-trial","202","1175415","0.0-11.0-151.0","","","","false","","","","","","","","","","null","","852.5","","2","1","null","null","arrowup","[0.15,0.85,0.675,0.325]","","",""
"sailing-trial","203","1180039","0.0-11.0-152.0","","","","false","","","","","","","","","","907.3000000002794","","341.29999999981374","","2","1","arrowright","1","arrowleft","[0.15,0.85,0.675,0.325]","","",""
"sailing-trial","204","1183190","0.0-11.0-153.0","","","","false","","","","","","","","","","null","","486.3000000002794","","3","1","null","null","arrowup","[0.15,0.85,0.675,0.325]","","",""
"sailing-trial","205","1187113","0.0-11.0-154.0","","","","false","","","","","","","","","","730.2000000001863","","184","","1","1","arrowleft","0","arrowright","[0.15,0.85,0.675,0.325]","","",""
"sailing-trial","206","1189808","0.0-11.0-155.0","","","","false","","","","","","","","","","null","","1156.6000000000931","","0","0","null","null","arrowup","[0.15,0.85,0.675,0.325]","","",""
"sailing-trial","207","1193546","0.0-11.0-156.0","","","","false","","","","","","","","","","610.7000000001863","","86.60000000009313","","1","1","arrowleft","0","arrowright","[0.15,0.85,0.675,0.325]","","",""
"sailing-trial","208","1197010","0.0-11.0-157.0","","","","false","","","","","","","","","","null","","1453.7000000001863","","3","1","null","null","arrowup","[0.15,0.85,0.675,0.325]","","",""
"sailing-trial","209","1202755","0.0-11.0-158.0","","","","false","","","","","","","","","","982.5","","1176.8000000002794","","2","1","arrowright","1","arrowleft","[0.15,0.85,0.675,0.325]","","",""
"sailing-trial","210","1205616","0.0-11.0-159.0","","","","false","","","","","","","","","","null","","905.7000000001863","","2","1","null","null","arrowup","[0.15,0.85,0.675,0.325]","","",""
"sailing-trial","211","1209310","0.0-11.0-160.0","","","","false","","","","","","","","","","844","","311","","2","0","arrowright","1","arrowleft","[0.15,0.85,0.675,0.325]","","",""
"sailing-trial","212","1211906","0.0-11.0-161.0","","","","false","","","","","","","","","","null","","1199","","3","0","null","null","arrowup","[0.15,0.85,0.675,0.325]","","",""
"sailing-trial","213","1215709","0.0-11.0-162.0","","","","false","","","","","","","","","","521.4000000003725","","443.8000000002794","","1","1","arrowleft","0","arrowright","[0.15,0.85,0.675,0.325]","","",""
"sailing-trial","214","1217973","0.0-11.0-163.0","","","","false","","","","","","","","","","null","","1008.7999999998137","","0","0","null","null","arrowup","[0.15,0.85,0.675,0.325]","","",""
"sailing-trial","215","1222049","0.0-11.0-164.0","","","","false","","","","","","","","","","849.3999999999069","","399.40000000037253","","2","1","arrowright","1","arrowleft","[0.15,0.85,0.675,0.325]","","",""
"sailing-trial","216","1224878","0.0-11.0-165.0","","","","false","","","","","","","","","","null","","1005.6000000000931","","0","0","null","null","arrowup","[0.15,0.85,0.675,0.325]","","",""
"sailing-trial","217","1228035","0.0-11.0-166.0","","","","false","","","","","","","","","","350.10000000009313","","173.20000000018626","","1","0","arrowleft","0","arrowright","[0.325,0.675,0.85,0.15]","","",""
"sailing-trial","218","1230855","0.0-11.0-167.0","","","","false","","","","","","","","","","null","","951.3999999999069","","1","1","null","null","arrowup","[0.325,0.675,0.85,0.15]","","",""
"sailing-trial","219","1234753","0.0-11.0-168.0","","","","false","","","","","","","","","","892.8000000002794","","145.40000000037253","","1","0","arrowleft","0","arrowright","[0.325,0.675,0.85,0.15]","","",""
"sailing-trial","220","1238813","0.0-11.0-169.0","","","","false","","","","","","","","","","null","","2045.5","","3","0","null","null","arrowup","[0.325,0.675,0.85,0.15]","","",""
"sailing-trial","221","1245141","0.0-11.0-170.0","","","","false","","","","","","","","","","1788.5","","928.6999999997206","","3","0","arrowright","1","arrowright","[0.325,0.675,0.85,0.15]","","",""
"sailing-trial","222","1250007","0.0-11.0-171.0","","","","false","","","","","","","","","","null","","2666.2999999998137","","0","1","null","null","arrowup","[0.325,0.675,0.85,0.15]","","",""
"sailing-trial","223","1257798","0.0-11.0-172.0","","","","false","","","","","","","","","","4064.9000000003725","","430.1999999997206","","1","1","arrowleft","0","arrowright","[0.325,0.675,0.85,0.15]","","",""
"sailing-trial","224","1260946","0.0-11.0-173.0","","","","false","","","","","","","","","","null","","1046","","2","1","null","null","arrowup","[0.325,0.675,0.85,0.15]","","",""
"sailing-trial","225","1264222","0.0-11.0-174.0","","","","false","","","","","","","","","","435.29999999981374","","302.20000000018626","","1","0","arrowleft","0","arrowright","[0.325,0.675,0.85,0.15]","","",""
"sailing-trial","226","1267768","0.0-11.0-175.0","","","","false","","","","","","","","","","null","","1155.2000000001863","","0","1","null","null","arrowup","[0.325,0.675,0.85,0.15]","","",""
"sailing-trial","227","1271935","0.0-11.0-176.0","","","","false","","","","","","","","","","413.89999999990687","","392.90000000037253","","0","1","arrowleft","0","arrowleft","[0.325,0.675,0.85,0.15]","","",""
"sailing-trial","228","1281110","0.0-11.0-177.0","","","","false","","","","","","","","","","null","","3307","","1","1","null","null","arrowup","[0.325,0.675,0.85,0.15]","","",""
"sailing-trial","229","1285225","0.0-11.0-178.0","","","","false","","","","","","","","","","874.5","","263","","2","1","arrowright","1","arrowleft","[0.325,0.675,0.85,0.15]","","",""
"sailing-trial","230","1288020","0.0-11.0-179.0","","","","false","","","","","","","","","","null","","883.6999999997206","","2","1","null","null","arrowup","[0.325,0.675,0.85,0.15]","","",""
"sailing-trial","231","1291878","0.0-11.0-180.0","","","","false","","","","","","","","","","529.8000000002794","","143.39999999990687","","2","1","arrowright","1","arrowleft","[0.325,0.675,0.85,0.15]","","",""
"sailing-trial","232","1295231","0.0-11.0-181.0","","","","false","","","","","","","","","","null","","986.3000000002794","","1","1","null","null","arrowup","[0.325,0.675,0.85,0.15]","","",""
"sailing-trial","233","1299260","0.0-11.0-182.0","","","","false","","","","","","","","","","583.6999999997206","","578.8999999999069","","2","1","arrowright","1","arrowleft","[0.325,0.675,0.85,0.15]","","",""
"sailing-trial","234","1302370","0.0-11.0-183.0","","","","false","","","","","","","","","","null","","837.3000000002794","","1","1","null","null","arrowup","[0.325,0.675,0.85,0.15]","","",""
"sailing-trial","235","1306149","0.0-11.0-184.0","","","","false","","","","","","","","","","629.7000000001863","","233.10000000009313","","1","0","arrowleft","0","arrowright","[0.325,0.675,0.85,0.15]","","",""
"sailing-trial","236","1309774","0.0-11.0-185.0","","","","false","","","","","","","","","","null","","1035.3999999999069","","1","0","null","null","arrowup","[0.325,0.675,0.85,0.15]","","",""
"sailing-trial","237","1315358","0.0-11.0-186.0","","","","false","","","","","","","","","","705.1000000000931","","839.1000000000931","","2","1","arrowright","1","arrowleft","[0.675,0.325,0.15,0.85]","","",""
"sailing-trial","238","1321838","0.0-11.0-187.0","","","","false","","","","","","","","","","null","","3446.899999999907","","1","0","null","null","arrowup","[0.675,0.325,0.15,0.85]","","",""
"sailing-trial","239","1326582","0.0-11.0-188.0","","","","false","","","","","","","","","","827.7000000001863","","709.7000000001863","","1","1","arrowleft","0","arrowright","[0.675,0.325,0.15,0.85]","","",""
"sailing-trial","240","1329904","0.0-11.0-189.0","","","","false","","","","","","","","","","null","","1544.6999999997206","","2","0","null","null","arrowup","[0.675,0.325,0.15,0.85]","","",""
"sailing-trial","241","1333580","0.0-11.0-190.0","","","","false","","","","","","","","","","880.6000000000931","","231.29999999981374","","1","0","arrowleft","0","arrowright","[0.675,0.325,0.15,0.85]","","",""
"sailing-trial","242","1336944","0.0-11.0-191.0","","","","false","","","","","","","","","","null","","1619.5999999996275","","0","0","null","null","arrowup","[0.675,0.325,0.15,0.85]","","",""
"sailing-trial","243","1341816","0.0-11.0-192.0","","","","false","","","","","","","","","","445.79999999981374","","1775.0999999996275","","2","0","arrowright","1","arrowleft","[0.675,0.325,0.15,0.85]","","",""
"sailing-trial","244","1344682","0.0-11.0-193.0","","","","false","","","","","","","","","","null","","1050.1000000000931","","1","1","null","null","arrowup","[0.675,0.325,0.15,0.85]","","",""
"sailing-trial","245","1348358","0.0-11.0-194.0","","","","false","","","","","","","","","","1012.3999999999069","","199.29999999981374","","1","0","arrowleft","0","arrowright","[0.675,0.325,0.15,0.85]","","",""
"sailing-trial","246","1351748","0.0-11.0-195.0","","","","false","","","","","","","","","","null","","902.3999999999069","","1","0","null","null","arrowup","[0.675,0.325,0.15,0.85]","","",""
"sailing-trial","247","1355719","0.0-11.0-196.0","","","","false","","","","","","","","","","674.3999999999069","","357.29999999981374","","3","1","arrowright","1","arrowright","[0.675,0.325,0.15,0.85]","","",""
"sailing-trial","248","1359116","0.0-11.0-197.0","","","","false","","","","","","","","","","null","","1000.5","","0","1","null","null","arrowup","[0.675,0.325,0.15,0.85]","","",""
"sailing-trial","249","1363063","0.0-11.0-198.0","","","","false","","","","","","","","","","442.60000000009313","","338.6999999997206","","0","1","arrowleft","0","arrowleft","[0.675,0.325,0.15,0.85]","","",""
"sailing-trial","250","1366040","0.0-11.0-199.0","","","","false","","","","","","","","","","null","","1088.2000000001863","","1","0","null","null","arrowup","[0.675,0.325,0.15,0.85]","","",""
"sailing-trial","251","1372222","0.0-11.0-200.0","","","","false","","","","","","","","","","1482.7000000001863","","1727.8999999999069","","2","0","arrowright","1","arrowleft","[0.675,0.325,0.15,0.85]","","",""
"sailing-trial","252","1375348","0.0-11.0-201.0","","","","false","","","","","","","","","","null","","1210.8999999999069","","2","0","null","null","arrowup","[0.675,0.325,0.15,0.85]","","",""
"sailing-trial","253","1381411","0.0-11.0-202.0","","","","false","","","","","","","","","","816.1000000000931","","1272.7999999998137","","3","1","arrowright","1","arrowright","[0.675,0.325,0.15,0.85]","","",""
"sailing-trial","254","1387304","0.0-11.0-203.0","","","","false","","","","","","","","","","null","","1281.6000000000931","","0","1","null","null","arrowup","[0.675,0.325,0.15,0.85]","","",""
"sailing-trial","255","1391670","0.0-11.0-204.0","","","","false","","","","","","","","","","797.9000000003725","","163.89999999990687","","0","1","arrowleft","0","arrowleft","[0.85,0.15,0.325,0.675]","","",""
"sailing-trial","256","1395454","0.0-11.0-205.0","","","","false","","","","","","","","","","null","","1127.6000000000931","","3","0","null","null","arrowup","[0.85,0.15,0.325,0.675]","","",""
"sailing-trial","257","1399865","0.0-11.0-206.0","","","","false","","","","","","","","","","1399.8999999999069","","320.89999999990687","","0","1","arrowleft","0","arrowleft","[0.85,0.15,0.325,0.675]","","",""
"sailing-trial","258","1403193","0.0-11.0-207.0","","","","false","","","","","","","","","","null","","1293.2999999998137","","0","1","null","null","arrowup","[0.85,0.15,0.325,0.675]","","",""
"sailing-trial","259","1407127","0.0-11.0-208.0","","","","false","","","","","","","","","","766.1000000000931","","977.5","","0","0","arrowleft","0","arrowleft","[0.85,0.15,0.325,0.675]","","",""
"sailing-trial","260","1410126","0.0-11.0-209.0","","","","false","","","","","","","","","","null","","1318","","2","0","null","null","arrowup","[0.85,0.15,0.325,0.675]","","",""
"sailing-trial","261","1413656","0.0-11.0-210.0","","","","false","","","","","","","","","","1227.1000000000931","","210.6999999997206","","2","0","arrowright","1","arrowleft","[0.85,0.15,0.325,0.675]","","",""
"sailing-trial","262","1418709","0.0-11.0-211.0","","","","false","","","","","","","","","","null","","1359.5","","3","1","null","null","arrowup","[0.85,0.15,0.325,0.675]","","",""
"sailing-trial","263","1422318","0.0-11.0-212.0","","","","false","","","","","","","","","","259.59999999962747","","665.2999999998137","","2","1","arrowright","1","arrowleft","[0.85,0.15,0.325,0.675]","","",""
"sailing-trial","264","1425002","0.0-11.0-213.0","","","","false","","","","","","","","","","null","","1087.3000000002794","","0","1","null","null","arrowup","[0.85,0.15,0.325,0.675]","","",""
"sailing-trial","265","1430070","0.0-11.0-214.0","","","","false","","","","","","","","","","1389.3000000002794","","832.2999999998137","","2","0","arrowright","1","arrowleft","[0.85,0.15,0.325,0.675]","","",""
"sailing-trial","266","1433345","0.0-11.0-215.0","","","","false","","","","","","","","","","null","","1301.2999999998137","","2","0","null","null","arrowup","[0.85,0.15,0.325,0.675]","","",""
"sailing-trial","267","1436996","0.0-11.0-216.0","","","","false","","","","","","","","","","677.4000000003725","","443.10000000009313","","2","0","arrowright","1","arrowleft","[0.85,0.15,0.325,0.675]","","",""
"sailing-trial","268","1439517","0.0-11.0-217.0","","","","false","","","","","","","","","","null","","599.1999999997206","","3","0","null","null","arrowup","[0.85,0.15,0.325,0.675]","","",""
"sailing-trial","269","1442850","0.0-11.0-218.0","","","","false","","","","","","","","","","438.10000000009313","","173.29999999981374","","1","0","arrowleft","0","arrowright","[0.85,0.15,0.325,0.675]","","",""
"sailing-trial","270","1445770","0.0-11.0-219.0","","","","false","","","","","","","","","","null","","1029.6999999997206","","0","0","null","null","arrowup","[0.85,0.15,0.325,0.675]","","",""
"sailing-trial","271","1450110","0.0-11.0-220.0","","","","false","","","","","","","","","","815.3999999999069","","330.5","","0","1","arrowleft","0","arrowleft","[0.85,0.15,0.325,0.675]","","",""
"sailing-trial","272","1453340","0.0-11.0-221.0","","","","false","","","","","","","","","","null","","1195.6000000000931","","3","1","null","null","arrowup","[0.85,0.15,0.325,0.675]","","",""
"sailing-trial","273","1456835","0.0-11.0-222.0","","","","false","","","","","","","","","","137.60000000009313","","299.70000000018626","","0","1","arrowleft","0","arrowleft","[0.85,0.15,0.325,0.675]","","",""
"sailing-trial","274","1461384","0.0-11.0-223.0","","","","false","","","","","","","","","","null","","1922.1999999997206","","3","1","null","null","arrowup","[0.85,0.15,0.325,0.675]","","",""
"sailing-trial","275","1467177","0.0-11.0-224.0","","","","false","","","","","","","","","","1825.5","","1464.1000000000931","","0","0","arrowleft","0","arrowleft","[0.675,0.325,0.15,0.85]","","",""
"sailing-trial","276","1469988","0.0-11.0-225.0","","","","false","","","","","","","","","","null","","896.1000000000931","","0","1","null","null","arrowup","[0.675,0.325,0.15,0.85]","","",""
"sailing-trial","277","1474836","0.0-11.0-226.0","","","","false","","","","","","","","","","559.5","","558.5","","3","1","arrowright","1","arrowright","[0.675,0.325,0.15,0.85]","","",""
"sailing-trial","278","1477948","0.0-11.0-227.0","","","","false","","","","","","","","","","null","","738.3999999999069","","3","1","null","null","arrowup","[0.675,0.325,0.15,0.85]","","",""
"sailing-trial","279","1481914","0.0-11.0-228.0","","","","false","","","","","","","","","","541.5","","232.20000000018626","","3","1","arrowright","1","arrowright","[0.675,0.325,0.15,0.85]","","",""
"sailing-trial","280","1484724","0.0-11.0-229.0","","","","false","","","","","","","","","","null","","1007","","3","1","null","null","arrowup","[0.675,0.325,0.15,0.85]","","",""
"sailing-trial","281","1488691","0.0-11.0-230.0","","","","false","","","","","","","","","","681","","280.8000000002794","","3","1","arrowright","1","arrowright","[0.675,0.325,0.15,0.85]","","",""
"sailing-trial","282","1491317","0.0-11.0-231.0","","","","false","","","","","","","","","","null","","778.6999999997206","","3","1","null","null","arrowup","[0.675,0.325,0.15,0.85]","","",""
"sailing-trial","283","1494704","0.0-11.0-232.0","","","","false","","","","","","","","","","548.6000000000931","","239.5","","3","0","arrowright","1","arrowright","[0.675,0.325,0.15,0.85]","","",""
"sailing-trial","284","1497505","0.0-11.0-233.0","","","","false","","","","","","","","","","null","","844.0999999996275","","0","0","null","null","arrowup","[0.675,0.325,0.15,0.85]","","",""
"sailing-trial","285","1501825","0.0-11.0-234.0","","","","false","","","","","","","","","","565.2999999998137","","243.39999999990687","","3","1","arrowright","1","arrowright","[0.675,0.325,0.15,0.85]","","",""
"sailing-trial","286","1507904","0.0-11.0-235.0","","","","false","","","","","","","","","","null","","3045.7000000001863","","1","0","null","null","arrowup","[0.675,0.325,0.15,0.85]","","",""
"sailing-trial","287","1512815","0.0-11.0-236.0","","","","false","","","","","","","","","","1342.2999999998137","","1148.6000000000931","","2","0","arrowright","1","arrowleft","[0.675,0.325,0.15,0.85]","","",""
"sailing-trial","288","1516626","0.0-11.0-237.0","","","","false","","","","","","","","","","null","","1073.1000000000931","","2","1","null","null","arrowup","[0.675,0.325,0.15,0.85]","","",""
"sailing-trial","289","1521072","0.0-11.0-238.0","","","","false","","","","","","","","","","520","","740.8999999999069","","0","1","arrowleft","0","arrowleft","[0.675,0.325,0.15,0.85]","","",""
"sailing-trial","290","1524936","0.0-11.0-239.0","","","","false","","","","","","","","","","null","","2149.899999999907","","1","1","null","null","arrowup","[0.675,0.325,0.15,0.85]","","",""
"sailing-trial","291","1529635","0.0-11.0-240.0","","","","false","","","","","","","","","","2187.8000000002794","","167","","2","0","arrowright","1","arrowleft","[0.675,0.325,0.15,0.85]","","",""
"sailing-trial","292","1532850","0.0-11.0-241.0","","","","false","","","","","","","","","","null","","1343.7000000001863","","2","0","null","null","arrowup","[0.675,0.325,0.15,0.85]","","",""
"sailing-trial","293","1536130","0.0-11.0-242.0","","","","false","","","","","","","","","","774.3999999999069","","33.89999999990687","","3","0","arrowright","1","arrowright","[0.85,0.15,0.325,0.675]","","",""
"sailing-trial","294","1543073","0.0-11.0-243.0","","","","false","","","","","","","","","","null","","3663.399999999907","","3","1","null","null","arrowup","[0.85,0.15,0.325,0.675]","","",""
"sailing-trial","295","1546717","0.0-11.0-244.0","","","","false","","","","","","","","","","601.7999999998137","","314.10000000009313","","0","0","arrowleft","0","arrowleft","[0.85,0.15,0.325,0.675]","","",""
"sailing-trial","296","1549760","0.0-11.0-245.0","","","","false","","","","","","","","","","null","","889.5","","1","0","null","null","arrowup","[0.85,0.15,0.325,0.675]","","",""
"sailing-trial","297","1553277","0.0-11.0-246.0","","","","false","","","","","","","","","","833.3999999999069","","70.70000000018626","","1","0","arrowleft","0","arrowright","[0.85,0.15,0.325,0.675]","","",""
"sailing-trial","298","1555373","0.0-11.0-247.0","","","","false","","","","","","","","","","null","","852.6000000000931","","2","0","null","null","arrowup","[0.85,0.15,0.325,0.675]","","",""
"sailing-trial","299","1559184","0.0-11.0-248.0","","","","false","","","","","","","","","","388.5","","61.60000000009313","","3","1","arrowright","1","arrowright","[0.85,0.15,0.325,0.675]","","",""
"sailing-trial","300","1561317","0.0-11.0-249.0","","","","false","","","","","","","","","","null","","779.1000000000931","","1","0","null","null","arrowup","[0.85,0.15,0.325,0.675]","","",""
"sailing-trial","301","1564932","0.0-11.0-250.0","","","","false","","","","","","","","","","267.89999999990687","","301.79999999981374","","3","1","arrowright","1","arrowright","[0.85,0.15,0.325,0.675]","","",""
"sailing-trial","302","1568898","0.0-11.0-251.0","","","","false","","","","","","","","","","null","","1606.9000000003725","","2","1","null","null","arrowup","[0.85,0.15,0.325,0.675]","","",""
"sailing-trial","303","1573923","0.0-11.0-252.0","","","","false","","","","","","","","","","630.3999999999069","","304.29999999981374","","3","0","arrowright","1","arrowright","[0.85,0.15,0.325,0.675]","","",""
"sailing-trial","304","1580802","0.0-11.0-253.0","","","","false","","","","","","","","","","null","","3843.3000000002794","","1","0","null","null","arrowup","[0.85,0.15,0.325,0.675]","","",""
"sailing-trial","305","1586027","0.0-11.0-254.0","","","","false","","","","","","","","","","981.2000000001863","","191.60000000009313","","2","0","arrowright","1","arrowleft","[0.85,0.15,0.325,0.675]","","",""
"sailing-trial","306","1590920","0.0-11.0-255.0","","","","false","","","","","","","","","","null","","2560.5","","0","1","null","null","arrowup","[0.85,0.15,0.325,0.675]","","",""
"sailing-trial","307","1594650","0.0-11.0-256.0","","","","false","","","","","","","","","","466.89999999990687","","285.6999999997206","","0","1","arrowleft","0","arrowleft","[0.85,0.15,0.325,0.675]","","",""
"sailing-trial","308","1597632","0.0-11.0-257.0","","","","false","","","","","","","","","","null","","590.8000000002794","","0","1","null","null","arrowup","[0.85,0.15,0.325,0.675]","","",""
"sailing-trial","309","1600913","0.0-11.0-258.0","","","","false","","","","","","","","","","838.4000000003725","","75.29999999981374","","3","0","arrowright","1","arrowright","[0.85,0.15,0.325,0.675]","","",""
"sailing-trial","310","1603728","0.0-11.0-259.0","","","","false","","","","","","","","","","null","","1092","","3","1","null","null","arrowup","[0.85,0.15,0.325,0.675]","","",""
"sailing-trial","311","1606508","0.0-11.0-260.0","","","","false","","","","","","","","","","237.8000000002794","","266.20000000018626","","2","0","arrowright","1","arrowleft","[0.85,0.15,0.325,0.675]","","",""
"sailing-trial","312","1608944","0.0-11.0-261.0","","","","false","","","","","","","","","","null","","962.6000000000931","","1","0","null","null","arrowup","[0.85,0.15,0.325,0.675]","","",""
"sailing-trial","313","1612888","0.0-11.0-262.0","","","","false","","","","","","","","","","259.39999999990687","","610.5999999996275","","3","1","arrowright","1","arrowright","[0.85,0.15,0.325,0.675]","","",""
"sailing-trial","314","1617066","0.0-11.0-263.0","","","","false","","","","","","","","","","null","","1154.9000000003725","","1","0","null","null","arrowup","[0.85,0.15,0.325,0.675]","","",""
"sailing-trial","315","1624380","0.0-11.0-264.0","","","","false","","","","","","","","","","2188.2000000001863","","2535.399999999907","","1","0","arrowleft","0","arrowright","[0.85,0.15,0.325,0.675]","","",""
"sailing-trial","316","1626561","0.0-11.0-265.0","","","","false","","","","","","","","","","null","","972.2000000001863","","2","0","null","null","arrowup","[0.85,0.15,0.325,0.675]","","",""
"sailing-trial","317","1631898","0.0-11.0-266.0","","","","false","","","","","","","","","","1900.5","","436.70000000018626","","1","1","arrowleft","0","arrowright","[0.325,0.675,0.85,0.15]","","",""
"sailing-trial","318","1637941","0.0-11.0-267.0","","","","false","","","","","","","","","","null","","1012.3999999999069","","1","1","null","null","arrowup","[0.325,0.675,0.85,0.15]","","",""
"sailing-trial","319","1641721","0.0-11.0-268.0","","","","false","","","","","","","","","","960","","480","","3","0","arrowright","1","arrowright","[0.325,0.675,0.85,0.15]","","",""
"sailing-trial","320","1645684","0.0-11.0-269.0","","","","false","","","","","","","","","","null","","946.1000000000931","","3","0","null","null","arrowup","[0.325,0.675,0.85,0.15]","","",""
"sailing-trial","321","1652018","0.0-11.0-270.0","","","","false","","","","","","","","","","3575","","373.60000000009313","","1","0","arrowleft","0","arrowright","[0.325,0.675,0.85,0.15]","","",""
"sailing-trial","322","1662670","0.0-11.0-271.0","","","","false","","","","","","","","","","null","","8566","","3","0","null","null","arrowup","[0.325,0.675,0.85,0.15]","","",""
"sailing-trial","323","1668184","0.0-11.0-272.0","","","","false","","","","","","","","","","1845.1999999997206","","483.89999999990687","","3","1","arrowright","1","arrowright","[0.325,0.675,0.85,0.15]","","",""
"sailing-trial","324","1672812","0.0-11.0-273.0","","","","false","","","","","","","","","","null","","1245.7999999998137","","0","1","null","null","arrowup","[0.325,0.675,0.85,0.15]","","",""
"sailing-trial","325","1679041","0.0-11.0-274.0","","","","false","","","","","","","","","","2088.600000000093","","1601.2999999998137","","3","0","arrowright","1","arrowright","[0.325,0.675,0.85,0.15]","","",""
"sailing-trial","326","1684313","0.0-11.0-275.0","","","","false","","","","","","","","","","null","","3117.2999999998137","","2","1","null","null","arrowup","[0.325,0.675,0.85,0.15]","","",""
"sailing-trial","327","1687716","0.0-11.0-276.0","","","","false","","","","","","","","","","895.6000000000931","","135.60000000009313","","3","0","arrowright","1","arrowright","[0.325,0.675,0.85,0.15]","","",""
"sailing-trial","328","1689759","0.0-11.0-277.0","","","","false","","","","","","","","","","null","","849.7999999998137","","0","0","null","null","arrowup","[0.325,0.675,0.85,0.15]","","",""
"sailing-trial","329","1692888","0.0-11.0-278.0","","","","false","","","","","","","","","","404.6999999997206","","135.6999999997206","","2","1","arrowright","1","arrowleft","[0.325,0.675,0.85,0.15]","","",""
"sailing-trial","330","1695024","0.0-11.0-279.0","","","","false","","","","","","","","","","null","","1072.7999999998137","","0","0","null","null","arrowup","[0.325,0.675,0.85,0.15]","","",""
"sailing-trial","331","1699067","0.0-11.0-280.0","","","","false","","","","","","","","","","1123","","324.29999999981374","","2","1","arrowright","1","arrowleft","[0.325,0.675,0.85,0.15]","","",""
"sailing-trial","332","1701633","0.0-11.0-281.0","","","","false","","","","","","","","","","null","","915.8999999999069","","1","1","null","null","arrowup","[0.325,0.675,0.85,0.15]","","",""
"sailing-trial","333","1704734","0.0-11.0-282.0","","","","false","","","","","","","","","","269.5","","507.10000000009313","","0","0","arrowleft","0","arrowleft","[0.15,0.85,0.675,0.325]","","",""
"sailing-trial","334","1708706","0.0-11.0-283.0","","","","false","","","","","","","","","","null","","2327.100000000093","","2","1","null","null","arrowup","[0.15,0.85,0.675,0.325]","","",""
"sailing-trial","335","1711645","0.0-11.0-284.0","","","","false","","","","","","","","","","606.3999999999069","","150.60000000009313","","0","0","arrowleft","0","arrowleft","[0.15,0.85,0.675,0.325]","","",""
"sailing-trial","336","1714599","0.0-11.0-285.0","","","","false","","","","","","","","","","null","","1078","","1","1","null","null","arrowup","[0.15,0.85,0.675,0.325]","","",""
"sailing-trial","337","1718281","0.0-11.0-286.0","","","","false","","","","","","","","","","804.6999999997206","","130.10000000009313","","1","1","arrowleft","0","arrowright","[0.15,0.85,0.675,0.325]","","",""
"sailing-trial","338","1720341","0.0-11.0-287.0","","","","false","","","","","","","","","","null","","892.3999999999069","","0","0","null","null","arrowup","[0.15,0.85,0.675,0.325]","","",""
"sailing-trial","339","1723243","0.0-11.0-288.0","","","","false","","","","","","","","","","545.0999999996275","","36.700000000186265","","2","0","arrowright","1","arrowleft","[0.15,0.85,0.675,0.325]","","",""
"sailing-trial","340","1727866","0.0-11.0-289.0","","","","false","","","","","","","","","","null","","3296.7000000001863","","2","0","null","null","arrowup","[0.15,0.85,0.675,0.325]","","",""
"sailing-trial","341","1731208","0.0-11.0-290.0","","","","false","","","","","","","","","","768","","475.8000000002794","","3","0","arrowright","1","arrowright","[0.15,0.85,0.675,0.325]","","",""
"sailing-trial","342","1733988","0.0-11.0-291.0","","","","false","","","","","","","","","","null","","1094.2000000001863","","0","0","null","null","arrowup","[0.15,0.85,0.675,0.325]","","",""
"sailing-trial","343","1738161","0.0-11.0-292.0","","","","false","","","","","","","","","","1043","","435","","1","1","arrowleft","0","arrowright","[0.15,0.85,0.675,0.325]","","",""
"sailing-trial","344","1742527","0.0-11.0-293.0","","","","false","","","","","","","","","","null","","2930","","1","0","null","null","arrowup","[0.15,0.85,0.675,0.325]","","",""
"sailing-trial","345","1748382","0.0-11.0-294.0","","","","false","","","","","","","","","","1421.9000000003725","","317.89999999990687","","2","1","arrowright","1","arrowleft","[0.15,0.85,0.675,0.325]","","",""
"sailing-trial","346","1752797","0.0-11.0-295.0","","","","false","","","","","","","","","","null","","1380.8999999999069","","3","0","null","null","arrowup","[0.15,0.85,0.675,0.325]","","",""
"sailing-trial","347","1760480","0.0-11.0-296.0","","","","false","","","","","","","","","","3533.100000000093","","1172.7999999998137","","3","0","arrowright","1","arrowright","[0.15,0.85,0.675,0.325]","","",""
"sailing-trial","348","1769598","0.0-11.0-297.0","","","","false","","","","","","","","","","null","","7063.699999999721","","2","0","null","null","arrowup","[0.15,0.85,0.675,0.325]","","",""
"sailing-trial","349","1776507","0.0-11.0-298.0","","","","false","","","","","","","","","","2891.5999999996275","","74.20000000018626","","2","1","arrowright","1","arrowleft","[0.15,0.85,0.675,0.325]","","",""
"sailing-trial","350","1785980","0.0-11.0-299.0","","","","false","","","","","","","","","","null","","4090","","2","1","null","null","arrowup","[0.15,0.85,0.675,0.325]","","",""
"sailing-trial","351","1791709","0.0-11.0-300.0","","","","false","","","","","","","","","","1724","","772.7999999998137","","3","1","arrowright","1","arrowright","[0.325,0.675,0.85,0.15]","","",""
"sailing-trial","352","1794981","0.0-11.0-301.0","","","","false","","","","","","","","","","null","","953.8000000002794","","1","0","null","null","arrowup","[0.325,0.675,0.85,0.15]","","",""
"sailing-trial","353","1801031","0.0-11.0-302.0","","","","false","","","","","","","","","","627","","2440.5","","0","1","arrowleft","0","arrowleft","[0.325,0.675,0.85,0.15]","","",""
"sailing-trial","354","1803468","0.0-11.0-303.0","","","","false","","","","","","","","","","null","","512.6000000000931","","1","0","null","null","arrowup","[0.325,0.675,0.85,0.15]","","",""
"sailing-trial","355","1808529","0.0-11.0-304.0","","","","false","","","","","","","","","","1140.3000000002794","","425.89999999990687","","1","1","arrowleft","0","arrowright","[0.325,0.675,0.85,0.15]","","",""
"sailing-trial","356","1811084","0.0-11.0-305.0","","","","false","","","","","","","","","","null","","745.0999999996275","","0","0","null","null","arrowup","[0.325,0.675,0.85,0.15]","","",""
"sailing-trial","357","1815801","0.0-11.0-306.0","","","","false","","","","","","","","","","1038.7000000001863","","877.8000000002794","","2","1","arrowright","1","arrowleft","[0.325,0.675,0.85,0.15]","","",""
"sailing-trial","358","1819249","0.0-11.0-307.0","","","","false","","","","","","","","","","null","","1573.7999999998137","","1","1","null","null","arrowup","[0.325,0.675,0.85,0.15]","","",""
"sailing-trial","359","1822714","0.0-11.0-308.0","","","","false","","","","","","","","","","560.8000000002794","","81","","1","1","arrowleft","0","arrowright","[0.325,0.675,0.85,0.15]","","",""
"sailing-trial","360","1825405","0.0-11.0-309.0","","","","false","","","","","","","","","","null","","903.5","","3","0","null","null","arrowup","[0.325,0.675,0.85,0.15]","","",""
"sailing-trial","361","1830312","0.0-11.0-310.0","","","","false","","","","","","","","","","966.2000000001863","","1528.4000000003725","","3","0","arrowright","1","arrowright","[0.325,0.675,0.85,0.15]","","",""
"sailing-trial","362","1834368","0.0-11.0-311.0","","","","false","","","","","","","","","","null","","2107.2999999998137","","1","1","null","null","arrowup","[0.325,0.675,0.85,0.15]","","",""
"sailing-trial","363","1841477","0.0-11.0-312.0","","","","false","","","","","","","","","","3871.5999999996275","","240","","2","1","arrowright","1","arrowleft","[0.325,0.675,0.85,0.15]","","",""
"sailing-trial","364","1844412","0.0-11.0-313.0","","","","false","","","","","","","","","","null","","1001.8000000002794","","2","1","null","null","arrowup","[0.325,0.675,0.85,0.15]","","",""
"sailing-trial","365","1849767","0.0-11.0-314.0","","","","false","","","","","","","","","","592.7999999998137","","57.60000000009313","","2","1","arrowright","1","arrowleft","[0.325,0.675,0.85,0.15]","","",""
"sailing-trial","366","1851693","0.0-11.0-315.0","","","","false","","","","","","","","","","null","","799","","0","0","null","null","arrowup","[0.325,0.675,0.85,0.15]","","",""
"sailing-trial","367","1854329","0.0-11.0-316.0","","","","false","","","","","","","","","","237.39999999990687","","264.70000000018626","","2","0","arrowright","1","arrowleft","[0.675,0.325,0.15,0.85]","","",""
"sailing-trial","368","1857792","0.0-11.0-317.0","","","","false","","","","","","","","","","null","","1157.3999999999069","","0","1","null","null","arrowup","[0.675,0.325,0.15,0.85]","","",""
"sailing-trial","369","1860935","0.0-11.0-318.0","","","","false","","","","","","","","","","513.7000000001863","","148","","2","0","arrowright","1","arrowleft","[0.675,0.325,0.15,0.85]","","",""
"sailing-trial","370","1864853","0.0-11.0-319.0","","","","false","","","","","","","","","","null","","1144.7999999998137","","0","1","null","null","arrowup","[0.675,0.325,0.15,0.85]","","",""
"sailing-trial","371","1867935","0.0-11.0-320.0","","","","false","","","","","","","","","","81.70000000018626","","92.59999999962747","","2","0","arrowright","1","arrowleft","[0.675,0.325,0.15,0.85]","","",""
"sailing-trial","372","1871252","0.0-11.0-321.0","","","","false","","","","","","","","","","null","","1083","","3","1","null","null","arrowup","[0.675,0.325,0.15,0.85]","","",""
"sailing-trial","373","1877893","0.0-11.0-322.0","","","","false","","","","","","","","","","3400.899999999907","","214.39999999990687","","3","1","arrowright","1","arrowright","[0.675,0.325,0.15,0.85]","","",""
"sailing-trial","374","1883905","0.0-11.0-323.0","","","","false","","","","","","","","","","null","","2629.899999999907","","1","1","null","null","arrowup","[0.675,0.325,0.15,0.85]","","",""
"sailing-trial","375","1892388","0.0-11.0-324.0","","","","false","","","","","","","","","","6005.5","","325.60000000009313","","2","0","arrowright","1","arrowleft","[0.675,0.325,0.15,0.85]","","",""
"sailing-trial","376","1896281","0.0-11.0-325.0","","","","false","","","","","","","","","","null","","1033.3999999999069","","3","0","null","null","arrowup","[0.675,0.325,0.15,0.85]","","",""
"sailing-trial","377","1900718","0.0-11.0-326.0","","","","false","","","","","","","","","","1279.1000000000931","","310.89999999990687","","0","1","arrowleft","0","arrowleft","[0.675,0.325,0.15,0.85]","","",""
"sailing-trial","378","1903884","0.0-11.0-327.0","","","","false","","","","","","","","","","null","","1313.7999999998137","","1","0","null","null","arrowup","[0.675,0.325,0.15,0.85]","","",""
"sailing-trial","379","1909944","0.0-11.0-328.0","","","","false","","","","","","","","","","2984.7000000001863","","277","","0","1","arrowleft","0","arrowleft","[0.675,0.325,0.15,0.85]","","",""
"sailing-trial","380","1912945","0.0-11.0-329.0","","","","false","","","","","","","","","","null","","1303.3999999999069","","2","0","null","null","arrowup","[0.675,0.325,0.15,0.85]","","",""
"sailing-trial","381","1922546","0.0-11.0-330.0","","","","false","","","","","","","","","","693.7000000001863","","6066.399999999907","","0","1","arrowleft","0","arrowleft","[0.675,0.325,0.15,0.85]","","",""
"sailing-trial","382","1926615","0.0-11.0-331.0","","","","false","","","","","","","","","","null","","2278.7999999998137","","0","1","null","null","arrowup","[0.675,0.325,0.15,0.85]","","",""
"sailing-trial","383","1932747","0.0-11.0-332.0","","","","false","","","","","","","","","","1456.3999999999069","","1301.0999999996275","","3","0","arrowright","1","arrowright","[0.85,0.15,0.325,0.675]","","",""
"sailing-trial","384","1935053","0.0-11.0-333.0","","","","false","","","","","","","","","","null","","554.5","","0","1","null","null","arrowup","[0.85,0.15,0.325,0.675]","","",""
"sailing-trial","385","1938898","0.0-11.0-334.0","","","","false","","","","","","","","","","622.5","","239.79999999981374","","2","1","arrowright","1","arrowleft","[0.85,0.15,0.325,0.675]","","",""
"sailing-trial","386","1947059","0.0-11.0-335.0","","","","false","","","","","","","","","","null","","839.1000000000931","","0","1","null","null","arrowup","[0.85,0.15,0.325,0.675]","","",""
"sailing-trial","387","1951250","0.0-11.0-336.0","","","","false","","","","","","","","","","1183.3000000002794","","271.89999999990687","","1","0","arrowleft","0","arrowright","[0.85,0.15,0.325,0.675]","","",""
"sailing-trial","388","1954848","0.0-11.0-337.0","","","","false","","","","","","","","","","null","","1297.5","","0","1","null","null","arrowup","[0.85,0.15,0.325,0.675]","","",""
"sailing-trial","389","1958716","0.0-11.0-338.0","","","","false","","","","","","","","","","900.2999999998137","","55.39999999990687","","3","1","arrowright","1","arrowright","[0.85,0.15,0.325,0.675]","","",""
"sailing-trial","390","1961624","0.0-11.0-339.0","","","","false","","","","","","","","","","null","","694.8999999999069","","2","0","null","null","arrowup","[0.85,0.15,0.325,0.675]","","",""
"sailing-trial","391","1978805","0.0-11.0-340.0","","","","true","","","","","","","","","","2164.2999999998137","","null","","null","null","arrowleft","0","null","[0.85,0.15,0.325,0.675]","","",""
"sailing-trial","392","1982193","0.0-11.0-341.0","","","","false","","","","","","","","","","null","","1120.3999999999069","","3","1","null","null","arrowup","[0.85,0.15,0.325,0.675]","","",""
"sailing-trial","393","1985901","0.0-11.0-342.0","","","","false","","","","","","","","","","1203.4000000003725","","49","","2","0","arrowright","1","arrowleft","[0.85,0.15,0.325,0.675]","","",""
"sailing-trial","394","1989034","0.0-11.0-343.0","","","","false","","","","","","","","","","null","","1339.7000000001863","","3","0","null","null","arrowup","[0.85,0.15,0.325,0.675]","","",""
"sailing-trial","395","1992980","0.0-11.0-344.0","","","","false","","","","","","","","","","759","","229.5","","0","1","arrowleft","0","arrowleft","[0.85,0.15,0.325,0.675]","","",""
"sailing-trial","396","1996014","0.0-11.0-345.0","","","","false","","","","","","","","","","null","","814.5","","1","0","null","null","arrowup","[0.85,0.15,0.325,0.675]","","",""
"sailing-trial","397","2000512","0.0-11.0-346.0","","","","false","","","","","","","","","","1622.0999999996275","","137.5","","1","0","arrowleft","0","arrowright","[0.85,0.15,0.325,0.675]","","",""
"sailing-trial","398","2003919","0.0-11.0-347.0","","","","false","","","","","","","","","","null","","942.2000000001863","","0","1","null","null","arrowup","[0.85,0.15,0.325,0.675]","","",""
"sailing-trial","399","2008302","0.0-11.0-348.0","","","","false","","","","","","","","","","320.39999999990687","","960.8999999999069","","1","1","arrowleft","0","arrowright","[0.675,0.325,0.15,0.85]","","",""
"sailing-trial","400","2012662","0.0-11.0-349.0","","","","false","","","","","","","","","","null","","910","","0","1","null","null","arrowup","[0.675,0.325,0.15,0.85]","","",""
"sailing-trial","401","2016753","0.0-11.0-350.0","","","","false","","","","","","","","","","650.1999999997206","","69.79999999981374","","2","0","arrowright","1","arrowleft","[0.675,0.325,0.15,0.85]","","",""
"sailing-trial","402","2020253","0.0-11.0-351.0","","","","false","","","","","","","","","","null","","1744.1000000000931","","2","0","null","null","arrowup","[0.675,0.325,0.15,0.85]","","",""
"sailing-trial","403","2024814","0.0-11.0-352.0","","","","false","","","","","","","","","","1498.2999999998137","","278.5","","2","0","arrowright","1","arrowleft","[0.675,0.325,0.15,0.85]","","",""
"sailing-trial","404","2027694","0.0-11.0-353.0","","","","false","","","","","","","","","","null","","1203.8000000002794","","1","0","null","null","arrowup","[0.675,0.325,0.15,0.85]","","",""
"sailing-trial","405","2033981","0.0-11.0-354.0","","","","false","","","","","","","","","","1509.6000000000931","","2253.5","","0","0","arrowleft","0","arrowleft","[0.675,0.325,0.15,0.85]","","",""
"sailing-trial","406","2037016","0.0-11.0-355.0","","","","false","","","","","","","","","","null","","1002.7999999998137","","3","1","null","null","arrowup","[0.675,0.325,0.15,0.85]","","",""
"sailing-trial","407","2043413","0.0-11.0-356.0","","","","false","","","","","","","","","","2026.8999999999069","","957.8999999999069","","0","1","arrowleft","0","arrowleft","[0.675,0.325,0.15,0.85]","","",""
"sailing-trial","408","2046730","0.0-11.0-357.0","","","","false","","","","","","","","","","null","","1126.3000000002794","","2","1","null","null","arrowup","[0.675,0.325,0.15,0.85]","","",""
"sailing-trial","409","2050831","0.0-11.0-358.0","","","","false","","","","","","","","","","766.1999999997206","","596.8999999999069","","1","0","arrowleft","0","arrowright","[0.675,0.325,0.15,0.85]","","",""
"sailing-trial","410","2056286","0.0-11.0-359.0","","","","false","","","","","","","","","","null","","2114.600000000093","","0","1","null","null","arrowup","[0.675,0.325,0.15,0.85]","","",""
"sailing-trial","411","2059530","0.0-11.0-360.0","","","","false","","","","","","","","","","486.89999999990687","","63.10000000009313","","0","1","arrowleft","0","arrowleft","[0.675,0.325,0.15,0.85]","","",""
"sailing-trial","412","2062462","0.0-11.0-361.0","","","","false","","","","","","","","","","null","","1016.2000000001863","","0","1","null","null","arrowup","[0.675,0.325,0.15,0.85]","","",""
"sailing-trial","413","2066526","0.0-11.0-362.0","","","","false","","","","","","","","","","542.6999999997206","","605.8999999999069","","0","1","arrowleft","0","arrowleft","[0.675,0.325,0.15,0.85]","","",""
"sailing-trial","414","2070321","0.0-11.0-363.0","","","","false","","","","","","","","","","null","","924.1000000000931","","0","1","null","null","arrowup","[0.675,0.325,0.15,0.85]","","",""
"sailing-trial","415","2074265","0.0-11.0-364.0","","","","false","","","","","","","","","","1043.8999999999069","","209.29999999981374","","2","0","arrowright","1","arrowleft","[0.85,0.15,0.325,0.675]","","",""
"sailing-trial","416","2077062","0.0-11.0-365.0","","","","false","","","","","","","","","","null","","877.3999999999069","","3","1","null","null","arrowup","[0.85,0.15,0.325,0.675]","","",""
"sailing-trial","417","2080362","0.0-11.0-366.0","","","","false","","","","","","","","","","589.1999999997206","","251.29999999981374","","2","0","arrowright","1","arrowleft","[0.85,0.15,0.325,0.675]","","",""
"sailing-trial","418","2083574","0.0-11.0-367.0","","","","false","","","","","","","","","","null","","751.3999999999069","","0","1","null","null","arrowup","[0.85,0.15,0.325,0.675]","","",""
"sailing-trial","419","2087517","0.0-11.0-368.0","","","","false","","","","","","","","","","411.5","","348.20000000018626","","0","1","arrowleft","0","arrowleft","[0.85,0.15,0.325,0.675]","","",""
"sailing-trial","420","2091000","0.0-11.0-369.0","","","","false","","","","","","","","","","null","","1301.6000000000931","","3","0","null","null","arrowup","[0.85,0.15,0.325,0.675]","","",""
"sailing-trial","421","2095185","0.0-11.0-370.0","","","","false","","","","","","","","","","865.8000000002794","","341.1999999997206","","3","1","arrowright","1","arrowright","[0.85,0.15,0.325,0.675]","","",""
"sailing-trial","422","2097507","0.0-11.0-371.0","","","","false","","","","","","","","","","null","","681.3000000002794","","1","0","null","null","arrowup","[0.85,0.15,0.325,0.675]","","",""
"sailing-trial","423","2101588","0.0-11.0-372.0","","","","false","","","","","","","","","","623.3000000002794","","695.7000000001863","","3","1","arrowright","1","arrowright","[0.85,0.15,0.325,0.675]","","",""
"sailing-trial","424","2103610","0.0-11.0-373.0","","","","false","","","","","","","","","","null","","825.2999999998137","","2","0","null","null","arrowup","[0.85,0.15,0.325,0.675]","","",""
"sailing-trial","425","2106584","0.0-11.0-374.0","","","","false","","","","","","","","","","219.90000000037253","","115.39999999990687","","3","1","arrowright","1","arrowright","[0.85,0.15,0.325,0.675]","","",""
"sailing-trial","426","2108770","0.0-11.0-375.0","","","","false","","","","","","","","","","null","","822","","0","0","null","null","arrowup","[0.85,0.15,0.325,0.675]","","",""
"sailing-trial","427","2111762","0.0-11.0-376.0","","","","false","","","","","","","","","","141.1999999997206","","263.60000000009313","","2","1","arrowright","1","arrowleft","[0.85,0.15,0.325,0.675]","","",""
"sailing-trial","428","2113933","0.0-11.0-377.0","","","","false","","","","","","","","","","null","","970.2000000001863","","2","0","null","null","arrowup","[0.85,0.15,0.325,0.675]","","",""
"sailing-trial","429","2116887","0.0-11.0-378.0","","","","false","","","","","","","","","","311.39999999990687","","483.89999999990687","","3","0","arrowright","1","arrowright","[0.85,0.15,0.325,0.675]","","",""
"sailing-trial","430","2120086","0.0-11.0-379.0","","","","false","","","","","","","","","","null","","891","","3","1","null","null","arrowup","[0.85,0.15,0.325,0.675]","","",""
"sailing-trial","431","2123230","0.0-11.0-380.0","","","","false","","","","","","","","","","493.5","","396.6999999997206","","3","0","arrowright","1","arrowright","[0.85,0.15,0.325,0.675]","","",""
"sailing-trial","432","2125749","0.0-11.0-381.0","","","","false","","","","","","","","","","null","","493.29999999981374","","2","1","null","null","arrowup","[0.85,0.15,0.325,0.675]","","",""
"sailing-trial","433","2128914","0.0-11.0-382.0","","","","false","","","","","","","","","","199.5","","404","","2","0","arrowright","1","arrowleft","[0.85,0.15,0.325,0.675]","","",""
"sailing-trial","434","2131646","0.0-11.0-383.0","","","","false","","","","","","","","","","null","","930.1000000000931","","3","0","null","null","arrowup","[0.85,0.15,0.325,0.675]","","",""
"sailing-trial","435","2135956","0.0-11.0-384.0","","","","false","","","","","","","","","","496.90000000037253","","991.1999999997206","","1","0","arrowleft","0","arrowright","[0.675,0.325,0.15,0.85]","","",""
"sailing-trial","436","2140267","0.0-11.0-385.0","","","","false","","","","","","","","","","null","","1241.7999999998137","","3","1","null","null","arrowup","[0.675,0.325,0.15,0.85]","","",""
"sailing-trial","437","2143744","0.0-11.0-386.0","","","","false","","","","","","","","","","315.79999999981374","","64.70000000018626","","0","1","arrowleft","0","arrowleft","[0.675,0.325,0.15,0.85]","","",""
"sailing-trial","438","2146379","0.0-11.0-387.0","","","","false","","","","","","","","","","null","","365.29999999981374","","2","0","null","null","arrowup","[0.675,0.325,0.15,0.85]","","",""
"sailing-trial","439","2150441","0.0-11.0-388.0","","","","false","","","","","","","","","","627.8000000002794","","587.6999999997206","","3","1","arrowright","1","arrowright","[0.675,0.325,0.15,0.85]","","",""
"sailing-trial","440","2153618","0.0-11.0-389.0","","","","false","","","","","","","","","","null","","761.7000000001863","","3","1","null","null","arrowup","[0.675,0.325,0.15,0.85]","","",""
"sailing-trial","441","2158952","0.0-11.0-390.0","","","","false","","","","","","","","","","749.2000000001863","","1555.7000000001863","","2","1","arrowright","1","arrowleft","[0.675,0.325,0.15,0.85]","","",""
"sailing-trial","442","2165959","0.0-11.0-391.0","","","","false","","","","","","","","","","null","","815.8999999999069","","3","1","null","null","arrowup","[0.675,0.325,0.15,0.85]","","",""
"sailing-trial","443","2170725","0.0-11.0-392.0","","","","false","","","","","","","","","","1273.5","","393.6999999997206","","0","1","arrowleft","0","arrowleft","[0.675,0.325,0.15,0.85]","","",""
"sailing-trial","444","2173637","0.0-11.0-393.0","","","","false","","","","","","","","","","null","","1521.9000000003725","","1","0","null","null","arrowup","[0.675,0.325,0.15,0.85]","","",""
"sailing-trial","445","2176592","0.0-11.0-394.0","","","","false","","","","","","","","","","595.7999999998137","","23.200000000186265","","0","0","arrowleft","0","arrowleft","[0.675,0.325,0.15,0.85]","","",""
"sailing-trial","446","2181496","0.0-11.0-395.0","","","","false","","","","","","","","","","null","","2148.2999999998137","","3","1","null","null","arrowup","[0.675,0.325,0.15,0.85]","","",""
"sailing-trial","447","2186189","0.0-11.0-396.0","","","","false","","","","","","","","","","845.3999999999069","","333.90000000037253","","1","0","arrowleft","0","arrowright","[0.675,0.325,0.15,0.85]","","",""
"sailing-trial","448","2188203","0.0-11.0-397.0","","","","false","","","","","","","","","","null","","941.6000000000931","","2","0","null","null","arrowup","[0.675,0.325,0.15,0.85]","","",""
"sailing-trial","449","2191937","0.0-11.0-398.0","","","","false","","","","","","","","","","320","","534","","2","0","arrowright","1","arrowleft","[0.675,0.325,0.15,0.85]","","",""
"sailing-trial","450","2195399","0.0-11.0-399.0","","","","false","","","","","","","","","","null","","925.1000000000931","","3","1","null","null","arrowup","[0.675,0.325,0.15,0.85]","","",""
"instructions","451","2203687","0.0-12.0","","","","","","","","","","8285.30000000028","","","","","","","","","","","","","","","","[{""page_index"":0,""viewing_time"":8283.399999999907}]"
"survey-debrief","452","2318702","0.0-13.0","","","","","","","","","","115006.70000000019","","","","","","","","","","","","","","{""difficulty"":""5"",""fun"":""1"",""clarity"":""5"",""strategy"":""No, it was to  boring "",""feedback"":""Nope ""}","",""
