"trial_type","trial_index","time_elapsed","internal_node_id","value","metadata","success","timeout","failed_images","failed_audio","failed_video","browser_interaction","low_quality","rt","stimulus","response","button_pressed","island_rt","island_response","boat_rt","boat_response","boat","reward","island_key","island","boat_key","reward_probabilities","responses","num_errors","view_history"
"pavlovia","0","5","0.0-0.0","","","","","","","","","","","","","","","","","","","","","","","","","",""
"call-function","1","6","0.0-1.0","","{""task_version"":""sailing_part1_v1"",""task_condition"":""good"",""boats"":[""B"",""A"",""D"",""C""],""boats_demo"":[""E"",""H"",""G"",""F""],""islands"":[""B"",""A""],""subject_id"":""15198"",""age"":""19"",""gender"":""Male""}","","","","","","","","","","","","","","","","","","","","","","","",""
"preload","2","1939","0.0-2.0","","","true","false","[]","[]","[]","[{""event"":""fullscreenenter"",""trial"":3,""time"":11020}]","false","","","","","","","","","","","","","","","","",""
"fullscreen","3","12005","0.0-3.0","","","true","","","","","[{""event"":""fullscreenenter"",""trial"":3,""time"":11020},{""event"":""blur"",""trial"":4,""time"":12443},{""event"":""focus"",""trial"":4,""time"":13743}]","false","","","","","","","","","","","","","","","","",""
"audio-keyboard-response","4","14098","0.0-4.0-0.0","","","","","","","","","","2090.6666666666674","audio/beep_loop.wav"," ","","","","","","","","","","","","","",""
"audio-test","5","15852","0.0-4.0-1.0","","","","","","","","","","null","audio/turtle.mp3","","3","","","","","","","","","","","","",""
"audio-test","6","18140","0.0-4.0-2.0","","","","","","","","[{""event"":""fullscreenenter"",""trial"":3,""time"":11020},{""event"":""blur"",""trial"":4,""time"":12443},{""event"":""focus"",""trial"":4,""time"":13743},{""event"":""blur"",""trial"":7,""time"":41135},{""event"":""focus"",""trial"":7,""time"":46620}]","false","null","audio/shark.mp3","","2","","","","","","","","","","","","",""
"sailing-instructions","7","60958","0.0-5.0-0.0-0.0","","","","","","","","","","","","","","null","null","null","null","null","null","","","","","","",""
"sailing-trial","8","64271","0.0-5.0-0.0-1.0-0.0","","","","false","","","","","","","","","","2155","","null","","null","null","arrowleft","0","null","null","","",""
"sailing-trial","9","66705","0.0-5.0-0.0-1.0-1.0","","","","false","","","","","","","","","","1297.8999999761581","","null","","null","null","arrowright","1","null","null","","",""
"sailing-trial","10","69136","0.0-5.0-0.0-1.0-2.0","","","","false","","","","","","","","","","1286.8999999761581","","null","","null","null","arrowleft","0","null","null","","",""
"sailing-instructions","11","108661","0.0-5.0-0.0-2.0","","","","","","","","","","","","","","null","null","null","null","0","null","","","","","","",""
"sailing-trial","12","113770","0.0-5.0-0.0-3.0-0.0","","","","false","","","","","","","","","","null","","1885.2999999523163","","2","1","null","null","arrowleft","[1,1,1,1]","","",""
"sailing-trial","13","117337","0.0-5.0-0.0-3.0-1.0","","","","false","","","","","","","","","","null","","683.5999999046326","","3","1","null","null","arrowright","[1,1,1,1]","","",""
"sailing-trial","14","120930","0.0-5.0-0.0-3.0-2.0","","","","false","","","","","","","","","","null","","931.3999999761581","","3","0","null","null","arrowright","[0,0,0,0]","","",""
"sailing-instructions","15","128037","0.0-5.0-0.0-4.0","","","","","","","","","","","","","","null","null","null","null","null","null","","","","","","",""
"sailing-comprehension","16","144962","0.0-5.0-0.0-5.0","","","","","","","","","","14024.699999928474","","","","","","","","","","","","","","[""true"",""true"",""false"",""true""]","0",""
"sailing-instructions","17","204954","0.0-6.0-0.0-0.0","","","","","","","","","","","","","","null","null","null","null","null","null","","","","","","",""
"sailing-comprehension","18","218793","0.0-6.0-0.0-1.0","","","","","","","","","","12328.399999976158","","","","","","","","","","","","","","[""true"",""false"",""true""]","0",""
"sailing-instructions","19","234669","0.0-7.0-0.0-0.0","","","","","","","","","","","","","","null","null","null","null","null","null","","","","","","",""
"sailing-trial","20","239774","0.0-7.0-0.0-1.0-0.0","","","","false","","","","","","","","","","null","","2734","","0","0","null","null","arrowup","[0.2,0.8,0.2,0.8]","","",""
"sailing-trial","21","242766","0.0-7.0-0.0-1.0-1.0","","","","false","","","","","","","","","","null","","1033.9000000953674","","1","1","null","null","arrowup","[0.2,0.8,0.2,0.8]","","",""
"sailing-trial","22","245367","0.0-7.0-0.0-1.0-2.0","","","","false","","","","","","","","","","null","","1014.7999999523163","","2","1","null","null","arrowup","[0.2,0.8,0.2,0.8]","","",""
"sailing-trial","23","247784","0.0-7.0-0.0-1.0-3.0","","","","false","","","","","","","","","","null","","778.9000000953674","","3","1","null","null","arrowup","[0.2,0.8,0.2,0.8]","","",""
"sailing-comprehension","24","254889","0.0-7.0-0.0-2.0","","","","","","","","","","5821.600000023842","","","","","","","","","","","","","","[""false""]","0",""
"sailing-instructions","25","266942","0.0-8.0-0.0-0.0","","","","","","","","","","","","","","null","null","null","null","null","null","","","","","","",""
"sailing-comprehension","26","271782","0.0-8.0-0.0-1.0","","","","","","","","","","3436.7000000476837","","","","","","","","","","","","","","[""true""]","0",""
"sailing-instructions","27","297514","0.0-9.0-0.0-0.0","","","","","","","","","","","","","","null","null","null","null","null","null","","","","","","",""
"sailing-trial","28","301716","0.0-9.0-0.0-1.0-0.0","","","","false","","","","","","","","","","877.1000000238419","","134.19999992847443","","3","1","arrowright","1","arrowright","[0.2,0.8,0.2,0.8]","","",""
"sailing-trial","29","305632","0.0-9.0-0.0-1.0-1.0","","","","false","","","","","","","","","","384.3000000715256","","100.30000007152557","","3","1","arrowright","1","arrowright","[0.2,0.8,0.2,0.8]","","",""
"sailing-trial","30","308236","0.0-9.0-0.0-1.0-2.0","","","","false","","","","","","","","","","null","","1468","","0","0","null","null","arrowup","[0.2,0.8,0.2,0.8]","","",""
"sailing-trial","31","311848","0.0-9.0-0.0-1.0-3.0","","","","false","","","","","","","","","","480.60000002384186","","19.800000071525574","","3","1","arrowright","1","arrowright","[0.2,0.8,0.2,0.8]","","",""
"sailing-trial","32","315448","0.0-9.0-0.0-1.0-4.0","","","","false","","","","","","","","","","null","","1771.1999999284744","","3","1","null","null","arrowup","[0.2,0.8,0.2,0.8]","","",""
"sailing-trial","33","319081","0.0-9.0-0.0-1.0-5.0","","","","false","","","","","","","","","","595.2999999523163","","42.5","","3","1","arrowright","1","arrowright","[0.2,0.8,0.2,0.8]","","",""
"sailing-instructions","34","343769","0.0-10.0","","","","","","","","","","","","","","null","null","null","null","null","null","","","","","","",""
"sailing-trial","35","348132","0.0-11.0-0.0","","","","false","","","","","","","","","","999","","249.20000004768372","","3","1","arrowright","1","arrowright","[0.15,0.85,0.325,0.675]","","",""
"sailing-trial","36","351620","0.0-11.0-1.0","","","","false","","","","","","","","","","null","","1386.5","","0","0","null","null","arrowup","[0.15,0.85,0.325,0.675]","","",""
"sailing-trial","37","354367","0.0-11.0-2.0","","","","false","","","","","","","","","","177.79999995231628","","90.19999992847443","","3","0","arrowright","1","arrowright","[0.15,0.85,0.325,0.675]","","",""
"sailing-trial","38","356535","0.0-11.0-3.0","","","","false","","","","","","","","","","null","","1117.3999999761581","","2","0","null","null","arrowup","[0.15,0.85,0.325,0.675]","","",""
"sailing-trial","39","359647","0.0-11.0-4.0","","","","false","","","","","","","","","","243.60000002384186","","34.300000071525574","","3","1","arrowright","1","arrowright","[0.15,0.85,0.325,0.675]","","",""
"sailing-trial","40","362164","0.0-11.0-5.0","","","","false","","","","","","","","","","null","","1389.2000000476837","","2","0","null","null","arrowup","[0.15,0.85,0.325,0.675]","","",""
"sailing-trial","41","364465","0.0-11.0-6.0","","","","false","","","","","","","","","","19.5","","24.300000071525574","","3","0","arrowright","1","arrowright","[0.15,0.85,0.325,0.675]","","",""
"sailing-trial","42","367430","0.0-11.0-7.0","","","","false","","","","","","","","","","null","","970.1000000238419","","1","1","null","null","arrowup","[0.15,0.85,0.325,0.675]","","",""
"sailing-trial","43","370228","0.0-11.0-8.0","","","","false","","","","","","","","","","157.29999995231628","","274","","1","0","arrowleft","0","arrowright","[0.15,0.85,0.325,0.675]","","",""
"sailing-trial","44","372759","0.0-11.0-9.0","","","","false","","","","","","","","","","null","","1483","","0","0","null","null","arrowup","[0.15,0.85,0.325,0.675]","","",""
"sailing-trial","45","375691","0.0-11.0-10.0","","","","false","","","","","","","","","","614.3000000715256","","179.90000009536743","","2","0","arrowright","1","arrowleft","[0.15,0.85,0.325,0.675]","","",""
"sailing-trial","46","379296","0.0-11.0-11.0","","","","false","","","","","","","","","","null","","1909.6999999284744","","1","1","null","null","arrowup","[0.15,0.85,0.325,0.675]","","",""
"sailing-trial","47","382581","0.0-11.0-12.0","","","","false","","","","","","","","","","299.8000000715256","","79.5","","1","1","arrowleft","0","arrowright","[0.15,0.85,0.325,0.675]","","",""
"sailing-trial","48","384928","0.0-11.0-13.0","","","","false","","","","","","","","","","null","","1212.2999999523163","","3","0","null","null","arrowup","[0.15,0.85,0.325,0.675]","","",""
"sailing-trial","49","388263","0.0-11.0-14.0","","","","false","","","","","","","","","","513.5","","70","","1","1","arrowleft","0","arrowright","[0.15,0.85,0.325,0.675]","","",""
"sailing-trial","50","391387","0.0-11.0-15.0","","","","false","","","","","","","","","","null","","2012.3000000715256","","2","0","null","null","arrowup","[0.15,0.85,0.325,0.675]","","",""
"sailing-trial","51","394150","0.0-11.0-16.0","","","","false","","","","","","","","","","350.10000002384186","","235.60000002384186","","1","0","arrowleft","0","arrowright","[0.675,0.325,0.85,0.15]","","",""
"sailing-trial","52","396436","0.0-11.0-17.0","","","","false","","","","","","","","","","null","","1161.6000000238419","","0","0","null","null","arrowup","[0.675,0.325,0.85,0.15]","","",""
"sailing-trial","53","399102","0.0-11.0-18.0","","","","false","","","","","","","","","","405.2999999523163","","67.80000007152557","","1","0","arrowleft","0","arrowright","[0.675,0.325,0.85,0.15]","","",""
"sailing-trial","54","401763","0.0-11.0-19.0","","","","false","","","","","","","","","","null","","952.8999999761581","","2","1","null","null","arrowup","[0.675,0.325,0.85,0.15]","","",""
"sailing-trial","55","405012","0.0-11.0-20.0","","","","false","","","","","","","","","","151.39999997615814","","86.89999997615814","","2","1","arrowright","1","arrowleft","[0.675,0.325,0.85,0.15]","","",""
"sailing-trial","56","407094","0.0-11.0-21.0","","","","false","","","","","","","","","","null","","858.2999999523163","","0","0","null","null","arrowup","[0.675,0.325,0.85,0.15]","","",""
"sailing-trial","57","410061","0.0-11.0-22.0","","","","false","","","","","","","","","","10.100000023841858","","138.20000004768372","","2","1","arrowright","1","arrowleft","[0.675,0.325,0.85,0.15]","","",""
"sailing-trial","58","411436","0.0-11.0-23.0","","","","false","","","","","","","","","","null","","176.70000004768372","","1","0","null","null","arrowup","[0.675,0.325,0.85,0.15]","","",""
"sailing-trial","59","414067","0.0-11.0-24.0","","","","false","","","","","","","","","","220.5","","89.89999997615814","","2","0","arrowright","1","arrowleft","[0.675,0.325,0.85,0.15]","","",""
"sailing-trial","60","416468","0.0-11.0-25.0","","","","false","","","","","","","","","","null","","1208.5","","3","0","null","null","arrowup","[0.675,0.325,0.85,0.15]","","",""
"sailing-trial","61","419579","0.0-11.0-26.0","","","","false","","","","","","","","","","217.19999992847443","","158.79999995231628","","2","1","arrowright","1","arrowleft","[0.675,0.325,0.85,0.15]","","",""
"sailing-trial","62","421616","0.0-11.0-27.0","","","","false","","","","","","","","","","null","","870.1000000238419","","3","0","null","null","arrowup","[0.675,0.325,0.85,0.15]","","",""
"sailing-trial","63","424012","0.0-11.0-28.0","","","","false","","","","","","","","","","64.59999990463257","","53.39999997615814","","2","0","arrowright","1","arrowleft","[0.675,0.325,0.85,0.15]","","",""
"sailing-trial","64","425524","0.0-11.0-29.0","","","","false","","","","","","","","","","null","","140.39999997615814","","1","0","null","null","arrowup","[0.675,0.325,0.85,0.15]","","",""
"sailing-trial","65","428545","0.0-11.0-30.0","","","","false","","","","","","","","","","151.80000007152557","","157.20000004768372","","2","1","arrowright","1","arrowleft","[0.675,0.325,0.85,0.15]","","",""
"sailing-trial","66","430664","0.0-11.0-31.0","","","","false","","","","","","","","","","null","","1049.5","","3","0","null","null","arrowup","[0.675,0.325,0.85,0.15]","","",""
"sailing-trial","67","433662","0.0-11.0-32.0","","","","false","","","","","","","","","","40.699999928474426","","97.19999992847443","","2","1","arrowright","1","arrowleft","[0.85,0.15,0.675,0.325]","","",""
"sailing-trial","68","435163","0.0-11.0-33.0","","","","false","","","","","","","","","","null","","56","","0","0","null","null","arrowup","[0.85,0.15,0.675,0.325]","","",""
"sailing-trial","69","438094","0.0-11.0-34.0","","","","false","","","","","","","","","","83.59999990463257","","34.199999928474426","","2","1","arrowright","1","arrowleft","[0.85,0.15,0.675,0.325]","","",""
"sailing-trial","70","439453","0.0-11.0-35.0","","","","false","","","","","","","","","","null","","168.40000009536743","","2","0","null","null","arrowup","[0.85,0.15,0.675,0.325]","","",""
"sailing-trial","71","442544","0.0-11.0-36.0","","","","false","","","","","","","","","","56.699999928474426","","1.5","","2","1","arrowright","1","arrowleft","[0.85,0.15,0.675,0.325]","","",""
"sailing-trial","72","444845","0.0-11.0-37.0","","","","false","","","","","","","","","","null","","90.5","","2","1","null","null","arrowup","[0.85,0.15,0.675,0.325]","","",""
"sailing-trial","73","447980","0.0-11.0-38.0","","","","false","","","","","","","","","","46.89999997615814","","140.29999995231628","","2","1","arrowright","1","arrowleft","[0.85,0.15,0.675,0.325]","","",""
"sailing-trial","74","449189","0.0-11.0-39.0","","","","false","","","","","","","","","","null","","170.09999990463257","","3","0","null","null","arrowup","[0.85,0.15,0.675,0.325]","","",""
"sailing-trial","75","452396","0.0-11.0-40.0","","","","false","","","","","","","","","","256.59999990463257","","100.39999997615814","","2","1","arrowright","1","arrowleft","[0.85,0.15,0.675,0.325]","","",""
"sailing-trial","76","454211","0.0-11.0-41.0","","","","false","","","","","","","","","","null","","46.699999928474426","","2","1","null","null","arrowup","[0.85,0.15,0.675,0.325]","","",""
"sailing-trial","77","457264","0.0-11.0-42.0","","","","false","","","","","","","","","","83.89999997615814","","189.60000002384186","","2","1","arrowright","1","arrowleft","[0.85,0.15,0.675,0.325]","","",""
"sailing-trial","78","458431","0.0-11.0-43.0","","","","false","","","","","","","","","","null","","39.299999952316284","","1","0","null","null","arrowup","[0.85,0.15,0.675,0.325]","","",""
"sailing-trial","79","461427","0.0-11.0-44.0","","","","false","","","","","","","","","","65.10000002384186","","61.5","","2","1","arrowright","1","arrowleft","[0.85,0.15,0.675,0.325]","","",""
"sailing-trial","80","462754","0.0-11.0-45.0","","","","false","","","","","","","","","","null","","158.60000002384186","","1","0","null","null","arrowup","[0.85,0.15,0.675,0.325]","","",""
"sailing-trial","81","465660","0.0-11.0-46.0","","","","false","","","","","","","","","","35.10000002384186","","137.5","","2","1","arrowright","1","arrowleft","[0.85,0.15,0.675,0.325]","","",""
"sailing-trial","82","467494","0.0-11.0-47.0","","","","false","","","","","","","","","","null","","102.89999997615814","","2","1","null","null","arrowup","[0.85,0.15,0.675,0.325]","","",""
"sailing-trial","83","469952","0.0-11.0-48.0","","","","false","","","","","","","","","","132","","138.70000004768372","","2","0","arrowright","1","arrowleft","[0.85,0.15,0.675,0.325]","","",""
"sailing-trial","84","472003","0.0-11.0-49.0","","","","false","","","","","","","","","","null","","846.2000000476837","","1","0","null","null","arrowup","[0.85,0.15,0.675,0.325]","","",""
"sailing-trial","85","474695","0.0-11.0-50.0","","","","false","","","","","","","","","","98.89999997615814","","152","","2","0","arrowright","1","arrowleft","[0.15,0.85,0.325,0.675]","","",""
"sailing-trial","86","477444","0.0-11.0-51.0","","","","false","","","","","","","","","","null","","1121.6000000238419","","0","1","null","null","arrowup","[0.15,0.85,0.325,0.675]","","",""
"sailing-trial","87","479843","0.0-11.0-52.0","","","","false","","","","","","","","","","155.70000004768372","","75.79999995231628","","0","0","arrowleft","0","arrowleft","[0.15,0.85,0.325,0.675]","","",""
"sailing-trial","88","481821","0.0-11.0-53.0","","","","false","","","","","","","","","","null","","911.6000000238419","","0","0","null","null","arrowup","[0.15,0.85,0.325,0.675]","","",""
"sailing-trial","89","484860","0.0-11.0-54.0","","","","false","","","","","","","","","","147.90000009536743","","151.40000009536743","","2","1","arrowright","1","arrowleft","[0.15,0.85,0.325,0.675]","","",""
"sailing-trial","90","486660","0.0-11.0-55.0","","","","false","","","","","","","","","","null","","165.79999995231628","","3","1","null","null","arrowup","[0.15,0.85,0.325,0.675]","","",""
"sailing-trial","91","489910","0.0-11.0-56.0","","","","false","","","","","","","","","","118.79999995231628","","161.09999990463257","","2","1","arrowright","1","arrowleft","[0.15,0.85,0.325,0.675]","","",""
"sailing-trial","92","491210","0.0-11.0-57.0","","","","false","","","","","","","","","","null","","151.89999997615814","","2","0","null","null","arrowup","[0.15,0.85,0.325,0.675]","","",""
"sailing-trial","93","493786","0.0-11.0-58.0","","","","false","","","","","","","","","","215.19999992847443","","52.5","","2","0","arrowright","1","arrowleft","[0.15,0.85,0.325,0.675]","","",""
"sailing-trial","94","495609","0.0-11.0-59.0","","","","false","","","","","","","","","","null","","94.39999997615814","","3","1","null","null","arrowup","[0.15,0.85,0.325,0.675]","","",""
"sailing-trial","95","497905","0.0-11.0-60.0","","","","false","","","","","","","","","","117.70000004768372","","23","","2","0","arrowright","1","arrowleft","[0.15,0.85,0.325,0.675]","","",""
"sailing-trial","96","499694","0.0-11.0-61.0","","","","false","","","","","","","","","","null","","38.10000002384186","","2","1","null","null","arrowup","[0.15,0.85,0.325,0.675]","","",""
"sailing-trial","97","502760","0.0-11.0-62.0","","","","false","","","","","","","","","","94.70000004768372","","118.79999995231628","","2","1","arrowright","1","arrowleft","[0.15,0.85,0.325,0.675]","","",""
"sailing-trial","98","504014","0.0-11.0-63.0","","","","false","","","","","","","","","","null","","34.200000047683716","","1","0","null","null","arrowup","[0.15,0.85,0.325,0.675]","","",""
"sailing-trial","99","506354","0.0-11.0-64.0","","","","false","","","","","","","","","","55.40000009536743","","110.60000002384186","","2","0","arrowright","1","arrowleft","[0.15,0.85,0.325,0.675]","","",""
"sailing-trial","100","508227","0.0-11.0-65.0","","","","false","","","","","","","","","","null","","110","","1","1","null","null","arrowup","[0.15,0.85,0.325,0.675]","","",""
"sailing-trial","101","510768","0.0-11.0-66.0","","","","false","","","","","","","","","","145.10000002384186","","158","","2","0","arrowright","1","arrowleft","[0.15,0.85,0.325,0.675]","","",""
"sailing-trial","102","512027","0.0-11.0-67.0","","","","false","","","","","","","","","","null","","48.90000009536743","","0","0","null","null","arrowup","[0.15,0.85,0.325,0.675]","","",""
"sailing-trial","103","514843","0.0-11.0-68.0","","","","false","","","","","","","","","","71.69999992847443","","20.299999952316284","","3","1","arrowright","1","arrowright","[0.15,0.85,0.325,0.675]","","",""
"sailing-trial","104","518044","0.0-11.0-69.0","","","","false","","","","","","","","","","null","","149.89999997615814","","3","0","null","null","arrowup","[0.15,0.85,0.325,0.675]","","",""
"sailing-trial","105","520910","0.0-11.0-70.0","","","","false","","","","","","","","","","52.200000047683716","","17.90000009536743","","3","1","arrowright","1","arrowright","[0.325,0.675,0.15,0.85]","","",""
"sailing-trial","106","522760","0.0-11.0-71.0","","","","false","","","","","","","","","","null","","157.19999992847443","","1","1","null","null","arrowup","[0.325,0.675,0.15,0.85]","","",""
"sailing-trial","107","525693","0.0-11.0-72.0","","","","false","","","","","","","","","","83.30000007152557","","90.39999997615814","","3","1","arrowright","1","arrowright","[0.325,0.675,0.15,0.85]","","",""
"sailing-trial","108","527476","0.0-11.0-73.0","","","","false","","","","","","","","","","null","","101.80000007152557","","3","1","null","null","arrowup","[0.325,0.675,0.15,0.85]","","",""
"sailing-trial","109","530276","0.0-11.0-74.0","","","","false","","","","","","","","","","32.60000002384186","","48.39999997615814","","3","1","arrowright","1","arrowright","[0.325,0.675,0.15,0.85]","","",""
"sailing-trial","110","532059","0.0-11.0-75.0","","","","false","","","","","","","","","","null","","148.29999995231628","","1","1","null","null","arrowup","[0.325,0.675,0.15,0.85]","","",""
"sailing-trial","111","534925","0.0-11.0-76.0","","","","false","","","","","","","","","","20.300000071525574","","132.19999992847443","","3","1","arrowright","1","arrowright","[0.325,0.675,0.15,0.85]","","",""
"sailing-trial","112","536775","0.0-11.0-77.0","","","","false","","","","","","","","","","null","","94.39999997615814","","3","1","null","null","arrowup","[0.325,0.675,0.15,0.85]","","",""
"sailing-trial","113","540095","0.0-11.0-78.0","","","","false","","","","","","","","","","169.79999995231628","","972.1000000238419","","3","0","arrowright","1","arrowright","[0.325,0.675,0.15,0.85]","","",""
"sailing-trial","114","541410","0.0-11.0-79.0","","","","false","","","","","","","","","","null","","139.10000002384186","","0","0","null","null","arrowup","[0.325,0.675,0.15,0.85]","","",""
"sailing-trial","115","544343","0.0-11.0-80.0","","","","false","","","","","","","","","","135.39999997615814","","23.199999928474426","","3","1","arrowright","1","arrowright","[0.325,0.675,0.15,0.85]","","",""
"sailing-trial","116","546008","0.0-11.0-81.0","","","","false","","","","","","","","","","null","","59.60000002384186","","3","1","null","null","arrowup","[0.325,0.675,0.15,0.85]","","",""
"sailing-trial","117","548410","0.0-11.0-82.0","","","","false","","","","","","","","","","155.19999992847443","","2.600000023841858","","3","0","arrowright","1","arrowright","[0.325,0.675,0.15,0.85]","","",""
"sailing-trial","118","549726","0.0-11.0-83.0","","","","false","","","","","","","","","","null","","102.90000009536743","","1","0","null","null","arrowup","[0.325,0.675,0.15,0.85]","","",""
"sailing-trial","119","552152","0.0-11.0-84.0","","","","false","","","","","","","","","","6.5","","247.70000004768372","","3","0","arrowright","1","arrowright","[0.325,0.675,0.15,0.85]","","",""
"sailing-trial","120","553514","0.0-11.0-85.0","","","","false","","","","","","","","","","null","","234.10000002384186","","2","0","null","null","arrowup","[0.325,0.675,0.15,0.85]","","",""
"sailing-trial","121","556426","0.0-11.0-86.0","","","","false","","","","","","","","","","12.100000023841858","","118.09999990463257","","3","1","arrowright","1","arrowright","[0.325,0.675,0.15,0.85]","","",""
"sailing-trial","122","559649","0.0-11.0-87.0","","","","false","","","","","","","","","","null","","328.5","","2","0","null","null","arrowup","[0.325,0.675,0.15,0.85]","","",""
"sailing-trial","123","562660","0.0-11.0-88.0","","","","false","","","","","","","","","","129.60000002384186","","67.60000002384186","","3","1","arrowright","1","arrowright","[0.15,0.85,0.325,0.675]","","",""
"sailing-trial","124","564476","0.0-11.0-89.0","","","","false","","","","","","","","","","null","","96.60000002384186","","1","1","null","null","arrowup","[0.15,0.85,0.325,0.675]","","",""
"sailing-trial","125","566982","0.0-11.0-90.0","","","","false","","","","","","","","","","75.5","","154.19999992847443","","3","0","arrowright","1","arrowright","[0.15,0.85,0.325,0.675]","","",""
"sailing-trial","126","568286","0.0-11.0-91.0","","","","false","","","","","","","","","","null","","162.69999992847443","","2","0","null","null","arrowup","[0.15,0.85,0.325,0.675]","","",""
"sailing-trial","127","571191","0.0-11.0-92.0","","","","false","","","","","","","","","","70.10000002384186","","38.299999952316284","","3","1","arrowright","1","arrowright","[0.15,0.85,0.325,0.675]","","",""
"sailing-trial","128","573126","0.0-11.0-93.0","","","","false","","","","","","","","","","null","","185.60000002384186","","1","1","null","null","arrowup","[0.15,0.85,0.325,0.675]","","",""
"sailing-trial","129","576093","0.0-11.0-94.0","","","","false","","","","","","","","","","27.299999952316284","","91","","3","1","arrowright","1","arrowright","[0.15,0.85,0.325,0.675]","","",""
"sailing-trial","130","578009","0.0-11.0-95.0","","","","false","","","","","","","","","","null","","185.90000009536743","","2","1","null","null","arrowup","[0.15,0.85,0.325,0.675]","","",""
"sailing-trial","131","580703","0.0-11.0-96.0","","","","false","","","","","","","","","","131.90000009536743","","449.7000000476837","","3","0","arrowright","1","arrowright","[0.15,0.85,0.325,0.675]","","",""
"sailing-trial","132","582009","0.0-11.0-97.0","","","","false","","","","","","","","","","null","","220.89999997615814","","0","0","null","null","arrowup","[0.15,0.85,0.325,0.675]","","",""
"sailing-trial","133","584533","0.0-11.0-98.0","","","","false","","","","","","","","","","139.89999997615814","","22.09999990463257","","3","0","arrowright","1","arrowright","[0.15,0.85,0.325,0.675]","","",""
"sailing-trial","134","586309","0.0-11.0-99.0","","","","false","","","","","","","","","","null","","46","","1","1","null","null","arrowup","[0.15,0.85,0.325,0.675]","","",""
"sailing-trial","135","589226","0.0-11.0-100.0","","","","false","","","","","","","","","","93.10000002384186","","52.5","","1","1","arrowleft","0","arrowright","[0.15,0.85,0.325,0.675]","","",""
"sailing-trial","136","591092","0.0-11.0-101.0","","","","false","","","","","","","","","","null","","200","","3","1","null","null","arrowup","[0.15,0.85,0.325,0.675]","","",""
"sailing-trial","137","594225","0.0-11.0-102.0","","","","false","","","","","","","","","","160.10000002384186","","127.10000002384186","","1","1","arrowleft","0","arrowright","[0.15,0.85,0.325,0.675]","","",""
"sailing-trial","138","595991","0.0-11.0-103.0","","","","false","","","","","","","","","","null","","73.59999990463257","","3","1","null","null","arrowup","[0.15,0.85,0.325,0.675]","","",""
"sailing-trial","139","598974","0.0-11.0-104.0","","","","false","","","","","","","","","","173.29999995231628","","110.30000007152557","","1","1","arrowleft","0","arrowright","[0.15,0.85,0.325,0.675]","","",""
"sailing-trial","140","600242","0.0-11.0-105.0","","","","false","","","","","","","","","","null","","142.70000004768372","","1","0","null","null","arrowup","[0.15,0.85,0.325,0.675]","","",""
"sailing-trial","141","603175","0.0-11.0-106.0","","","","false","","","","","","","","","","113.70000004768372","","147.80000007152557","","1","1","arrowleft","0","arrowright","[0.325,0.675,0.15,0.85]","","",""
"sailing-trial","142","604958","0.0-11.0-107.0","","","","false","","","","","","","","","","null","","209.70000004768372","","1","1","null","null","arrowup","[0.325,0.675,0.15,0.85]","","",""
"sailing-trial","143","607774","0.0-11.0-108.0","","","","false","","","","","","","","","","78.80000007152557","","29.300000071525574","","1","1","arrowleft","0","arrowright","[0.325,0.675,0.15,0.85]","","",""
"sailing-trial","144","609029","0.0-11.0-109.0","","","","false","","","","","","","","","","null","","157","","2","0","null","null","arrowup","[0.325,0.675,0.15,0.85]","","",""
"sailing-trial","145","612108","0.0-11.0-110.0","","","","false","","","","","","","","","","115.10000002384186","","147.5","","1","1","arrowleft","0","arrowright","[0.325,0.675,0.15,0.85]","","",""
"sailing-trial","146","613247","0.0-11.0-111.0","","","","false","","","","","","","","","","null","","84.39999997615814","","1","0","null","null","arrowup","[0.325,0.675,0.15,0.85]","","",""
"sailing-trial","147","616292","0.0-11.0-112.0","","","","false","","","","","","","","","","33.199999928474426","","121","","1","1","arrowleft","0","arrowright","[0.325,0.675,0.15,0.85]","","",""
"sailing-trial","148","618125","0.0-11.0-113.0","","","","false","","","","","","","","","","null","","114.60000002384186","","3","1","null","null","arrowup","[0.325,0.675,0.15,0.85]","","",""
"sailing-trial","149","621191","0.0-11.0-114.0","","","","false","","","","","","","","","","73.39999997615814","","136.89999997615814","","1","1","arrowleft","0","arrowright","[0.325,0.675,0.15,0.85]","","",""
"sailing-trial","150","622341","0.0-11.0-115.0","","","","false","","","","","","","","","","null","","7.800000071525574","","3","0","null","null","arrowup","[0.325,0.675,0.15,0.85]","","",""
"sailing-trial","151","625458","0.0-11.0-116.0","","","","false","","","","","","","","","","119","","97.39999997615814","","1","1","arrowleft","0","arrowright","[0.325,0.675,0.15,0.85]","","",""
"sailing-trial","152","626610","0.0-11.0-117.0","","","","false","","","","","","","","","","null","","107.60000002384186","","1","0","null","null","arrowup","[0.325,0.675,0.15,0.85]","","",""
"sailing-trial","153","629624","0.0-11.0-118.0","","","","false","","","","","","","","","","185.79999995231628","","94.5","","1","1","arrowleft","0","arrowright","[0.325,0.675,0.15,0.85]","","",""
"sailing-trial","154","631506","0.0-11.0-119.0","","","","false","","","","","","","","","","null","","190.19999992847443","","1","1","null","null","arrowup","[0.325,0.675,0.15,0.85]","","",""
"sailing-trial","155","634490","0.0-11.0-120.0","","","","false","","","","","","","","","","85.70000004768372","","175.39999997615814","","1","1","arrowleft","0","arrowright","[0.325,0.675,0.15,0.85]","","",""
"sailing-trial","156","636257","0.0-11.0-121.0","","","","false","","","","","","","","","","null","","34.200000047683716","","3","1","null","null","arrowup","[0.325,0.675,0.15,0.85]","","",""
"sailing-trial","157","639257","0.0-11.0-122.0","","","","false","","","","","","","","","","119.10000002384186","","47.89999997615814","","1","1","arrowleft","0","arrowright","[0.15,0.85,0.325,0.675]","","",""
"sailing-trial","158","640475","0.0-11.0-123.0","","","","false","","","","","","","","","","null","","105.90000009536743","","0","0","null","null","arrowup","[0.15,0.85,0.325,0.675]","","",""
"sailing-trial","159","643557","0.0-11.0-124.0","","","","false","","","","","","","","","","171.60000002384186","","71.19999992847443","","1","1","arrowleft","0","arrowright","[0.15,0.85,0.325,0.675]","","",""
"sailing-trial","160","645356","0.0-11.0-125.0","","","","false","","","","","","","","","","null","","154.59999990463257","","3","1","null","null","arrowup","[0.15,0.85,0.325,0.675]","","",""
"sailing-trial","161","647728","0.0-11.0-126.0","","","","false","","","","","","","","","","111.70000004768372","","108.70000004768372","","1","0","arrowleft","0","arrowright","[0.15,0.85,0.325,0.675]","","",""
"sailing-trial","162","649174","0.0-11.0-127.0","","","","false","","","","","","","","","","null","","265.60000002384186","","2","0","null","null","arrowup","[0.15,0.85,0.325,0.675]","","",""
"sailing-trial","163","652206","0.0-11.0-128.0","","","","false","","","","","","","","","","156.29999995231628","","89.89999997615814","","1","1","arrowleft","0","arrowright","[0.15,0.85,0.325,0.675]","","",""
"sailing-trial","164","653558","0.0-11.0-129.0","","","","false","","","","","","","","","","null","","150.20000004768372","","0","0","null","null","arrowup","[0.15,0.85,0.325,0.675]","","",""
"sailing-trial","165","656035","0.0-11.0-130.0","","","","false","","","","","","","","","","170.20000004768372","","99.29999995231628","","1","0","arrowleft","0","arrowright","[0.15,0.85,0.325,0.675]","","",""
"sailing-trial","166","657474","0.0-11.0-131.0","","","","false","","","","","","","","","","null","","236.70000004768372","","0","0","null","null","arrowup","[0.15,0.85,0.325,0.675]","","",""
"sailing-trial","167","660641","0.0-11.0-132.0","","","","false","","","","","","","","","","235","","113.79999995231628","","3","1","arrowright","1","arrowright","[0.15,0.85,0.325,0.675]","","",""
"sailing-trial","168","662424","0.0-11.0-133.0","","","","false","","","","","","","","","","null","","97.89999997615814","","1","1","null","null","arrowup","[0.15,0.85,0.325,0.675]","","",""
"sailing-trial","169","665674","0.0-11.0-134.0","","","","false","","","","","","","","","","45","","29.899999976158142","","3","1","arrowright","1","arrowright","[0.15,0.85,0.325,0.675]","","",""
"sailing-trial","170","666984","0.0-11.0-135.0","","","","false","","","","","","","","","","null","","192","","0","0","null","null","arrowup","[0.15,0.85,0.325,0.675]","","",""
"sailing-trial","171","669956","0.0-11.0-136.0","","","","false","","","","","","","","","","188.5","","19.399999976158142","","3","1","arrowright","1","arrowright","[0.15,0.85,0.325,0.675]","","",""
"sailing-trial","172","671740","0.0-11.0-137.0","","","","false","","","","","","","","","","null","","52.800000071525574","","1","1","null","null","arrowup","[0.15,0.85,0.325,0.675]","","",""
"sailing-trial","173","674191","0.0-11.0-138.0","","","","false","","","","","","","","","","157.60000002384186","","59.300000071525574","","3","0","arrowright","1","arrowright","[0.15,0.85,0.325,0.675]","","",""
"sailing-trial","174","675662","0.0-11.0-139.0","","","","false","","","","","","","","","","null","","318.89999997615814","","0","0","null","null","arrowup","[0.15,0.85,0.325,0.675]","","",""
"sailing-trial","175","679455","0.0-11.0-140.0","","","","false","","","","","","","","","","390.39999997615814","","126","","3","1","arrowright","1","arrowright","[0.325,0.675,0.15,0.85]","","",""
"sailing-trial","176","681290","0.0-11.0-141.0","","","","false","","","","","","","","","","null","","178.60000002384186","","0","1","null","null","arrowup","[0.325,0.675,0.15,0.85]","","",""
"sailing-trial","177","684356","0.0-11.0-142.0","","","","false","","","","","","","","","","130.39999997615814","","81.59999990463257","","3","1","arrowright","1","arrowright","[0.325,0.675,0.15,0.85]","","",""
"sailing-trial","178","685955","0.0-11.0-143.0","","","","false","","","","","","","","","","null","","4.100000023841858","","2","1","null","null","arrowup","[0.325,0.675,0.15,0.85]","","",""
"sailing-trial","179","690323","0.0-11.0-144.0","","","","false","","","","","","","","","","1366.2000000476837","","45.90000009536743","","3","1","arrowright","1","arrowright","[0.325,0.675,0.15,0.85]","","",""
"sailing-trial","180","691567","0.0-11.0-145.0","","","","false","","","","","","","","","","null","","48.39999997615814","","1","0","null","null","arrowup","[0.325,0.675,0.15,0.85]","","",""
"sailing-trial","181","696090","0.0-11.0-146.0","","","","false","","","","","","","","","","514.9000000953674","","105.19999992847443","","3","1","arrowright","1","arrowright","[0.325,0.675,0.15,0.85]","","",""
"sailing-trial","182","697236","0.0-11.0-147.0","","","","false","","","","","","","","","","null","","23.899999976158142","","1","0","null","null","arrowup","[0.325,0.675,0.15,0.85]","","",""
"sailing-trial","183","700172","0.0-11.0-148.0","","","","false","","","","","","","","","","38.60000002384186","","51.199999928474426","","3","1","arrowright","1","arrowright","[0.325,0.675,0.15,0.85]","","",""
"sailing-trial","184","701437","0.0-11.0-149.0","","","","false","","","","","","","","","","null","","127.89999997615814","","0","0","null","null","arrowup","[0.325,0.675,0.15,0.85]","","",""
"sailing-trial","185","704472","0.0-11.0-150.0","","","","false","","","","","","","","","","158.60000002384186","","0.8999999761581421","","3","1","arrowright","1","arrowright","[0.325,0.675,0.15,0.85]","","",""
"sailing-trial","186","705768","0.0-11.0-151.0","","","","false","","","","","","","","","","null","","123.79999995231628","","2","0","null","null","arrowup","[0.325,0.675,0.15,0.85]","","",""
"sailing-trial","187","708130","0.0-11.0-152.0","","","","false","","","","","","","","","","14","","129.19999992847443","","3","0","arrowright","1","arrowright","[0.325,0.675,0.15,0.85]","","",""
"sailing-trial","188","709989","0.0-11.0-153.0","","","","false","","","","","","","","","","null","","225.89999997615814","","1","1","null","null","arrowup","[0.325,0.675,0.15,0.85]","","",""
"sailing-trial","189","714505","0.0-11.0-154.0","","","","false","","","","","","","","","","309.10000002384186","","39.299999952316284","","3","0","arrowright","1","arrowright","[0.325,0.675,0.15,0.85]","","",""
"sailing-trial","190","715972","0.0-11.0-155.0","","","","false","","","","","","","","","","null","","337.60000002384186","","1","0","null","null","arrowup","[0.325,0.675,0.15,0.85]","","",""
"sailing-trial","191","718989","0.0-11.0-156.0","","","","false","","","","","","","","","","118.60000002384186","","16.199999928474426","","3","1","arrowright","1","arrowright","[0.15,0.85,0.325,0.675]","","",""
"sailing-trial","192","720173","0.0-11.0-157.0","","","","false","","","","","","","","","","null","","57.10000002384186","","0","0","null","null","arrowup","[0.15,0.85,0.325,0.675]","","",""
"sailing-trial","193","723205","0.0-11.0-158.0","","","","false","","","","","","","","","","281.5","","25.100000023841858","","3","1","arrowright","1","arrowright","[0.15,0.85,0.325,0.675]","","",""
"sailing-trial","194","725022","0.0-11.0-159.0","","","","false","","","","","","","","","","null","","36.199999928474426","","0","1","null","null","arrowup","[0.15,0.85,0.325,0.675]","","",""
"sailing-trial","195","727987","0.0-11.0-160.0","","","","false","","","","","","","","","","100.09999990463257","","60.300000071525574","","3","1","arrowright","1","arrowright","[0.15,0.85,0.325,0.675]","","",""
"sailing-trial","196","729384","0.0-11.0-161.0","","","","false","","","","","","","","","","null","","75.5","","0","0","null","null","arrowup","[0.15,0.85,0.325,0.675]","","",""
"sailing-trial","197","732373","0.0-11.0-162.0","","","","false","","","","","","","","","","58.199999928474426","","111.39999997615814","","3","1","arrowright","1","arrowright","[0.15,0.85,0.325,0.675]","","",""
"sailing-trial","198","733549","0.0-11.0-163.0","","","","false","","","","","","","","","","null","","11.699999928474426","","3","0","null","null","arrowup","[0.15,0.85,0.325,0.675]","","",""
"sailing-trial","199","735839","0.0-11.0-164.0","","","","false","","","","","","","","","","58.89999997615814","","62.700000047683716","","3","0","arrowright","1","arrowright","[0.15,0.85,0.325,0.675]","","",""
"sailing-trial","200","737837","0.0-11.0-165.0","","","","false","","","","","","","","","","null","","219.80000007152557","","3","1","null","null","arrowup","[0.15,0.85,0.325,0.675]","","",""
"sailing-trial","201","740272","0.0-11.0-166.0","","","","false","","","","","","","","","","137.80000007152557","","70.60000002384186","","3","0","arrowright","1","arrowright","[0.15,0.85,0.325,0.675]","","",""
"sailing-trial","202","742445","0.0-11.0-167.0","","","","false","","","","","","","","","","null","","1145","","0","0","null","null","arrowup","[0.15,0.85,0.325,0.675]","","",""
"sailing-trial","203","745489","0.0-11.0-168.0","","","","false","","","","","","","","","","126.29999995231628","","53.700000047683716","","3","1","arrowright","1","arrowright","[0.15,0.85,0.325,0.675]","","",""
"sailing-trial","204","747454","0.0-11.0-169.0","","","","false","","","","","","","","","","null","","253.29999995231628","","3","1","null","null","arrowup","[0.15,0.85,0.325,0.675]","","",""
"sailing-trial","205","750405","0.0-11.0-170.0","","","","false","","","","","","","","","","90.79999995231628","","65.60000002384186","","3","1","arrowright","1","arrowright","[0.15,0.85,0.325,0.675]","","",""
"sailing-trial","206","752287","0.0-11.0-171.0","","","","false","","","","","","","","","","null","","120.09999990463257","","1","1","null","null","arrowup","[0.15,0.85,0.325,0.675]","","",""
"sailing-trial","207","755620","0.0-11.0-172.0","","","","false","","","","","","","","","","35","","420.2999999523163","","3","1","arrowright","1","arrowright","[0.15,0.85,0.325,0.675]","","",""
"sailing-trial","208","757014","0.0-11.0-173.0","","","","false","","","","","","","","","","null","","51.700000047683716","","0","0","null","null","arrowup","[0.15,0.85,0.325,0.675]","","",""
"sailing-trial","209","759854","0.0-11.0-174.0","","","","false","","","","","","","","","","65.90000009536743","","67.19999992847443","","3","1","arrowright","1","arrowright","[0.15,0.85,0.325,0.675]","","",""
"sailing-trial","210","761688","0.0-11.0-175.0","","","","false","","","","","","","","","","null","","121.89999997615814","","3","1","null","null","arrowup","[0.15,0.85,0.325,0.675]","","",""
"sailing-trial","211","764108","0.0-11.0-176.0","","","","false","","","","","","","","","","53.10000002384186","","92.79999995231628","","3","0","arrowright","1","arrowright","[0.15,0.85,0.325,0.675]","","",""
"sailing-trial","212","766005","0.0-11.0-177.0","","","","false","","","","","","","","","","null","","229.80000007152557","","1","1","null","null","arrowup","[0.15,0.85,0.325,0.675]","","",""
"sailing-trial","213","768954","0.0-11.0-178.0","","","","false","","","","","","","","","","72.10000002384186","","106.80000007152557","","3","1","arrowright","1","arrowright","[0.15,0.85,0.325,0.675]","","",""
"sailing-trial","214","770985","0.0-11.0-179.0","","","","false","","","","","","","","","","null","","862.5","","2","0","null","null","arrowup","[0.15,0.85,0.325,0.675]","","",""
"sailing-trial","215","773970","0.0-11.0-180.0","","","","false","","","","","","","","","","96.09999990463257","","95.39999997615814","","3","1","arrowright","1","arrowright","[0.325,0.675,0.15,0.85]","","",""
"sailing-trial","216","775313","0.0-11.0-181.0","","","","false","","","","","","","","","","null","","90.60000002384186","","2","0","null","null","arrowup","[0.325,0.675,0.15,0.85]","","",""
"sailing-trial","217","778487","0.0-11.0-182.0","","","","false","","","","","","","","","","97.89999997615814","","112","","3","1","arrowright","1","arrowright","[0.325,0.675,0.15,0.85]","","",""
"sailing-trial","218","779716","0.0-11.0-183.0","","","","false","","","","","","","","","","null","","133.30000007152557","","2","0","null","null","arrowup","[0.325,0.675,0.15,0.85]","","",""
"sailing-trial","219","782671","0.0-11.0-184.0","","","","false","","","","","","","","","","53.60000002384186","","45.5","","3","1","arrowright","1","arrowright","[0.325,0.675,0.15,0.85]","","",""
"sailing-trial","220","784520","0.0-11.0-185.0","","","","false","","","","","","","","","","null","","163.69999992847443","","1","1","null","null","arrowup","[0.325,0.675,0.15,0.85]","","",""
"sailing-trial","221","787419","0.0-11.0-186.0","","","","false","","","","","","","","","","24.899999976158142","","147.69999992847443","","3","1","arrowright","1","arrowright","[0.325,0.675,0.15,0.85]","","",""
"sailing-trial","222","788561","0.0-11.0-187.0","","","","false","","","","","","","","","","null","","17.200000047683716","","2","0","null","null","arrowup","[0.325,0.675,0.15,0.85]","","",""
"sailing-trial","223","791622","0.0-11.0-188.0","","","","false","","","","","","","","","","155.60000002384186","","80","","3","1","arrowright","1","arrowright","[0.325,0.675,0.15,0.85]","","",""
"sailing-trial","224","793403","0.0-11.0-189.0","","","","false","","","","","","","","","","null","","137.79999995231628","","3","1","null","null","arrowup","[0.325,0.675,0.15,0.85]","","",""
"sailing-trial","225","796453","0.0-11.0-190.0","","","","false","","","","","","","","","","141.80000007152557","","249.89999997615814","","3","1","arrowright","1","arrowright","[0.325,0.675,0.15,0.85]","","",""
"sailing-trial","226","797651","0.0-11.0-191.0","","","","false","","","","","","","","","","null","","141.60000002384186","","0","0","null","null","arrowup","[0.325,0.675,0.15,0.85]","","",""
"sailing-trial","227","800652","0.0-11.0-192.0","","","","false","","","","","","","","","","59.10000002384186","","178.69999992847443","","3","1","arrowright","1","arrowright","[0.325,0.675,0.15,0.85]","","",""
"sailing-trial","228","802402","0.0-11.0-193.0","","","","false","","","","","","","","","","null","","64","","2","1","null","null","arrowup","[0.325,0.675,0.15,0.85]","","",""
"sailing-trial","229","805472","0.0-11.0-194.0","","","","false","","","","","","","","","","208.80000007152557","","519.1000000238419","","3","0","arrowright","1","arrowright","[0.325,0.675,0.15,0.85]","","",""
"sailing-trial","230","807123","0.0-11.0-195.0","","","","false","","","","","","","","","","null","","98.69999992847443","","0","0","null","null","arrowup","[0.325,0.675,0.15,0.85]","","",""
"sailing-trial","231","810136","0.0-11.0-196.0","","","","false","","","","","","","","","","131.69999992847443","","74.70000004768372","","3","1","arrowright","1","arrowright","[0.15,0.85,0.325,0.675]","","",""
"sailing-trial","232","811393","0.0-11.0-197.0","","","","false","","","","","","","","","","null","","114.29999995231628","","0","0","null","null","arrowup","[0.15,0.85,0.325,0.675]","","",""
"sailing-trial","233","814370","0.0-11.0-198.0","","","","false","","","","","","","","","","20.399999976158142","","142.60000002384186","","3","1","arrowright","1","arrowright","[0.15,0.85,0.325,0.675]","","",""
"sailing-trial","234","816188","0.0-11.0-199.0","","","","false","","","","","","","","","","null","","82.19999992847443","","3","1","null","null","arrowup","[0.15,0.85,0.325,0.675]","","",""
"sailing-trial","235","818562","0.0-11.0-200.0","","","","false","","","","","","","","","","24.399999976158142","","83.69999992847443","","3","0","arrowright","1","arrowright","[0.15,0.85,0.325,0.675]","","",""
"sailing-trial","236","820552","0.0-11.0-201.0","","","","false","","","","","","","","","","null","","296.2000000476837","","1","1","null","null","arrowup","[0.15,0.85,0.325,0.675]","","",""
"sailing-trial","237","823358","0.0-11.0-202.0","","","","false","","","","","","","","","","384.2000000476837","","23.100000023841858","","3","0","arrowright","1","arrowright","[0.15,0.85,0.325,0.675]","","",""
"sailing-trial","238","824510","0.0-11.0-203.0","","","","false","","","","","","","","","","null","","66.40000009536743","","0","0","null","null","arrowup","[0.15,0.85,0.325,0.675]","","",""
"sailing-trial","239","827551","0.0-11.0-204.0","","","","false","","","","","","","","","","152.30000007152557","","12.199999928474426","","3","1","arrowright","1","arrowright","[0.15,0.85,0.325,0.675]","","",""
"sailing-trial","240","829403","0.0-11.0-205.0","","","","false","","","","","","","","","","null","","87","","3","1","null","null","arrowup","[0.15,0.85,0.325,0.675]","","",""
"sailing-trial","241","831783","0.0-11.0-206.0","","","","false","","","","","","","","","","52.89999997615814","","55.300000071525574","","3","0","arrowright","1","arrowright","[0.15,0.85,0.325,0.675]","","",""
"sailing-trial","242","834120","0.0-11.0-207.0","","","","false","","","","","","","","","","null","","664.8000000715256","","3","1","null","null","arrowup","[0.15,0.85,0.325,0.675]","","",""
"sailing-trial","243","836971","0.0-11.0-208.0","","","","false","","","","","","","","","","7.100000023841858","","114.29999995231628","","3","1","arrowright","1","arrowright","[0.15,0.85,0.325,0.675]","","",""
"sailing-trial","244","838619","0.0-11.0-209.0","","","","false","","","","","","","","","","null","","66","","1","1","null","null","arrowup","[0.15,0.85,0.325,0.675]","","",""
"sailing-trial","245","841162","0.0-11.0-210.0","","","","false","","","","","","","","","","84.80000007152557","","255","","3","0","arrowright","1","arrowright","[0.15,0.85,0.325,0.675]","","",""
"sailing-trial","246","843035","0.0-11.0-211.0","","","","false","","","","","","","","","","null","","206.60000002384186","","3","1","null","null","arrowup","[0.15,0.85,0.325,0.675]","","",""
"sailing-trial","247","845868","0.0-11.0-212.0","","","","false","","","","","","","","","","104.89999997615814","","3","","1","1","arrowleft","0","arrowright","[0.15,0.85,0.325,0.675]","","",""
"sailing-trial","248","849067","0.0-11.0-213.0","","","","false","","","","","","","","","","null","","1188.2999999523163","","2","1","null","null","arrowup","[0.15,0.85,0.325,0.675]","","",""
"sailing-trial","249","851458","0.0-11.0-214.0","","","","false","","","","","","","","","","24.399999976158142","","85.89999997615814","","1","0","arrowleft","0","arrowright","[0.325,0.675,0.15,0.85]","","",""
"sailing-trial","250","853506","0.0-11.0-215.0","","","","false","","","","","","","","","","null","","881.7999999523163","","2","0","null","null","arrowup","[0.325,0.675,0.15,0.85]","","",""
"sailing-trial","251","856234","0.0-11.0-216.0","","","","false","","","","","","","","","","52.800000071525574","","11.600000023841858","","1","1","arrowleft","0","arrowright","[0.325,0.675,0.15,0.85]","","",""
"sailing-trial","252","857934","0.0-11.0-217.0","","","","false","","","","","","","","","","null","","102.40000009536743","","1","1","null","null","arrowup","[0.325,0.675,0.15,0.85]","","",""
"sailing-trial","253","860199","0.0-11.0-218.0","","","","false","","","","","","","","","","63.200000047683716","","82.60000002384186","","1","0","arrowleft","0","arrowright","[0.325,0.675,0.15,0.85]","","",""
"sailing-trial","254","861596","0.0-11.0-219.0","","","","false","","","","","","","","","","null","","315.40000009536743","","2","0","null","null","arrowup","[0.325,0.675,0.15,0.85]","","",""
"sailing-trial","255","864633","0.0-11.0-220.0","","","","false","","","","","","","","","","70.60000002384186","","135.80000007152557","","3","1","arrowright","1","arrowright","[0.325,0.675,0.15,0.85]","","",""
"sailing-trial","256","867353","0.0-11.0-221.0","","","","false","","","","","","","","","","null","","1117.6000000238419","","3","1","null","null","arrowup","[0.325,0.675,0.15,0.85]","","",""
"sailing-trial","257","869881","0.0-11.0-222.0","","","","false","","","","","","","","","","148.5","","117.89999997615814","","1","0","arrowleft","0","arrowright","[0.325,0.675,0.15,0.85]","","",""
"sailing-trial","258","871357","0.0-11.0-223.0","","","","false","","","","","","","","","","null","","286.40000009536743","","1","0","null","null","arrowup","[0.325,0.675,0.15,0.85]","","",""
"sailing-trial","259","874384","0.0-11.0-224.0","","","","false","","","","","","","","","","68.30000007152557","","139","","3","1","arrowright","1","arrowright","[0.325,0.675,0.15,0.85]","","",""
"sailing-trial","260","875718","0.0-11.0-225.0","","","","false","","","","","","","","","","null","","183","","2","0","null","null","arrowup","[0.325,0.675,0.15,0.85]","","",""
"sailing-trial","261","878735","0.0-11.0-226.0","","","","false","","","","","","","","","","182.10000002384186","","79.89999997615814","","3","1","arrowright","1","arrowright","[0.325,0.675,0.15,0.85]","","",""
"sailing-trial","262","882485","0.0-11.0-227.0","","","","false","","","","","","","","","","null","","2097.5","","0","1","null","null","arrowup","[0.325,0.675,0.15,0.85]","","",""
"sailing-trial","263","885467","0.0-11.0-228.0","","","","false","","","","","","","","","","0.10000002384185791","","131","","3","1","arrowright","1","arrowright","[0.325,0.675,0.15,0.85]","","",""
"sailing-trial","264","886634","0.0-11.0-229.0","","","","false","","","","","","","","","","null","","51","","1","0","null","null","arrowup","[0.325,0.675,0.15,0.85]","","",""
"sailing-trial","265","889734","0.0-11.0-230.0","","","","false","","","","","","","","","","119","","77.09999990463257","","3","1","arrowright","1","arrowright","[0.675,0.325,0.85,0.15]","","",""
"sailing-trial","266","891484","0.0-11.0-231.0","","","","false","","","","","","","","","","null","","137.09999990463257","","2","1","null","null","arrowup","[0.675,0.325,0.85,0.15]","","",""
"sailing-trial","267","893955","0.0-11.0-232.0","","","","false","","","","","","","","","","29.399999976158142","","284.1999999284744","","3","0","arrowright","1","arrowright","[0.675,0.325,0.85,0.15]","","",""
"sailing-trial","268","895803","0.0-11.0-233.0","","","","false","","","","","","","","","","null","","78.19999992847443","","2","1","null","null","arrowup","[0.675,0.325,0.85,0.15]","","",""
"sailing-trial","269","898702","0.0-11.0-234.0","","","","false","","","","","","","","","","88.80000007152557","","6.899999976158142","","3","1","arrowright","1","arrowright","[0.675,0.325,0.85,0.15]","","",""
"sailing-trial","270","900394","0.0-11.0-235.0","","","","false","","","","","","","","","","null","","121.89999997615814","","2","1","null","null","arrowup","[0.675,0.325,0.85,0.15]","","",""
"sailing-trial","271","903352","0.0-11.0-236.0","","","","false","","","","","","","","","","79.60000002384186","","153.69999992847443","","3","1","arrowright","1","arrowright","[0.675,0.325,0.85,0.15]","","",""
"sailing-trial","272","905450","0.0-11.0-237.0","","","","false","","","","","","","","","","null","","79.30000007152557","","2","1","null","null","arrowup","[0.675,0.325,0.85,0.15]","","",""
"sailing-trial","273","907741","0.0-11.0-238.0","","","","false","","","","","","","","","","25.199999928474426","","70.20000004768372","","3","0","arrowright","1","arrowright","[0.675,0.325,0.85,0.15]","","",""
"sailing-trial","274","909568","0.0-11.0-239.0","","","","false","","","","","","","","","","null","","196.5","","0","1","null","null","arrowup","[0.675,0.325,0.85,0.15]","","",""
"sailing-trial","275","912404","0.0-11.0-240.0","","","","false","","","","","","","","","","269","","35.200000047683716","","3","0","arrowright","1","arrowright","[0.675,0.325,0.85,0.15]","","",""
"sailing-trial","276","914268","0.0-11.0-241.0","","","","false","","","","","","","","","","null","","116.80000007152557","","2","1","null","null","arrowup","[0.675,0.325,0.85,0.15]","","",""
"sailing-trial","277","916687","0.0-11.0-242.0","","","","false","","","","","","","","","","79.5","","41.699999928474426","","3","0","arrowright","1","arrowright","[0.675,0.325,0.85,0.15]","","",""
"sailing-trial","278","918099","0.0-11.0-243.0","","","","false","","","","","","","","","","null","","100.89999997615814","","3","0","null","null","arrowup","[0.675,0.325,0.85,0.15]","","",""
"sailing-trial","279","920802","0.0-11.0-244.0","","","","false","","","","","","","","","","299.6999999284744","","125.59999990463257","","3","0","arrowright","1","arrowright","[0.675,0.325,0.85,0.15]","","",""
"sailing-trial","280","922031","0.0-11.0-245.0","","","","false","","","","","","","","","","null","","104.69999992847443","","1","0","null","null","arrowup","[0.675,0.325,0.85,0.15]","","",""
"sailing-trial","281","924966","0.0-11.0-246.0","","","","false","","","","","","","","","","47.200000047683716","","84.60000002384186","","2","1","arrowright","1","arrowleft","[0.675,0.325,0.85,0.15]","","",""
"sailing-trial","282","926205","0.0-11.0-247.0","","","","false","","","","","","","","","","null","","161.60000002384186","","1","0","null","null","arrowup","[0.675,0.325,0.85,0.15]","","",""
"sailing-trial","283","929217","0.0-11.0-248.0","","","","false","","","","","","","","","","124.89999997615814","","89.5","","2","1","arrowright","1","arrowleft","[0.325,0.675,0.15,0.85]","","",""
"sailing-trial","284","930339","0.0-11.0-249.0","","","","false","","","","","","","","","","null","","31.600000023841858","","2","0","null","null","arrowup","[0.325,0.675,0.15,0.85]","","",""
"sailing-trial","285","933026","0.0-11.0-250.0","","","","false","","","","","","","","","","272.7000000476837","","128.10000002384186","","2","0","arrowright","1","arrowleft","[0.325,0.675,0.15,0.85]","","",""
"sailing-trial","286","934799","0.0-11.0-251.0","","","","false","","","","","","","","","","null","","73.20000004768372","","3","1","null","null","arrowup","[0.325,0.675,0.15,0.85]","","",""
"sailing-trial","287","937511","0.0-11.0-252.0","","","","false","","","","","","","","","","482.2000000476837","","16.899999976158142","","2","0","arrowright","1","arrowleft","[0.325,0.675,0.15,0.85]","","",""
"sailing-trial","288","939104","0.0-11.0-253.0","","","","false","","","","","","","","","","null","","483","","2","0","null","null","arrowup","[0.325,0.675,0.15,0.85]","","",""
"sailing-trial","289","942233","0.0-11.0-254.0","","","","false","","","","","","","","","","182.20000004768372","","282.60000002384186","","3","1","arrowright","1","arrowright","[0.325,0.675,0.15,0.85]","","",""
"sailing-trial","290","943606","0.0-11.0-255.0","","","","false","","","","","","","","","","null","","248.09999990463257","","0","0","null","null","arrowup","[0.325,0.675,0.15,0.85]","","",""
"sailing-trial","291","946767","0.0-11.0-256.0","","","","false","","","","","","","","","","176.89999997615814","","145","","3","1","arrowright","1","arrowright","[0.325,0.675,0.15,0.85]","","",""
"sailing-trial","292","948735","0.0-11.0-257.0","","","","false","","","","","","","","","","null","","186.5","","3","1","null","null","arrowup","[0.325,0.675,0.15,0.85]","","",""
"sailing-trial","293","951817","0.0-11.0-258.0","","","","false","","","","","","","","","","183.89999997615814","","108.30000007152557","","3","1","arrowright","1","arrowright","[0.325,0.675,0.15,0.85]","","",""
"sailing-trial","294","953085","0.0-11.0-259.0","","","","false","","","","","","","","","","null","","91","","2","0","null","null","arrowup","[0.325,0.675,0.15,0.85]","","",""
"sailing-trial","295","956232","0.0-11.0-260.0","","","","false","","","","","","","","","","223","","152.29999995231628","","3","1","arrowright","1","arrowright","[0.325,0.675,0.15,0.85]","","",""
"sailing-trial","296","957650","0.0-11.0-261.0","","","","false","","","","","","","","","","null","","187.10000002384186","","3","0","null","null","arrowup","[0.325,0.675,0.15,0.85]","","",""
"sailing-trial","297","960765","0.0-11.0-262.0","","","","false","","","","","","","","","","183.5","","134.20000004768372","","3","1","arrowright","1","arrowright","[0.325,0.675,0.15,0.85]","","",""
"sailing-trial","298","962466","0.0-11.0-263.0","","","","false","","","","","","","","","","null","","36.700000047683716","","0","1","null","null","arrowup","[0.325,0.675,0.15,0.85]","","",""
"sailing-trial","299","965398","0.0-11.0-264.0","","","","false","","","","","","","","","","115.10000002384186","","16.799999952316284","","3","1","arrowright","1","arrowright","[0.15,0.85,0.325,0.675]","","",""
"sailing-trial","300","967064","0.0-11.0-265.0","","","","false","","","","","","","","","","null","","120.20000004768372","","2","0","null","null","arrowup","[0.15,0.85,0.325,0.675]","","",""
"sailing-trial","301","972215","0.0-11.0-266.0","","","","false","","","","","","","","","","1798.5","","467.2999999523163","","3","1","arrowright","1","arrowright","[0.15,0.85,0.325,0.675]","","",""
"sailing-trial","302","974231","0.0-11.0-267.0","","","","false","","","","","","","","","","null","","325.5","","0","1","null","null","arrowup","[0.15,0.85,0.325,0.675]","","",""
"sailing-trial","303","977383","0.0-11.0-268.0","","","","false","","","","","","","","","","275.39999997615814","","53","","3","1","arrowright","1","arrowright","[0.15,0.85,0.325,0.675]","","",""
"sailing-trial","304","978766","0.0-11.0-269.0","","","","false","","","","","","","","","","null","","192.10000002384186","","3","0","null","null","arrowup","[0.15,0.85,0.325,0.675]","","",""
"sailing-trial","305","981765","0.0-11.0-270.0","","","","false","","","","","","","","","","67.10000002384186","","146.10000002384186","","3","1","arrowright","1","arrowright","[0.15,0.85,0.325,0.675]","","",""
"sailing-trial","306","983748","0.0-11.0-271.0","","","","false","","","","","","","","","","null","","374.3000000715256","","3","1","null","null","arrowup","[0.15,0.85,0.325,0.675]","","",""
"sailing-trial","307","986815","0.0-11.0-272.0","","","","false","","","","","","","","","","112.80000007152557","","223.70000004768372","","3","1","arrowright","1","arrowright","[0.15,0.85,0.325,0.675]","","",""
"sailing-trial","308","988225","0.0-11.0-273.0","","","","false","","","","","","","","","","null","","245.19999992847443","","2","0","null","null","arrowup","[0.15,0.85,0.325,0.675]","","",""
"sailing-trial","309","990577","0.0-11.0-274.0","","","","false","","","","","","","","","","158.10000002384186","","2","","3","0","arrowright","1","arrowright","[0.15,0.85,0.325,0.675]","","",""
"sailing-trial","310","992566","0.0-11.0-275.0","","","","false","","","","","","","","","","null","","243.89999997615814","","1","1","null","null","arrowup","[0.15,0.85,0.325,0.675]","","",""
"sailing-trial","311","995731","0.0-11.0-276.0","","","","false","","","","","","","","","","121.20000004768372","","84.70000004768372","","3","1","arrowright","1","arrowright","[0.15,0.85,0.325,0.675]","","",""
"sailing-trial","312","997515","0.0-11.0-277.0","","","","false","","","","","","","","","","null","","4.100000023841858","","3","1","null","null","arrowup","[0.15,0.85,0.325,0.675]","","",""
"sailing-trial","313","1000565","0.0-11.0-278.0","","","","false","","","","","","","","","","146.79999995231628","","79.10000002384186","","3","1","arrowright","1","arrowright","[0.15,0.85,0.325,0.675]","","",""
"sailing-trial","314","1001758","0.0-11.0-279.0","","","","false","","","","","","","","","","null","","139.30000007152557","","0","0","null","null","arrowup","[0.15,0.85,0.325,0.675]","","",""
"sailing-trial","315","1004698","0.0-11.0-280.0","","","","false","","","","","","","","","","148.20000004768372","","0.6000000238418579","","3","1","arrowright","1","arrowright","[0.325,0.675,0.15,0.85]","","",""
"sailing-trial","316","1005810","0.0-11.0-281.0","","","","false","","","","","","","","","","null","","14.299999952316284","","1","0","null","null","arrowup","[0.325,0.675,0.15,0.85]","","",""
"sailing-trial","317","1008167","0.0-11.0-282.0","","","","false","","","","","","","","","","58.700000047683716","","55.10000002384186","","3","0","arrowright","1","arrowright","[0.325,0.675,0.15,0.85]","","",""
"sailing-trial","318","1009704","0.0-11.0-283.0","","","","false","","","","","","","","","","null","","262.1999999284744","","1","0","null","null","arrowup","[0.325,0.675,0.15,0.85]","","",""
"sailing-trial","319","1012665","0.0-11.0-284.0","","","","false","","","","","","","","","","154.89999997615814","","159.29999995231628","","3","1","arrowright","1","arrowright","[0.325,0.675,0.15,0.85]","","",""
"sailing-trial","320","1014515","0.0-11.0-285.0","","","","false","","","","","","","","","","null","","81.30000007152557","","1","1","null","null","arrowup","[0.325,0.675,0.15,0.85]","","",""
"sailing-trial","321","1017497","0.0-11.0-286.0","","","","false","","","","","","","","","","35","","229.10000002384186","","3","1","arrowright","1","arrowright","[0.325,0.675,0.15,0.85]","","",""
"sailing-trial","322","1019399","0.0-11.0-287.0","","","","false","","","","","","","","","","null","","27.699999928474426","","1","1","null","null","arrowup","[0.325,0.675,0.15,0.85]","","",""
"sailing-trial","323","1022347","0.0-11.0-288.0","","","","false","","","","","","","","","","201.39999997615814","","33.699999928474426","","3","1","arrowright","1","arrowright","[0.325,0.675,0.15,0.85]","","",""
"sailing-trial","324","1024016","0.0-11.0-289.0","","","","false","","","","","","","","","","null","","81.29999995231628","","1","1","null","null","arrowup","[0.325,0.675,0.15,0.85]","","",""
"sailing-trial","325","1027397","0.0-11.0-290.0","","","","false","","","","","","","","","","170.10000002384186","","207.29999995231628","","3","1","arrowright","1","arrowright","[0.325,0.675,0.15,0.85]","","",""
"sailing-trial","326","1028701","0.0-11.0-291.0","","","","false","","","","","","","","","","null","","198.39999997615814","","0","0","null","null","arrowup","[0.325,0.675,0.15,0.85]","","",""
"sailing-trial","327","1031999","0.0-11.0-292.0","","","","false","","","","","","","","","","183.60000002384186","","177.10000002384186","","3","1","arrowright","1","arrowright","[0.325,0.675,0.15,0.85]","","",""
"sailing-trial","328","1033258","0.0-11.0-293.0","","","","false","","","","","","","","","","null","","147.70000004768372","","2","0","null","null","arrowup","[0.325,0.675,0.15,0.85]","","",""
"sailing-trial","329","1035994","0.0-11.0-294.0","","","","false","","","","","","","","","","206.89999997615814","","272.90000009536743","","3","0","arrowright","1","arrowright","[0.325,0.675,0.15,0.85]","","",""
"sailing-trial","330","1037914","0.0-11.0-295.0","","","","false","","","","","","","","","","null","","241.20000004768372","","3","1","null","null","arrowup","[0.325,0.675,0.15,0.85]","","",""
"sailing-trial","331","1041198","0.0-11.0-296.0","","","","false","","","","","","","","","","234.39999997615814","","261.7000000476837","","3","1","arrowright","1","arrowright","[0.325,0.675,0.15,0.85]","","",""
"sailing-trial","332","1043148","0.0-11.0-297.0","","","","false","","","","","","","","","","null","","60.09999990463257","","0","1","null","null","arrowup","[0.325,0.675,0.15,0.85]","","",""
"sailing-trial","333","1046380","0.0-11.0-298.0","","","","false","","","","","","","","","","260.39999997615814","","142.5","","3","1","arrowright","1","arrowright","[0.325,0.675,0.15,0.85]","","",""
"sailing-trial","334","1048313","0.0-11.0-299.0","","","","false","","","","","","","","","","null","","202","","1","1","null","null","arrowup","[0.325,0.675,0.15,0.85]","","",""
"sailing-trial","335","1050968","0.0-11.0-300.0","","","","false","","","","","","","","","","111.79999995231628","","73.60000002384186","","3","0","arrowright","1","arrowright","[0.85,0.15,0.675,0.325]","","",""
"sailing-trial","336","1052536","0.0-11.0-301.0","","","","false","","","","","","","","","","null","","136.39999997615814","","2","0","null","null","arrowup","[0.85,0.15,0.675,0.325]","","",""
"sailing-trial","337","1054996","0.0-11.0-302.0","","","","false","","","","","","","","","","220.80000007152557","","32.59999990463257","","3","0","arrowright","1","arrowright","[0.85,0.15,0.675,0.325]","","",""
"sailing-trial","338","1056965","0.0-11.0-303.0","","","","false","","","","","","","","","","null","","196.30000007152557","","2","1","null","null","arrowup","[0.85,0.15,0.675,0.325]","","",""
"sailing-trial","339","1059495","0.0-11.0-304.0","","","","false","","","","","","","","","","102.59999990463257","","250.70000004768372","","3","0","arrowright","1","arrowright","[0.85,0.15,0.675,0.325]","","",""
"sailing-trial","340","1061364","0.0-11.0-305.0","","","","false","","","","","","","","","","null","","95.70000004768372","","0","1","null","null","arrowup","[0.85,0.15,0.675,0.325]","","",""
"sailing-trial","341","1063712","0.0-11.0-306.0","","","","false","","","","","","","","","","102.80000007152557","","70.79999995231628","","3","0","arrowright","1","arrowright","[0.85,0.15,0.675,0.325]","","",""
"sailing-trial","342","1064894","0.0-11.0-307.0","","","","false","","","","","","","","","","null","","12.700000047683716","","2","0","null","null","arrowup","[0.85,0.15,0.675,0.325]","","",""
"sailing-trial","343","1067848","0.0-11.0-308.0","","","","false","","","","","","","","","","7.600000023841858","","53.10000002384186","","0","1","arrowleft","0","arrowleft","[0.85,0.15,0.675,0.325]","","",""
"sailing-trial","344","1069195","0.0-11.0-309.0","","","","false","","","","","","","","","","null","","86","","0","0","null","null","arrowup","[0.85,0.15,0.675,0.325]","","",""
"sailing-trial","345","1072396","0.0-11.0-310.0","","","","false","","","","","","","","","","171.59999990463257","","172","","0","1","arrowleft","0","arrowleft","[0.85,0.15,0.675,0.325]","","",""
"sailing-trial","346","1074497","0.0-11.0-311.0","","","","false","","","","","","","","","","null","","148.19999992847443","","2","1","null","null","arrowup","[0.85,0.15,0.675,0.325]","","",""
"sailing-trial","347","1077862","0.0-11.0-312.0","","","","false","","","","","","","","","","208.89999997615814","","252","","0","1","arrowleft","0","arrowleft","[0.85,0.15,0.675,0.325]","","",""
"sailing-trial","348","1079747","0.0-11.0-313.0","","","","false","","","","","","","","","","null","","99.69999992847443","","2","1","null","null","arrowup","[0.85,0.15,0.675,0.325]","","",""
"sailing-trial","349","1082965","0.0-11.0-314.0","","","","false","","","","","","","","","","168","","133.89999997615814","","0","1","arrowleft","0","arrowleft","[0.85,0.15,0.675,0.325]","","",""
"sailing-trial","350","1084148","0.0-11.0-315.0","","","","false","","","","","","","","","","null","","125.60000002384186","","1","0","null","null","arrowup","[0.85,0.15,0.675,0.325]","","",""
"sailing-trial","351","1087380","0.0-11.0-316.0","","","","false","","","","","","","","","","199.89999997615814","","141.70000004768372","","0","1","arrowleft","0","arrowleft","[0.85,0.15,0.675,0.325]","","",""
"sailing-trial","352","1089196","0.0-11.0-317.0","","","","false","","","","","","","","","","null","","153.10000002384186","","3","1","null","null","arrowup","[0.85,0.15,0.675,0.325]","","",""
"sailing-trial","353","1091738","0.0-11.0-318.0","","","","false","","","","","","","","","","64.5","","59.5","","0","0","arrowleft","0","arrowleft","[0.85,0.15,0.675,0.325]","","",""
"sailing-trial","354","1093121","0.0-11.0-319.0","","","","false","","","","","","","","","","null","","262.39999997615814","","3","0","null","null","arrowup","[0.85,0.15,0.675,0.325]","","",""
"sailing-trial","355","1096295","0.0-11.0-320.0","","","","false","","","","","","","","","","299.89999997615814","","191.89999997615814","","0","1","arrowleft","0","arrowleft","[0.675,0.325,0.85,0.15]","","",""
"sailing-trial","356","1097568","0.0-11.0-321.0","","","","false","","","","","","","","","","null","","117.69999992847443","","0","0","null","null","arrowup","[0.675,0.325,0.85,0.15]","","",""
"sailing-trial","357","1100729","0.0-11.0-322.0","","","","false","","","","","","","","","","236.70000004768372","","231.39999997615814","","0","1","arrowleft","0","arrowleft","[0.675,0.325,0.85,0.15]","","",""
"sailing-trial","358","1101979","0.0-11.0-323.0","","","","false","","","","","","","","","","null","","52.5","","3","0","null","null","arrowup","[0.675,0.325,0.85,0.15]","","",""
"sailing-trial","359","1105146","0.0-11.0-324.0","","","","false","","","","","","","","","","79.40000009536743","","297.8000000715256","","0","1","arrowleft","0","arrowleft","[0.675,0.325,0.85,0.15]","","",""
"sailing-trial","360","1107064","0.0-11.0-325.0","","","","false","","","","","","","","","","null","","304.60000002384186","","0","1","null","null","arrowup","[0.675,0.325,0.85,0.15]","","",""
"sailing-trial","361","1109671","0.0-11.0-326.0","","","","false","","","","","","","","","","5.200000047683716","","158.79999995231628","","0","0","arrowleft","0","arrowleft","[0.675,0.325,0.85,0.15]","","",""
"sailing-trial","362","1111647","0.0-11.0-327.0","","","","false","","","","","","","","","","null","","257.5","","3","1","null","null","arrowup","[0.675,0.325,0.85,0.15]","","",""
"sailing-trial","363","1114176","0.0-11.0-328.0","","","","false","","","","","","","","","","194.5","","156.39999997615814","","0","0","arrowleft","0","arrowleft","[0.675,0.325,0.85,0.15]","","",""
"sailing-trial","364","1115945","0.0-11.0-329.0","","","","false","","","","","","","","","","null","","184","","0","1","null","null","arrowup","[0.675,0.325,0.85,0.15]","","",""
"sailing-trial","365","1119245","0.0-11.0-330.0","","","","false","","","","","","","","","","140.10000002384186","","248.20000004768372","","0","1","arrowleft","0","arrowleft","[0.675,0.325,0.85,0.15]","","",""
"sailing-trial","366","1120582","0.0-11.0-331.0","","","","false","","","","","","","","","","null","","19.59999990463257","","1","0","null","null","arrowup","[0.675,0.325,0.85,0.15]","","",""
"sailing-trial","367","1123512","0.0-11.0-332.0","","","","false","","","","","","","","","","17.399999976158142","","157.70000004768372","","0","1","arrowleft","0","arrowleft","[0.675,0.325,0.85,0.15]","","",""
"sailing-trial","368","1125280","0.0-11.0-333.0","","","","false","","","","","","","","","","null","","0","","2","1","null","null","arrowup","[0.675,0.325,0.85,0.15]","","",""
"sailing-trial","369","1128294","0.0-11.0-334.0","","","","false","","","","","","","","","","6.399999976158142","","189.59999990463257","","0","1","arrowleft","0","arrowleft","[0.675,0.325,0.85,0.15]","","",""
"sailing-trial","370","1130128","0.0-11.0-335.0","","","","false","","","","","","","","","","null","","19.800000071525574","","2","1","null","null","arrowup","[0.675,0.325,0.85,0.15]","","",""
"sailing-trial","371","1133280","0.0-11.0-336.0","","","","false","","","","","","","","","","117.70000004768372","","35.10000002384186","","0","1","arrowleft","0","arrowleft","[0.675,0.325,0.85,0.15]","","",""
"sailing-trial","372","1134729","0.0-11.0-337.0","","","","false","","","","","","","","","","null","","391.2999999523163","","3","0","null","null","arrowup","[0.675,0.325,0.85,0.15]","","",""
"sailing-trial","373","1137489","0.0-11.0-338.0","","","","false","","","","","","","","","","102.5","","126.39999997615814","","0","0","arrowleft","0","arrowleft","[0.675,0.325,0.85,0.15]","","",""
"sailing-trial","374","1139376","0.0-11.0-339.0","","","","false","","","","","","","","","","null","","150","","0","1","null","null","arrowup","[0.675,0.325,0.85,0.15]","","",""
"sailing-trial","375","1141966","0.0-11.0-340.0","","","","false","","","","","","","","","","223.39999997615814","","72.39999997615814","","0","0","arrowleft","0","arrowleft","[0.85,0.15,0.675,0.325]","","",""
"sailing-trial","376","1143341","0.0-11.0-341.0","","","","false","","","","","","","","","","null","","113","","1","0","null","null","arrowup","[0.85,0.15,0.675,0.325]","","",""
"sailing-trial","377","1146376","0.0-11.0-342.0","","","","false","","","","","","","","","","176.10000002384186","","51.09999990463257","","0","1","arrowleft","0","arrowleft","[0.85,0.15,0.675,0.325]","","",""
"sailing-trial","378","1147599","0.0-11.0-343.0","","","","false","","","","","","","","","","null","","64","","3","0","null","null","arrowup","[0.85,0.15,0.675,0.325]","","",""
"sailing-trial","379","1150560","0.0-11.0-344.0","","","","false","","","","","","","","","","29.700000047683716","","80.5","","0","1","arrowleft","0","arrowleft","[0.85,0.15,0.675,0.325]","","",""
"sailing-trial","380","1151792","0.0-11.0-345.0","","","","false","","","","","","","","","","null","","41.90000009536743","","3","0","null","null","arrowup","[0.85,0.15,0.675,0.325]","","",""
"sailing-trial","381","1154726","0.0-11.0-346.0","","","","false","","","","","","","","","","20.699999928474426","","103.40000009536743","","0","1","arrowleft","0","arrowleft","[0.85,0.15,0.675,0.325]","","",""
"sailing-trial","382","1156037","0.0-11.0-347.0","","","","false","","","","","","","","","","null","","135.79999995231628","","1","0","null","null","arrowup","[0.85,0.15,0.675,0.325]","","",""
"sailing-trial","383","1159143","0.0-11.0-348.0","","","","false","","","","","","","","","","100.70000004768372","","128.09999990463257","","0","1","arrowleft","0","arrowleft","[0.85,0.15,0.675,0.325]","","",""
"sailing-trial","384","1160387","0.0-11.0-349.0","","","","false","","","","","","","","","","null","","61.299999952316284","","2","0","null","null","arrowup","[0.85,0.15,0.675,0.325]","","",""
"sailing-trial","385","1163428","0.0-11.0-350.0","","","","false","","","","","","","","","","0.09999990463256836","","121.89999997615814","","0","1","arrowleft","0","arrowleft","[0.85,0.15,0.675,0.325]","","",""
"sailing-trial","386","1165275","0.0-11.0-351.0","","","","false","","","","","","","","","","null","","570.1000000238419","","0","0","null","null","arrowup","[0.85,0.15,0.675,0.325]","","",""
"sailing-trial","387","1168293","0.0-11.0-352.0","","","","false","","","","","","","","","","64.60000002384186","","187.5","","0","1","arrowleft","0","arrowleft","[0.85,0.15,0.675,0.325]","","",""
"sailing-trial","388","1169664","0.0-11.0-353.0","","","","false","","","","","","","","","","null","","201.19999992847443","","3","0","null","null","arrowup","[0.85,0.15,0.675,0.325]","","",""
"sailing-trial","389","1173011","0.0-11.0-354.0","","","","false","","","","","","","","","","115.20000004768372","","183.10000002384186","","0","1","arrowleft","0","arrowleft","[0.85,0.15,0.675,0.325]","","",""
"sailing-trial","390","1174165","0.0-11.0-355.0","","","","false","","","","","","","","","","null","","5.600000023841858","","1","0","null","null","arrowup","[0.85,0.15,0.675,0.325]","","",""
"sailing-trial","391","1177242","0.0-11.0-356.0","","","","false","","","","","","","","","","42","","163.09999990463257","","0","1","arrowleft","0","arrowleft","[0.85,0.15,0.675,0.325]","","",""
"sailing-trial","392","1179109","0.0-11.0-357.0","","","","false","","","","","","","","","","null","","226.19999992847443","","0","1","null","null","arrowup","[0.85,0.15,0.675,0.325]","","",""
"sailing-trial","393","1182109","0.0-11.0-358.0","","","","false","","","","","","","","","","84.29999995231628","","53.39999997615814","","0","1","arrowleft","0","arrowleft","[0.85,0.15,0.675,0.325]","","",""
"sailing-trial","394","1183877","0.0-11.0-359.0","","","","false","","","","","","","","","","null","","22.5","","3","1","null","null","arrowup","[0.85,0.15,0.675,0.325]","","",""
"sailing-trial","395","1186809","0.0-11.0-360.0","","","","false","","","","","","","","","","14","","45","","0","1","arrowleft","0","arrowleft","[0.85,0.15,0.675,0.325]","","",""
"sailing-trial","396","1188021","0.0-11.0-361.0","","","","false","","","","","","","","","","null","","18.100000023841858","","1","0","null","null","arrowup","[0.85,0.15,0.675,0.325]","","",""
"sailing-trial","397","1190462","0.0-11.0-362.0","","","","false","","","","","","","","","","129.39999997615814","","29.399999976158142","","0","0","arrowleft","0","arrowleft","[0.675,0.325,0.85,0.15]","","",""
"sailing-trial","398","1192343","0.0-11.0-363.0","","","","false","","","","","","","","","","null","","143.89999997615814","","2","1","null","null","arrowup","[0.675,0.325,0.85,0.15]","","",""
"sailing-trial","399","1195053","0.0-11.0-364.0","","","","false","","","","","","","","","","159.39999997615814","","211.29999995231628","","0","0","arrowleft","0","arrowleft","[0.675,0.325,0.85,0.15]","","",""
"sailing-trial","400","1196627","0.0-11.0-365.0","","","","false","","","","","","","","","","null","","397.60000002384186","","3","0","null","null","arrowup","[0.675,0.325,0.85,0.15]","","",""
"sailing-trial","401","1199677","0.0-11.0-366.0","","","","false","","","","","","","","","","14.800000071525574","","218.29999995231628","","0","1","arrowleft","0","arrowleft","[0.675,0.325,0.85,0.15]","","",""
"sailing-trial","402","1201164","0.0-11.0-367.0","","","","false","","","","","","","","","","null","","298.7000000476837","","3","0","null","null","arrowup","[0.675,0.325,0.85,0.15]","","",""
"sailing-trial","403","1203733","0.0-11.0-368.0","","","","false","","","","","","","","","","97.5","","146","","0","0","arrowleft","0","arrowleft","[0.675,0.325,0.85,0.15]","","",""
"sailing-trial","404","1205100","0.0-11.0-369.0","","","","false","","","","","","","","","","null","","165.19999992847443","","2","0","null","null","arrowup","[0.675,0.325,0.85,0.15]","","",""
"sailing-trial","405","1208444","0.0-11.0-370.0","","","","false","","","","","","","","","","179","","284.6999999284744","","3","1","arrowright","1","arrowright","[0.675,0.325,0.85,0.15]","","",""
"sailing-trial","406","1210177","0.0-11.0-371.0","","","","false","","","","","","","","","","null","","67.5","","0","1","null","null","arrowup","[0.675,0.325,0.85,0.15]","","",""
"sailing-trial","407","1212764","0.0-11.0-372.0","","","","false","","","","","","","","","","200.20000004768372","","67.59999990463257","","3","0","arrowright","1","arrowright","[0.675,0.325,0.85,0.15]","","",""
"sailing-trial","408","1214444","0.0-11.0-373.0","","","","false","","","","","","","","","","null","","10.700000047683716","","0","1","null","null","arrowup","[0.675,0.325,0.85,0.15]","","",""
"sailing-trial","409","1217461","0.0-11.0-374.0","","","","false","","","","","","","","","","115.79999995231628","","40.199999928474426","","2","1","arrowright","1","arrowleft","[0.675,0.325,0.85,0.15]","","",""
"sailing-trial","410","1220010","0.0-11.0-375.0","","","","false","","","","","","","","","","null","","813.2000000476837","","2","1","null","null","arrowup","[0.675,0.325,0.85,0.15]","","",""
"sailing-trial","411","1222507","0.0-11.0-376.0","","","","false","","","","","","","","","","82.5","","204.5","","2","0","arrowright","1","arrowleft","[0.675,0.325,0.85,0.15]","","",""
"sailing-trial","412","1224001","0.0-11.0-377.0","","","","false","","","","","","","","","","null","","107.5","","0","0","null","null","arrowup","[0.675,0.325,0.85,0.15]","","",""
"sailing-trial","413","1226892","0.0-11.0-378.0","","","","false","","","","","","","","","","40.10000002384186","","14.199999928474426","","2","1","arrowright","1","arrowleft","[0.15,0.85,0.325,0.675]","","",""
"sailing-trial","414","1228202","0.0-11.0-379.0","","","","false","","","","","","","","","","null","","59.700000047683716","","0","0","null","null","arrowup","[0.15,0.85,0.325,0.675]","","",""
"sailing-trial","415","1230591","0.0-11.0-380.0","","","","false","","","","","","","","","","62.5","","8","","2","0","arrowright","1","arrowleft","[0.15,0.85,0.325,0.675]","","",""
"sailing-trial","416","1231857","0.0-11.0-381.0","","","","false","","","","","","","","","","null","","105","","2","0","null","null","arrowup","[0.15,0.85,0.325,0.675]","","",""
"sailing-trial","417","1234842","0.0-11.0-382.0","","","","false","","","","","","","","","","7.5","","92.80000007152557","","1","1","arrowleft","0","arrowright","[0.15,0.85,0.325,0.675]","","",""
"sailing-trial","418","1236744","0.0-11.0-383.0","","","","false","","","","","","","","","","null","","187.80000007152557","","3","1","null","null","arrowup","[0.15,0.85,0.325,0.675]","","",""
"sailing-trial","419","1239641","0.0-11.0-384.0","","","","false","","","","","","","","","","94.39999997615814","","19.399999976158142","","1","1","arrowleft","0","arrowright","[0.15,0.85,0.325,0.675]","","",""
"sailing-trial","420","1241792","0.0-11.0-385.0","","","","false","","","","","","","","","","null","","185.5","","1","1","null","null","arrowup","[0.15,0.85,0.325,0.675]","","",""
"sailing-trial","421","1244960","0.0-11.0-386.0","","","","false","","","","","","","","","","121.5","","169.79999995231628","","1","1","arrowleft","0","arrowright","[0.15,0.85,0.325,0.675]","","",""
"sailing-trial","422","1246660","0.0-11.0-387.0","","","","false","","","","","","","","","","null","","547.7000000476837","","0","0","null","null","arrowup","[0.15,0.85,0.325,0.675]","","",""
"sailing-trial","423","1249675","0.0-11.0-388.0","","","","false","","","","","","","","","","132","","177.10000002384186","","1","1","arrowleft","0","arrowright","[0.15,0.85,0.325,0.675]","","",""
"sailing-trial","424","1251644","0.0-11.0-389.0","","","","false","","","","","","","","","","null","","309.60000002384186","","3","1","null","null","arrowup","[0.15,0.85,0.325,0.675]","","",""
"sailing-trial","425","1254696","0.0-11.0-390.0","","","","false","","","","","","","","","","107.29999995231628","","132.80000007152557","","1","1","arrowleft","0","arrowright","[0.15,0.85,0.325,0.675]","","",""
"sailing-trial","426","1255880","0.0-11.0-391.0","","","","false","","","","","","","","","","null","","17.899999976158142","","0","0","null","null","arrowup","[0.15,0.85,0.325,0.675]","","",""
"sailing-trial","427","1258259","0.0-11.0-392.0","","","","false","","","","","","","","","","164.10000002384186","","56.799999952316284","","1","0","arrowleft","0","arrowright","[0.15,0.85,0.325,0.675]","","",""
"sailing-trial","428","1260094","0.0-11.0-393.0","","","","false","","","","","","","","","","null","","134","","3","1","null","null","arrowup","[0.15,0.85,0.325,0.675]","","",""
"sailing-trial","429","1263157","0.0-11.0-394.0","","","","false","","","","","","","","","","99.69999992847443","","73.70000004768372","","1","1","arrowleft","0","arrowright","[0.15,0.85,0.325,0.675]","","",""
"sailing-trial","430","1265193","0.0-11.0-395.0","","","","false","","","","","","","","","","null","","339.5","","0","1","null","null","arrowup","[0.15,0.85,0.325,0.675]","","",""
"sailing-trial","431","1267802","0.0-11.0-396.0","","","","false","","","","","","","","","","111.60000002384186","","127.10000002384186","","2","0","arrowright","1","arrowleft","[0.15,0.85,0.325,0.675]","","",""
"sailing-trial","432","1269609","0.0-11.0-397.0","","","","false","","","","","","","","","","null","","94","","3","1","null","null","arrowup","[0.15,0.85,0.325,0.675]","","",""
"sailing-trial","433","1272380","0.0-11.0-398.0","","","","false","","","","","","","","","","164.89999997615814","","171.70000004768372","","0","0","arrowleft","0","arrowleft","[0.15,0.85,0.325,0.675]","","",""
"sailing-trial","434","1273759","0.0-11.0-399.0","","","","false","","","","","","","","","","null","","187.90000009536743","","0","0","null","null","arrowup","[0.15,0.85,0.325,0.675]","","",""
"instructions","435","1277929","0.0-12.0","","","","","","","","","","4169.799999952316","","","","","","","","","","","","","","","","[{""page_index"":0,""viewing_time"":4169.699999928474}]"
"survey-debrief","436","1317165","0.0-13.0","","","","","","","","","","39234.39999997616","","","","","","","","","","","","","","{""difficulty"":""5"",""fun"":""2"",""clarity"":""4"",""strategy"":""spam the selection keys and space bar constantly at the same time since commands dont interrupt or overlap each other"",""feedback"":""""}","",""
