"trial_type","trial_index","time_elapsed","internal_node_id","value","metadata","success","timeout","failed_images","failed_audio","failed_video","browser_interaction","low_quality","rt","stimulus","response","button_pressed","island_rt","island_response","boat_rt","boat_response","boat","reward","island_key","island","boat_key","reward_probabilities","responses","num_errors","view_history"
"pavlovia","0","2","0.0-0.0","","","","","","","","","","","","","","","","","","","","","","","","","",""
"call-function","1","2","0.0-1.0","","{""task_version"":""sailing_part1_v1"",""task_condition"":""good"",""boats"":[""B"",""A"",""D"",""C""],""boats_demo"":[""E"",""H"",""G"",""F""],""islands"":[""B"",""A""],""subject_id"":""13845"",""age"":""11"",""gender"":""Female""}","","","","","","","","","","","","","","","","","","","","","","","",""
"preload","2","1219","0.0-2.0","","","true","false","[]","[]","[]","[{""event"":""fullscreenenter"",""trial"":3,""time"":5540}]","false","","","","","","","","","","","","","","","","",""
"fullscreen","3","6550","0.0-3.0","","","true","","","","","","","","","","","","","","","","","","","","","","",""
"audio-keyboard-response","4","8712","0.0-4.0-0.0","","","","","","","","","","2141.3333333333335","audio/beep_loop.wav"," ","","","","","","","","","","","","","",""
"audio-test","5","11919","0.0-4.0-1.0","","","","","","","","","","null","audio/turtle.mp3","","3","","","","","","","","","","","","",""
"audio-test","6","14772","0.0-4.0-2.0","","","","","","","","","","null","audio/shark.mp3","","2","","","","","","","","","","","","",""
"sailing-instructions","7","49176","0.0-5.0-0.0-0.0","","","","","","","","","","","","","","null","null","null","null","null","null","","","","","","",""
"sailing-trial","8","53584","0.0-5.0-0.0-1.0-0.0","","","","false","","","","","","","","","","3279.39999999851","","null","","null","null","arrowleft","0","null","null","","",""
"sailing-trial","9","56234","0.0-5.0-0.0-1.0-1.0","","","","false","","","","","","","","","","1533.1999999955297","","null","","null","null","arrowright","1","null","null","","",""
"sailing-trial","10","62801","0.0-5.0-0.0-1.0-2.0","","","","false","","","","","","","","","","5448.89999999851","","null","","null","null","arrowright","1","null","null","","",""
"sailing-instructions","11","103522","0.0-5.0-0.0-2.0","","","","","","","","","","","","","","null","null","null","null","0","null","","","","","","",""
"sailing-trial","12","114076","0.0-5.0-0.0-3.0-0.0","","","","false","","","","","","","","","","null","","7604.5","","2","1","null","null","arrowleft","[1,1,1,1]","","",""
"sailing-trial","13","117201","0.0-5.0-0.0-3.0-1.0","","","","false","","","","","","","","","","null","","806.6000000014901","","3","1","null","null","arrowright","[1,1,1,1]","","",""
"sailing-trial","14","122451","0.0-5.0-0.0-3.0-2.0","","","","false","","","","","","","","","","null","","2192.7999999970198","","3","0","null","null","arrowright","[0,0,0,0]","","",""
"sailing-instructions","15","130561","0.0-5.0-0.0-4.0","","","","","","","","","","","","","","null","null","null","null","null","null","","","","","","",""
"sailing-comprehension","16","163652","0.0-5.0-0.0-5.0","","","","","","","","","","22805.29999999702","","","","","","","","","","","","","","[""true"",""false"",""false"",""true""]","1",""
"sailing-instructions","17","193419","0.0-5.0-0.1-0.1","","","","","","","","","","","","","","null","null","null","null","null","null","","","","","","",""
"sailing-trial","18","195586","0.0-5.0-0.1-1.1-0.1","","","","false","","","","","","","","","","1052.1999999955297","","null","","null","null","arrowleft","0","null","null","","",""
"sailing-trial","19","197686","0.0-5.0-0.1-1.1-1.1","","","","false","","","","","","","","","","984.2000000029802","","null","","null","null","arrowright","1","null","null","","",""
"sailing-trial","20","201086","0.0-5.0-0.1-1.1-2.1","","","","false","","","","","","","","","","2286","","null","","null","null","arrowright","1","null","null","","",""
"sailing-instructions","21","243966","0.0-5.0-0.1-2.1","","","","","","","","","","","","","","null","null","null","null","0","null","","","","","","",""
"sailing-trial","22","247862","0.0-5.0-0.1-3.1-0.1","","","","false","","","","","","","","","","null","","1201.2999999970198","","2","1","null","null","arrowleft","[1,1,1,1]","","",""
"sailing-trial","23","250485","0.0-5.0-0.1-3.1-1.1","","","","false","","","","","","","","","","null","","375.79999999701977","","3","1","null","null","arrowright","[1,1,1,1]","","",""
"sailing-trial","24","255661","0.0-5.0-0.1-3.1-2.1","","","","false","","","","","","","","","","null","","1656.8999999985099","","3","0","null","null","arrowright","[0,0,0,0]","","",""
"sailing-instructions","25","263534","0.0-5.0-0.1-4.1","","","","","","","","","","","","","","null","null","null","null","null","null","","","","","","",""
"sailing-comprehension","26","276292","0.0-5.0-0.1-5.1","","","","","","","","","","10940.89999999851","","","","","","","","","","","","","","[""true"",""true"",""false"",""true""]","0",""
"sailing-instructions","27","337547","0.0-6.0-0.0-0.0","","","","","","","","","","","","","","null","null","null","null","null","null","","","","","","",""
"sailing-comprehension","28","354170","0.0-6.0-0.0-1.0","","","","","","","","","","15236.19999999553","","","","","","","","","","","","","","[""true"",""false"",""true""]","0",""
"sailing-instructions","29","368609","0.0-7.0-0.0-0.0","","","","","","","","","","","","","","null","null","null","null","null","null","","","","","","",""
"sailing-trial","30","373779","0.0-7.0-0.0-1.0-0.0","","","","false","","","","","","","","","","null","","2643.5","","0","0","null","null","arrowup","[0.2,0.8,0.2,0.8]","","",""
"sailing-trial","31","377872","0.0-7.0-0.0-1.0-1.0","","","","false","","","","","","","","","","null","","1619.3999999985099","","1","1","null","null","arrowup","[0.2,0.8,0.2,0.8]","","",""
"sailing-trial","32","381463","0.0-7.0-0.0-1.0-2.0","","","","false","","","","","","","","","","null","","1488.4000000059605","","2","0","null","null","arrowup","[0.2,0.8,0.2,0.8]","","",""
"sailing-trial","33","384547","0.0-7.0-0.0-1.0-3.0","","","","false","","","","","","","","","","null","","1139","","3","1","null","null","arrowup","[0.2,0.8,0.2,0.8]","","",""
"sailing-comprehension","34","399545","0.0-7.0-0.0-2.0","","","","","","","","","","13025.5","","","","","","","","","","","","","","[""false""]","0",""
"sailing-instructions","35","410142","0.0-8.0-0.0-0.0","","","","","","","","","","","","","","null","null","null","null","null","null","","","","","","",""
"sailing-comprehension","36","415105","0.0-8.0-0.0-1.0","","","","","","","","","","3930.6999999955297","","","","","","","","","","","","","","[""true""]","0",""
"sailing-instructions","37","452491","0.0-9.0-0.0-0.0","","","","","","","","","","","","","","null","null","null","null","null","null","","","","","","",""
"sailing-trial","38","459922","0.0-9.0-0.0-1.0-0.0","","","","false","","","","","","","","","","3623.5","","318","","2","0","arrowright","1","arrowleft","[0.2,0.8,0.2,0.8]","","",""
"sailing-trial","39","465315","0.0-9.0-0.0-1.0-1.0","","","","false","","","","","","","","","","628.6999999955297","","1387.8000000044703","","3","1","arrowright","1","arrowright","[0.2,0.8,0.2,0.8]","","",""
"sailing-trial","40","468981","0.0-9.0-0.0-1.0-2.0","","","","false","","","","","","","","","","null","","1701.5","","0","0","null","null","arrowup","[0.2,0.8,0.2,0.8]","","",""
"sailing-trial","41","474431","0.0-9.0-0.0-1.0-3.0","","","","false","","","","","","","","","","1790.8999999985099","","371.8999999985099","","1","1","arrowleft","0","arrowright","[0.2,0.8,0.2,0.8]","","",""
"sailing-trial","42","478217","0.0-9.0-0.0-1.0-4.0","","","","false","","","","","","","","","","null","","1640.1999999955297","","3","1","null","null","arrowup","[0.2,0.8,0.2,0.8]","","",""
"sailing-trial","43","482313","0.0-9.0-0.0-1.0-5.0","","","","false","","","","","","","","","","1217.7999999970198","","428","","2","0","arrowright","1","arrowleft","[0.2,0.8,0.2,0.8]","","",""
"sailing-instructions","44","510533","0.0-10.0","","","","","","","","","","","","","","null","null","null","null","null","null","","","","","","",""
"sailing-trial","45","516732","0.0-11.0-0.0","","","","false","","","","","","","","","","2060.7999999970198","","989.3000000044703","","2","1","arrowright","1","arrowleft","[0.675,0.325,0.85,0.15]","","",""
"sailing-trial","46","521198","0.0-11.0-1.0","","","","false","","","","","","","","","","null","","1446.4000000059605","","3","0","null","null","arrowup","[0.675,0.325,0.85,0.15]","","",""
"sailing-trial","47","525449","0.0-11.0-2.0","","","","false","","","","","","","","","","810.1000000014901","","212.70000000298023","","0","1","arrowleft","0","arrowleft","[0.675,0.325,0.85,0.15]","","",""
"sailing-trial","48","529039","0.0-11.0-3.0","","","","false","","","","","","","","","","null","","1972.8000000044703","","3","0","null","null","arrowup","[0.675,0.325,0.85,0.15]","","",""
"sailing-trial","49","534498","0.0-11.0-4.0","","","","false","","","","","","","","","","1259.2999999970198","","171.70000000298023","","1","0","arrowleft","0","arrowright","[0.675,0.325,0.85,0.15]","","",""
"sailing-trial","50","538679","0.0-11.0-5.0","","","","false","","","","","","","","","","null","","1337.3999999985099","","1","0","null","null","arrowup","[0.675,0.325,0.85,0.15]","","",""
"sailing-trial","51","542757","0.0-11.0-6.0","","","","false","","","","","","","","","","893","","283.80000000447035","","2","1","arrowright","1","arrowleft","[0.675,0.325,0.85,0.15]","","",""
"sailing-trial","52","546107","0.0-11.0-7.0","","","","false","","","","","","","","","","null","","1510.5","","2","1","null","null","arrowup","[0.675,0.325,0.85,0.15]","","",""
"sailing-trial","53","549562","0.0-11.0-8.0","","","","false","","","","","","","","","","627.4000000059605","","101.70000000298023","","2","0","arrowright","1","arrowleft","[0.675,0.325,0.85,0.15]","","",""
"sailing-trial","54","553918","0.0-11.0-9.0","","","","false","","","","","","","","","","null","","1352.6999999955297","","1","0","null","null","arrowup","[0.675,0.325,0.85,0.15]","","",""
"sailing-trial","55","557625","0.0-11.0-10.0","","","","false","","","","","","","","","","714","","81.60000000149012","","0","1","arrowleft","0","arrowleft","[0.675,0.325,0.85,0.15]","","",""
"sailing-trial","56","561662","0.0-11.0-11.0","","","","false","","","","","","","","","","null","","2379.7000000029802","","0","0","null","null","arrowup","[0.675,0.325,0.85,0.15]","","",""
"sailing-trial","57","566509","0.0-11.0-12.0","","","","false","","","","","","","","","","797.2000000029802","","52.600000001490116","","1","0","arrowleft","0","arrowright","[0.675,0.325,0.85,0.15]","","",""
"sailing-trial","58","569807","0.0-11.0-13.0","","","","false","","","","","","","","","","null","","1446.1999999955297","","1","1","null","null","arrowup","[0.675,0.325,0.85,0.15]","","",""
"sailing-trial","59","574693","0.0-11.0-14.0","","","","false","","","","","","","","","","712.3999999985099","","142.29999999701977","","3","0","arrowright","1","arrowright","[0.675,0.325,0.85,0.15]","","",""
"sailing-trial","60","578859","0.0-11.0-15.0","","","","false","","","","","","","","","","null","","1164.5","","1","0","null","null","arrowup","[0.675,0.325,0.85,0.15]","","",""
"sailing-trial","61","583993","0.0-11.0-16.0","","","","false","","","","","","","","","","933.8999999985099","","187.79999999701977","","0","0","arrowleft","0","arrowleft","[0.325,0.675,0.15,0.85]","","",""
"sailing-trial","62","586891","0.0-11.0-17.0","","","","false","","","","","","","","","","null","","683","","3","1","null","null","arrowup","[0.325,0.675,0.15,0.85]","","",""
"sailing-trial","63","591307","0.0-11.0-18.0","","","","false","","","","","","","","","","691.7999999970198","","584.0999999940395","","0","1","arrowleft","0","arrowleft","[0.325,0.675,0.15,0.85]","","",""
"sailing-trial","64","595651","0.0-11.0-19.0","","","","false","","","","","","","","","","null","","1332.1000000014901","","2","0","null","null","arrowup","[0.325,0.675,0.15,0.85]","","",""
"sailing-trial","65","599317","0.0-11.0-20.0","","","","false","","","","","","","","","","650.2999999970198","","103.60000000149012","","3","1","arrowright","1","arrowright","[0.325,0.675,0.15,0.85]","","",""
"sailing-trial","66","603626","0.0-11.0-21.0","","","","false","","","","","","","","","","null","","1285.3999999985099","","1","0","null","null","arrowup","[0.325,0.675,0.15,0.85]","","",""
"sailing-trial","67","609418","0.0-11.0-22.0","","","","false","","","","","","","","","","1735.7000000029802","","27.099999994039536","","2","0","arrowright","1","arrowleft","[0.325,0.675,0.15,0.85]","","",""
"sailing-trial","68","614278","0.0-11.0-23.0","","","","false","","","","","","","","","","null","","1854","","2","0","null","null","arrowup","[0.325,0.675,0.15,0.85]","","",""
"sailing-trial","69","618824","0.0-11.0-24.0","","","","false","","","","","","","","","","1232.2999999970198","","425.40000000596046","","0","1","arrowleft","0","arrowleft","[0.325,0.675,0.15,0.85]","","",""
"sailing-trial","70","622983","0.0-11.0-25.0","","","","false","","","","","","","","","","null","","1144.7000000029802","","0","0","null","null","arrowup","[0.325,0.675,0.15,0.85]","","",""
"sailing-trial","71","627642","0.0-11.0-26.0","","","","false","","","","","","","","","","717.6000000014901","","808.2999999970198","","0","1","arrowleft","0","arrowleft","[0.325,0.675,0.15,0.85]","","",""
"sailing-trial","72","630949","0.0-11.0-27.0","","","","false","","","","","","","","","","null","","888.3999999985099","","0","1","null","null","arrowup","[0.325,0.675,0.15,0.85]","","",""
"sailing-trial","73","635751","0.0-11.0-28.0","","","","false","","","","","","","","","","746.2000000029802","","27.80000000447035","","3","0","arrowright","1","arrowright","[0.325,0.675,0.15,0.85]","","",""
"sailing-trial","74","638291","0.0-11.0-29.0","","","","false","","","","","","","","","","null","","1015.7999999970198","","0","0","null","null","arrowup","[0.325,0.675,0.15,0.85]","","",""
"sailing-trial","75","644235","0.0-11.0-30.0","","","","false","","","","","","","","","","1768.5","","144.90000000596046","","2","0","arrowright","1","arrowleft","[0.325,0.675,0.15,0.85]","","",""
"sailing-trial","76","648194","0.0-11.0-31.0","","","","false","","","","","","","","","","null","","949.5999999940395","","2","0","null","null","arrowup","[0.325,0.675,0.15,0.85]","","",""
"sailing-trial","77","653369","0.0-11.0-32.0","","","","false","","","","","","","","","","825.7000000029802","","344.20000000298023","","3","0","arrowright","1","arrowright","[0.15,0.85,0.325,0.675]","","",""
"sailing-trial","78","657352","0.0-11.0-33.0","","","","false","","","","","","","","","","null","","973.2999999970198","","2","0","null","null","arrowup","[0.15,0.85,0.325,0.675]","","",""
"sailing-trial","79","662378","0.0-11.0-34.0","","","","false","","","","","","","","","","635.2999999970198","","368.1000000014901","","0","0","arrowleft","0","arrowleft","[0.15,0.85,0.325,0.675]","","",""
"sailing-trial","80","665400","0.0-11.0-35.0","","","","false","","","","","","","","","","null","","1055.5","","1","1","null","null","arrowup","[0.15,0.85,0.325,0.675]","","",""
"sailing-trial","81","670813","0.0-11.0-36.0","","","","false","","","","","","","","","","975.5","","406","","1","0","arrowleft","0","arrowright","[0.15,0.85,0.325,0.675]","","",""
"sailing-trial","82","674615","0.0-11.0-37.0","","","","false","","","","","","","","","","null","","784.2000000029802","","2","0","null","null","arrowup","[0.15,0.85,0.325,0.675]","","",""
"sailing-trial","83","678610","0.0-11.0-38.0","","","","false","","","","","","","","","","1002.8000000044703","","77.59999999403954","","1","1","arrowleft","0","arrowright","[0.15,0.85,0.325,0.675]","","",""
"sailing-trial","84","681575","0.0-11.0-39.0","","","","false","","","","","","","","","","null","","749.7999999970198","","2","1","null","null","arrowup","[0.15,0.85,0.325,0.675]","","",""
"sailing-trial","85","685731","0.0-11.0-40.0","","","","false","","","","","","","","","","592.3999999985099","","937.1000000014901","","2","0","arrowright","1","arrowleft","[0.15,0.85,0.325,0.675]","","",""
"sailing-trial","86","689458","0.0-11.0-41.0","","","","false","","","","","","","","","","null","","1601","","3","1","null","null","arrowup","[0.15,0.85,0.325,0.675]","","",""
"sailing-trial","87","693150","0.0-11.0-42.0","","","","false","","","","","","","","","","672.2999999970198","","63.80000000447035","","1","1","arrowleft","0","arrowright","[0.15,0.85,0.325,0.675]","","",""
"sailing-trial","88","697061","0.0-11.0-43.0","","","","false","","","","","","","","","","null","","910.2999999970198","","2","0","null","null","arrowup","[0.15,0.85,0.325,0.675]","","",""
"sailing-trial","89","701334","0.0-11.0-44.0","","","","false","","","","","","","","","","818.5","","253.70000000298023","","3","1","arrowright","1","arrowright","[0.15,0.85,0.325,0.675]","","",""
"sailing-trial","90","704533","0.0-11.0-45.0","","","","false","","","","","","","","","","null","","996.1000000014901","","2","1","null","null","arrowup","[0.15,0.85,0.325,0.675]","","",""
"sailing-trial","91","709594","0.0-11.0-46.0","","","","false","","","","","","","","","","830.8000000044703","","217.39999999850988","","1","0","arrowleft","0","arrowright","[0.15,0.85,0.325,0.675]","","",""
"sailing-trial","92","714086","0.0-11.0-47.0","","","","false","","","","","","","","","","null","","1488.5","","2","0","null","null","arrowup","[0.15,0.85,0.325,0.675]","","",""
"sailing-trial","93","718001","0.0-11.0-48.0","","","","false","","","","","","","","","","697.1999999955297","","18.799999997019768","","0","1","arrowleft","0","arrowleft","[0.15,0.85,0.325,0.675]","","",""
"sailing-trial","94","721210","0.0-11.0-49.0","","","","false","","","","","","","","","","null","","1321.1999999955297","","0","1","null","null","arrowup","[0.15,0.85,0.325,0.675]","","",""
"sailing-trial","95","726058","0.0-11.0-50.0","","","","false","","","","","","","","","","800.8000000044703","","38.100000001490116","","0","0","arrowleft","0","arrowleft","[0.15,0.85,0.325,0.675]","","",""
"sailing-trial","96","729326","0.0-11.0-51.0","","","","false","","","","","","","","","","null","","1188.8000000044703","","2","1","null","null","arrowup","[0.15,0.85,0.325,0.675]","","",""
"sailing-trial","97","734010","0.0-11.0-52.0","","","","false","","","","","","","","","","616.3000000044703","","58.600000001490116","","2","0","arrowright","1","arrowleft","[0.325,0.675,0.15,0.85]","","",""
"sailing-trial","98","737058","0.0-11.0-53.0","","","","false","","","","","","","","","","null","","1006.8000000044703","","1","1","null","null","arrowup","[0.325,0.675,0.15,0.85]","","",""
"sailing-trial","99","743085","0.0-11.0-54.0","","","","false","","","","","","","","","","823.5","","1182.1000000014901","","2","0","arrowright","1","arrowleft","[0.325,0.675,0.15,0.85]","","",""
"sailing-trial","100","747577","0.0-11.0-55.0","","","","false","","","","","","","","","","null","","1491.7999999970198","","1","0","null","null","arrowup","[0.325,0.675,0.15,0.85]","","",""
"sailing-trial","101","752677","0.0-11.0-56.0","","","","false","","","","","","","","","","787.8000000044703","","1268.7000000029802","","3","1","arrowright","1","arrowright","[0.325,0.675,0.15,0.85]","","",""
"sailing-trial","102","756603","0.0-11.0-57.0","","","","false","","","","","","","","","","null","","922.7999999970198","","3","0","null","null","arrowup","[0.325,0.675,0.15,0.85]","","",""
"sailing-trial","103","761835","0.0-11.0-58.0","","","","false","","","","","","","","","","903.2000000029802","","328.3999999985099","","3","0","arrowright","1","arrowright","[0.325,0.675,0.15,0.85]","","",""
"sailing-trial","104","765894","0.0-11.0-59.0","","","","false","","","","","","","","","","null","","1652.3000000044703","","1","1","null","null","arrowup","[0.325,0.675,0.15,0.85]","","",""
"sailing-trial","105","769402","0.0-11.0-60.0","","","","false","","","","","","","","","","589.2999999970198","","19.299999997019768","","1","1","arrowleft","0","arrowright","[0.325,0.675,0.15,0.85]","","",""
"sailing-trial","106","773477","0.0-11.0-61.0","","","","false","","","","","","","","","","null","","1063.3000000044703","","0","0","null","null","arrowup","[0.325,0.675,0.15,0.85]","","",""
"sailing-trial","107","778134","0.0-11.0-62.0","","","","false","","","","","","","","","","1067.6000000014901","","701","","1","1","arrowleft","0","arrowright","[0.325,0.675,0.15,0.85]","","",""
"sailing-trial","108","782102","0.0-11.0-63.0","","","","false","","","","","","","","","","null","","957.5999999940395","","0","0","null","null","arrowup","[0.325,0.675,0.15,0.85]","","",""
"sailing-trial","109","787659","0.0-11.0-64.0","","","","false","","","","","","","","","","814.5","","1671.2999999970198","","0","1","arrowleft","0","arrowleft","[0.325,0.675,0.15,0.85]","","",""
"sailing-trial","110","790843","0.0-11.0-65.0","","","","false","","","","","","","","","","null","","1032.9000000059605","","3","1","null","null","arrowup","[0.325,0.675,0.15,0.85]","","",""
"sailing-trial","111","796236","0.0-11.0-66.0","","","","false","","","","","","","","","","707.8000000044703","","656.7999999970198","","0","0","arrowleft","0","arrowleft","[0.325,0.675,0.15,0.85]","","",""
"sailing-trial","112","799234","0.0-11.0-67.0","","","","false","","","","","","","","","","null","","1153.1000000014901","","1","1","null","null","arrowup","[0.325,0.675,0.15,0.85]","","",""
"sailing-trial","113","804471","0.0-11.0-68.0","","","","false","","","","","","","","","","602.6000000014901","","596.2000000029802","","3","0","arrowright","1","arrowright","[0.15,0.85,0.325,0.675]","","",""
"sailing-trial","114","807242","0.0-11.0-69.0","","","","false","","","","","","","","","","null","","918.8000000044703","","3","1","null","null","arrowup","[0.15,0.85,0.325,0.675]","","",""
"sailing-trial","115","814694","0.0-11.0-70.0","","","","false","","","","","","","","","","3347.2000000029802","","95","","3","0","arrowright","1","arrowright","[0.15,0.85,0.325,0.675]","","",""
"sailing-trial","116","816840","0.0-11.0-71.0","","","","false","","","","","","","","","","null","","864.6000000014901","","0","0","null","null","arrowup","[0.15,0.85,0.325,0.675]","","",""
"sailing-trial","117","822171","0.0-11.0-72.0","","","","false","","","","","","","","","","768.7999999970198","","552","","3","0","arrowright","1","arrowright","[0.15,0.85,0.325,0.675]","","",""
"sailing-trial","118","826011","0.0-11.0-73.0","","","","false","","","","","","","","","","null","","838.8000000044703","","2","0","null","null","arrowup","[0.15,0.85,0.325,0.675]","","",""
"sailing-trial","119","832844","0.0-11.0-74.0","","","","false","","","","","","","","","","1736","","1083.7000000029802","","2","0","arrowright","1","arrowleft","[0.15,0.85,0.325,0.675]","","",""
"sailing-trial","120","836853","0.0-11.0-75.0","","","","false","","","","","","","","","","null","","985.7999999970198","","0","0","null","null","arrowup","[0.15,0.85,0.325,0.675]","","",""
"sailing-trial","121","840851","0.0-11.0-76.0","","","","false","","","","","","","","","","1040.6999999955297","","48.20000000298023","","1","1","arrowleft","0","arrowright","[0.15,0.85,0.325,0.675]","","",""
"sailing-trial","122","843902","0.0-11.0-77.0","","","","false","","","","","","","","","","null","","998.7000000029802","","3","1","null","null","arrowup","[0.15,0.85,0.325,0.675]","","",""
"sailing-trial","123","849336","0.0-11.0-78.0","","","","false","","","","","","","","","","629.7999999970198","","133","","1","1","arrowleft","0","arrowright","[0.15,0.85,0.325,0.675]","","",""
"sailing-trial","124","853552","0.0-11.0-79.0","","","","false","","","","","","","","","","null","","1895.3000000044703","","3","1","null","null","arrowup","[0.15,0.85,0.325,0.675]","","",""
"sailing-trial","125","858586","0.0-11.0-80.0","","","","false","","","","","","","","","","651.7999999970198","","1376.2000000029802","","1","1","arrowleft","0","arrowright","[0.15,0.85,0.325,0.675]","","",""
"sailing-trial","126","861627","0.0-11.0-81.0","","","","false","","","","","","","","","","null","","1171.8999999985099","","3","1","null","null","arrowup","[0.15,0.85,0.325,0.675]","","",""
"sailing-trial","127","868328","0.0-11.0-82.0","","","","false","","","","","","","","","","806.8999999985099","","1865.5","","0","0","arrowleft","0","arrowleft","[0.15,0.85,0.325,0.675]","","",""
"sailing-trial","128","872296","0.0-11.0-83.0","","","","false","","","","","","","","","","null","","944.2999999970198","","2","0","null","null","arrowup","[0.15,0.85,0.325,0.675]","","",""
"sailing-trial","129","877453","0.0-11.0-84.0","","","","false","","","","","","","","","","793.6000000014901","","1401","","1","1","arrowleft","0","arrowright","[0.15,0.85,0.325,0.675]","","",""
"sailing-trial","130","881515","0.0-11.0-85.0","","","","false","","","","","","","","","","null","","1047.3000000044703","","0","0","null","null","arrowup","[0.15,0.85,0.325,0.675]","","",""
"sailing-trial","131","887370","0.0-11.0-86.0","","","","false","","","","","","","","","","610.5","","2389.7999999970198","","3","1","arrowright","1","arrowright","[0.15,0.85,0.325,0.675]","","",""
"sailing-trial","132","890704","0.0-11.0-87.0","","","","false","","","","","","","","","","null","","958.7000000029802","","3","1","null","null","arrowup","[0.15,0.85,0.325,0.675]","","",""
"sailing-trial","133","897464","0.0-11.0-88.0","","","","false","","","","","","","","","","638.6999999955297","","2096.5","","1","0","arrowleft","0","arrowright","[0.325,0.675,0.15,0.85]","","",""
"sailing-trial","134","901444","0.0-11.0-89.0","","","","false","","","","","","","","","","null","","977.6000000014901","","0","0","null","null","arrowup","[0.325,0.675,0.15,0.85]","","",""
"sailing-trial","135","906205","0.0-11.0-90.0","","","","false","","","","","","","","","","629.7000000029802","","119.19999999552965","","2","0","arrowright","1","arrowleft","[0.325,0.675,0.15,0.85]","","",""
"sailing-trial","136","909979","0.0-11.0-91.0","","","","false","","","","","","","","","","null","","770","","2","0","null","null","arrowup","[0.325,0.675,0.15,0.85]","","",""
"sailing-trial","137","916170","0.0-11.0-92.0","","","","false","","","","","","","","","","1157","","1159.4000000059605","","3","1","arrowright","1","arrowright","[0.325,0.675,0.15,0.85]","","",""
"sailing-trial","138","921080","0.0-11.0-93.0","","","","false","","","","","","","","","","null","","1908","","2","0","null","null","arrowup","[0.325,0.675,0.15,0.85]","","",""
"sailing-trial","139","925978","0.0-11.0-94.0","","","","false","","","","","","","","","","1453.5","","267.79999999701977","","3","1","arrowright","1","arrowright","[0.325,0.675,0.15,0.85]","","",""
"sailing-trial","140","930514","0.0-11.0-95.0","","","","false","","","","","","","","","","null","","1533.6000000014901","","2","0","null","null","arrowup","[0.325,0.675,0.15,0.85]","","",""
"sailing-trial","141","935404","0.0-11.0-96.0","","","","false","","","","","","","","","","572.4000000059605","","1500.1999999955297","","3","1","arrowright","1","arrowright","[0.325,0.675,0.15,0.85]","","",""
"sailing-trial","142","938554","0.0-11.0-97.0","","","","false","","","","","","","","","","null","","1043.4000000059605","","3","1","null","null","arrowup","[0.325,0.675,0.15,0.85]","","",""
"sailing-trial","143","943829","0.0-11.0-98.0","","","","false","","","","","","","","","","941.5","","1272.2999999970198","","3","1","arrowright","1","arrowright","[0.325,0.675,0.15,0.85]","","",""
"sailing-trial","144","947153","0.0-11.0-99.0","","","","false","","","","","","","","","","null","","1487.4000000059605","","2","1","null","null","arrowup","[0.325,0.675,0.15,0.85]","","",""
"sailing-trial","145","952883","0.0-11.0-100.0","","","","false","","","","","","","","","","739.5","","933","","1","0","arrowleft","0","arrowright","[0.325,0.675,0.15,0.85]","","",""
"sailing-trial","146","955944","0.0-11.0-101.0","","","","false","","","","","","","","","","null","","1023.6000000014901","","1","1","null","null","arrowup","[0.325,0.675,0.15,0.85]","","",""
"sailing-trial","147","961438","0.0-11.0-102.0","","","","false","","","","","","","","","","785.3000000044703","","1723.3999999985099","","3","1","arrowright","1","arrowright","[0.325,0.675,0.15,0.85]","","",""
"sailing-trial","148","964579","0.0-11.0-103.0","","","","false","","","","","","","","","","null","","1268.1000000014901","","1","1","null","null","arrowup","[0.325,0.675,0.15,0.85]","","",""
"sailing-trial","149","970913","0.0-11.0-104.0","","","","false","","","","","","","","","","725.0999999940395","","1603.5999999940395","","2","0","arrowright","1","arrowleft","[0.15,0.85,0.325,0.675]","","",""
"sailing-trial","150","975344","0.0-11.0-105.0","","","","false","","","","","","","","","","null","","2896","","2","0","null","null","arrowup","[0.15,0.85,0.325,0.675]","","",""
"sailing-trial","151","981113","0.0-11.0-106.0","","","","false","","","","","","","","","","853.7000000029802","","905","","3","0","arrowright","1","arrowright","[0.15,0.85,0.325,0.675]","","",""
"sailing-trial","152","984086","0.0-11.0-107.0","","","","false","","","","","","","","","","null","","1081","","1","1","null","null","arrowup","[0.15,0.85,0.325,0.675]","","",""
"sailing-trial","153","988769","0.0-11.0-108.0","","","","false","","","","","","","","","","715.1000000014901","","1109.5","","1","1","arrowleft","0","arrowright","[0.15,0.85,0.325,0.675]","","",""
"sailing-trial","154","992086","0.0-11.0-109.0","","","","false","","","","","","","","","","null","","1335.7000000029802","","1","1","null","null","arrowup","[0.15,0.85,0.325,0.675]","","",""
"sailing-trial","155","996869","0.0-11.0-110.0","","","","false","","","","","","","","","","774.8000000044703","","761.6000000014901","","1","1","arrowleft","0","arrowright","[0.15,0.85,0.325,0.675]","","",""
"sailing-trial","156","999242","0.0-11.0-111.0","","","","false","","","","","","","","","","null","","1100.2000000029802","","0","0","null","null","arrowup","[0.15,0.85,0.325,0.675]","","",""
"sailing-trial","157","1004469","0.0-11.0-112.0","","","","false","","","","","","","","","","723.3000000044703","","1741.5","","1","1","arrowleft","0","arrowright","[0.15,0.85,0.325,0.675]","","",""
"sailing-trial","158","1008528","0.0-11.0-113.0","","","","false","","","","","","","","","","null","","1060.7999999970198","","2","0","null","null","arrowup","[0.15,0.85,0.325,0.675]","","",""
"sailing-trial","159","1015129","0.0-11.0-114.0","","","","false","","","","","","","","","","711.5","","2367.5","","1","1","arrowleft","0","arrowright","[0.15,0.85,0.325,0.675]","","",""
"sailing-trial","160","1019105","0.0-11.0-115.0","","","","false","","","","","","","","","","null","","964","","0","0","null","null","arrowup","[0.15,0.85,0.325,0.675]","","",""
"sailing-trial","161","1025063","0.0-11.0-116.0","","","","false","","","","","","","","","","912.1000000014901","","1035.6000000014901","","3","0","arrowright","1","arrowright","[0.15,0.85,0.325,0.675]","","",""
"sailing-trial","162","1029130","0.0-11.0-117.0","","","","false","","","","","","","","","","null","","1053.2999999970198","","0","0","null","null","arrowup","[0.15,0.85,0.325,0.675]","","",""
"sailing-trial","163","1033897","0.0-11.0-118.0","","","","false","","","","","","","","","","733.7999999970198","","3.899999998509884","","1","0","arrowleft","0","arrowright","[0.15,0.85,0.325,0.675]","","",""
"sailing-trial","164","1038548","0.0-11.0-119.0","","","","false","","","","","","","","","","null","","1633.7000000029802","","0","0","null","null","arrowup","[0.15,0.85,0.325,0.675]","","",""
"sailing-trial","165","1045805","0.0-11.0-120.0","","","","false","","","","","","","","","","1379.2000000029802","","2840.2000000029802","","1","1","arrowleft","0","arrowright","[0.325,0.675,0.15,0.85]","","",""
"sailing-trial","166","1048987","0.0-11.0-121.0","","","","false","","","","","","","","","","null","","1124.6999999955297","","0","1","null","null","arrowup","[0.325,0.675,0.15,0.85]","","",""
"sailing-trial","167","1053404","0.0-11.0-122.0","","","","false","","","","","","","","","","1292.7999999970198","","509.1000000014901","","3","1","arrowright","1","arrowright","[0.325,0.675,0.15,0.85]","","",""
"sailing-trial","168","1056170","0.0-11.0-123.0","","","","false","","","","","","","","","","null","","981.3999999985099","","0","1","null","null","arrowup","[0.325,0.675,0.15,0.85]","","",""
"sailing-trial","169","1061387","0.0-11.0-124.0","","","","false","","","","","","","","","","584.2000000029802","","1845","","0","1","arrowleft","0","arrowleft","[0.325,0.675,0.15,0.85]","","",""
"sailing-trial","170","1064431","0.0-11.0-125.0","","","","false","","","","","","","","","","null","","990.5999999940395","","1","1","null","null","arrowup","[0.325,0.675,0.15,0.85]","","",""
"sailing-trial","171","1067747","0.0-11.0-126.0","","","","false","","","","","","","","","","577.3999999985099","","0.8999999985098839","","0","1","arrowleft","0","arrowleft","[0.325,0.675,0.15,0.85]","","",""
"sailing-trial","172","1072138","0.0-11.0-127.0","","","","false","","","","","","","","","","null","","1385.1999999955297","","0","0","null","null","arrowup","[0.325,0.675,0.15,0.85]","","",""
"sailing-trial","173","1077631","0.0-11.0-128.0","","","","false","","","","","","","","","","1406.7999999970198","","56.30000000447035","","1","0","arrowleft","0","arrowright","[0.325,0.675,0.15,0.85]","","",""
"sailing-trial","174","1080610","0.0-11.0-129.0","","","","false","","","","","","","","","","null","","1016.7000000029802","","1","1","null","null","arrowup","[0.325,0.675,0.15,0.85]","","",""
"sailing-trial","175","1084582","0.0-11.0-130.0","","","","false","","","","","","","","","","1086.6000000014901","","870.0999999940395","","1","0","arrowleft","0","arrowright","[0.325,0.675,0.15,0.85]","","",""
"sailing-trial","176","1086979","0.0-11.0-131.0","","","","false","","","","","","","","","","null","","1168.3000000044703","","2","0","null","null","arrowup","[0.325,0.675,0.15,0.85]","","",""
"sailing-trial","177","1092365","0.0-11.0-132.0","","","","false","","","","","","","","","","932.3000000044703","","446","","2","0","arrowright","1","arrowleft","[0.325,0.675,0.15,0.85]","","",""
"sailing-trial","178","1095982","0.0-11.0-133.0","","","","false","","","","","","","","","","null","","615.6000000014901","","0","0","null","null","arrowup","[0.325,0.675,0.15,0.85]","","",""
"sailing-trial","179","1100096","0.0-11.0-134.0","","","","false","","","","","","","","","","1166.6000000014901","","106.29999999701977","","3","1","arrowright","1","arrowright","[0.325,0.675,0.15,0.85]","","",""
"sailing-trial","180","1103104","0.0-11.0-135.0","","","","false","","","","","","","","","","null","","1225.2000000029802","","3","1","null","null","arrowup","[0.325,0.675,0.15,0.85]","","",""
"sailing-trial","181","1107288","0.0-11.0-136.0","","","","false","","","","","","","","","","862.6000000014901","","589.8999999985099","","3","1","arrowright","1","arrowright","[0.325,0.675,0.15,0.85]","","",""
"sailing-trial","182","1110573","0.0-11.0-137.0","","","","false","","","","","","","","","","null","","1207.8000000044703","","3","1","null","null","arrowup","[0.325,0.675,0.15,0.85]","","",""
"sailing-trial","183","1114281","0.0-11.0-138.0","","","","false","","","","","","","","","","536.6000000014901","","176.29999999701977","","3","1","arrowright","1","arrowright","[0.325,0.675,0.15,0.85]","","",""
"sailing-trial","184","1117279","0.0-11.0-139.0","","","","false","","","","","","","","","","null","","1240.7000000029802","","1","1","null","null","arrowup","[0.325,0.675,0.15,0.85]","","",""
"sailing-trial","185","1121540","0.0-11.0-140.0","","","","false","","","","","","","","","","1035.5","","242","","3","1","arrowright","1","arrowright","[0.325,0.675,0.15,0.85]","","",""
"sailing-trial","186","1124538","0.0-11.0-141.0","","","","false","","","","","","","","","","null","","1233.8000000044703","","3","1","null","null","arrowup","[0.325,0.675,0.15,0.85]","","",""
"sailing-trial","187","1128805","0.0-11.0-142.0","","","","false","","","","","","","","","","552.6000000014901","","988.2000000029802","","1","1","arrowleft","0","arrowright","[0.325,0.675,0.15,0.85]","","",""
"sailing-trial","188","1131211","0.0-11.0-143.0","","","","false","","","","","","","","","","null","","1030.5","","2","0","null","null","arrowup","[0.325,0.675,0.15,0.85]","","",""
"sailing-trial","189","1136764","0.0-11.0-144.0","","","","false","","","","","","","","","","716.1999999955297","","816.5","","1","0","arrowleft","0","arrowright","[0.15,0.85,0.325,0.675]","","",""
"sailing-trial","190","1140822","0.0-11.0-145.0","","","","false","","","","","","","","","","null","","1484.2999999970198","","2","1","null","null","arrowup","[0.15,0.85,0.325,0.675]","","",""
"sailing-trial","191","1147438","0.0-11.0-146.0","","","","false","","","","","","","","","","820.9000000059605","","2739.89999999851","","2","1","arrowright","1","arrowleft","[0.15,0.85,0.325,0.675]","","",""
"sailing-trial","192","1150481","0.0-11.0-147.0","","","","false","","","","","","","","","","null","","1042.7999999970198","","1","1","null","null","arrowup","[0.15,0.85,0.325,0.675]","","",""
"sailing-trial","193","1154906","0.0-11.0-148.0","","","","false","","","","","","","","","","772.6000000014901","","878.5999999940395","","2","1","arrowright","1","arrowleft","[0.15,0.85,0.325,0.675]","","",""
"sailing-trial","194","1157118","0.0-11.0-149.0","","","","false","","","","","","","","","","null","","931.8999999985099","","0","0","null","null","arrowup","[0.15,0.85,0.325,0.675]","","",""
"sailing-trial","195","1160563","0.0-11.0-150.0","","","","false","","","","","","","","","","856.1000000014901","","217","","1","0","arrowleft","0","arrowright","[0.15,0.85,0.325,0.675]","","",""
"sailing-trial","196","1164789","0.0-11.0-151.0","","","","false","","","","","","","","","","null","","2260","","3","1","null","null","arrowup","[0.15,0.85,0.325,0.675]","","",""
"sailing-trial","197","1168672","0.0-11.0-152.0","","","","false","","","","","","","","","","661.3000000044703","","176.39999999850988","","3","1","arrowright","1","arrowright","[0.15,0.85,0.325,0.675]","","",""
"sailing-trial","198","1171488","0.0-11.0-153.0","","","","false","","","","","","","","","","null","","1027","","1","1","null","null","arrowup","[0.15,0.85,0.325,0.675]","","",""
"sailing-trial","199","1177532","0.0-11.0-154.0","","","","false","","","","","","","","","","1006.8999999985099","","1021.3999999985099","","3","0","arrowright","1","arrowright","[0.15,0.85,0.325,0.675]","","",""
"sailing-trial","200","1181472","0.0-11.0-155.0","","","","false","","","","","","","","","","null","","2052.10000000149","","3","1","null","null","arrowup","[0.15,0.85,0.325,0.675]","","",""
"sailing-trial","201","1187890","0.0-11.0-156.0","","","","false","","","","","","","","","","567.8999999985099","","2981","","1","1","arrowleft","0","arrowright","[0.15,0.85,0.325,0.675]","","",""
"sailing-trial","202","1191213","0.0-11.0-157.0","","","","false","","","","","","","","","","null","","1544.8999999985099","","1","1","null","null","arrowup","[0.15,0.85,0.325,0.675]","","",""
"sailing-trial","203","1195674","0.0-11.0-158.0","","","","false","","","","","","","","","","505.6000000014901","","1056.3999999985099","","1","1","arrowleft","0","arrowright","[0.15,0.85,0.325,0.675]","","",""
"sailing-trial","204","1199505","0.0-11.0-159.0","","","","false","","","","","","","","","","null","","1958.5999999940395","","3","1","null","null","arrowup","[0.15,0.85,0.325,0.675]","","",""
"sailing-trial","205","1205949","0.0-11.0-160.0","","","","false","","","","","","","","","","830.3999999985099","","1604.1000000014901","","3","0","arrowright","1","arrowright","[0.675,0.325,0.85,0.15]","","",""
"sailing-trial","206","1209181","0.0-11.0-161.0","","","","false","","","","","","","","","","null","","1055.5","","1","1","null","null","arrowup","[0.675,0.325,0.85,0.15]","","",""
"sailing-trial","207","1214807","0.0-11.0-162.0","","","","false","","","","","","","","","","1055.1999999955297","","560.3999999985099","","3","0","arrowright","1","arrowright","[0.675,0.325,0.85,0.15]","","",""
"sailing-trial","208","1218157","0.0-11.0-163.0","","","","false","","","","","","","","","","null","","1175.3999999985099","","3","1","null","null","arrowup","[0.675,0.325,0.85,0.15]","","",""
"sailing-trial","209","1225855","0.0-11.0-164.0","","","","false","","","","","","","","","","2035.5","","2410.7999999970198","","2","1","arrowright","1","arrowleft","[0.675,0.325,0.85,0.15]","","",""
"sailing-trial","210","1229483","0.0-11.0-165.0","","","","false","","","","","","","","","","null","","1838.2000000029802","","3","0","null","null","arrowup","[0.675,0.325,0.85,0.15]","","",""
"sailing-trial","211","1232822","0.0-11.0-166.0","","","","false","","","","","","","","","","605.8999999985099","","0.7999999970197678","","0","1","arrowleft","0","arrowleft","[0.675,0.325,0.85,0.15]","","",""
"sailing-trial","212","1235647","0.0-11.0-167.0","","","","false","","","","","","","","","","null","","1040","","2","1","null","null","arrowup","[0.675,0.325,0.85,0.15]","","",""
"sailing-trial","213","1241056","0.0-11.0-168.0","","","","false","","","","","","","","","","561.6999999955297","","421.09999999403954","","0","1","arrowleft","0","arrowleft","[0.675,0.325,0.85,0.15]","","",""
"sailing-trial","214","1246495","0.0-11.0-169.0","","","","false","","","","","","","","","","null","","2430.5","","3","0","null","null","arrowup","[0.675,0.325,0.85,0.15]","","",""
"sailing-trial","215","1251624","0.0-11.0-170.0","","","","false","","","","","","","","","","1014.0999999940395","","89.39999999850988","","1","0","arrowleft","0","arrowright","[0.675,0.325,0.85,0.15]","","",""
"sailing-trial","216","1254649","0.0-11.0-171.0","","","","false","","","","","","","","","","null","","1183.3999999985099","","1","1","null","null","arrowup","[0.675,0.325,0.85,0.15]","","",""
"sailing-trial","217","1258615","0.0-11.0-172.0","","","","false","","","","","","","","","","622.6000000014901","","630.2000000029802","","1","1","arrowleft","0","arrowright","[0.675,0.325,0.85,0.15]","","",""
"sailing-trial","218","1262592","0.0-11.0-173.0","","","","false","","","","","","","","","","null","","972.6000000014901","","1","0","null","null","arrowup","[0.675,0.325,0.85,0.15]","","",""
"sailing-trial","219","1270332","0.0-11.0-174.0","","","","false","","","","","","","","","","626.3000000044703","","3101.89999999851","","3","0","arrowright","1","arrowright","[0.675,0.325,0.85,0.15]","","",""
"sailing-trial","220","1274392","0.0-11.0-175.0","","","","false","","","","","","","","","","null","","1056.2000000029802","","3","0","null","null","arrowup","[0.675,0.325,0.85,0.15]","","",""
"sailing-trial","221","1279653","0.0-11.0-176.0","","","","false","","","","","","","","","","751.6000000014901","","486.5","","0","0","arrowleft","0","arrowleft","[0.675,0.325,0.85,0.15]","","",""
"sailing-trial","222","1283693","0.0-11.0-177.0","","","","false","","","","","","","","","","null","","1032.6000000014901","","3","0","null","null","arrowup","[0.675,0.325,0.85,0.15]","","",""
"sailing-trial","223","1288439","0.0-11.0-178.0","","","","false","","","","","","","","","","1486.5","","611.5","","2","0","arrowright","1","arrowleft","[0.15,0.85,0.325,0.675]","","",""
"sailing-trial","224","1291573","0.0-11.0-179.0","","","","false","","","","","","","","","","null","","1038.3000000044703","","1","1","null","null","arrowup","[0.15,0.85,0.325,0.675]","","",""
"sailing-trial","225","1296715","0.0-11.0-180.0","","","","false","","","","","","","","","","761.2000000029802","","1257.6999999955297","","1","1","arrowleft","0","arrowright","[0.15,0.85,0.325,0.675]","","",""
"sailing-trial","226","1300825","0.0-11.0-181.0","","","","false","","","","","","","","","","null","","1105","","3","0","null","null","arrowup","[0.15,0.85,0.325,0.675]","","",""
"sailing-trial","227","1305782","0.0-11.0-182.0","","","","false","","","","","","","","","","1102.9000000059605","","488.80000000447035","","1","1","arrowleft","0","arrowright","[0.15,0.85,0.325,0.675]","","",""
"sailing-trial","228","1310402","0.0-11.0-183.0","","","","false","","","","","","","","","","null","","1614.5","","3","0","null","null","arrowup","[0.15,0.85,0.325,0.675]","","",""
"sailing-trial","229","1315599","0.0-11.0-184.0","","","","false","","","","","","","","","","868.8999999985099","","1215.5","","1","1","arrowleft","0","arrowright","[0.15,0.85,0.325,0.675]","","",""
"sailing-trial","230","1319643","0.0-11.0-185.0","","","","false","","","","","","","","","","null","","1028.5","","2","0","null","null","arrowup","[0.15,0.85,0.325,0.675]","","",""
"sailing-trial","231","1324283","0.0-11.0-186.0","","","","false","","","","","","","","","","870.3999999985099","","599.1000000014901","","1","1","arrowleft","0","arrowright","[0.15,0.85,0.325,0.675]","","",""
"sailing-trial","232","1328351","0.0-11.0-187.0","","","","false","","","","","","","","","","null","","1057.7000000029802","","2","0","null","null","arrowup","[0.15,0.85,0.325,0.675]","","",""
"sailing-trial","233","1332540","0.0-11.0-188.0","","","","false","","","","","","","","","","692.2000000029802","","440.30000000447035","","1","1","arrowleft","0","arrowright","[0.15,0.85,0.325,0.675]","","",""
"sailing-trial","234","1335457","0.0-11.0-189.0","","","","false","","","","","","","","","","null","","1151.6999999955297","","1","1","null","null","arrowup","[0.15,0.85,0.325,0.675]","","",""
"sailing-trial","235","1341389","0.0-11.0-190.0","","","","false","","","","","","","","","","880.3999999985099","","1831.7999999970198","","1","1","arrowleft","0","arrowright","[0.15,0.85,0.325,0.675]","","",""
"sailing-trial","236","1345265","0.0-11.0-191.0","","","","false","","","","","","","","","","null","","2015","","3","1","null","null","arrowup","[0.15,0.85,0.325,0.675]","","",""
"sailing-trial","237","1351256","0.0-11.0-192.0","","","","false","","","","","","","","","","569.8999999985099","","2629.0999999940395","","3","1","arrowright","1","arrowright","[0.15,0.85,0.325,0.675]","","",""
"sailing-trial","238","1355007","0.0-11.0-193.0","","","","false","","","","","","","","","","null","","1422.7999999970198","","3","1","null","null","arrowup","[0.15,0.85,0.325,0.675]","","",""
"sailing-trial","239","1358957","0.0-11.0-194.0","","","","false","","","","","","","","","","745.2999999970198","","135.39999999850988","","3","1","arrowright","1","arrowright","[0.15,0.85,0.325,0.675]","","",""
"sailing-trial","240","1361715","0.0-11.0-195.0","","","","false","","","","","","","","","","null","","991.7999999970198","","3","1","null","null","arrowup","[0.15,0.85,0.325,0.675]","","",""
"sailing-trial","241","1367540","0.0-11.0-196.0","","","","false","","","","","","","","","","523.3000000044703","","2524.89999999851","","3","1","arrowright","1","arrowright","[0.325,0.675,0.15,0.85]","","",""
"sailing-trial","242","1370424","0.0-11.0-197.0","","","","false","","","","","","","","","","null","","986.6000000014901","","1","1","null","null","arrowup","[0.325,0.675,0.15,0.85]","","",""
"sailing-trial","243","1375949","0.0-11.0-198.0","","","","false","","","","","","","","","","1048.7999999970198","","1744.8999999985099","","1","1","arrowleft","0","arrowright","[0.325,0.675,0.15,0.85]","","",""
"sailing-trial","244","1380460","0.0-11.0-199.0","","","","false","","","","","","","","","","null","","1494.1000000014901","","0","0","null","null","arrowup","[0.325,0.675,0.15,0.85]","","",""
"sailing-trial","245","1384908","0.0-11.0-200.0","","","","false","","","","","","","","","","867.7000000029802","","509.79999999701977","","1","1","arrowleft","0","arrowright","[0.325,0.675,0.15,0.85]","","",""
"sailing-trial","246","1387922","0.0-11.0-201.0","","","","false","","","","","","","","","","null","","1702.3999999985099","","0","0","null","null","arrowup","[0.325,0.675,0.15,0.85]","","",""
"sailing-trial","247","1391942","0.0-11.0-202.0","","","","false","","","","","","","","","","984.8999999985099","","221.40000000596046","","1","1","arrowleft","0","arrowright","[0.325,0.675,0.15,0.85]","","",""
"sailing-trial","248","1394957","0.0-11.0-203.0","","","","false","","","","","","","","","","null","","917.3999999985099","","3","1","null","null","arrowup","[0.325,0.675,0.15,0.85]","","",""
"sailing-trial","249","1398699","0.0-11.0-204.0","","","","false","","","","","","","","","","500.90000000596046","","463.19999999552965","","1","1","arrowleft","0","arrowright","[0.325,0.675,0.15,0.85]","","",""
"sailing-trial","250","1402000","0.0-11.0-205.0","","","","false","","","","","","","","","","null","","1022.7999999970198","","1","1","null","null","arrowup","[0.325,0.675,0.15,0.85]","","",""
"sailing-trial","251","1409124","0.0-11.0-206.0","","","","false","","","","","","","","","","649.8999999985099","","3511.39999999851","","1","1","arrowleft","0","arrowright","[0.325,0.675,0.15,0.85]","","",""
"sailing-trial","252","1413331","0.0-11.0-207.0","","","","false","","","","","","","","","","null","","1185","","2","0","null","null","arrowup","[0.325,0.675,0.15,0.85]","","",""
"sailing-trial","253","1418685","0.0-11.0-208.0","","","","false","","","","","","","","","","1116.8999999985099","","206.89999999850988","","2","0","arrowright","1","arrowleft","[0.325,0.675,0.15,0.85]","","",""
"sailing-trial","254","1421891","0.0-11.0-209.0","","","","false","","","","","","","","","","null","","1023.6999999955297","","0","1","null","null","arrowup","[0.325,0.675,0.15,0.85]","","",""
"sailing-trial","255","1427049","0.0-11.0-210.0","","","","false","","","","","","","","","","575","","1087.7999999970198","","3","1","arrowright","1","arrowright","[0.325,0.675,0.15,0.85]","","",""
"sailing-trial","256","1429390","0.0-11.0-211.0","","","","false","","","","","","","","","","null","","1096","","1","0","null","null","arrowup","[0.325,0.675,0.15,0.85]","","",""
"sailing-trial","257","1434333","0.0-11.0-212.0","","","","false","","","","","","","","","","810.1000000014901","","1409.7000000029802","","3","1","arrowright","1","arrowright","[0.325,0.675,0.15,0.85]","","",""
"sailing-trial","258","1436729","0.0-11.0-213.0","","","","false","","","","","","","","","","null","","1119.6000000014901","","0","0","null","null","arrowup","[0.325,0.675,0.15,0.85]","","",""
"sailing-trial","259","1441744","0.0-11.0-214.0","","","","false","","","","","","","","","","563.1999999955297","","443.3999999985099","","3","0","arrowright","1","arrowright","[0.15,0.85,0.325,0.675]","","",""
"sailing-trial","260","1445508","0.0-11.0-215.0","","","","false","","","","","","","","","","null","","1121","","1","1","null","null","arrowup","[0.15,0.85,0.325,0.675]","","",""
"sailing-trial","261","1450416","0.0-11.0-216.0","","","","false","","","","","","","","","","813.6000000014901","","953.1999999955297","","3","1","arrowright","1","arrowright","[0.15,0.85,0.325,0.675]","","",""
"sailing-trial","262","1453292","0.0-11.0-217.0","","","","false","","","","","","","","","","null","","1027","","1","1","null","null","arrowup","[0.15,0.85,0.325,0.675]","","",""
"sailing-trial","263","1459009","0.0-11.0-218.0","","","","false","","","","","","","","","","1109","","1514.1000000014901","","1","1","arrowleft","0","arrowright","[0.15,0.85,0.325,0.675]","","",""
"sailing-trial","264","1462202","0.0-11.0-219.0","","","","false","","","","","","","","","","null","","1113.7000000029802","","1","1","null","null","arrowup","[0.15,0.85,0.325,0.675]","","",""
"sailing-trial","265","1466292","0.0-11.0-220.0","","","","false","","","","","","","","","","569.6000000014901","","502.30000000447035","","1","1","arrowleft","0","arrowright","[0.15,0.85,0.325,0.675]","","",""
"sailing-trial","266","1471951","0.0-11.0-221.0","","","","false","","","","","","","","","","null","","3930.7000000029802","","1","1","null","null","arrowup","[0.15,0.85,0.325,0.675]","","",""
"sailing-trial","267","1476001","0.0-11.0-222.0","","","","false","","","","","","","","","","902","","164.20000000298023","","3","1","arrowright","1","arrowright","[0.15,0.85,0.325,0.675]","","",""
"sailing-trial","268","1478784","0.0-11.0-223.0","","","","false","","","","","","","","","","null","","906.6000000014901","","3","1","null","null","arrowup","[0.15,0.85,0.325,0.675]","","",""
"sailing-trial","269","1482610","0.0-11.0-224.0","","","","false","","","","","","","","","","586","","426.6000000014901","","1","1","arrowleft","0","arrowright","[0.15,0.85,0.325,0.675]","","",""
"sailing-trial","270","1485508","0.0-11.0-225.0","","","","false","","","","","","","","","","null","","959.5","","1","1","null","null","arrowup","[0.15,0.85,0.325,0.675]","","",""
"sailing-trial","271","1489951","0.0-11.0-226.0","","","","false","","","","","","","","","","592.2999999970198","","717.1000000014901","","1","1","arrowleft","0","arrowright","[0.15,0.85,0.325,0.675]","","",""
"sailing-trial","272","1493909","0.0-11.0-227.0","","","","false","","","","","","","","","","null","","2197.1999999955297","","1","1","null","null","arrowup","[0.15,0.85,0.325,0.675]","","",""
"sailing-trial","273","1502026","0.0-11.0-228.0","","","","false","","","","","","","","","","528","","4520.60000000149","","1","1","arrowleft","0","arrowright","[0.15,0.85,0.325,0.675]","","",""
"sailing-trial","274","1505776","0.0-11.0-229.0","","","","false","","","","","","","","","","null","","1958.1999999955297","","3","1","null","null","arrowup","[0.15,0.85,0.325,0.675]","","",""
"sailing-trial","275","1510167","0.0-11.0-230.0","","","","false","","","","","","","","","","660.2000000029802","","873.5","","1","1","arrowleft","0","arrowright","[0.15,0.85,0.325,0.675]","","",""
"sailing-trial","276","1513030","0.0-11.0-231.0","","","","false","","","","","","","","","","null","","1650.2999999970198","","3","0","null","null","arrowup","[0.15,0.85,0.325,0.675]","","",""
"sailing-trial","277","1516784","0.0-11.0-232.0","","","","false","","","","","","","","","","1024.4000000059605","","51","","3","1","arrowright","1","arrowright","[0.15,0.85,0.325,0.675]","","",""
"sailing-trial","278","1520836","0.0-11.0-233.0","","","","false","","","","","","","","","","null","","1041.6000000014901","","0","0","null","null","arrowup","[0.15,0.85,0.325,0.675]","","",""
"sailing-trial","279","1526627","0.0-11.0-234.0","","","","false","","","","","","","","","","730.8999999985099","","1039.3000000044703","","3","0","arrowright","1","arrowright","[0.15,0.85,0.325,0.675]","","",""
"sailing-trial","280","1530609","0.0-11.0-235.0","","","","false","","","","","","","","","","null","","979.8999999985099","","3","0","null","null","arrowup","[0.15,0.85,0.325,0.675]","","",""
"sailing-trial","281","1535042","0.0-11.0-236.0","","","","false","","","","","","","","","","1051","","96.29999999701977","","2","1","arrowright","1","arrowleft","[0.85,0.15,0.675,0.325]","","",""
"sailing-trial","282","1537676","0.0-11.0-237.0","","","","false","","","","","","","","","","null","","842.5","","1","1","null","null","arrowup","[0.85,0.15,0.675,0.325]","","",""
"sailing-trial","283","1541909","0.0-11.0-238.0","","","","false","","","","","","","","","","1164.1000000014901","","442","","2","1","arrowright","1","arrowleft","[0.85,0.15,0.675,0.325]","","",""
"sailing-trial","284","1545217","0.0-11.0-239.0","","","","false","","","","","","","","","","null","","1030.5","","3","1","null","null","arrowup","[0.85,0.15,0.675,0.325]","","",""
"sailing-trial","285","1549935","0.0-11.0-240.0","","","","false","","","","","","","","","","516.7999999970198","","184","","2","0","arrowright","1","arrowleft","[0.85,0.15,0.675,0.325]","","",""
"sailing-trial","286","1554140","0.0-11.0-241.0","","","","false","","","","","","","","","","null","","1187.8999999985099","","3","0","null","null","arrowup","[0.85,0.15,0.675,0.325]","","",""
"sailing-trial","287","1557843","0.0-11.0-242.0","","","","false","","","","","","","","","","632.7000000029802","","338.5","","1","1","arrowleft","0","arrowright","[0.85,0.15,0.675,0.325]","","",""
"sailing-trial","288","1560593","0.0-11.0-243.0","","","","false","","","","","","","","","","null","","1030.6000000014901","","0","1","null","null","arrowup","[0.85,0.15,0.675,0.325]","","",""
"sailing-trial","289","1565276","0.0-11.0-244.0","","","","false","","","","","","","","","","434.19999999552965","","1392.7000000029802","","0","1","arrowleft","0","arrowleft","[0.85,0.15,0.675,0.325]","","",""
"sailing-trial","290","1569261","0.0-11.0-245.0","","","","false","","","","","","","","","","null","","982.1000000014901","","2","0","null","null","arrowup","[0.85,0.15,0.675,0.325]","","",""
"sailing-trial","291","1573158","0.0-11.0-246.0","","","","false","","","","","","","","","","428.70000000298023","","478.30000000447035","","0","1","arrowleft","0","arrowleft","[0.85,0.15,0.675,0.325]","","",""
"sailing-trial","292","1575505","0.0-11.0-247.0","","","","false","","","","","","","","","","null","","911.2000000029802","","3","0","null","null","arrowup","[0.85,0.15,0.675,0.325]","","",""
"sailing-trial","293","1579854","0.0-11.0-248.0","","","","false","","","","","","","","","","681.7000000029802","","1196.6999999955297","","3","0","arrowright","1","arrowright","[0.85,0.15,0.675,0.325]","","",""
"sailing-trial","294","1582884","0.0-11.0-249.0","","","","false","","","","","","","","","","null","","1067.7000000029802","","0","1","null","null","arrowup","[0.85,0.15,0.675,0.325]","","",""
"sailing-trial","295","1589412","0.0-11.0-250.0","","","","false","","","","","","","","","","1099.5","","1420.6000000014901","","1","0","arrowleft","0","arrowright","[0.85,0.15,0.675,0.325]","","",""
"sailing-trial","296","1592318","0.0-11.0-251.0","","","","false","","","","","","","","","","null","","1117.7000000029802","","0","1","null","null","arrowup","[0.85,0.15,0.675,0.325]","","",""
"sailing-trial","297","1597712","0.0-11.0-252.0","","","","false","","","","","","","","","","643.8999999985099","","743.8999999985099","","0","0","arrowleft","0","arrowleft","[0.85,0.15,0.675,0.325]","","",""
"sailing-trial","298","1601595","0.0-11.0-253.0","","","","false","","","","","","","","","","null","","1546.7999999970198","","2","1","null","null","arrowup","[0.85,0.15,0.675,0.325]","","",""
"sailing-trial","299","1608351","0.0-11.0-254.0","","","","false","","","","","","","","","","621.7999999970198","","2866.60000000149","","2","1","arrowright","1","arrowleft","[0.675,0.325,0.85,0.15]","","",""
"sailing-trial","300","1611409","0.0-11.0-255.0","","","","false","","","","","","","","","","null","","1186.2000000029802","","2","1","null","null","arrowup","[0.675,0.325,0.85,0.15]","","",""
"sailing-trial","301","1615918","0.0-11.0-256.0","","","","false","","","","","","","","","","930.5","","534.9000000059605","","2","1","arrowright","1","arrowleft","[0.675,0.325,0.85,0.15]","","",""
"sailing-trial","302","1619019","0.0-11.0-257.0","","","","false","","","","","","","","","","null","","929.7999999970198","","0","1","null","null","arrowup","[0.675,0.325,0.85,0.15]","","",""
"sailing-trial","303","1623168","0.0-11.0-258.0","","","","false","","","","","","","","","","847.3999999985099","","445.29999999701977","","2","1","arrowright","1","arrowleft","[0.675,0.325,0.85,0.15]","","",""
"sailing-trial","304","1627462","0.0-11.0-259.0","","","","false","","","","","","","","","","null","","1279.7999999970198","","0","0","null","null","arrowup","[0.675,0.325,0.85,0.15]","","",""
"sailing-trial","305","1630902","0.0-11.0-260.0","","","","false","","","","","","","","","","781.6000000014901","","129.10000000149012","","2","1","arrowright","1","arrowleft","[0.675,0.325,0.85,0.15]","","",""
"sailing-trial","306","1634060","0.0-11.0-261.0","","","","false","","","","","","","","","","null","","1102.7999999970198","","2","1","null","null","arrowup","[0.675,0.325,0.85,0.15]","","",""
"sailing-trial","307","1637321","0.0-11.0-262.0","","","","false","","","","","","","","","","767.2000000029802","","183.39999999850988","","1","0","arrowleft","0","arrowright","[0.675,0.325,0.85,0.15]","","",""
"sailing-trial","308","1641561","0.0-11.0-263.0","","","","false","","","","","","","","","","null","","1239.0999999940395","","1","0","null","null","arrowup","[0.675,0.325,0.85,0.15]","","",""
"sailing-trial","309","1645543","0.0-11.0-264.0","","","","false","","","","","","","","","","867.8999999985099","","436.8999999985099","","2","1","arrowright","1","arrowleft","[0.675,0.325,0.85,0.15]","","",""
"sailing-trial","310","1648510","0.0-11.0-265.0","","","","false","","","","","","","","","","null","","1025.8000000044703","","2","1","null","null","arrowup","[0.675,0.325,0.85,0.15]","","",""
"sailing-trial","311","1654005","0.0-11.0-266.0","","","","false","","","","","","","","","","703.8999999985099","","780.5","","2","0","arrowright","1","arrowleft","[0.675,0.325,0.85,0.15]","","",""
"sailing-trial","312","1658162","0.0-11.0-267.0","","","","false","","","","","","","","","","null","","1157.6000000014901","","1","0","null","null","arrowup","[0.675,0.325,0.85,0.15]","","",""
"sailing-trial","313","1663027","0.0-11.0-268.0","","","","false","","","","","","","","","","1437","","441.6000000014901","","2","1","arrowright","1","arrowleft","[0.675,0.325,0.85,0.15]","","",""
"sailing-trial","314","1666002","0.0-11.0-269.0","","","","false","","","","","","","","","","null","","894.8999999985099","","1","1","null","null","arrowup","[0.675,0.325,0.85,0.15]","","",""
"sailing-trial","315","1670965","0.0-11.0-270.0","","","","false","","","","","","","","","","736.3000000044703","","1616.3999999985099","","1","0","arrowleft","0","arrowright","[0.85,0.15,0.675,0.325]","","",""
"sailing-trial","316","1675087","0.0-11.0-271.0","","","","false","","","","","","","","","","null","","1117.3999999985099","","3","0","null","null","arrowup","[0.85,0.15,0.675,0.325]","","",""
"sailing-trial","317","1681838","0.0-11.0-272.0","","","","false","","","","","","","","","","653.8000000044703","","2093.89999999851","","1","0","arrowleft","0","arrowright","[0.85,0.15,0.675,0.325]","","",""
"sailing-trial","318","1685220","0.0-11.0-273.0","","","","false","","","","","","","","","","null","","1069.1999999955297","","0","1","null","null","arrowup","[0.85,0.15,0.675,0.325]","","",""
"sailing-trial","319","1690727","0.0-11.0-274.0","","","","false","","","","","","","","","","1582.6000000014901","","1079.6000000014901","","2","1","arrowright","1","arrowleft","[0.85,0.15,0.675,0.325]","","",""
"sailing-trial","320","1693560","0.0-11.0-275.0","","","","false","","","","","","","","","","null","","1044.2000000029802","","0","1","null","null","arrowup","[0.85,0.15,0.675,0.325]","","",""
"sailing-trial","321","1697111","0.0-11.0-276.0","","","","false","","","","","","","","","","647.1000000014901","","865.1000000014901","","2","0","arrowright","1","arrowleft","[0.85,0.15,0.675,0.325]","","",""
"sailing-trial","322","1700232","0.0-11.0-277.0","","","","false","","","","","","","","","","null","","1768.5","","3","0","null","null","arrowup","[0.85,0.15,0.675,0.325]","","",""
"sailing-trial","323","1703703","0.0-11.0-278.0","","","","false","","","","","","","","","","756.6000000014901","","36.399999998509884","","0","1","arrowleft","0","arrowleft","[0.85,0.15,0.675,0.325]","","",""
"sailing-trial","324","1706196","0.0-11.0-279.0","","","","false","","","","","","","","","","null","","914.5999999940395","","1","0","null","null","arrowup","[0.85,0.15,0.675,0.325]","","",""
"sailing-trial","325","1710145","0.0-11.0-280.0","","","","false","","","","","","","","","","578.6000000014901","","614.8000000044703","","0","1","arrowleft","0","arrowleft","[0.85,0.15,0.675,0.325]","","",""
"sailing-trial","326","1713320","0.0-11.0-281.0","","","","false","","","","","","","","","","null","","975","","2","1","null","null","arrowup","[0.85,0.15,0.675,0.325]","","",""
"sailing-trial","327","1716822","0.0-11.0-282.0","","","","false","","","","","","","","","","424","","725.8999999985099","","0","0","arrowleft","0","arrowleft","[0.85,0.15,0.675,0.325]","","",""
"sailing-trial","328","1720361","0.0-11.0-283.0","","","","false","","","","","","","","","","null","","1705.6000000014901","","0","1","null","null","arrowup","[0.85,0.15,0.675,0.325]","","",""
"sailing-trial","329","1724028","0.0-11.0-284.0","","","","false","","","","","","","","","","515.7000000029802","","465.20000000298023","","0","1","arrowleft","0","arrowleft","[0.85,0.15,0.675,0.325]","","",""
"sailing-trial","330","1727296","0.0-11.0-285.0","","","","false","","","","","","","","","","null","","1155","","3","1","null","null","arrowup","[0.85,0.15,0.675,0.325]","","",""
"sailing-trial","331","1731939","0.0-11.0-286.0","","","","false","","","","","","","","","","364","","271.3999999985099","","0","0","arrowleft","0","arrowleft","[0.85,0.15,0.675,0.325]","","",""
"sailing-trial","332","1735411","0.0-11.0-287.0","","","","false","","","","","","","","","","null","","1506.3999999985099","","0","1","null","null","arrowup","[0.85,0.15,0.675,0.325]","","",""
"sailing-trial","333","1739678","0.0-11.0-288.0","","","","false","","","","","","","","","","701","","394.29999999701977","","0","1","arrowleft","0","arrowleft","[0.675,0.325,0.85,0.15]","","",""
"sailing-trial","334","1742420","0.0-11.0-289.0","","","","false","","","","","","","","","","null","","867.6000000014901","","2","1","null","null","arrowup","[0.675,0.325,0.85,0.15]","","",""
"sailing-trial","335","1746939","0.0-11.0-290.0","","","","false","","","","","","","","","","577.7999999970198","","550.8999999985099","","0","1","arrowleft","0","arrowleft","[0.675,0.325,0.85,0.15]","","",""
"sailing-trial","336","1750387","0.0-11.0-291.0","","","","false","","","","","","","","","","null","","1244.1000000014901","","3","1","null","null","arrowup","[0.675,0.325,0.85,0.15]","","",""
"sailing-trial","337","1753653","0.0-11.0-292.0","","","","false","","","","","","","","","","645.0999999940395","","29.900000005960464","","0","1","arrowleft","0","arrowleft","[0.675,0.325,0.85,0.15]","","",""
"sailing-trial","338","1756134","0.0-11.0-293.0","","","","false","","","","","","","","","","null","","1192.7999999970198","","3","0","null","null","arrowup","[0.675,0.325,0.85,0.15]","","",""
"sailing-trial","339","1759265","0.0-11.0-294.0","","","","false","","","","","","","","","","1048.5","","3.5","","3","0","arrowright","1","arrowright","[0.675,0.325,0.85,0.15]","","",""
"sailing-trial","340","1761817","0.0-11.0-295.0","","","","false","","","","","","","","","","null","","1114.8999999985099","","1","0","null","null","arrowup","[0.675,0.325,0.85,0.15]","","",""
"sailing-trial","341","1765886","0.0-11.0-296.0","","","","false","","","","","","","","","","619","","424.79999999701977","","2","1","arrowright","1","arrowleft","[0.675,0.325,0.85,0.15]","","",""
"sailing-trial","342","1768754","0.0-11.0-297.0","","","","false","","","","","","","","","","null","","1058.5","","2","1","null","null","arrowup","[0.675,0.325,0.85,0.15]","","",""
"sailing-trial","343","1771621","0.0-11.0-298.0","","","","false","","","","","","","","","","529.8000000044703","","234.30000000447035","","2","0","arrowright","1","arrowleft","[0.675,0.325,0.85,0.15]","","",""
"sailing-trial","344","1774496","0.0-11.0-299.0","","","","false","","","","","","","","","","null","","1106","","2","1","null","null","arrowup","[0.675,0.325,0.85,0.15]","","",""
"sailing-trial","345","1778886","0.0-11.0-300.0","","","","false","","","","","","","","","","801","","288.5","","2","1","arrowright","1","arrowleft","[0.675,0.325,0.85,0.15]","","",""
"sailing-trial","346","1786329","0.0-11.0-301.0","","","","false","","","","","","","","","","null","","5211.89999999851","","0","1","null","null","arrowup","[0.675,0.325,0.85,0.15]","","",""
"sailing-trial","347","1791220","0.0-11.0-302.0","","","","false","","","","","","","","","","855.5","","509.8999999985099","","2","1","arrowright","1","arrowleft","[0.675,0.325,0.85,0.15]","","",""
"sailing-trial","348","1796195","0.0-11.0-303.0","","","","false","","","","","","","","","","null","","3230.39999999851","","1","1","null","null","arrowup","[0.675,0.325,0.85,0.15]","","",""
"sailing-trial","349","1799812","0.0-11.0-304.0","","","","false","","","","","","","","","","681.1000000014901","","211","","2","1","arrowright","1","arrowleft","[0.675,0.325,0.85,0.15]","","",""
"sailing-trial","350","1802602","0.0-11.0-305.0","","","","false","","","","","","","","","","null","","988.6000000014901","","2","1","null","null","arrowup","[0.675,0.325,0.85,0.15]","","",""
"sailing-trial","351","1807464","0.0-11.0-306.0","","","","false","","","","","","","","","","406.20000000298023","","407.5","","1","0","arrowleft","0","arrowright","[0.675,0.325,0.85,0.15]","","",""
"sailing-trial","352","1809744","0.0-11.0-307.0","","","","false","","","","","","","","","","null","","969.6000000014901","","3","0","null","null","arrowup","[0.675,0.325,0.85,0.15]","","",""
"sailing-trial","353","1813746","0.0-11.0-308.0","","","","false","","","","","","","","","","763.3000000044703","","454.1000000014901","","1","1","arrowleft","0","arrowright","[0.325,0.675,0.15,0.85]","","",""
"sailing-trial","354","1816092","0.0-11.0-309.0","","","","false","","","","","","","","","","null","","1115.5","","0","0","null","null","arrowup","[0.325,0.675,0.15,0.85]","","",""
"sailing-trial","355","1820295","0.0-11.0-310.0","","","","false","","","","","","","","","","727.4000000059605","","359.29999999701977","","1","1","arrowleft","0","arrowright","[0.325,0.675,0.15,0.85]","","",""
"sailing-trial","356","1822870","0.0-11.0-311.0","","","","false","","","","","","","","","","null","","1018.8000000044703","","0","1","null","null","arrowup","[0.325,0.675,0.15,0.85]","","",""
"sailing-trial","357","1827939","0.0-11.0-312.0","","","","false","","","","","","","","","","1485.3000000044703","","705.3000000044703","","0","1","arrowleft","0","arrowleft","[0.325,0.675,0.15,0.85]","","",""
"sailing-trial","358","1830210","0.0-11.0-313.0","","","","false","","","","","","","","","","null","","1241.2999999970198","","2","0","null","null","arrowup","[0.325,0.675,0.15,0.85]","","",""
"sailing-trial","359","1833432","0.0-11.0-314.0","","","","false","","","","","","","","","","585.7000000029802","","461.8999999985099","","0","0","arrowleft","0","arrowleft","[0.325,0.675,0.15,0.85]","","",""
"sailing-trial","360","1837099","0.0-11.0-315.0","","","","false","","","","","","","","","","null","","2066.60000000149","","1","0","null","null","arrowup","[0.325,0.675,0.15,0.85]","","",""
"sailing-trial","361","1841221","0.0-11.0-316.0","","","","false","","","","","","","","","","783.8999999985099","","431","","3","1","arrowright","1","arrowright","[0.325,0.675,0.15,0.85]","","",""
"sailing-trial","362","1845538","0.0-11.0-317.0","","","","false","","","","","","","","","","null","","1313.5","","2","0","null","null","arrowup","[0.325,0.675,0.15,0.85]","","",""
"sailing-trial","363","1849846","0.0-11.0-318.0","","","","false","","","","","","","","","","676.7000000029802","","543.4000000059605","","3","1","arrowright","1","arrowright","[0.325,0.675,0.15,0.85]","","",""
"sailing-trial","364","1852437","0.0-11.0-319.0","","","","false","","","","","","","","","","null","","910.2999999970198","","3","1","null","null","arrowup","[0.325,0.675,0.15,0.85]","","",""
"sailing-trial","365","1855706","0.0-11.0-320.0","","","","false","","","","","","","","","","610","","571.6000000014901","","3","0","arrowright","1","arrowright","[0.325,0.675,0.15,0.85]","","",""
"sailing-trial","366","1859298","0.0-11.0-321.0","","","","false","","","","","","","","","","null","","1943","","3","1","null","null","arrowup","[0.325,0.675,0.15,0.85]","","",""
"sailing-trial","367","1863422","0.0-11.0-322.0","","","","false","","","","","","","","","","517.2999999970198","","658.6000000014901","","3","1","arrowright","1","arrowright","[0.325,0.675,0.15,0.85]","","",""
"sailing-trial","368","1866754","0.0-11.0-323.0","","","","false","","","","","","","","","","null","","1815.7000000029802","","0","1","null","null","arrowup","[0.325,0.675,0.15,0.85]","","",""
"sailing-trial","369","1872079","0.0-11.0-324.0","","","","false","","","","","","","","","","734","","566.3999999985099","","0","0","arrowleft","0","arrowleft","[0.15,0.85,0.325,0.675]","","",""
"sailing-trial","370","1876195","0.0-11.0-325.0","","","","false","","","","","","","","","","null","","1992.7999999970198","","1","1","null","null","arrowup","[0.15,0.85,0.325,0.675]","","",""
"sailing-trial","371","1879191","0.0-11.0-326.0","","","","false","","","","","","","","","","690.5","","30.5","","2","0","arrowright","1","arrowleft","[0.15,0.85,0.325,0.675]","","",""
"sailing-trial","372","1881791","0.0-11.0-327.0","","","","false","","","","","","","","","","null","","1031","","0","0","null","null","arrowup","[0.15,0.85,0.325,0.675]","","",""
"sailing-trial","373","1887790","0.0-11.0-328.0","","","","false","","","","","","","","","","1275.5","","1919.1000000014901","","1","1","arrowleft","0","arrowright","[0.15,0.85,0.325,0.675]","","",""
"sailing-trial","374","1890554","0.0-11.0-329.0","","","","false","","","","","","","","","","null","","856.8000000044703","","3","1","null","null","arrowup","[0.15,0.85,0.325,0.675]","","",""
"sailing-trial","375","1894231","0.0-11.0-330.0","","","","false","","","","","","","","","","507.5","","413.5","","3","1","arrowright","1","arrowright","[0.15,0.85,0.325,0.675]","","",""
"sailing-trial","376","1896524","0.0-11.0-331.0","","","","false","","","","","","","","","","null","","1248.3000000044703","","0","0","null","null","arrowup","[0.15,0.85,0.325,0.675]","","",""
"sailing-trial","377","1901179","0.0-11.0-332.0","","","","false","","","","","","","","","","782.3999999985099","","508","","1","1","arrowleft","0","arrowright","[0.15,0.85,0.325,0.675]","","",""
"sailing-trial","378","1904988","0.0-11.0-333.0","","","","false","","","","","","","","","","null","","2042.1999999955297","","1","1","null","null","arrowup","[0.15,0.85,0.325,0.675]","","",""
"sailing-trial","379","1911457","0.0-11.0-334.0","","","","false","","","","","","","","","","863.2000000029802","","2905.89999999851","","1","0","arrowleft","0","arrowright","[0.15,0.85,0.325,0.675]","","",""
"sailing-trial","380","1913448","0.0-11.0-335.0","","","","false","","","","","","","","","","null","","913.7999999970198","","0","0","null","null","arrowup","[0.15,0.85,0.325,0.675]","","",""
"sailing-trial","381","1917411","0.0-11.0-336.0","","","","false","","","","","","","","","","781.7999999970198","","803.2000000029802","","0","0","arrowleft","0","arrowleft","[0.15,0.85,0.325,0.675]","","",""
"sailing-trial","382","1920247","0.0-11.0-337.0","","","","false","","","","","","","","","","null","","1234.5","","2","1","null","null","arrowup","[0.15,0.85,0.325,0.675]","","",""
"sailing-trial","383","1924865","0.0-11.0-338.0","","","","false","","","","","","","","","","584.5","","10.199999995529652","","2","0","arrowright","1","arrowleft","[0.15,0.85,0.325,0.675]","","",""
"sailing-trial","384","1927882","0.0-11.0-339.0","","","","false","","","","","","","","","","null","","911.2000000029802","","1","1","null","null","arrowup","[0.15,0.85,0.325,0.675]","","",""
"sailing-trial","385","1931254","0.0-11.0-340.0","","","","false","","","","","","","","","","683.8000000044703","","20.700000002980232","","1","1","arrowleft","0","arrowright","[0.15,0.85,0.325,0.675]","","",""
"sailing-trial","386","1934206","0.0-11.0-341.0","","","","false","","","","","","","","","","null","","1020.3999999985099","","1","1","null","null","arrowup","[0.15,0.85,0.325,0.675]","","",""
"sailing-trial","387","1939864","0.0-11.0-342.0","","","","false","","","","","","","","","","695.2000000029802","","2138.10000000149","","1","1","arrowleft","0","arrowright","[0.325,0.675,0.15,0.85]","","",""
"sailing-trial","388","1943157","0.0-11.0-343.0","","","","false","","","","","","","","","","null","","965","","0","1","null","null","arrowup","[0.325,0.675,0.15,0.85]","","",""
"sailing-trial","389","1948022","0.0-11.0-344.0","","","","false","","","","","","","","","","1053","","1224.8999999985099","","1","1","arrowleft","0","arrowright","[0.325,0.675,0.15,0.85]","","",""
"sailing-trial","390","1951722","0.0-11.0-345.0","","","","false","","","","","","","","","","null","","1666.3999999985099","","0","1","null","null","arrowup","[0.325,0.675,0.15,0.85]","","",""
"sailing-trial","391","1955205","0.0-11.0-346.0","","","","false","","","","","","","","","","578.3999999985099","","92.69999999552965","","3","1","arrowright","1","arrowright","[0.325,0.675,0.15,0.85]","","",""
"sailing-trial","392","1957188","0.0-11.0-347.0","","","","false","","","","","","","","","","null","","968.1000000014901","","0","0","null","null","arrowup","[0.325,0.675,0.15,0.85]","","",""
"sailing-trial","393","1966355","0.0-11.0-348.0","","","","false","","","","","","","","","","597","","4815.60000000149","","3","1","arrowright","1","arrowright","[0.325,0.675,0.15,0.85]","","",""
"sailing-trial","394","1971475","0.0-11.0-349.0","","","","false","","","","","","","","","","null","","2108.6999999955297","","2","0","null","null","arrowup","[0.325,0.675,0.15,0.85]","","",""
"sailing-trial","395","1975185","0.0-11.0-350.0","","","","false","","","","","","","","","","980","","510.8999999985099","","2","0","arrowright","1","arrowleft","[0.325,0.675,0.15,0.85]","","",""
"sailing-trial","396","1977260","0.0-11.0-351.0","","","","false","","","","","","","","","","null","","880","","2","0","null","null","arrowup","[0.325,0.675,0.15,0.85]","","",""
"sailing-trial","397","1981088","0.0-11.0-352.0","","","","false","","","","","","","","","","452.5","","316.69999999552965","","3","1","arrowright","1","arrowright","[0.325,0.675,0.15,0.85]","","",""
"sailing-trial","398","1983305","0.0-11.0-353.0","","","","false","","","","","","","","","","null","","942.1000000014901","","2","0","null","null","arrowup","[0.325,0.675,0.15,0.85]","","",""
"sailing-trial","399","1987573","0.0-11.0-354.0","","","","false","","","","","","","","","","611.2000000029802","","764.3999999985099","","3","1","arrowright","1","arrowright","[0.325,0.675,0.15,0.85]","","",""
"sailing-trial","400","1990231","0.0-11.0-355.0","","","","false","","","","","","","","","","null","","807.4000000059605","","3","1","null","null","arrowup","[0.325,0.675,0.15,0.85]","","",""
"sailing-trial","401","1994073","0.0-11.0-356.0","","","","false","","","","","","","","","","567.3999999985099","","76","","3","1","arrowright","1","arrowright","[0.325,0.675,0.15,0.85]","","",""
"sailing-trial","402","1996392","0.0-11.0-357.0","","","","false","","","","","","","","","","null","","1025.6999999955297","","2","0","null","null","arrowup","[0.325,0.675,0.15,0.85]","","",""
"sailing-trial","403","2001567","0.0-11.0-358.0","","","","false","","","","","","","","","","822.2999999970198","","334.6000000014901","","3","0","arrowright","1","arrowright","[0.85,0.15,0.675,0.325]","","",""
"sailing-trial","404","2004497","0.0-11.0-359.0","","","","false","","","","","","","","","","null","","1053.5","","0","1","null","null","arrowup","[0.85,0.15,0.675,0.325]","","",""
"sailing-trial","405","2008672","0.0-11.0-360.0","","","","false","","","","","","","","","","377","","839.2999999970198","","0","1","arrowleft","0","arrowleft","[0.85,0.15,0.675,0.325]","","",""
"sailing-trial","406","2011373","0.0-11.0-361.0","","","","false","","","","","","","","","","null","","878.7999999970198","","0","1","null","null","arrowup","[0.85,0.15,0.675,0.325]","","",""
"sailing-trial","407","2015872","0.0-11.0-362.0","","","","false","","","","","","","","","","617.1999999955297","","792.1999999955297","","0","1","arrowleft","0","arrowleft","[0.85,0.15,0.675,0.325]","","",""
"sailing-trial","408","2018257","0.0-11.0-363.0","","","","false","","","","","","","","","","null","","1017.3999999985099","","3","0","null","null","arrowup","[0.85,0.15,0.675,0.325]","","",""
"sailing-trial","409","2022973","0.0-11.0-364.0","","","","false","","","","","","","","","","581.1999999955297","","1160.2000000029802","","0","1","arrowleft","0","arrowleft","[0.85,0.15,0.675,0.325]","","",""
"sailing-trial","410","2025982","0.0-11.0-365.0","","","","false","","","","","","","","","","null","","797.7000000029802","","2","1","null","null","arrowup","[0.85,0.15,0.675,0.325]","","",""
"sailing-trial","411","2031249","0.0-11.0-366.0","","","","false","","","","","","","","","","905.7999999970198","","844.3000000044703","","0","1","arrowleft","0","arrowleft","[0.85,0.15,0.675,0.325]","","",""
"sailing-trial","412","2034132","0.0-11.0-367.0","","","","false","","","","","","","","","","null","","1058.2999999970198","","1","1","null","null","arrowup","[0.85,0.15,0.675,0.325]","","",""
"sailing-trial","413","2038640","0.0-11.0-368.0","","","","false","","","","","","","","","","1002","","523.8999999985099","","0","1","arrowleft","0","arrowleft","[0.85,0.15,0.675,0.325]","","",""
"sailing-trial","414","2041491","0.0-11.0-369.0","","","","false","","","","","","","","","","null","","955.1000000014901","","2","1","null","null","arrowup","[0.85,0.15,0.675,0.325]","","",""
"sailing-trial","415","2045356","0.0-11.0-370.0","","","","false","","","","","","","","","","575.7000000029802","","422.80000000447035","","0","1","arrowleft","0","arrowleft","[0.85,0.15,0.675,0.325]","","",""
"sailing-trial","416","2048224","0.0-11.0-371.0","","","","false","","","","","","","","","","null","","1127.9000000059605","","2","1","null","null","arrowup","[0.85,0.15,0.675,0.325]","","",""
"sailing-trial","417","2055365","0.0-11.0-372.0","","","","false","","","","","","","","","","456.8999999985099","","3375.5","","2","1","arrowright","1","arrowleft","[0.85,0.15,0.675,0.325]","","",""
"sailing-trial","418","2058308","0.0-11.0-373.0","","","","false","","","","","","","","","","null","","859.5","","2","1","null","null","arrowup","[0.85,0.15,0.675,0.325]","","",""
"sailing-trial","419","2062673","0.0-11.0-374.0","","","","false","","","","","","","","","","718.7000000029802","","786.5","","0","1","arrowleft","0","arrowleft","[0.85,0.15,0.675,0.325]","","",""
"sailing-trial","420","2065481","0.0-11.0-375.0","","","","false","","","","","","","","","","null","","943.2999999970198","","2","1","null","null","arrowup","[0.85,0.15,0.675,0.325]","","",""
"sailing-trial","421","2068831","0.0-11.0-376.0","","","","false","","","","","","","","","","556.7999999970198","","223.39999999850988","","0","1","arrowleft","0","arrowleft","[0.85,0.15,0.675,0.325]","","",""
"sailing-trial","422","2071154","0.0-11.0-377.0","","","","false","","","","","","","","","","null","","830.5","","1","0","null","null","arrowup","[0.85,0.15,0.675,0.325]","","",""
"sailing-trial","423","2075448","0.0-11.0-378.0","","","","false","","","","","","","","","","976.2000000029802","","575.2999999970198","","0","1","arrowleft","0","arrowleft","[0.675,0.325,0.85,0.15]","","",""
"sailing-trial","424","2078148","0.0-11.0-379.0","","","","false","","","","","","","","","","null","","816.5","","3","1","null","null","arrowup","[0.675,0.325,0.85,0.15]","","",""
"sailing-trial","425","2081372","0.0-11.0-380.0","","","","false","","","","","","","","","","534","","120.90000000596046","","0","1","arrowleft","0","arrowleft","[0.675,0.325,0.85,0.15]","","",""
"sailing-trial","426","2084316","0.0-11.0-381.0","","","","false","","","","","","","","","","null","","898.7999999970198","","2","1","null","null","arrowup","[0.675,0.325,0.85,0.15]","","",""
"sailing-trial","427","2088089","0.0-11.0-382.0","","","","false","","","","","","","","","","917.3000000044703","","56.20000000298023","","0","1","arrowleft","0","arrowleft","[0.675,0.325,0.85,0.15]","","",""
"sailing-trial","428","2091056","0.0-11.0-383.0","","","","false","","","","","","","","","","null","","1011.8999999985099","","0","1","null","null","arrowup","[0.675,0.325,0.85,0.15]","","",""
"sailing-trial","429","2095297","0.0-11.0-384.0","","","","false","","","","","","","","","","674.1000000014901","","461.90000000596046","","0","1","arrowleft","0","arrowleft","[0.675,0.325,0.85,0.15]","","",""
"sailing-trial","430","2100316","0.0-11.0-385.0","","","","false","","","","","","","","","","null","","3344.10000000149","","2","1","null","null","arrowup","[0.675,0.325,0.85,0.15]","","",""
"sailing-trial","431","2104607","0.0-11.0-386.0","","","","false","","","","","","","","","","541.5999999940395","","981.5","","2","1","arrowright","1","arrowleft","[0.675,0.325,0.85,0.15]","","",""
"sailing-trial","432","2107898","0.0-11.0-387.0","","","","false","","","","","","","","","","null","","1221.1000000014901","","0","1","null","null","arrowup","[0.675,0.325,0.85,0.15]","","",""
"sailing-trial","433","2111749","0.0-11.0-388.0","","","","false","","","","","","","","","","442.6000000014901","","207.19999999552965","","2","1","arrowright","1","arrowleft","[0.675,0.325,0.85,0.15]","","",""
"sailing-trial","434","2114746","0.0-11.0-389.0","","","","false","","","","","","","","","","null","","917.6000000014901","","1","0","null","null","arrowup","[0.675,0.325,0.85,0.15]","","",""
"sailing-trial","435","2119707","0.0-11.0-390.0","","","","false","","","","","","","","","","871.7000000029802","","600.7000000029802","","2","1","arrowright","1","arrowleft","[0.675,0.325,0.85,0.15]","","",""
"sailing-trial","436","2123508","0.0-11.0-391.0","","","","false","","","","","","","","","","null","","799.7999999970198","","3","0","null","null","arrowup","[0.675,0.325,0.85,0.15]","","",""
"sailing-trial","437","2126785","0.0-11.0-392.0","","","","false","","","","","","","","","","696.1000000014901","","278.90000000596046","","0","0","arrowleft","0","arrowleft","[0.675,0.325,0.85,0.15]","","",""
"sailing-trial","438","2128931","0.0-11.0-393.0","","","","false","","","","","","","","","","null","","977.5","","1","0","null","null","arrowup","[0.675,0.325,0.85,0.15]","","",""
"sailing-trial","439","2132874","0.0-11.0-394.0","","","","false","","","","","","","","","","695.8999999985099","","499.90000000596046","","2","1","arrowright","1","arrowleft","[0.675,0.325,0.85,0.15]","","",""
"sailing-trial","440","2135581","0.0-11.0-395.0","","","","false","","","","","","","","","","null","","949.8999999985099","","0","1","null","null","arrowup","[0.675,0.325,0.85,0.15]","","",""
"sailing-trial","441","2139097","0.0-11.0-396.0","","","","false","","","","","","","","","","660.9000000059605","","691.1000000014901","","2","0","arrowright","1","arrowleft","[0.675,0.325,0.85,0.15]","","",""
"sailing-trial","442","2142389","0.0-11.0-397.0","","","","false","","","","","","","","","","null","","1545.7000000029802","","0","0","null","null","arrowup","[0.675,0.325,0.85,0.15]","","",""
"sailing-trial","443","2146416","0.0-11.0-398.0","","","","false","","","","","","","","","","769","","154.29999999701977","","0","1","arrowleft","0","arrowleft","[0.675,0.325,0.85,0.15]","","",""
"sailing-trial","444","2151434","0.0-11.0-399.0","","","","false","","","","","","","","","","null","","2007.8999999985099","","3","0","null","null","arrowup","[0.675,0.325,0.85,0.15]","","",""
"instructions","445","2155492","0.0-12.0","","","","","","","","","","4057.7000000029802","","","","","","","","","","","","","","","","[{""page_index"":0,""viewing_time"":4057.2999999970198}]"
"survey-debrief","446","2307135","0.0-13.0","","","","","","","","","","151640.90000000596","","","","","","","","","","","","","","{""difficulty"":""2"",""fun"":""3"",""clarity"":""4"",""strategy"":""I used the strategie of when the fog pointed to a store with gold or not, I followed the hint."",""feedback"":""No""}","",""
