"trial_type","trial_index","time_elapsed","internal_node_id","value","metadata","success","timeout","failed_images","failed_audio","failed_video","browser_interaction","low_quality","rt","stimulus","response","button_pressed","island_rt","island_response","boat_rt","boat_response","boat","reward","island_key","island","boat_key","reward_probabilities","responses","num_errors","view_history"
"pavlovia","0","4","0.0-0.0","","","","","","","","","","","","","","","","","","","","","","","","","",""
"call-function","1","5","0.0-1.0","","{""task_version"":""sailing_part1_v1"",""task_condition"":""good"",""boats"":[""B"",""C"",""D"",""A""],""boats_demo"":[""G"",""F"",""E"",""H""],""islands"":[""A"",""B""],""subject_id"":""14521"",""age"":""8"",""gender"":""Female""}","","","","","","","","","","","","","","","","","","","","","","","",""
"preload","2","3795","0.0-2.0","","","true","false","[]","[]","[]","[{""event"":""fullscreenenter"",""trial"":3,""time"":6045}]","false","","","","","","","","","","","","","","","","",""
"fullscreen","3","7003","0.0-3.0","","","true","","","","","","","","","","","","","","","","","","","","","","",""
"audio-keyboard-response","4","11612","0.0-4.0-0.0","","","","","","","","","","4200","audio/beep_loop.wav"," ","","","","","","","","","","","","","",""
"audio-test","5","24903","0.0-4.0-1.0","","","","","","","","","","null","audio/turtle.mp3","","3","","","","","","","","","","","","",""
"audio-test","6","28397","0.0-4.0-2.0","","","","","","","","","","null","audio/shark.mp3","","2","","","","","","","","","","","","",""
"sailing-instructions","7","79804","0.0-5.0-0.0-0.0","","","","","","","","","","","","","","null","null","null","null","null","null","","","","","","",""
"sailing-trial","8","120451","0.0-5.0-0.0-1.0-0.0","","","","false","","","","","","","","","","39522.299999952316","","null","","null","null","arrowleft","0","null","null","","",""
"sailing-trial","9","124357","0.0-5.0-0.0-1.0-1.0","","","","false","","","","","","","","","","2766.5","","null","","null","null","arrowright","1","null","null","","",""
"sailing-trial","10","128971","0.0-5.0-0.0-1.0-2.0","","","","false","","","","","","","","","","3496.4000000953674","","null","","null","null","arrowright","1","null","null","","",""
"sailing-instructions","11","189213","0.0-5.0-0.0-2.0","","","","","","","","","","","","","","null","null","null","null","0","null","","","","","","",""
"sailing-trial","12","202202","0.0-5.0-0.0-3.0-0.0","","","","false","","","","","","","","","","null","","7065.5","","2","1","null","null","arrowleft","[1,1,1,1]","","",""
"sailing-trial","13","208809","0.0-5.0-0.0-3.0-1.0","","","","false","","","","","","","","","","null","","2743.2000000476837","","3","1","null","null","arrowright","[1,1,1,1]","","",""
"sailing-trial","14","215041","0.0-5.0-0.0-3.0-2.0","","","","false","","","","","","","","","","null","","2690.7999999523163","","3","0","null","null","arrowright","[0,0,0,0]","","",""
"sailing-instructions","15","223346","0.0-5.0-0.0-4.0","","","","","","","","","","","","","","null","null","null","null","null","null","","","","","","",""
"sailing-comprehension","16","327798","0.0-5.0-0.0-5.0","","","","","","","","","","83775.40000009537","","","","","","","","","","","","","","[""false"",""false"",""false"",""true""]","2",""
"sailing-instructions","17","360556","0.0-5.0-0.1-0.1","","","","","","","","","","","","","","null","null","null","null","null","null","","","","","","",""
"sailing-trial","18","366025","0.0-5.0-0.1-1.1-0.1","","","","false","","","","","","","","","","4345.100000143051","","null","","null","null","arrowleft","0","null","null","","",""
"sailing-trial","19","368972","0.0-5.0-0.1-1.1-1.1","","","","false","","","","","","","","","","1816.2000000476837","","null","","null","null","arrowright","1","null","null","","",""
"sailing-trial","20","373558","0.0-5.0-0.1-1.1-2.1","","","","false","","","","","","","","","","3447.4000000953674","","null","","null","null","arrowleft","0","null","null","","",""
"sailing-instructions","21","423526","0.0-5.0-0.1-2.1","","","","","","","","","","","","","","null","null","null","null","0","null","","","","","","",""
"sailing-trial","22","433124","0.0-5.0-0.1-3.1-0.1","","","","false","","","","","","","","","","null","","6250.400000095367","","2","1","null","null","arrowleft","[1,1,1,1]","","",""
"sailing-trial","23","437534","0.0-5.0-0.1-3.1-1.1","","","","false","","","","","","","","","","null","","876.2000000476837","","3","1","null","null","arrowright","[1,1,1,1]","","",""
"sailing-trial","24","442746","0.0-5.0-0.1-3.1-2.1","","","","false","","","","","","","","","","null","","1661.5","","2","0","null","null","arrowleft","[0,0,0,0]","","",""
"sailing-instructions","25","462427","0.0-5.0-0.1-4.1","","","","","","","","","","","","","","null","null","null","null","null","null","","","","","","",""
"sailing-comprehension","26","483955","0.0-5.0-0.1-5.1","","","","","","","","","","13824.399999856949","","","","","","","","","","","","","","[""true"",""true"",""false"",""false""]","1",""
"sailing-instructions","27","561390","0.0-6.0-0.0-0.0","","","","","","","","","","","","","","null","null","null","null","null","null","","","","","","",""
"sailing-comprehension","28","650396","0.0-6.0-0.0-1.0","","","","","","","","","","32451.200000047684","","","","","","","","","","","","","","[""true"",""true"",""false""]","2",""
"sailing-instructions","29","720700","0.0-6.0-0.1-0.1","","","","","","","","","","","","","","null","null","null","null","null","null","","","","","","",""
"sailing-comprehension","30","744552","0.0-6.0-0.1-1.1","","","","","","","","","","14277.899999856949","","","","","","","","","","","","","","[""true"",""false"",""true""]","0",""
"sailing-instructions","31","761371","0.0-7.0-0.0-0.0","","","","","","","","","","","","","","null","null","null","null","null","null","","","","","","",""
"sailing-trial","32","770888","0.0-7.0-0.0-1.0-0.0","","","","false","","","","","","","","","","null","","6480","","0","0","null","null","arrowup","[0.2,0.8,0.2,0.8]","","",""
"sailing-trial","33","777119","0.0-7.0-0.0-1.0-1.0","","","","false","","","","","","","","","","null","","3191.5999999046326","","1","0","null","null","arrowup","[0.2,0.8,0.2,0.8]","","",""
"sailing-trial","34","781282","0.0-7.0-0.0-1.0-2.0","","","","false","","","","","","","","","","null","","1908.5999999046326","","2","1","null","null","arrowup","[0.2,0.8,0.2,0.8]","","",""
"sailing-trial","35","785304","0.0-7.0-0.0-1.0-3.0","","","","false","","","","","","","","","","null","","1892.2999999523163","","3","1","null","null","arrowup","[0.2,0.8,0.2,0.8]","","",""
"sailing-comprehension","36","815771","0.0-7.0-0.0-2.0","","","","","","","","","","17933.299999952316","","","","","","","","","","","","","","[""true""]","1",""
"sailing-instructions","37","833720","0.0-7.0-0.1-0.1","","","","","","","","","","","","","","null","null","null","null","null","null","","","","","","",""
"sailing-trial","38","838329","0.0-7.0-0.1-1.1-0.1","","","","false","","","","","","","","","","null","","1597.7999999523163","","0","0","null","null","arrowup","[0.2,0.8,0.2,0.8]","","",""
"sailing-trial","39","842317","0.0-7.0-0.1-1.1-1.1","","","","false","","","","","","","","","","null","","1275.9000000953674","","1","1","null","null","arrowup","[0.2,0.8,0.2,0.8]","","",""
"sailing-trial","40","846195","0.0-7.0-0.1-1.1-2.1","","","","false","","","","","","","","","","null","","832.7999999523163","","2","0","null","null","arrowup","[0.2,0.8,0.2,0.8]","","",""
"sailing-trial","41","850194","0.0-7.0-0.1-1.1-3.1","","","","false","","","","","","","","","","null","","985.6000001430511","","3","0","null","null","arrowup","[0.2,0.8,0.2,0.8]","","",""
"sailing-comprehension","42","859924","0.0-7.0-0.1-2.1","","","","","","","","","","5968.700000047684","","","","","","","","","","","","","","[""false""]","0",""
"sailing-instructions","43","872650","0.0-8.0-0.0-0.0","","","","","","","","","","","","","","null","null","null","null","null","null","","","","","","",""
"sailing-comprehension","44","885507","0.0-8.0-0.0-1.0","","","","","","","","","","10580","","","","","","","","","","","","","","[""true""]","0",""
"sailing-instructions","45","915482","0.0-9.0-0.0-0.0","","","","","","","","","","","","","","null","null","null","null","null","null","","","","","","",""
"sailing-trial","46","925069","0.0-9.0-0.0-1.0-0.0","","","","false","","","","","","","","","","2508.5","","3387.2999999523163","","3","1","arrowright","1","arrowright","[0.2,0.8,0.2,0.8]","","",""
"sailing-trial","47","933504","0.0-9.0-0.0-1.0-1.0","","","","false","","","","","","","","","","1891.7999999523163","","3345.2999999523163","","0","1","arrowleft","0","arrowleft","[0.2,0.8,0.2,0.8]","","",""
"sailing-trial","48","942556","0.0-9.0-0.0-1.0-2.0","","","","false","","","","","","","","","","null","","6806.599999904633","","0","1","null","null","arrowup","[0.2,0.8,0.2,0.8]","","",""
"sailing-trial","49","952078","0.0-9.0-0.0-1.0-3.0","","","","false","","","","","","","","","","2396.7000000476837","","3075","","2","0","arrowright","1","arrowleft","[0.2,0.8,0.2,0.8]","","",""
"sailing-trial","50","958767","0.0-9.0-0.0-1.0-4.0","","","","false","","","","","","","","","","null","","4607.200000047684","","3","1","null","null","arrowup","[0.2,0.8,0.2,0.8]","","",""
"sailing-trial","51","965671","0.0-9.0-0.0-1.0-5.0","","","","false","","","","","","","","","","2465.600000143051","","316.90000009536743","","0","0","arrowleft","0","arrowleft","[0.2,0.8,0.2,0.8]","","",""
"sailing-instructions","52","997294","0.0-10.0","","","","","","","","","","","","","","null","null","null","null","null","null","","","","","","",""
"sailing-trial","53","1003673","0.0-11.0-0.0","","","","false","","","","","","","","","","1422.4000000953674","","829.5999999046326","","0","0","arrowleft","0","arrowleft","[0.675,0.325,0.15,0.85]","","",""
"sailing-trial","54","1008677","0.0-11.0-1.0","","","","false","","","","","","","","","","null","","1967.5999999046326","","2","0","null","null","arrowup","[0.675,0.325,0.15,0.85]","","",""
"sailing-trial","55","1013755","0.0-11.0-2.0","","","","false","","","","","","","","","","1339.6999998092651","","100.20000004768372","","3","1","arrowright","1","arrowright","[0.675,0.325,0.15,0.85]","","",""
"sailing-trial","56","1017624","0.0-11.0-3.0","","","","false","","","","","","","","","","null","","1530.4000000953674","","3","1","null","null","arrowup","[0.675,0.325,0.15,0.85]","","",""
"sailing-trial","57","1023399","0.0-11.0-4.0","","","","false","","","","","","","","","","1295.3999998569489","","342.30000019073486","","0","0","arrowleft","0","arrowleft","[0.675,0.325,0.15,0.85]","","",""
"sailing-trial","58","1027529","0.0-11.0-5.0","","","","false","","","","","","","","","","null","","1634","","3","1","null","null","arrowup","[0.675,0.325,0.15,0.85]","","",""
"sailing-trial","59","1034778","0.0-11.0-6.0","","","","false","","","","","","","","","","2389.7000000476837","","801.5999999046326","","1","0","arrowleft","0","arrowright","[0.675,0.325,0.15,0.85]","","",""
"sailing-trial","60","1038935","0.0-11.0-7.0","","","","false","","","","","","","","","","null","","1654.5","","0","1","null","null","arrowup","[0.675,0.325,0.15,0.85]","","",""
"sailing-trial","61","1046180","0.0-11.0-8.0","","","","false","","","","","","","","","","2887.600000143051","","890","","0","1","arrowleft","0","arrowleft","[0.675,0.325,0.15,0.85]","","",""
"sailing-trial","62","1050528","0.0-11.0-9.0","","","","false","","","","","","","","","","null","","1879.5","","3","1","null","null","arrowup","[0.675,0.325,0.15,0.85]","","",""
"sailing-trial","63","1059691","0.0-11.0-10.0","","","","false","","","","","","","","","","3221.9000000953674","","1817.2999999523163","","2","0","arrowright","1","arrowleft","[0.675,0.325,0.15,0.85]","","",""
"sailing-trial","64","1064821","0.0-11.0-11.0","","","","false","","","","","","","","","","null","","2093.5","","0","0","null","null","arrowup","[0.675,0.325,0.15,0.85]","","",""
"sailing-trial","65","1071987","0.0-11.0-12.0","","","","false","","","","","","","","","","1861.7999999523163","","1259.9000000953674","","2","0","arrowright","1","arrowleft","[0.675,0.325,0.15,0.85]","","",""
"sailing-trial","66","1076156","0.0-11.0-13.0","","","","false","","","","","","","","","","null","","1756.7000000476837","","0","1","null","null","arrowup","[0.675,0.325,0.15,0.85]","","",""
"sailing-trial","67","1081385","0.0-11.0-14.0","","","","false","","","","","","","","","","1522.1999998092651","","125.60000014305115","","3","1","arrowright","1","arrowright","[0.675,0.325,0.15,0.85]","","",""
"sailing-trial","68","1085992","0.0-11.0-15.0","","","","false","","","","","","","","","","null","","1594.8000001907349","","3","0","null","null","arrowup","[0.675,0.325,0.15,0.85]","","",""
"sailing-trial","69","1092077","0.0-11.0-16.0","","","","false","","","","","","","","","","1583.2000000476837","","407.2000000476837","","0","0","arrowleft","0","arrowleft","[0.675,0.325,0.15,0.85]","","",""
"sailing-trial","70","1096217","0.0-11.0-17.0","","","","false","","","","","","","","","","null","","1721.6000001430511","","3","1","null","null","arrowup","[0.675,0.325,0.15,0.85]","","",""
"sailing-trial","71","1101663","0.0-11.0-18.0","","","","false","","","","","","","","","","1651.0999999046326","","453.2000000476837","","2","1","arrowright","1","arrowleft","[0.675,0.325,0.15,0.85]","","",""
"sailing-trial","72","1105711","0.0-11.0-19.0","","","","false","","","","","","","","","","null","","1515.2000000476837","","3","1","null","null","arrowup","[0.675,0.325,0.15,0.85]","","",""
"sailing-trial","73","1111886","0.0-11.0-20.0","","","","false","","","","","","","","","","1798.2999999523163","","343.5","","0","0","arrowleft","0","arrowleft","[0.675,0.325,0.15,0.85]","","",""
"sailing-trial","74","1116615","0.0-11.0-21.0","","","","false","","","","","","","","","","null","","1682.5999999046326","","0","0","null","null","arrowup","[0.675,0.325,0.15,0.85]","","",""
"sailing-trial","75","1123271","0.0-11.0-22.0","","","","false","","","","","","","","","","1618.8999998569489","","1670.0999999046326","","2","1","arrowright","1","arrowleft","[0.85,0.15,0.325,0.675]","","",""
"sailing-trial","76","1127836","0.0-11.0-23.0","","","","false","","","","","","","","","","null","","1535.6000001430511","","2","0","null","null","arrowup","[0.85,0.15,0.325,0.675]","","",""
"sailing-trial","77","1134698","0.0-11.0-24.0","","","","false","","","","","","","","","","2054.2999999523163","","770.9000000953674","","1","0","arrowleft","0","arrowright","[0.85,0.15,0.325,0.675]","","",""
"sailing-trial","78","1138716","0.0-11.0-25.0","","","","false","","","","","","","","","","null","","1669.8999998569489","","1","1","null","null","arrowup","[0.85,0.15,0.325,0.675]","","",""
"sailing-trial","79","1145195","0.0-11.0-26.0","","","","false","","","","","","","","","","1789.3000001907349","","656.2000000476837","","1","0","arrowleft","0","arrowright","[0.85,0.15,0.325,0.675]","","",""
"sailing-trial","80","1149845","0.0-11.0-27.0","","","","false","","","","","","","","","","null","","1627","","2","0","null","null","arrowup","[0.85,0.15,0.325,0.675]","","",""
"sailing-trial","81","1156428","0.0-11.0-28.0","","","","false","","","","","","","","","","2442.5999999046326","","594.0999999046326","","0","1","arrowleft","0","arrowleft","[0.85,0.15,0.325,0.675]","","",""
"sailing-trial","82","1161258","0.0-11.0-29.0","","","","false","","","","","","","","","","null","","1772","","1","0","null","null","arrowup","[0.85,0.15,0.325,0.675]","","",""
"sailing-trial","83","1168754","0.0-11.0-30.0","","","","false","","","","","","","","","","2213.7999999523163","","1197.5","","2","0","arrowright","1","arrowleft","[0.85,0.15,0.325,0.675]","","",""
"sailing-trial","84","1172971","0.0-11.0-31.0","","","","false","","","","","","","","","","null","","1831.2000000476837","","0","1","null","null","arrowup","[0.85,0.15,0.325,0.675]","","",""
"sailing-trial","85","1178819","0.0-11.0-32.0","","","","false","","","","","","","","","","1663.5","","548.2999999523163","","3","1","arrowright","1","arrowright","[0.85,0.15,0.325,0.675]","","",""
"sailing-trial","86","1183579","0.0-11.0-33.0","","","","false","","","","","","","","","","null","","1715.5","","0","0","null","null","arrowup","[0.85,0.15,0.325,0.675]","","",""
"sailing-trial","87","1190027","0.0-11.0-34.0","","","","false","","","","","","","","","","1744.3999998569489","","649.7000000476837","","1","0","arrowleft","0","arrowright","[0.85,0.15,0.325,0.675]","","",""
"sailing-trial","88","1195755","0.0-11.0-35.0","","","","false","","","","","","","","","","null","","2711.2999999523163","","0","0","null","null","arrowup","[0.85,0.15,0.325,0.675]","","",""
"sailing-trial","89","1201618","0.0-11.0-36.0","","","","false","","","","","","","","","","1253.8999998569489","","578.7000000476837","","1","0","arrowleft","0","arrowright","[0.85,0.15,0.325,0.675]","","",""
"sailing-trial","90","1205743","0.0-11.0-37.0","","","","false","","","","","","","","","","null","","1765.5","","0","1","null","null","arrowup","[0.85,0.15,0.325,0.675]","","",""
"sailing-trial","91","1212301","0.0-11.0-38.0","","","","false","","","","","","","","","","2191","","1002.6000001430511","","2","1","arrowright","1","arrowleft","[0.675,0.325,0.15,0.85]","","",""
"sailing-trial","92","1216838","0.0-11.0-39.0","","","","false","","","","","","","","","","null","","1501.0999999046326","","2","0","null","null","arrowup","[0.675,0.325,0.15,0.85]","","",""
"sailing-trial","93","1222397","0.0-11.0-40.0","","","","false","","","","","","","","","","1655.5999999046326","","244.79999995231628","","3","1","arrowright","1","arrowright","[0.675,0.325,0.15,0.85]","","",""
"sailing-trial","94","1228109","0.0-11.0-41.0","","","","false","","","","","","","","","","null","","2680.4000000953674","","1","0","null","null","arrowup","[0.675,0.325,0.15,0.85]","","",""
"sailing-trial","95","1236225","0.0-11.0-42.0","","","","false","","","","","","","","","","3539.600000143051","","326.5","","0","1","arrowleft","0","arrowleft","[0.675,0.325,0.15,0.85]","","",""
"sailing-trial","96","1240579","0.0-11.0-43.0","","","","false","","","","","","","","","","null","","1717.7000000476837","","1","1","null","null","arrowup","[0.675,0.325,0.15,0.85]","","",""
"sailing-trial","97","1246982","0.0-11.0-44.0","","","","false","","","","","","","","","","1339","","1026.0999999046326","","1","0","arrowleft","0","arrowright","[0.675,0.325,0.15,0.85]","","",""
"sailing-trial","98","1250954","0.0-11.0-45.0","","","","false","","","","","","","","","","null","","1497.5999999046326","","1","1","null","null","arrowup","[0.675,0.325,0.15,0.85]","","",""
"sailing-trial","99","1258317","0.0-11.0-46.0","","","","false","","","","","","","","","","1745","","1546.4000000953674","","2","0","arrowright","1","arrowleft","[0.675,0.325,0.15,0.85]","","",""
"sailing-trial","100","1262500","0.0-11.0-47.0","","","","false","","","","","","","","","","null","","1619.4000000953674","","2","1","null","null","arrowup","[0.675,0.325,0.15,0.85]","","",""
"sailing-trial","101","1267682","0.0-11.0-48.0","","","","false","","","","","","","","","","1336.7000000476837","","355","","3","1","arrowright","1","arrowright","[0.675,0.325,0.15,0.85]","","",""
"sailing-trial","102","1272047","0.0-11.0-49.0","","","","false","","","","","","","","","","null","","1827.6999998092651","","3","1","null","null","arrowup","[0.675,0.325,0.15,0.85]","","",""
"sailing-trial","103","1277003","0.0-11.0-50.0","","","","false","","","","","","","","","","1267.2999999523163","","357.5","","3","1","arrowright","1","arrowright","[0.675,0.325,0.15,0.85]","","",""
"sailing-trial","104","1281667","0.0-11.0-51.0","","","","false","","","","","","","","","","null","","1629.2999999523163","","0","0","null","null","arrowup","[0.675,0.325,0.15,0.85]","","",""
"sailing-trial","105","1286616","0.0-11.0-52.0","","","","false","","","","","","","","","","1128.8999998569489","","378.89999985694885","","3","1","arrowright","1","arrowright","[0.675,0.325,0.15,0.85]","","",""
"sailing-trial","106","1290499","0.0-11.0-53.0","","","","false","","","","","","","","","","null","","1433.7000000476837","","2","1","null","null","arrowup","[0.675,0.325,0.15,0.85]","","",""
"sailing-trial","107","1298493","0.0-11.0-54.0","","","","false","","","","","","","","","","2424.7000000476837","","1451.5999999046326","","1","0","arrowleft","0","arrowright","[0.675,0.325,0.15,0.85]","","",""
"sailing-trial","108","1301978","0.0-11.0-55.0","","","","false","","","","","","","","","","null","","1473.2000000476837","","3","1","null","null","arrowup","[0.675,0.325,0.15,0.85]","","",""
"sailing-trial","109","1307064","0.0-11.0-56.0","","","","false","","","","","","","","","","1398.5","","462.2999999523163","","3","1","arrowright","1","arrowright","[0.675,0.325,0.15,0.85]","","",""
"sailing-trial","110","1311673","0.0-11.0-57.0","","","","false","","","","","","","","","","null","","1587","","1","0","null","null","arrowup","[0.675,0.325,0.15,0.85]","","",""
"sailing-trial","111","1317855","0.0-11.0-58.0","","","","false","","","","","","","","","","1478.5","","692.5999999046326","","1","0","arrowleft","0","arrowright","[0.85,0.15,0.325,0.675]","","",""
"sailing-trial","112","1322004","0.0-11.0-59.0","","","","false","","","","","","","","","","null","","1579.8999998569489","","2","1","null","null","arrowup","[0.85,0.15,0.325,0.675]","","",""
"sailing-trial","113","1327419","0.0-11.0-60.0","","","","false","","","","","","","","","","1185.5","","839.2999999523163","","2","1","arrowright","1","arrowleft","[0.85,0.15,0.325,0.675]","","",""
"sailing-trial","114","1331384","0.0-11.0-61.0","","","","false","","","","","","","","","","null","","1719.7000000476837","","3","1","null","null","arrowup","[0.85,0.15,0.325,0.675]","","",""
"sailing-trial","115","1336631","0.0-11.0-62.0","","","","false","","","","","","","","","","989.9000000953674","","214.19999980926514","","3","0","arrowright","1","arrowright","[0.85,0.15,0.325,0.675]","","",""
"sailing-trial","116","1340849","0.0-11.0-63.0","","","","false","","","","","","","","","","null","","1761.7000000476837","","0","1","null","null","arrowup","[0.85,0.15,0.325,0.675]","","",""
"sailing-trial","117","1345634","0.0-11.0-64.0","","","","false","","","","","","","","","","916.8000001907349","","370.2999999523163","","0","1","arrowleft","0","arrowleft","[0.85,0.15,0.325,0.675]","","",""
"sailing-trial","118","1349829","0.0-11.0-65.0","","","","false","","","","","","","","","","null","","1518.2999999523163","","3","1","null","null","arrowup","[0.85,0.15,0.325,0.675]","","",""
"sailing-trial","119","1355875","0.0-11.0-66.0","","","","false","","","","","","","","","","1786.2999999523163","","221","","3","0","arrowright","1","arrowright","[0.85,0.15,0.325,0.675]","","",""
"sailing-trial","120","1359859","0.0-11.0-67.0","","","","false","","","","","","","","","","null","","1605.5","","2","1","null","null","arrowup","[0.85,0.15,0.325,0.675]","","",""
"sailing-trial","121","1366178","0.0-11.0-68.0","","","","false","","","","","","","","","","1707.0999999046326","","578","","2","0","arrowright","1","arrowleft","[0.85,0.15,0.325,0.675]","","",""
"sailing-trial","122","1369921","0.0-11.0-69.0","","","","false","","","","","","","","","","null","","1303.5","","0","1","null","null","arrowup","[0.85,0.15,0.325,0.675]","","",""
"sailing-trial","123","1376619","0.0-11.0-70.0","","","","false","","","","","","","","","","1408.6999998092651","","1237.5999999046326","","1","0","arrowleft","0","arrowright","[0.85,0.15,0.325,0.675]","","",""
"sailing-trial","124","1381231","0.0-11.0-71.0","","","","false","","","","","","","","","","null","","1569.6999998092651","","2","0","null","null","arrowup","[0.85,0.15,0.325,0.675]","","",""
"sailing-trial","125","1386232","0.0-11.0-72.0","","","","false","","","","","","","","","","1301.0999999046326","","205.29999995231628","","0","1","arrowleft","0","arrowleft","[0.85,0.15,0.325,0.675]","","",""
"sailing-trial","126","1390895","0.0-11.0-73.0","","","","false","","","","","","","","","","null","","1638.2000000476837","","1","0","null","null","arrowup","[0.85,0.15,0.325,0.675]","","",""
"sailing-trial","127","1396411","0.0-11.0-74.0","","","","false","","","","","","","","","","1578.2000000476837","","447.39999985694885","","1","1","arrowleft","0","arrowright","[0.85,0.15,0.325,0.675]","","",""
"sailing-trial","128","1400832","0.0-11.0-75.0","","","","false","","","","","","","","","","null","","1420.8999998569489","","1","0","null","null","arrowup","[0.85,0.15,0.325,0.675]","","",""
"sailing-trial","129","1406756","0.0-11.0-76.0","","","","false","","","","","","","","","","1348.7999999523163","","535.7000000476837","","1","0","arrowleft","0","arrowright","[0.675,0.325,0.15,0.85]","","",""
"sailing-trial","130","1410610","0.0-11.0-77.0","","","","false","","","","","","","","","","null","","1425.7999999523163","","0","1","null","null","arrowup","[0.675,0.325,0.15,0.85]","","",""
"sailing-trial","131","1418801","0.0-11.0-78.0","","","","false","","","","","","","","","","2328.2999999523163","","1822.6000001430511","","0","0","arrowleft","0","arrowleft","[0.675,0.325,0.15,0.85]","","",""
"sailing-trial","132","1422986","0.0-11.0-79.0","","","","false","","","","","","","","","","null","","1672.8999998569489","","3","1","null","null","arrowup","[0.675,0.325,0.15,0.85]","","",""
"sailing-trial","133","1429150","0.0-11.0-80.0","","","","false","","","","","","","","","","1395.7999999523163","","1254.1000001430511","","0","1","arrowleft","0","arrowleft","[0.675,0.325,0.15,0.85]","","",""
"sailing-trial","134","1434182","0.0-11.0-81.0","","","","false","","","","","","","","","","null","","2566.4000000953674","","3","1","null","null","arrowup","[0.675,0.325,0.15,0.85]","","",""
"sailing-trial","135","1439728","0.0-11.0-82.0","","","","false","","","","","","","","","","1166.8999998569489","","330.39999985694885","","0","0","arrowleft","0","arrowleft","[0.675,0.325,0.15,0.85]","","",""
"sailing-trial","136","1444294","0.0-11.0-83.0","","","","false","","","","","","","","","","null","","1533.5999999046326","","2","0","null","null","arrowup","[0.675,0.325,0.15,0.85]","","",""
"sailing-trial","137","1450523","0.0-11.0-84.0","","","","false","","","","","","","","","","1549.5","","645.7000000476837","","1","0","arrowleft","0","arrowright","[0.675,0.325,0.15,0.85]","","",""
"sailing-trial","138","1454626","0.0-11.0-85.0","","","","false","","","","","","","","","","null","","1713.1000001430511","","1","1","null","null","arrowup","[0.675,0.325,0.15,0.85]","","",""
"sailing-trial","139","1460153","0.0-11.0-86.0","","","","false","","","","","","","","","","1404.4000000953674","","81.19999980926514","","3","0","arrowright","1","arrowright","[0.675,0.325,0.15,0.85]","","",""
"sailing-trial","140","1464705","0.0-11.0-87.0","","","","false","","","","","","","","","","null","","1494.1999998092651","","2","0","null","null","arrowup","[0.675,0.325,0.15,0.85]","","",""
"sailing-trial","141","1470408","0.0-11.0-88.0","","","","false","","","","","","","","","","1431.2000000476837","","781.6000001430511","","1","1","arrowleft","0","arrowright","[0.675,0.325,0.15,0.85]","","",""
"sailing-trial","142","1475035","0.0-11.0-89.0","","","","false","","","","","","","","","","null","","1596.7000000476837","","0","0","null","null","arrowup","[0.675,0.325,0.15,0.85]","","",""
"sailing-trial","143","1479417","0.0-11.0-90.0","","","","false","","","","","","","","","","872.5999999046326","","171","","0","1","arrowleft","0","arrowleft","[0.675,0.325,0.15,0.85]","","",""
"sailing-trial","144","1483916","0.0-11.0-91.0","","","","false","","","","","","","","","","null","","1677.2000000476837","","3","1","null","null","arrowup","[0.675,0.325,0.15,0.85]","","",""
"sailing-trial","145","1489163","0.0-11.0-92.0","","","","false","","","","","","","","","","1458.2000000476837","","279.59999990463257","","0","1","arrowleft","0","arrowleft","[0.85,0.15,0.325,0.675]","","",""
"sailing-trial","146","1494426","0.0-11.0-93.0","","","","false","","","","","","","","","","null","","2230.0999999046326","","0","0","null","null","arrowup","[0.85,0.15,0.325,0.675]","","",""
"sailing-trial","147","1500989","0.0-11.0-94.0","","","","false","","","","","","","","","","1241.7000000476837","","1224","","2","0","arrowright","1","arrowleft","[0.85,0.15,0.325,0.675]","","",""
"sailing-trial","148","1505696","0.0-11.0-95.0","","","","false","","","","","","","","","","null","","1670.3999998569489","","2","0","null","null","arrowup","[0.85,0.15,0.325,0.675]","","",""
"sailing-trial","149","1510940","0.0-11.0-96.0","","","","false","","","","","","","","","","1702.7000000476837","","139.20000004768372","","3","1","arrowright","1","arrowright","[0.85,0.15,0.325,0.675]","","",""
"sailing-trial","150","1514955","0.0-11.0-97.0","","","","false","","","","","","","","","","null","","1456.5999999046326","","3","1","null","null","arrowup","[0.85,0.15,0.325,0.675]","","",""
"sailing-trial","151","1519753","0.0-11.0-98.0","","","","false","","","","","","","","","","1181.2999999523163","","332.09999990463257","","3","1","arrowright","1","arrowright","[0.85,0.15,0.325,0.675]","","",""
"sailing-trial","152","1523959","0.0-11.0-99.0","","","","false","","","","","","","","","","null","","1784.2000000476837","","3","1","null","null","arrowup","[0.85,0.15,0.325,0.675]","","",""
"sailing-trial","153","1528434","0.0-11.0-100.0","","","","false","","","","","","","","","","890.9000000953674","","177.80000019073486","","3","1","arrowright","1","arrowright","[0.85,0.15,0.325,0.675]","","",""
"sailing-trial","154","1532549","0.0-11.0-101.0","","","","false","","","","","","","","","","null","","1612.3999998569489","","2","1","null","null","arrowup","[0.85,0.15,0.325,0.675]","","",""
"sailing-trial","155","1537214","0.0-11.0-102.0","","","","false","","","","","","","","","","1232.8999998569489","","81.90000009536743","","3","1","arrowright","1","arrowright","[0.85,0.15,0.325,0.675]","","",""
"sailing-trial","156","1541112","0.0-11.0-103.0","","","","false","","","","","","","","","","null","","1477.4000000953674","","3","1","null","null","arrowup","[0.85,0.15,0.325,0.675]","","",""
"sailing-trial","157","1549327","0.0-11.0-104.0","","","","false","","","","","","","","","","1160.2000000476837","","3614.800000190735","","0","1","arrowleft","0","arrowleft","[0.85,0.15,0.325,0.675]","","",""
"sailing-trial","158","1553194","0.0-11.0-105.0","","","","false","","","","","","","","","","null","","1388.8999998569489","","3","1","null","null","arrowup","[0.85,0.15,0.325,0.675]","","",""
"sailing-trial","159","1559675","0.0-11.0-106.0","","","","false","","","","","","","","","","2450.4000000953674","","390.59999990463257","","2","1","arrowright","1","arrowleft","[0.85,0.15,0.325,0.675]","","",""
"sailing-trial","160","1564487","0.0-11.0-107.0","","","","false","","","","","","","","","","null","","1773","","3","0","null","null","arrowup","[0.85,0.15,0.325,0.675]","","",""
"sailing-trial","161","1570835","0.0-11.0-108.0","","","","false","","","","","","","","","","2045.2000000476837","","271.09999990463257","","3","0","arrowright","1","arrowright","[0.85,0.15,0.325,0.675]","","",""
"sailing-trial","162","1576801","0.0-11.0-109.0","","","","false","","","","","","","","","","null","","3271.7000000476837","","2","1","null","null","arrowup","[0.85,0.15,0.325,0.675]","","",""
"sailing-trial","163","1583487","0.0-11.0-110.0","","","","false","","","","","","","","","","2108","","543.6000001430511","","1","0","arrowleft","0","arrowright","[0.85,0.15,0.325,0.675]","","",""
"sailing-trial","164","1589656","0.0-11.0-111.0","","","","false","","","","","","","","","","null","","3144.2999999523163","","2","0","null","null","arrowup","[0.85,0.15,0.325,0.675]","","",""
"sailing-trial","165","1594651","0.0-11.0-112.0","","","","false","","","","","","","","","","1382.5","","154.09999990463257","","0","1","arrowleft","0","arrowleft","[0.85,0.15,0.325,0.675]","","",""
"sailing-trial","166","1599124","0.0-11.0-113.0","","","","false","","","","","","","","","","null","","1417.5999999046326","","1","0","null","null","arrowup","[0.85,0.15,0.325,0.675]","","",""
"sailing-trial","167","1604241","0.0-11.0-114.0","","","","false","","","","","","","","","","1298.7999999523163","","547.8999998569489","","0","1","arrowleft","0","arrowleft","[0.675,0.325,0.15,0.85]","","",""
"sailing-trial","168","1607961","0.0-11.0-115.0","","","","false","","","","","","","","","","null","","1368.9000000953674","","3","1","null","null","arrowup","[0.675,0.325,0.15,0.85]","","",""
"sailing-trial","169","1612944","0.0-11.0-116.0","","","","false","","","","","","","","","","1050.5999999046326","","536.2000000476837","","0","1","arrowleft","0","arrowleft","[0.675,0.325,0.15,0.85]","","",""
"sailing-trial","170","1617104","0.0-11.0-117.0","","","","false","","","","","","","","","","null","","1726.7999999523163","","1","1","null","null","arrowup","[0.675,0.325,0.15,0.85]","","",""
"sailing-trial","171","1621119","0.0-11.0-118.0","","","","false","","","","","","","","","","912.9000000953674","","1.2999999523162842","","0","1","arrowleft","0","arrowleft","[0.675,0.325,0.15,0.85]","","",""
"sailing-trial","172","1625798","0.0-11.0-119.0","","","","false","","","","","","","","","","null","","1624.4000000953674","","1","0","null","null","arrowup","[0.675,0.325,0.15,0.85]","","",""
"sailing-trial","173","1630966","0.0-11.0-120.0","","","","false","","","","","","","","","","924.9000000953674","","212.19999980926514","","0","0","arrowleft","0","arrowleft","[0.675,0.325,0.15,0.85]","","",""
"sailing-trial","174","1635630","0.0-11.0-121.0","","","","false","","","","","","","","","","null","","1634.2999999523163","","1","0","null","null","arrowup","[0.675,0.325,0.15,0.85]","","",""
"sailing-trial","175","1641617","0.0-11.0-122.0","","","","false","","","","","","","","","","876.2999999523163","","969.5999999046326","","2","0","arrowright","1","arrowleft","[0.675,0.325,0.15,0.85]","","",""
"sailing-trial","176","1646090","0.0-11.0-123.0","","","","false","","","","","","","","","","null","","1439.2999999523163","","1","0","null","null","arrowup","[0.675,0.325,0.15,0.85]","","",""
"sailing-trial","177","1650710","0.0-11.0-124.0","","","","false","","","","","","","","","","1215","","70.59999990463257","","3","1","arrowright","1","arrowright","[0.675,0.325,0.15,0.85]","","",""
"sailing-trial","178","1654613","0.0-11.0-125.0","","","","false","","","","","","","","","","null","","1443.2999999523163","","1","1","null","null","arrowup","[0.675,0.325,0.15,0.85]","","",""
"sailing-trial","179","1659473","0.0-11.0-126.0","","","","false","","","","","","","","","","1116.5","","353.80000019073486","","3","1","arrowright","1","arrowright","[0.675,0.325,0.15,0.85]","","",""
"sailing-trial","180","1663571","0.0-11.0-127.0","","","","false","","","","","","","","","","null","","1682.9000000953674","","2","1","null","null","arrowup","[0.675,0.325,0.15,0.85]","","",""
"sailing-trial","181","1668635","0.0-11.0-128.0","","","","false","","","","","","","","","","741.2999999523163","","252.29999995231628","","3","0","arrowright","1","arrowright","[0.675,0.325,0.15,0.85]","","",""
"sailing-trial","182","1672168","0.0-11.0-129.0","","","","false","","","","","","","","","","null","","1126.2999999523163","","3","1","null","null","arrowup","[0.675,0.325,0.15,0.85]","","",""
"sailing-trial","183","1677164","0.0-11.0-130.0","","","","false","","","","","","","","","","769.0999999046326","","197.89999985694885","","3","0","arrowright","1","arrowright","[0.675,0.325,0.15,0.85]","","",""
"sailing-trial","184","1681921","0.0-11.0-131.0","","","","false","","","","","","","","","","null","","1737.6999998092651","","2","0","null","null","arrowup","[0.675,0.325,0.15,0.85]","","",""
"sailing-trial","185","1687066","0.0-11.0-132.0","","","","false","","","","","","","","","","1547.7000000476837","","173.79999995231628","","3","1","arrowright","1","arrowright","[0.675,0.325,0.15,0.85]","","",""
"sailing-trial","186","1690829","0.0-11.0-133.0","","","","false","","","","","","","","","","null","","1370.5","","2","1","null","null","arrowup","[0.675,0.325,0.15,0.85]","","",""
"sailing-trial","187","1695988","0.0-11.0-134.0","","","","false","","","","","","","","","","754.9000000953674","","330.89999985694885","","3","0","arrowright","1","arrowright","[0.85,0.15,0.325,0.675]","","",""
"sailing-trial","188","1700523","0.0-11.0-135.0","","","","false","","","","","","","","","","null","","1516.6000001430511","","2","0","null","null","arrowup","[0.85,0.15,0.325,0.675]","","",""
"sailing-trial","189","1706053","0.0-11.0-136.0","","","","false","","","","","","","","","","903.2999999523163","","518.8000001907349","","0","0","arrowleft","0","arrowleft","[0.85,0.15,0.325,0.675]","","",""
"sailing-trial","190","1710023","0.0-11.0-137.0","","","","false","","","","","","","","","","null","","1589.7000000476837","","3","1","null","null","arrowup","[0.85,0.15,0.325,0.675]","","",""
"sailing-trial","191","1715426","0.0-11.0-138.0","","","","false","","","","","","","","","","1624.7000000476837","","436.10000014305115","","0","1","arrowleft","0","arrowleft","[0.85,0.15,0.325,0.675]","","",""
"sailing-trial","192","1719917","0.0-11.0-139.0","","","","false","","","","","","","","","","null","","1455.7000000476837","","1","0","null","null","arrowup","[0.85,0.15,0.325,0.675]","","",""
"sailing-trial","193","1726497","0.0-11.0-140.0","","","","false","","","","","","","","","","2351.0999999046326","","204","","1","0","arrowleft","0","arrowright","[0.85,0.15,0.325,0.675]","","",""
"sailing-trial","194","1730722","0.0-11.0-141.0","","","","false","","","","","","","","","","null","","1651","","2","1","null","null","arrowup","[0.85,0.15,0.325,0.675]","","",""
"sailing-trial","195","1737062","0.0-11.0-142.0","","","","false","","","","","","","","","","1420.7000000476837","","1741.8999998569489","","0","1","arrowleft","0","arrowleft","[0.85,0.15,0.325,0.675]","","",""
"sailing-trial","196","1740962","0.0-11.0-143.0","","","","false","","","","","","","","","","null","","1548.6999998092651","","3","1","null","null","arrowup","[0.85,0.15,0.325,0.675]","","",""
"sailing-trial","197","1746741","0.0-11.0-144.0","","","","false","","","","","","","","","","1351.0999999046326","","384","","1","0","arrowleft","0","arrowright","[0.85,0.15,0.325,0.675]","","",""
"sailing-trial","198","1751757","0.0-11.0-145.0","","","","false","","","","","","","","","","null","","1982.8000001907349","","1","0","null","null","arrowup","[0.85,0.15,0.325,0.675]","","",""
"sailing-trial","199","1758018","0.0-11.0-146.0","","","","false","","","","","","","","","","1633.2999999523163","","608.8999998569489","","1","0","arrowleft","0","arrowright","[0.85,0.15,0.325,0.675]","","",""
"sailing-trial","200","1762594","0.0-11.0-147.0","","","","false","","","","","","","","","","null","","1564.7000000476837","","1","0","null","null","arrowup","[0.85,0.15,0.325,0.675]","","",""
"sailing-trial","201","1768201","0.0-11.0-148.0","","","","false","","","","","","","","","","1293.7000000476837","","924.6000001430511","","3","1","arrowright","1","arrowright","[0.85,0.15,0.325,0.675]","","",""
"sailing-trial","202","1772613","0.0-11.0-149.0","","","","false","","","","","","","","","","null","","1377.2999999523163","","2","0","null","null","arrowup","[0.85,0.15,0.325,0.675]","","",""
"sailing-trial","203","1780607","0.0-11.0-150.0","","","","false","","","","","","","","","","2916.5","","1027.4000000953674","","3","0","arrowright","1","arrowright","[0.325,0.675,0.85,0.15]","","",""
"sailing-trial","204","1785979","0.0-11.0-151.0","","","","false","","","","","","","","","","null","","2891.5","","2","1","null","null","arrowup","[0.325,0.675,0.85,0.15]","","",""
"sailing-trial","205","1792976","0.0-11.0-152.0","","","","false","","","","","","","","","","1527.5","","2229.800000190735","","2","1","arrowright","1","arrowleft","[0.325,0.675,0.85,0.15]","","",""
"sailing-trial","206","1797339","0.0-11.0-153.0","","","","false","","","","","","","","","","null","","1337.9000000953674","","0","0","null","null","arrowup","[0.325,0.675,0.85,0.15]","","",""
"sailing-trial","207","1802935","0.0-11.0-154.0","","","","false","","","","","","","","","","955.7999999523163","","552.9000000953674","","0","0","arrowleft","0","arrowleft","[0.325,0.675,0.85,0.15]","","",""
"sailing-trial","208","1807720","0.0-11.0-155.0","","","","false","","","","","","","","","","null","","2193.100000143051","","1","1","null","null","arrowup","[0.325,0.675,0.85,0.15]","","",""
"sailing-trial","209","1814851","0.0-11.0-156.0","","","","false","","","","","","","","","","3077.2000000476837","","602","","1","1","arrowleft","0","arrowright","[0.325,0.675,0.85,0.15]","","",""
"sailing-trial","210","1818668","0.0-11.0-157.0","","","","false","","","","","","","","","","null","","1401.5","","2","1","null","null","arrowup","[0.325,0.675,0.85,0.15]","","",""
"sailing-trial","211","1824459","0.0-11.0-158.0","","","","false","","","","","","","","","","1000.7999999523163","","744.5999999046326","","1","0","arrowleft","0","arrowright","[0.325,0.675,0.85,0.15]","","",""
"sailing-trial","212","1829811","0.0-11.0-159.0","","","","false","","","","","","","","","","null","","2324.5999999046326","","0","0","null","null","arrowup","[0.325,0.675,0.85,0.15]","","",""
"sailing-trial","213","1836129","0.0-11.0-160.0","","","","false","","","","","","","","","","1627.0999999046326","","1099.5","","2","1","arrowright","1","arrowleft","[0.325,0.675,0.85,0.15]","","",""
"sailing-trial","214","1842508","0.0-11.0-161.0","","","","false","","","","","","","","","","null","","3353","","0","0","null","null","arrowup","[0.325,0.675,0.85,0.15]","","",""
"sailing-trial","215","1849005","0.0-11.0-162.0","","","","false","","","","","","","","","","2352.7999999523163","","102.70000004768372","","3","0","arrowright","1","arrowright","[0.325,0.675,0.85,0.15]","","",""
"sailing-trial","216","1853504","0.0-11.0-163.0","","","","false","","","","","","","","","","null","","1490.7999999523163","","3","0","null","null","arrowup","[0.325,0.675,0.85,0.15]","","",""
"sailing-trial","217","1859521","0.0-11.0-164.0","","","","false","","","","","","","","","","1356.5","","621.7999999523163","","1","1","arrowleft","0","arrowright","[0.325,0.675,0.85,0.15]","","",""
"sailing-trial","218","1865468","0.0-11.0-165.0","","","","false","","","","","","","","","","null","","2924.399999856949","","3","0","null","null","arrowup","[0.325,0.675,0.85,0.15]","","",""
"sailing-trial","219","1872167","0.0-11.0-166.0","","","","false","","","","","","","","","","2246.9000000953674","","926.2000000476837","","0","1","arrowleft","0","arrowleft","[0.675,0.325,0.15,0.85]","","",""
"sailing-trial","220","1877442","0.0-11.0-167.0","","","","false","","","","","","","","","","null","","2249.4000000953674","","0","0","null","null","arrowup","[0.675,0.325,0.15,0.85]","","",""
"sailing-trial","221","1883842","0.0-11.0-168.0","","","","false","","","","","","","","","","1916.0999999046326","","458.40000009536743","","1","0","arrowleft","0","arrowright","[0.675,0.325,0.15,0.85]","","",""
"sailing-trial","222","1889005","0.0-11.0-169.0","","","","false","","","","","","","","","","null","","2128.7999999523163","","0","0","null","null","arrowup","[0.675,0.325,0.15,0.85]","","",""
"sailing-trial","223","1897704","0.0-11.0-170.0","","","","false","","","","","","","","","","2939.4000000953674","","1596.5","","2","0","arrowright","1","arrowleft","[0.675,0.325,0.15,0.85]","","",""
"sailing-trial","224","1901604","0.0-11.0-171.0","","","","false","","","","","","","","","","null","","1421.7000000476837","","0","1","null","null","arrowup","[0.675,0.325,0.15,0.85]","","",""
"sailing-trial","225","1908224","0.0-11.0-172.0","","","","false","","","","","","","","","","3154.0999999046326","","29.199999809265137","","3","1","arrowright","1","arrowright","[0.675,0.325,0.15,0.85]","","",""
"sailing-trial","226","1911901","0.0-11.0-173.0","","","","false","","","","","","","","","","null","","1300.7000000476837","","0","1","null","null","arrowup","[0.675,0.325,0.15,0.85]","","",""
"sailing-trial","227","1917183","0.0-11.0-174.0","","","","false","","","","","","","","","","1418.2999999523163","","529.2000000476837","","3","1","arrowright","1","arrowright","[0.675,0.325,0.15,0.85]","","",""
"sailing-trial","228","1921729","0.0-11.0-175.0","","","","false","","","","","","","","","","null","","1494.0999999046326","","0","0","null","null","arrowup","[0.675,0.325,0.15,0.85]","","",""
"sailing-trial","229","1928826","0.0-11.0-176.0","","","","false","","","","","","","","","","2647.7000000476837","","406.40000009536743","","2","0","arrowright","1","arrowleft","[0.675,0.325,0.15,0.85]","","",""
"sailing-trial","230","1934143","0.0-11.0-177.0","","","","false","","","","","","","","","","null","","2746.600000143051","","1","1","null","null","arrowup","[0.675,0.325,0.15,0.85]","","",""
"sailing-trial","231","1941538","0.0-11.0-178.0","","","","false","","","","","","","","","","3157.7999999523163","","163.90000009536743","","0","0","arrowleft","0","arrowleft","[0.675,0.325,0.15,0.85]","","",""
"sailing-trial","232","1946355","0.0-11.0-179.0","","","","false","","","","","","","","","","null","","1783.2000000476837","","2","0","null","null","arrowup","[0.675,0.325,0.15,0.85]","","",""
"sailing-trial","233","1951371","0.0-11.0-180.0","","","","false","","","","","","","","","","1486.5999999046326","","109","","3","1","arrowright","1","arrowright","[0.675,0.325,0.15,0.85]","","",""
"sailing-trial","234","1956452","0.0-11.0-181.0","","","","false","","","","","","","","","","null","","2055.2000000476837","","2","0","null","null","arrowup","[0.675,0.325,0.15,0.85]","","",""
"sailing-trial","235","1963400","0.0-11.0-182.0","","","","false","","","","","","","","","","3093","","317.40000009536743","","0","1","arrowleft","0","arrowleft","[0.675,0.325,0.15,0.85]","","",""
"sailing-trial","236","1967432","0.0-11.0-183.0","","","","false","","","","","","","","","","null","","1623.7999999523163","","0","1","null","null","arrowup","[0.675,0.325,0.15,0.85]","","",""
"sailing-trial","237","1972544","0.0-11.0-184.0","","","","false","","","","","","","","","","953.7000000476837","","158.59999990463257","","1","0","arrowleft","0","arrowright","[0.675,0.325,0.15,0.85]","","",""
"sailing-trial","238","1978384","0.0-11.0-185.0","","","","false","","","","","","","","","","null","","3436.0999999046326","","0","1","null","null","arrowup","[0.675,0.325,0.15,0.85]","","",""
"sailing-trial","239","1984724","0.0-11.0-186.0","","","","false","","","","","","","","","","1765.5","","535.9000000953674","","1","0","arrowleft","0","arrowright","[0.675,0.325,0.15,0.85]","","",""
"sailing-trial","240","1989256","0.0-11.0-187.0","","","","false","","","","","","","","","","null","","1498.0999999046326","","1","0","null","null","arrowup","[0.675,0.325,0.15,0.85]","","",""
"sailing-trial","241","1996270","0.0-11.0-188.0","","","","false","","","","","","","","","","1851","","1108.5999999046326","","1","0","arrowleft","0","arrowright","[0.675,0.325,0.15,0.85]","","",""
"sailing-trial","242","1999657","0.0-11.0-189.0","","","","false","","","","","","","","","","null","","1376.3999998569489","","3","1","null","null","arrowup","[0.675,0.325,0.15,0.85]","","",""
"sailing-trial","243","2005069","0.0-11.0-190.0","","","","false","","","","","","","","","","818.3999998569489","","554","","1","0","arrowleft","0","arrowright","[0.85,0.15,0.325,0.675]","","",""
"sailing-trial","244","2009020","0.0-11.0-191.0","","","","false","","","","","","","","","","null","","1579.3999998569489","","3","1","null","null","arrowup","[0.85,0.15,0.325,0.675]","","",""
"sailing-trial","245","2014483","0.0-11.0-192.0","","","","false","","","","","","","","","","809.7000000476837","","626","","1","0","arrowleft","0","arrowright","[0.85,0.15,0.325,0.675]","","",""
"sailing-trial","246","2019381","0.0-11.0-193.0","","","","false","","","","","","","","","","null","","1857.9000000953674","","2","0","null","null","arrowup","[0.85,0.15,0.325,0.675]","","",""
"sailing-trial","247","2025617","0.0-11.0-194.0","","","","false","","","","","","","","","","2174.7999999523163","","630.8000001907349","","1","1","arrowleft","0","arrowright","[0.85,0.15,0.325,0.675]","","",""
"sailing-trial","248","2030880","0.0-11.0-195.0","","","","false","","","","","","","","","","null","","3154.5999999046326","","3","1","null","null","arrowup","[0.85,0.15,0.325,0.675]","","",""
"sailing-trial","249","2035994","0.0-11.0-196.0","","","","false","","","","","","","","","","813.2000000476837","","266.7000000476837","","1","0","arrowleft","0","arrowright","[0.85,0.15,0.325,0.675]","","",""
"sailing-trial","250","2040353","0.0-11.0-197.0","","","","false","","","","","","","","","","null","","1309.3999998569489","","0","0","null","null","arrowup","[0.85,0.15,0.325,0.675]","","",""
"sailing-trial","251","2045775","0.0-11.0-198.0","","","","false","","","","","","","","","","1526.5","","247.70000004768372","","3","1","arrowright","1","arrowright","[0.85,0.15,0.325,0.675]","","",""
"sailing-trial","252","2050203","0.0-11.0-199.0","","","","false","","","","","","","","","","null","","1404.2000000476837","","3","0","null","null","arrowup","[0.85,0.15,0.325,0.675]","","",""
"sailing-trial","253","2056617","0.0-11.0-200.0","","","","false","","","","","","","","","","2045.1000001430511","","327.39999985694885","","1","0","arrowleft","0","arrowright","[0.85,0.15,0.325,0.675]","","",""
"sailing-trial","254","2061716","0.0-11.0-201.0","","","","false","","","","","","","","","","null","","2064.7999999523163","","1","0","null","null","arrowup","[0.85,0.15,0.325,0.675]","","",""
"sailing-trial","255","2066900","0.0-11.0-202.0","","","","false","","","","","","","","","","1569.4000000953674","","105.70000004768372","","0","1","arrowleft","0","arrowleft","[0.85,0.15,0.325,0.675]","","",""
"sailing-trial","256","2071393","0.0-11.0-203.0","","","","false","","","","","","","","","","null","","1446","","0","0","null","null","arrowup","[0.85,0.15,0.325,0.675]","","",""
"sailing-trial","257","2086527","0.0-11.0-204.0","","","","false","","","","","","","","","","3555.0999999046326","","262.7999999523163","","2","1","arrowright","1","arrowleft","[0.85,0.15,0.325,0.675]","","",""
"sailing-trial","258","2091522","0.0-11.0-205.0","","","","false","","","","","","","","","","null","","1964.5999999046326","","1","0","null","null","arrowup","[0.85,0.15,0.325,0.675]","","",""
"sailing-trial","259","2099339","0.0-11.0-206.0","","","","false","","","","","","","","","","2817.800000190735","","1495","","0","1","arrowleft","0","arrowleft","[0.675,0.325,0.15,0.85]","","",""
"sailing-trial","260","2103444","0.0-11.0-207.0","","","","false","","","","","","","","","","null","","1561.3999998569489","","0","1","null","null","arrowup","[0.675,0.325,0.15,0.85]","","",""
"sailing-trial","261","2108631","0.0-11.0-208.0","","","","false","","","","","","","","","","1002.2999999523163","","139","","3","0","arrowright","1","arrowright","[0.675,0.325,0.15,0.85]","","",""
"sailing-trial","262","2112384","0.0-11.0-209.0","","","","false","","","","","","","","","","null","","1352.7999999523163","","3","1","null","null","arrowup","[0.675,0.325,0.15,0.85]","","",""
"sailing-trial","263","2117483","0.0-11.0-210.0","","","","false","","","","","","","","","","1229.5","","511.10000014305115","","1","1","arrowleft","0","arrowright","[0.675,0.325,0.15,0.85]","","",""
"sailing-trial","264","2121896","0.0-11.0-211.0","","","","false","","","","","","","","","","null","","1356.2000000476837","","2","0","null","null","arrowup","[0.675,0.325,0.15,0.85]","","",""
"sailing-trial","265","2127423","0.0-11.0-212.0","","","","false","","","","","","","","","","1182.7000000476837","","277.5","","2","0","arrowright","1","arrowleft","[0.675,0.325,0.15,0.85]","","",""
"sailing-trial","266","2131767","0.0-11.0-213.0","","","","false","","","","","","","","","","null","","1306.2999999523163","","2","0","null","null","arrowup","[0.675,0.325,0.15,0.85]","","",""
"sailing-trial","267","2137976","0.0-11.0-214.0","","","","false","","","","","","","","","","2088","","473.7000000476837","","3","1","arrowright","1","arrowright","[0.675,0.325,0.15,0.85]","","",""
"sailing-trial","268","2143157","0.0-11.0-215.0","","","","false","","","","","","","","","","null","","2658.2000000476837","","3","1","null","null","arrowup","[0.675,0.325,0.15,0.85]","","",""
"sailing-trial","269","2147598","0.0-11.0-216.0","","","","false","","","","","","","","","","741.5","","147.20000004768372","","3","1","arrowright","1","arrowright","[0.675,0.325,0.15,0.85]","","",""
"sailing-trial","270","2151588","0.0-11.0-217.0","","","","false","","","","","","","","","","null","","1646.7000000476837","","2","1","null","null","arrowup","[0.675,0.325,0.15,0.85]","","",""
"sailing-trial","271","2156634","0.0-11.0-218.0","","","","false","","","","","","","","","","844.2999999523163","","150.09999990463257","","3","0","arrowright","1","arrowright","[0.675,0.325,0.15,0.85]","","",""
"sailing-trial","272","2160884","0.0-11.0-219.0","","","","false","","","","","","","","","","null","","1223.0999999046326","","1","0","null","null","arrowup","[0.675,0.325,0.15,0.85]","","",""
"sailing-trial","273","2166955","0.0-11.0-220.0","","","","false","","","","","","","","","","1257.2999999523163","","106.40000009536743","","3","1","arrowright","1","arrowright","[0.675,0.325,0.15,0.85]","","",""
"sailing-trial","274","2170767","0.0-11.0-221.0","","","","false","","","","","","","","","","null","","1726.5","","3","1","null","null","arrowup","[0.675,0.325,0.15,0.85]","","",""
"sailing-trial","275","2174964","0.0-11.0-222.0","","","","false","","","","","","","","","","815.4000000953674","","92.10000014305115","","3","1","arrowright","1","arrowright","[0.85,0.15,0.325,0.675]","","",""
"sailing-trial","276","2178446","0.0-11.0-223.0","","","","false","","","","","","","","","","null","","1358.5","","0","1","null","null","arrowup","[0.85,0.15,0.325,0.675]","","",""
"sailing-trial","277","2184227","0.0-11.0-224.0","","","","false","","","","","","","","","","956","","1164.0999999046326","","3","1","arrowright","1","arrowright","[0.85,0.15,0.325,0.675]","","",""
"sailing-trial","278","2187942","0.0-11.0-225.0","","","","false","","","","","","","","","","null","","1497.8999998569489","","0","1","null","null","arrowup","[0.85,0.15,0.325,0.675]","","",""
"sailing-trial","279","2193118","0.0-11.0-226.0","","","","false","","","","","","","","","","832","","317.5","","3","0","arrowright","1","arrowright","[0.85,0.15,0.325,0.675]","","",""
"sailing-trial","280","2196494","0.0-11.0-227.0","","","","false","","","","","","","","","","null","","1212.2999999523163","","0","1","null","null","arrowup","[0.85,0.15,0.325,0.675]","","",""
"sailing-trial","281","2201820","0.0-11.0-228.0","","","","false","","","","","","","","","","1347.5","","604.2999999523163","","1","1","arrowleft","0","arrowright","[0.85,0.15,0.325,0.675]","","",""
"sailing-trial","282","2206368","0.0-11.0-229.0","","","","false","","","","","","","","","","null","","1512.2000000476837","","2","0","null","null","arrowup","[0.85,0.15,0.325,0.675]","","",""
"sailing-trial","283","2212988","0.0-11.0-230.0","","","","false","","","","","","","","","","2097.899999856949","","1351.7999999523163","","0","1","arrowleft","0","arrowleft","[0.85,0.15,0.325,0.675]","","",""
"sailing-trial","284","2216899","0.0-11.0-231.0","","","","false","","","","","","","","","","null","","1417.6999998092651","","2","1","null","null","arrowup","[0.85,0.15,0.325,0.675]","","",""
"sailing-trial","285","2222028","0.0-11.0-232.0","","","","false","","","","","","","","","","691.5","","352.60000014305115","","3","0","arrowright","1","arrowright","[0.85,0.15,0.325,0.675]","","",""
"sailing-trial","286","2226445","0.0-11.0-233.0","","","","false","","","","","","","","","","null","","1403.8999998569489","","1","0","null","null","arrowup","[0.85,0.15,0.325,0.675]","","",""
"sailing-trial","287","2232584","0.0-11.0-234.0","","","","false","","","","","","","","","","1380.2999999523163","","720.3999998569489","","1","0","arrowleft","0","arrowright","[0.85,0.15,0.325,0.675]","","",""
"sailing-trial","288","2236760","0.0-11.0-235.0","","","","false","","","","","","","","","","null","","1674.1999998092651","","2","1","null","null","arrowup","[0.85,0.15,0.325,0.675]","","",""
"sailing-trial","289","2244357","0.0-11.0-236.0","","","","false","","","","","","","","","","3849.5","","246.59999990463257","","3","1","arrowright","1","arrowright","[0.85,0.15,0.325,0.675]","","",""
"sailing-trial","290","2248571","0.0-11.0-237.0","","","","false","","","","","","","","","","null","","1191.0999999046326","","1","0","null","null","arrowup","[0.85,0.15,0.325,0.675]","","",""
"sailing-trial","291","2255303","0.0-11.0-238.0","","","","false","","","","","","","","","","932.3000001907349","","2218.899999856949","","3","1","arrowright","1","arrowright","[0.85,0.15,0.325,0.675]","","",""
"sailing-trial","292","2259651","0.0-11.0-239.0","","","","false","","","","","","","","","","null","","1539.5","","0","1","null","null","arrowup","[0.85,0.15,0.325,0.675]","","",""
"sailing-trial","293","2265550","0.0-11.0-240.0","","","","false","","","","","","","","","","1581.5","","786.1999998092651","","3","1","arrowright","1","arrowright","[0.85,0.15,0.325,0.675]","","",""
"sailing-trial","294","2270612","0.0-11.0-241.0","","","","false","","","","","","","","","","null","","2026.3999998569489","","2","0","null","null","arrowup","[0.85,0.15,0.325,0.675]","","",""
"sailing-trial","295","2275212","0.0-11.0-242.0","","","","false","","","","","","","","","","768.2000000476837","","390.7000000476837","","3","1","arrowright","1","arrowright","[0.675,0.325,0.15,0.85]","","",""
"sailing-trial","296","2280042","0.0-11.0-243.0","","","","false","","","","","","","","","","null","","1789.7999999523163","","1","0","null","null","arrowup","[0.675,0.325,0.15,0.85]","","",""
"sailing-trial","297","2284993","0.0-11.0-244.0","","","","false","","","","","","","","","","876.4000000953674","","549.0999999046326","","3","1","arrowright","1","arrowright","[0.675,0.325,0.15,0.85]","","",""
"sailing-trial","298","2290404","0.0-11.0-245.0","","","","false","","","","","","","","","","null","","2377.899999856949","","1","0","null","null","arrowup","[0.675,0.325,0.15,0.85]","","",""
"sailing-trial","299","2295627","0.0-11.0-246.0","","","","false","","","","","","","","","","1186","","593.4000000953674","","3","1","arrowright","1","arrowright","[0.675,0.325,0.15,0.85]","","",""
"sailing-trial","300","2300085","0.0-11.0-247.0","","","","false","","","","","","","","","","null","","1420.1000001430511","","1","0","null","null","arrowup","[0.675,0.325,0.15,0.85]","","",""
"sailing-trial","301","2304887","0.0-11.0-248.0","","","","false","","","","","","","","","","1098.0999999046326","","164.60000014305115","","3","1","arrowright","1","arrowright","[0.675,0.325,0.15,0.85]","","",""
"sailing-trial","302","2309946","0.0-11.0-249.0","","","","false","","","","","","","","","","null","","2035.7999999523163","","3","0","null","null","arrowup","[0.675,0.325,0.15,0.85]","","",""
"sailing-trial","303","2321431","0.0-11.0-250.0","","","","false","","","","","","","","","","1545.5","","6157.5","","1","1","arrowleft","0","arrowright","[0.675,0.325,0.15,0.85]","","",""
"sailing-trial","304","2325134","0.0-11.0-251.0","","","","false","","","","","","","","","","null","","1651.2000000476837","","3","1","null","null","arrowup","[0.675,0.325,0.15,0.85]","","",""
"sailing-trial","305","2330241","0.0-11.0-252.0","","","","false","","","","","","","","","","823.8999998569489","","235.30000019073486","","0","0","arrowleft","0","arrowleft","[0.675,0.325,0.15,0.85]","","",""
"sailing-trial","306","2335393","0.0-11.0-253.0","","","","false","","","","","","","","","","null","","2220.100000143051","","0","1","null","null","arrowup","[0.675,0.325,0.15,0.85]","","",""
"sailing-trial","307","2344681","0.0-11.0-254.0","","","","false","","","","","","","","","","1074","","3268","","0","1","arrowleft","0","arrowleft","[0.675,0.325,0.15,0.85]","","",""
"sailing-trial","308","2348405","0.0-11.0-255.0","","","","false","","","","","","","","","","null","","1614.0999999046326","","1","1","null","null","arrowup","[0.675,0.325,0.15,0.85]","","",""
"sailing-trial","309","2354503","0.0-11.0-256.0","","","","false","","","","","","","","","","755.5","","2343.9000000953674","","0","1","arrowleft","0","arrowleft","[0.675,0.325,0.15,0.85]","","",""
"sailing-trial","310","2358568","0.0-11.0-257.0","","","","false","","","","","","","","","","null","","1790.5999999046326","","3","1","null","null","arrowup","[0.675,0.325,0.15,0.85]","","",""
"sailing-trial","311","2364030","0.0-11.0-258.0","","","","false","","","","","","","","","","1514.5999999046326","","187.39999985694885","","0","1","arrowleft","0","arrowleft","[0.675,0.325,0.15,0.85]","","",""
"sailing-trial","312","2369325","0.0-11.0-259.0","","","","false","","","","","","","","","","null","","2265.5","","2","0","null","null","arrowup","[0.675,0.325,0.15,0.85]","","",""
"sailing-trial","313","2373909","0.0-11.0-260.0","","","","false","","","","","","","","","","1069.4000000953674","","111.90000009536743","","3","1","arrowright","1","arrowright","[0.675,0.325,0.15,0.85]","","",""
"sailing-trial","314","2377732","0.0-11.0-261.0","","","","false","","","","","","","","","","null","","1491.7999999523163","","0","1","null","null","arrowup","[0.675,0.325,0.15,0.85]","","",""
"sailing-trial","315","2382986","0.0-11.0-262.0","","","","false","","","","","","","","","","784.5999999046326","","437.5","","3","0","arrowright","1","arrowright","[0.15,0.85,0.675,0.325]","","",""
"sailing-trial","316","2386885","0.0-11.0-263.0","","","","false","","","","","","","","","","null","","872.2999999523163","","1","0","null","null","arrowup","[0.15,0.85,0.675,0.325]","","",""
"sailing-trial","317","2392400","0.0-11.0-264.0","","","","false","","","","","","","","","","1219.5","","274.2000000476837","","3","0","arrowright","1","arrowright","[0.15,0.85,0.675,0.325]","","",""
"sailing-trial","318","2397731","0.0-11.0-265.0","","","","false","","","","","","","","","","null","","2308.5","","0","0","null","null","arrowup","[0.15,0.85,0.675,0.325]","","",""
"sailing-trial","319","2403874","0.0-11.0-266.0","","","","false","","","","","","","","","","729.0999999046326","","1347.5999999046326","","3","0","arrowright","1","arrowright","[0.15,0.85,0.675,0.325]","","",""
"sailing-trial","320","2407796","0.0-11.0-267.0","","","","false","","","","","","","","","","null","","897.8999998569489","","2","0","null","null","arrowup","[0.15,0.85,0.675,0.325]","","",""
"sailing-trial","321","2412296","0.0-11.0-268.0","","","","false","","","","","","","","","","789.0999999046326","","49.89999985694885","","3","1","arrowright","1","arrowright","[0.15,0.85,0.675,0.325]","","",""
"sailing-trial","322","2416474","0.0-11.0-269.0","","","","false","","","","","","","","","","null","","1158","","3","0","null","null","arrowup","[0.15,0.85,0.675,0.325]","","",""
"sailing-trial","323","2430473","0.0-11.0-270.0","","","","false","","","","","","","","","","8317.799999952316","","1535","","1","0","arrowleft","0","arrowright","[0.15,0.85,0.675,0.325]","","",""
"sailing-trial","324","2448516","0.0-11.0-271.0","","","","true","","","","","","","","","","null","","3021.0999999046326","","0","1","null","null","arrowup","[0.15,0.85,0.675,0.325]","","",""
"sailing-trial","325","2456330","0.0-11.0-272.0","","","","false","","","","","","","","","","2483.199999809265","","1266","","0","0","arrowleft","0","arrowleft","[0.15,0.85,0.675,0.325]","","",""
"sailing-trial","326","2460802","0.0-11.0-273.0","","","","false","","","","","","","","","","null","","1432.9000000953674","","0","0","null","null","arrowup","[0.15,0.85,0.675,0.325]","","",""
"sailing-trial","327","2465850","0.0-11.0-274.0","","","","false","","","","","","","","","","744.1999998092651","","182.29999995231628","","3","0","arrowright","1","arrowright","[0.15,0.85,0.675,0.325]","","",""
"sailing-trial","328","2469830","0.0-11.0-275.0","","","","false","","","","","","","","","","null","","1477.1000001430511","","1","1","null","null","arrowup","[0.15,0.85,0.675,0.325]","","",""
"sailing-trial","329","2474827","0.0-11.0-276.0","","","","false","","","","","","","","","","1592.6999998092651","","61.59999990463257","","3","1","arrowright","1","arrowright","[0.15,0.85,0.675,0.325]","","",""
"sailing-trial","330","2481971","0.0-11.0-277.0","","","","false","","","","","","","","","","null","","4093","","0","0","null","null","arrowup","[0.15,0.85,0.675,0.325]","","",""
"sailing-trial","331","2489037","0.0-11.0-278.0","","","","false","","","","","","","","","","924.8999998569489","","2112.2999999523163","","3","0","arrowright","1","arrowright","[0.15,0.85,0.675,0.325]","","",""
"sailing-trial","332","2493702","0.0-11.0-279.0","","","","false","","","","","","","","","","null","","1632.5999999046326","","2","0","null","null","arrowup","[0.15,0.85,0.675,0.325]","","",""
"sailing-trial","333","2499166","0.0-11.0-280.0","","","","false","","","","","","","","","","798.6000001430511","","640.1000001430511","","1","0","arrowleft","0","arrowright","[0.85,0.15,0.325,0.675]","","",""
"sailing-trial","334","2503900","0.0-11.0-281.0","","","","false","","","","","","","","","","null","","1677.6000001430511","","2","0","null","null","arrowup","[0.85,0.15,0.325,0.675]","","",""
"sailing-trial","335","2508916","0.0-11.0-282.0","","","","false","","","","","","","","","","1323","","202.40000009536743","","0","1","arrowleft","0","arrowleft","[0.85,0.15,0.325,0.675]","","",""
"sailing-trial","336","2515173","0.0-11.0-283.0","","","","false","","","","","","","","","","null","","3227.5","","2","0","null","null","arrowup","[0.85,0.15,0.325,0.675]","","",""
"sailing-trial","337","2525910","0.0-11.0-284.0","","","","false","","","","","","","","","","6136.899999856949","","449.7999999523163","","2","1","arrowright","1","arrowleft","[0.85,0.15,0.325,0.675]","","",""
"sailing-trial","338","2530706","0.0-11.0-285.0","","","","false","","","","","","","","","","null","","1757.5","","3","0","null","null","arrowup","[0.85,0.15,0.325,0.675]","","",""
"sailing-trial","339","2540572","0.0-11.0-286.0","","","","false","","","","","","","","","","6296.200000047684","","284.09999990463257","","3","1","arrowright","1","arrowright","[0.85,0.15,0.325,0.675]","","",""
"sailing-trial","340","2545186","0.0-11.0-287.0","","","","false","","","","","","","","","","null","","1574.1999998092651","","1","0","null","null","arrowup","[0.85,0.15,0.325,0.675]","","",""
"sailing-trial","341","2550007","0.0-11.0-288.0","","","","false","","","","","","","","","","1048.7999999523163","","404.89999985694885","","3","1","arrowright","1","arrowright","[0.85,0.15,0.325,0.675]","","",""
"sailing-trial","342","2553751","0.0-11.0-289.0","","","","false","","","","","","","","","","null","","1538","","3","1","null","null","arrowup","[0.85,0.15,0.325,0.675]","","",""
"sailing-trial","343","2558832","0.0-11.0-290.0","","","","false","","","","","","","","","","785.7999999523163","","1045.8999998569489","","3","1","arrowright","1","arrowright","[0.85,0.15,0.325,0.675]","","",""
"sailing-trial","344","2562241","0.0-11.0-291.0","","","","false","","","","","","","","","","null","","1663.2999999523163","","1","0","null","null","arrowup","[0.85,0.15,0.325,0.675]","","",""
"sailing-trial","345","2571661","0.0-11.0-292.0","","","","false","","","","","","","","","","6051.899999856949","","38.5","","0","1","arrowleft","0","arrowleft","[0.85,0.15,0.325,0.675]","","",""
"sailing-trial","346","2576943","0.0-11.0-293.0","","","","false","","","","","","","","","","null","","3194.2999999523163","","3","1","null","null","arrowup","[0.85,0.15,0.325,0.675]","","",""
"sailing-trial","347","2581075","0.0-11.0-294.0","","","","false","","","","","","","","","","916.5","","25.100000143051147","","0","1","arrowleft","0","arrowleft","[0.85,0.15,0.325,0.675]","","",""
"sailing-trial","348","2584177","0.0-11.0-295.0","","","","false","","","","","","","","","","null","","1179.2000000476837","","3","1","null","null","arrowup","[0.85,0.15,0.325,0.675]","","",""
"sailing-trial","349","2588939","0.0-11.0-296.0","","","","false","","","","","","","","","","986","","518.8000001907349","","0","1","arrowleft","0","arrowleft","[0.675,0.325,0.15,0.85]","","",""
"sailing-trial","350","2595085","0.0-11.0-297.0","","","","false","","","","","","","","","","null","","3117.9000000953674","","1","0","null","null","arrowup","[0.675,0.325,0.15,0.85]","","",""
"sailing-trial","351","2599918","0.0-11.0-298.0","","","","false","","","","","","","","","","1669.7999999523163","","120.5","","0","1","arrowleft","0","arrowleft","[0.675,0.325,0.15,0.85]","","",""
"sailing-trial","352","2603049","0.0-11.0-299.0","","","","false","","","","","","","","","","null","","1067.2999999523163","","1","1","null","null","arrowup","[0.675,0.325,0.15,0.85]","","",""
"sailing-trial","353","2607881","0.0-11.0-300.0","","","","false","","","","","","","","","","727.7999999523163","","78.09999990463257","","0","0","arrowleft","0","arrowleft","[0.675,0.325,0.15,0.85]","","",""
"sailing-trial","354","2612005","0.0-11.0-301.0","","","","false","","","","","","","","","","null","","1092.5999999046326","","2","0","null","null","arrowup","[0.675,0.325,0.15,0.85]","","",""
"sailing-trial","355","2617559","0.0-11.0-302.0","","","","false","","","","","","","","","","1309.7999999523163","","226.90000009536743","","0","0","arrowleft","0","arrowleft","[0.675,0.325,0.15,0.85]","","",""
"sailing-trial","356","2621401","0.0-11.0-303.0","","","","false","","","","","","","","","","null","","778.3000001907349","","0","0","null","null","arrowup","[0.675,0.325,0.15,0.85]","","",""
"sailing-trial","357","2626699","0.0-11.0-304.0","","","","false","","","","","","","","","","954","","83.19999980926514","","0","1","arrowleft","0","arrowleft","[0.675,0.325,0.15,0.85]","","",""
"sailing-trial","358","2631947","0.0-11.0-305.0","","","","false","","","","","","","","","","null","","2227.5","","2","0","null","null","arrowup","[0.675,0.325,0.15,0.85]","","",""
"sailing-trial","359","2639756","0.0-11.0-306.0","","","","false","","","","","","","","","","2781","","1647.2000000476837","","3","1","arrowright","1","arrowright","[0.675,0.325,0.15,0.85]","","",""
"sailing-trial","360","2642671","0.0-11.0-307.0","","","","false","","","","","","","","","","null","","989.0999999046326","","1","1","null","null","arrowup","[0.675,0.325,0.15,0.85]","","",""
"sailing-trial","361","2646204","0.0-11.0-308.0","","","","false","","","","","","","","","","591.9000000953674","","19.5","","3","1","arrowright","1","arrowright","[0.675,0.325,0.15,0.85]","","",""
"sailing-trial","362","2649469","0.0-11.0-309.0","","","","false","","","","","","","","","","null","","1291","","0","1","null","null","arrowup","[0.675,0.325,0.15,0.85]","","",""
"sailing-trial","363","2655467","0.0-11.0-310.0","","","","false","","","","","","","","","","671.0999999046326","","2255.100000143051","","3","1","arrowright","1","arrowright","[0.675,0.325,0.15,0.85]","","",""
"sailing-trial","364","2659458","0.0-11.0-311.0","","","","false","","","","","","","","","","null","","987.4000000953674","","2","0","null","null","arrowup","[0.675,0.325,0.15,0.85]","","",""
"sailing-trial","365","2663219","0.0-11.0-312.0","","","","false","","","","","","","","","","664.0999999046326","","116.89999985694885","","3","1","arrowright","1","arrowright","[0.675,0.325,0.15,0.85]","","",""
"sailing-trial","366","2667294","0.0-11.0-313.0","","","","false","","","","","","","","","","null","","1057.6000001430511","","0","0","null","null","arrowup","[0.675,0.325,0.15,0.85]","","",""
"sailing-trial","367","2673870","0.0-11.0-314.0","","","","false","","","","","","","","","","2547.2999999523163","","763.7000000476837","","3","1","arrowright","1","arrowright","[0.85,0.15,0.325,0.675]","","",""
"sailing-trial","368","2678995","0.0-11.0-315.0","","","","false","","","","","","","","","","null","","2086.4000000953674","","2","0","null","null","arrowup","[0.85,0.15,0.325,0.675]","","",""
"sailing-trial","369","2683317","0.0-11.0-316.0","","","","false","","","","","","","","","","774","","344","","3","1","arrowright","1","arrowright","[0.85,0.15,0.325,0.675]","","",""
"sailing-trial","370","2687772","0.0-11.0-317.0","","","","false","","","","","","","","","","null","","1423","","2","0","null","null","arrowup","[0.85,0.15,0.325,0.675]","","",""
"sailing-trial","371","2692218","0.0-11.0-318.0","","","","false","","","","","","","","","","887","","237.30000019073486","","3","1","arrowright","1","arrowright","[0.85,0.15,0.325,0.675]","","",""
"sailing-trial","372","2697767","0.0-11.0-319.0","","","","false","","","","","","","","","","null","","1713.4000000953674","","2","1","null","null","arrowup","[0.85,0.15,0.325,0.675]","","",""
"sailing-trial","373","2702596","0.0-11.0-320.0","","","","false","","","","","","","","","","1112.5","","490.09999990463257","","3","1","arrowright","1","arrowright","[0.85,0.15,0.325,0.675]","","",""
"sailing-trial","374","2706182","0.0-11.0-321.0","","","","false","","","","","","","","","","null","","1586.1000001430511","","0","1","null","null","arrowup","[0.85,0.15,0.325,0.675]","","",""
"sailing-trial","375","2711507","0.0-11.0-322.0","","","","false","","","","","","","","","","721.5","","489.60000014305115","","3","0","arrowright","1","arrowright","[0.85,0.15,0.325,0.675]","","",""
"sailing-trial","376","2720002","0.0-11.0-323.0","","","","false","","","","","","","","","","null","","5460.899999856949","","2","0","null","null","arrowup","[0.85,0.15,0.325,0.675]","","",""
"sailing-trial","377","2726186","0.0-11.0-324.0","","","","false","","","","","","","","","","2485.2000000476837","","147.10000014305115","","3","1","arrowright","1","arrowright","[0.85,0.15,0.325,0.675]","","",""
"sailing-trial","378","2735939","0.0-11.0-325.0","","","","false","","","","","","","","","","null","","7150.799999952316","","0","1","null","null","arrowup","[0.85,0.15,0.325,0.675]","","",""
"sailing-trial","379","2742453","0.0-11.0-326.0","","","","false","","","","","","","","","","2289.5","","643.9000000953674","","3","1","arrowright","1","arrowright","[0.85,0.15,0.325,0.675]","","",""
"sailing-trial","380","2746817","0.0-11.0-327.0","","","","false","","","","","","","","","","null","","1949.7000000476837","","3","1","null","null","arrowup","[0.85,0.15,0.325,0.675]","","",""
"sailing-trial","381","2752479","0.0-11.0-328.0","","","","false","","","","","","","","","","997.2999999523163","","554.1000001430511","","1","0","arrowleft","0","arrowright","[0.85,0.15,0.325,0.675]","","",""
"sailing-trial","382","2757348","0.0-11.0-329.0","","","","false","","","","","","","","","","null","","2270.9000000953674","","0","1","null","null","arrowup","[0.85,0.15,0.325,0.675]","","",""
"sailing-trial","383","2763025","0.0-11.0-330.0","","","","false","","","","","","","","","","1423.5999999046326","","163.90000009536743","","2","0","arrowright","1","arrowleft","[0.85,0.15,0.325,0.675]","","",""
"sailing-trial","384","2768190","0.0-11.0-331.0","","","","false","","","","","","","","","","null","","2130.5999999046326","","1","0","null","null","arrowup","[0.85,0.15,0.325,0.675]","","",""
"sailing-trial","385","2779141","0.0-11.0-332.0","","","","false","","","","","","","","","","3260","","2491.100000143051","","3","1","arrowright","1","arrowright","[0.675,0.325,0.15,0.85]","","",""
"sailing-trial","386","2785388","0.0-11.0-333.0","","","","false","","","","","","","","","","null","","2785","","3","1","null","null","arrowup","[0.675,0.325,0.15,0.85]","","",""
"sailing-trial","387","2793782","0.0-11.0-334.0","","","","false","","","","","","","","","","2674.5","","1657.2000000476837","","2","0","arrowright","1","arrowleft","[0.675,0.325,0.15,0.85]","","",""
"sailing-trial","388","2802765","0.0-11.0-335.0","","","","false","","","","","","","","","","null","","5943.100000143051","","2","0","null","null","arrowup","[0.675,0.325,0.15,0.85]","","",""
"sailing-trial","389","2810347","0.0-11.0-336.0","","","","false","","","","","","","","","","3458.5999999046326","","648.0999999046326","","0","1","arrowleft","0","arrowleft","[0.675,0.325,0.15,0.85]","","",""
"sailing-trial","390","2814644","0.0-11.0-337.0","","","","false","","","","","","","","","","null","","1281.2999999523163","","3","0","null","null","arrowup","[0.675,0.325,0.15,0.85]","","",""
"sailing-trial","391","2822724","0.0-11.0-338.0","","","","false","","","","","","","","","","777","","3234.7999999523163","","0","0","arrowleft","0","arrowleft","[0.675,0.325,0.15,0.85]","","",""
"sailing-trial","392","2826922","0.0-11.0-339.0","","","","false","","","","","","","","","","null","","1173.2000000476837","","1","0","null","null","arrowup","[0.675,0.325,0.15,0.85]","","",""
"sailing-trial","393","2831936","0.0-11.0-340.0","","","","false","","","","","","","","","","754.5","","231.69999980926514","","2","0","arrowright","1","arrowleft","[0.675,0.325,0.15,0.85]","","",""
"sailing-trial","394","2836921","0.0-11.0-341.0","","","","false","","","","","","","","","","null","","1926.5","","2","0","null","null","arrowup","[0.675,0.325,0.15,0.85]","","",""
"sailing-trial","395","2851165","0.0-11.0-342.0","","","","false","","","","","","","","","","6992.900000095367","","3213.5","","0","0","arrowleft","0","arrowleft","[0.675,0.325,0.15,0.85]","","",""
"sailing-trial","396","2860011","0.0-11.0-343.0","","","","false","","","","","","","","","","null","","5820.799999952316","","0","0","null","null","arrowup","[0.675,0.325,0.15,0.85]","","",""
"sailing-trial","397","2874294","0.0-11.0-344.0","","","","false","","","","","","","","","","2057.7000000476837","","1105","","0","1","arrowleft","0","arrowleft","[0.675,0.325,0.15,0.85]","","",""
"sailing-trial","398","2879244","0.0-11.0-345.0","","","","false","","","","","","","","","","null","","2737.5","","3","1","null","null","arrowup","[0.675,0.325,0.15,0.85]","","",""
"sailing-trial","399","2886521","0.0-11.0-346.0","","","","false","","","","","","","","","","409.2000000476837","","3415.399999856949","","3","1","arrowright","1","arrowright","[0.675,0.325,0.15,0.85]","","",""
"sailing-trial","400","2890203","0.0-11.0-347.0","","","","false","","","","","","","","","","null","","1490.5","","3","1","null","null","arrowup","[0.675,0.325,0.15,0.85]","","",""
"sailing-trial","401","2894351","0.0-11.0-348.0","","","","false","","","","","","","","","","610.7999999523163","","87.20000004768372","","2","1","arrowright","1","arrowleft","[0.15,0.85,0.675,0.325]","","",""
"sailing-trial","402","2899297","0.0-11.0-349.0","","","","false","","","","","","","","","","null","","1898.0999999046326","","3","0","null","null","arrowup","[0.15,0.85,0.675,0.325]","","",""
"sailing-trial","403","2906881","0.0-11.0-350.0","","","","false","","","","","","","","","","3621.7999999523163","","243.80000019073486","","1","1","arrowleft","0","arrowright","[0.15,0.85,0.675,0.325]","","",""
"sailing-trial","404","2912210","0.0-11.0-351.0","","","","false","","","","","","","","","","null","","2311.5999999046326","","1","0","null","null","arrowup","[0.15,0.85,0.675,0.325]","","",""
"sailing-trial","405","2918877","0.0-11.0-352.0","","","","false","","","","","","","","","","3346.5999999046326","","217.10000014305115","","2","1","arrowright","1","arrowleft","[0.15,0.85,0.675,0.325]","","",""
"sailing-trial","406","2923176","0.0-11.0-353.0","","","","false","","","","","","","","","","null","","2179.5","","1","1","null","null","arrowup","[0.15,0.85,0.675,0.325]","","",""
"sailing-trial","407","2928588","0.0-11.0-354.0","","","","false","","","","","","","","","","706.5","","662.8999998569489","","3","0","arrowright","1","arrowright","[0.15,0.85,0.675,0.325]","","",""
"sailing-trial","408","2932156","0.0-11.0-355.0","","","","false","","","","","","","","","","null","","1314.3999998569489","","1","1","null","null","arrowup","[0.15,0.85,0.675,0.325]","","",""
"sailing-trial","409","2937143","0.0-11.0-356.0","","","","false","","","","","","","","","","1783.8999998569489","","125","","1","1","arrowleft","0","arrowright","[0.15,0.85,0.675,0.325]","","",""
"sailing-trial","410","2943033","0.0-11.0-357.0","","","","false","","","","","","","","","","null","","2864.2000000476837","","0","0","null","null","arrowup","[0.15,0.85,0.675,0.325]","","",""
"sailing-trial","411","2948168","0.0-11.0-358.0","","","","false","","","","","","","","","","1234.4000000953674","","852.7000000476837","","1","1","arrowleft","0","arrowright","[0.15,0.85,0.675,0.325]","","",""
"sailing-trial","412","2951549","0.0-11.0-359.0","","","","false","","","","","","","","","","null","","1320.2999999523163","","1","1","null","null","arrowup","[0.15,0.85,0.675,0.325]","","",""
"sailing-trial","413","2956853","0.0-11.0-360.0","","","","false","","","","","","","","","","782.2999999523163","","1354.3999998569489","","2","1","arrowright","1","arrowleft","[0.15,0.85,0.675,0.325]","","",""
"sailing-trial","414","2960977","0.0-11.0-361.0","","","","false","","","","","","","","","","null","","1103.8999998569489","","1","0","null","null","arrowup","[0.15,0.85,0.675,0.325]","","",""
"sailing-trial","415","2967927","0.0-11.0-362.0","","","","false","","","","","","","","","","3389.7000000476837","","396","","1","1","arrowleft","0","arrowright","[0.15,0.85,0.675,0.325]","","",""
"sailing-trial","416","2977701","0.0-11.0-363.0","","","","false","","","","","","","","","","null","","6747.100000143051","","3","0","null","null","arrowup","[0.15,0.85,0.675,0.325]","","",""
"sailing-trial","417","2992712","0.0-11.0-364.0","","","","true","","","","","","","","","","null","","null","","null","null","null","null","null","[0.325,0.675,0.85,0.15]","","",""
"sailing-trial","418","2999439","0.0-11.0-365.0","","","","false","","","","","","","","","","null","","3704.5","","3","0","null","null","arrowup","[0.325,0.675,0.85,0.15]","","",""
"sailing-trial","419","3008675","0.0-11.0-366.0","","","","false","","","","","","","","","","1570.7000000476837","","3400.7999999523163","","3","0","arrowright","1","arrowright","[0.325,0.675,0.85,0.15]","","",""
"sailing-trial","420","3014164","0.0-11.0-367.0","","","","false","","","","","","","","","","null","","2353.399999856949","","1","1","null","null","arrowup","[0.325,0.675,0.85,0.15]","","",""
"sailing-trial","421","3019342","0.0-11.0-368.0","","","","false","","","","","","","","","","1376.4000000953674","","162.90000009536743","","3","1","arrowright","1","arrowright","[0.325,0.675,0.85,0.15]","","",""
"sailing-trial","422","3023124","0.0-11.0-369.0","","","","false","","","","","","","","","","null","","1376.7999999523163","","1","1","null","null","arrowup","[0.325,0.675,0.85,0.15]","","",""
"sailing-trial","423","3029160","0.0-11.0-370.0","","","","false","","","","","","","","","","751.5","","1649.2999999523163","","3","1","arrowright","1","arrowright","[0.325,0.675,0.85,0.15]","","",""
"sailing-trial","424","3033054","0.0-11.0-371.0","","","","false","","","","","","","","","","null","","1862.8999998569489","","0","1","null","null","arrowup","[0.325,0.675,0.85,0.15]","","",""
"sailing-trial","425","3039911","0.0-11.0-372.0","","","","false","","","","","","","","","","1245.6000001430511","","1565.5999999046326","","3","0","arrowright","1","arrowright","[0.325,0.675,0.85,0.15]","","",""
"sailing-trial","426","3044233","0.0-11.0-373.0","","","","false","","","","","","","","","","null","","1977.7000000476837","","1","1","null","null","arrowup","[0.325,0.675,0.85,0.15]","","",""
"sailing-trial","427","3049851","0.0-11.0-374.0","","","","false","","","","","","","","","","1319.7999999523163","","675.2000000476837","","2","1","arrowright","1","arrowleft","[0.325,0.675,0.85,0.15]","","",""
"sailing-trial","428","3053964","0.0-11.0-375.0","","","","false","","","","","","","","","","null","","1363.8000001907349","","3","1","null","null","arrowup","[0.325,0.675,0.85,0.15]","","",""
"sailing-trial","429","3059245","0.0-11.0-376.0","","","","false","","","","","","","","","","720.5999999046326","","982.2999999523163","","1","1","arrowleft","0","arrowright","[0.325,0.675,0.85,0.15]","","",""
"sailing-trial","430","3063625","0.0-11.0-377.0","","","","false","","","","","","","","","","null","","1345.8000001907349","","0","0","null","null","arrowup","[0.325,0.675,0.85,0.15]","","",""
"sailing-trial","431","3070875","0.0-11.0-378.0","","","","false","","","","","","","","","","1617.9000000953674","","1064.9000000953674","","1","1","arrowleft","0","arrowright","[0.325,0.675,0.85,0.15]","","",""
"sailing-trial","432","3076039","0.0-11.0-379.0","","","","false","","","","","","","","","","null","","3028.5","","1","1","null","null","arrowup","[0.325,0.675,0.85,0.15]","","",""
"sailing-trial","433","3083149","0.0-11.0-380.0","","","","false","","","","","","","","","","4115.900000095367","","4.599999904632568","","3","0","arrowright","1","arrowright","[0.325,0.675,0.85,0.15]","","",""
"sailing-trial","434","3086757","0.0-11.0-381.0","","","","false","","","","","","","","","","null","","2532.4000000953674","","3","0","null","null","arrowup","[0.325,0.675,0.85,0.15]","","",""
"sailing-trial","435","3092638","0.0-11.0-382.0","","","","false","","","","","","","","","","1336.2000000476837","","1157.9000000953674","","3","1","arrowright","1","arrowright","[0.675,0.325,0.15,0.85]","","",""
"sailing-trial","436","3096204","0.0-11.0-383.0","","","","false","","","","","","","","","","null","","1919.4000000953674","","1","0","null","null","arrowup","[0.675,0.325,0.15,0.85]","","",""
"sailing-trial","437","3102631","0.0-11.0-384.0","","","","false","","","","","","","","","","1096.0999999046326","","2306.0999999046326","","3","1","arrowright","1","arrowright","[0.675,0.325,0.15,0.85]","","",""
"sailing-trial","438","3106262","0.0-11.0-385.0","","","","false","","","","","","","","","","null","","1690","","2","0","null","null","arrowup","[0.675,0.325,0.15,0.85]","","",""
"sailing-trial","439","3112428","0.0-11.0-386.0","","","","false","","","","","","","","","","1805.4000000953674","","564.5","","3","1","arrowright","1","arrowright","[0.675,0.325,0.15,0.85]","","",""
"sailing-trial","440","3117926","0.0-11.0-387.0","","","","false","","","","","","","","","","null","","3242.399999856949","","0","1","null","null","arrowup","[0.675,0.325,0.15,0.85]","","",""
"sailing-trial","441","3127673","0.0-11.0-388.0","","","","false","","","","","","","","","","2647.7000000476837","","3891","","3","1","arrowright","1","arrowright","[0.675,0.325,0.15,0.85]","","",""
"sailing-trial","442","3132069","0.0-11.0-389.0","","","","false","","","","","","","","","","null","","1346.2999999523163","","2","0","null","null","arrowup","[0.675,0.325,0.15,0.85]","","",""
"sailing-trial","443","3141818","0.0-11.0-390.0","","","","false","","","","","","","","","","2568.600000143051","","109.70000004768372","","3","1","arrowright","1","arrowright","[0.675,0.325,0.15,0.85]","","",""
"sailing-trial","444","3149579","0.0-11.0-391.0","","","","false","","","","","","","","","","null","","4816.300000190735","","3","0","null","null","arrowup","[0.675,0.325,0.15,0.85]","","",""
"sailing-trial","445","3164599","0.0-11.0-392.0","","","","true","","","","","","","","","","null","","null","","null","null","null","null","null","[0.675,0.325,0.15,0.85]","","",""
"sailing-trial","446","3179616","0.0-11.0-393.0","","","","true","","","","","","","","","","null","","null","","null","null","null","null","null","[0.675,0.325,0.15,0.85]","","",""
"sailing-trial","447","3194639","0.0-11.0-394.0","","","","true","","","","","","","","","","null","","null","","null","null","null","null","null","[0.675,0.325,0.15,0.85]","","",""
"sailing-trial","448","3209659","0.0-11.0-395.0","","","","true","","","","","","","","","","null","","null","","null","null","null","null","null","[0.675,0.325,0.15,0.85]","","",""
"sailing-trial","449","3224679","0.0-11.0-396.0","","","","true","","","","","","","","","","null","","null","","null","null","null","null","null","[0.675,0.325,0.15,0.85]","","",""
"sailing-trial","450","3231711","0.0-11.0-397.0","","","","false","","","","","","","","","","null","","4320.399999856949","","1","1","null","null","arrowup","[0.675,0.325,0.15,0.85]","","",""
"sailing-trial","451","3246799","0.0-11.0-398.0","","","","false","","","","","","","","","","9965.200000047684","","1541.3999998569489","","3","1","arrowright","1","arrowright","[0.675,0.325,0.15,0.85]","","",""
"sailing-trial","452","3251295","0.0-11.0-399.0","","","","false","","","","[{""event"":""fullscreenenter"",""trial"":3,""time"":6045},{""event"":""blur"",""trial"":453,""time"":3891659},{""event"":""focus"",""trial"":453,""time"":4360104}]","true","","","","","null","","1463.6000001430511","","2","0","null","null","arrowup","[0.675,0.325,0.15,0.85]","","",""
"instructions","453","4365657","0.0-12.0","","","","","","","","","","1114380.5","","","","","","","","","","","","","","","","[{""page_index"":0,""viewing_time"":1114380}]"
"survey-debrief","454","4386198","0.0-13.0","","","","","","","","","","20539.799999952316","","","","","","","","","","","","","","{""difficulty"":""3"",""fun"":""4"",""clarity"":""4"",""strategy"":""no"",""feedback"":""no""}","",""
