"trial_type","trial_index","time_elapsed","internal_node_id","value","metadata","success","timeout","failed_images","failed_audio","failed_video","browser_interaction","low_quality","rt","stimulus","response","button_pressed","island_rt","island_response","boat_rt","boat_response","boat","reward","island_key","island","boat_key","reward_probabilities","responses","num_errors","view_history"
"pavlovia","0","4","0.0-0.0","","","","","","","","","","","","","","","","","","","","","","","","","",""
"call-function","1","4","0.0-1.0","","{""task_version"":""sailing_part1_v1"",""task_condition"":""good"",""boats"":[""D"",""B"",""C"",""A""],""boats_demo"":[""H"",""G"",""F"",""E""],""islands"":[""B"",""A""],""subject_id"":""14552"",""age"":""17"",""gender"":""Male""}","","","","","","","","","","","","","","","","","","","","","","","",""
"preload","2","1276","0.0-2.0","","","true","false","[]","[]","[]","[{""event"":""fullscreenenter"",""trial"":3,""time"":3782}]","false","","","","","","","","","","","","","","","","",""
"fullscreen","3","4755","0.0-3.0","","","true","","","","","","","","","","","","","","","","","","","","","","",""
"audio-keyboard-response","4","7272","0.0-4.0-0.0","","","","","","","","","","2391.655328798186","audio/beep_loop.wav"," ","","","","","","","","","","","","","",""
"audio-test","5","9776","0.0-4.0-1.0","","","","","","","","","","null","audio/turtle.mp3","","3","","","","","","","","","","","","",""
"audio-test","6","12087","0.0-4.0-2.0","","","","","","","","","","null","audio/shark.mp3","","2","","","","","","","","","","","","",""
"sailing-instructions","7","43835","0.0-5.0-0.0-0.0","","","","","","","","","","","","","","null","null","null","null","null","null","","","","","","",""
"sailing-trial","8","50324","0.0-5.0-0.0-1.0-0.0","","","","false","","","","","","","","","","5362.5","","null","","null","null","arrowleft","0","null","null","","",""
"sailing-trial","9","52389","0.0-5.0-0.0-1.0-1.0","","","","false","","","","","","","","","","950.6999999880791","","null","","null","null","arrowright","1","null","null","","",""
"sailing-trial","10","55693","0.0-5.0-0.0-1.0-2.0","","","","false","","","","","","","","","","2208","","null","","null","null","arrowright","1","null","null","","",""
"sailing-instructions","11","96990","0.0-5.0-0.0-2.0","","","","","","","","","","","","","","null","null","null","null","0","null","","","","","","",""
"sailing-trial","12","103414","0.0-5.0-0.0-3.0-0.0","","","","false","","","","","","","","","","null","","3000.7000000178814","","2","1","null","null","arrowleft","[1,1,1,1]","","",""
"sailing-trial","13","107716","0.0-5.0-0.0-3.0-1.0","","","","false","","","","","","","","","","null","","1616.7000000178814","","3","1","null","null","arrowright","[1,1,1,1]","","",""
"sailing-trial","14","113155","0.0-5.0-0.0-3.0-2.0","","","","false","","","","","","","","","","null","","1916.4000000059605","","3","0","null","null","arrowright","[0,0,0,0]","","",""
"sailing-instructions","15","120563","0.0-5.0-0.0-4.0","","","","","","","","","","","","","","null","null","null","null","null","null","","","","","","",""
"sailing-comprehension","16","138437","0.0-5.0-0.0-5.0","","","","","","","","","","13888.90000000596","","","","","","","","","","","","","","[""true"",""true"",""false"",""true""]","0",""
"sailing-instructions","17","199192","0.0-6.0-0.0-0.0","","","","","","","","","","","","","","null","null","null","null","null","null","","","","","","",""
"sailing-comprehension","18","215267","0.0-6.0-0.0-1.0","","","","","","","","","","14473.300000011921","","","","","","","","","","","","","","[""true"",""false"",""true""]","0",""
"sailing-instructions","19","228829","0.0-7.0-0.0-0.0","","","","","","","","","","","","","","null","null","null","null","null","null","","","","","","",""
"sailing-trial","20","235547","0.0-7.0-0.0-1.0-0.0","","","","false","","","","","","","","","","null","","4106.300000011921","","0","0","null","null","arrowup","[0.2,0.8,0.2,0.8]","","",""
"sailing-trial","21","239414","0.0-7.0-0.0-1.0-1.0","","","","false","","","","","","","","","","null","","1446.300000011921","","1","1","null","null","arrowup","[0.2,0.8,0.2,0.8]","","",""
"sailing-trial","22","244417","0.0-7.0-0.0-1.0-2.0","","","","false","","","","","","","","","","null","","1994.5999999940395","","2","0","null","null","arrowup","[0.2,0.8,0.2,0.8]","","",""
"sailing-trial","23","247579","0.0-7.0-0.0-1.0-3.0","","","","false","","","","","","","","","","null","","1010.8999999761581","","3","0","null","null","arrowup","[0.2,0.8,0.2,0.8]","","",""
"sailing-comprehension","24","262680","0.0-7.0-0.0-2.0","","","","","","","","[{""event"":""fullscreenenter"",""trial"":3,""time"":3782},{""event"":""blur"",""trial"":25,""time"":275449},{""event"":""focus"",""trial"":25,""time"":275567}]","false","6741.4000000059605","","","","","","","","","","","","","","[""true""]","1",""
"sailing-instructions","25","277160","0.0-7.0-0.1-0.1","","","","","","","","","","","","","","null","null","null","null","null","null","","","","","","",""
"sailing-trial","26","280003","0.0-7.0-0.1-1.1-0.1","","","","false","","","","","","","","","","null","","1155.8999999761581","","0","0","null","null","arrowup","[0.2,0.8,0.2,0.8]","","",""
"sailing-trial","27","282952","0.0-7.0-0.1-1.1-1.1","","","","false","","","","","","","","","","null","","1085.199999988079","","1","1","null","null","arrowup","[0.2,0.8,0.2,0.8]","","",""
"sailing-trial","28","285059","0.0-7.0-0.1-1.1-2.1","","","","false","","","","","","","","","","null","","599.2000000178814","","2","0","null","null","arrowup","[0.2,0.8,0.2,0.8]","","",""
"sailing-trial","29","287702","0.0-7.0-0.1-1.1-3.1","","","","false","","","","","","","","","","null","","754.3000000119209","","3","1","null","null","arrowup","[0.2,0.8,0.2,0.8]","","",""
"sailing-comprehension","30","295162","0.0-7.0-0.1-2.1","","","","","","","","","","6178","","","","","","","","","","","","","","[""false""]","0",""
"sailing-instructions","31","305458","0.0-8.0-0.0-0.0","","","","","","","","","","","","","","null","null","null","null","null","null","","","","","","",""
"sailing-comprehension","32","310646","0.0-8.0-0.0-1.0","","","","","","","","","","4309.100000023842","","","","","","","","","","","","","","[""true""]","0",""
"sailing-instructions","33","338515","0.0-9.0-0.0-0.0","","","","","","","","","","","","","","null","null","null","null","null","null","","","","","","",""
"sailing-trial","34","346916","0.0-9.0-0.0-1.0-0.0","","","","false","","","","","","","","","","1540.0999999940395","","2640.699999988079","","0","1","arrowleft","0","arrowleft","[0.2,0.8,0.2,0.8]","","",""
"sailing-trial","35","352489","0.0-9.0-0.0-1.0-1.0","","","","false","","","","","","","","","","1401.8999999761581","","1157.5","","0","0","arrowleft","0","arrowleft","[0.2,0.8,0.2,0.8]","","",""
"sailing-trial","36","356264","0.0-9.0-0.0-1.0-2.0","","","","false","","","","","","","","","","null","","1984.199999988079","","0","0","null","null","arrowup","[0.2,0.8,0.2,0.8]","","",""
"sailing-trial","37","361720","0.0-9.0-0.0-1.0-3.0","","","","false","","","","","","","","","","964.8999999761581","","1706.0999999940395","","3","0","arrowright","1","arrowright","[0.2,0.8,0.2,0.8]","","",""
"sailing-trial","38","365709","0.0-9.0-0.0-1.0-4.0","","","","false","","","","","","","","","","null","","1516.199999988079","","3","1","null","null","arrowup","[0.2,0.8,0.2,0.8]","","",""
"sailing-trial","39","369877","0.0-9.0-0.0-1.0-5.0","","","","false","","","","","","","","","","747.2999999821186","","326.19999998807907","","3","1","arrowright","1","arrowright","[0.2,0.8,0.2,0.8]","","",""
"sailing-instructions","40","400928","0.0-10.0","","","","","","","","","","","","","","null","null","null","null","null","null","","","","","","",""
"sailing-trial","41","405765","0.0-11.0-0.0","","","","false","","","","","","","","","","1001.1000000238419","","663.9000000059605","","3","0","arrowright","1","arrowright","[0.325,0.675,0.85,0.15]","","",""
"sailing-trial","42","409045","0.0-11.0-1.0","","","","false","","","","","","","","","","null","","1291.4000000059605","","2","1","null","null","arrowup","[0.325,0.675,0.85,0.15]","","",""
"sailing-trial","43","412433","0.0-11.0-2.0","","","","false","","","","","","","","","","659.1000000238419","","188.40000000596046","","0","0","arrowleft","0","arrowleft","[0.325,0.675,0.85,0.15]","","",""
"sailing-trial","44","415516","0.0-11.0-3.0","","","","false","","","","","","","","","","null","","1128.5999999940395","","0","1","null","null","arrowup","[0.325,0.675,0.85,0.15]","","",""
"sailing-trial","45","419268","0.0-11.0-4.0","","","","false","","","","","","","","","","554.8000000119209","","249.69999998807907","","2","1","arrowright","1","arrowleft","[0.325,0.675,0.85,0.15]","","",""
"sailing-trial","46","422268","0.0-11.0-5.0","","","","false","","","","","","","","","","null","","1044.9000000059605","","0","1","null","null","arrowup","[0.325,0.675,0.85,0.15]","","",""
"sailing-trial","47","426488","0.0-11.0-6.0","","","","false","","","","","","","","","","839.1999999880791","","630.7999999821186","","3","0","arrowright","1","arrowright","[0.325,0.675,0.85,0.15]","","",""
"sailing-trial","48","428810","0.0-11.0-7.0","","","","false","","","","","","","","","","null","","927.9000000059605","","0","0","null","null","arrowup","[0.325,0.675,0.85,0.15]","","",""
"sailing-trial","49","432781","0.0-11.0-8.0","","","","false","","","","","","","","","","731.3000000119209","","529","","0","0","arrowleft","0","arrowleft","[0.325,0.675,0.85,0.15]","","",""
"sailing-trial","50","435366","0.0-11.0-9.0","","","","false","","","","","","","","","","null","","1163.7000000178814","","1","0","null","null","arrowup","[0.325,0.675,0.85,0.15]","","",""
"sailing-trial","51","438550","0.0-11.0-10.0","","","","false","","","","","","","","","","577","","81.7999999821186","","3","0","arrowright","1","arrowright","[0.325,0.675,0.85,0.15]","","",""
"sailing-trial","52","441460","0.0-11.0-11.0","","","","false","","","","","","","","","","null","","1009.2999999821186","","2","1","null","null","arrowup","[0.325,0.675,0.85,0.15]","","",""
"sailing-trial","53","445059","0.0-11.0-12.0","","","","false","","","","","","","","","","498.2000000178814","","593.5999999940395","","0","0","arrowleft","0","arrowleft","[0.325,0.675,0.85,0.15]","","",""
"sailing-trial","54","447998","0.0-11.0-13.0","","","","false","","","","","","","","","","null","","1041.5","","0","1","null","null","arrowup","[0.325,0.675,0.85,0.15]","","",""
"sailing-trial","55","452468","0.0-11.0-14.0","","","","false","","","","","","","","","","1187.9000000059605","","642.4000000059605","","1","0","arrowleft","0","arrowright","[0.325,0.675,0.85,0.15]","","",""
"sailing-trial","56","455020","0.0-11.0-15.0","","","","false","","","","","","","","","","null","","1061.5","","3","0","null","null","arrowup","[0.325,0.675,0.85,0.15]","","",""
"sailing-trial","57","458607","0.0-11.0-16.0","","","","false","","","","","","","","","","532.5","","552.6000000238419","","3","0","arrowright","1","arrowright","[0.325,0.675,0.85,0.15]","","",""
"sailing-trial","58","461204","0.0-11.0-17.0","","","","false","","","","","","","","","","null","","1112.0999999940395","","3","0","null","null","arrowup","[0.325,0.675,0.85,0.15]","","",""
"sailing-trial","59","465402","0.0-11.0-18.0","","","","false","","","","","","","","","","965.7000000178814","","561.8000000119209","","2","0","arrowright","1","arrowleft","[0.15,0.85,0.675,0.325]","","",""
"sailing-trial","60","468357","0.0-11.0-19.0","","","","false","","","","","","","","","","null","","946.4000000059605","","2","1","null","null","arrowup","[0.15,0.85,0.675,0.325]","","",""
"sailing-trial","61","472499","0.0-11.0-20.0","","","","false","","","","","","","","","","1259.5","","410.30000001192093","","3","0","arrowright","1","arrowright","[0.15,0.85,0.675,0.325]","","",""
"sailing-trial","62","475343","0.0-11.0-21.0","","","","false","","","","","","","","","","null","","849.7000000178814","","1","1","null","null","arrowup","[0.15,0.85,0.675,0.325]","","",""
"sailing-trial","63","478845","0.0-11.0-22.0","","","","false","","","","","","","","","","536.8000000119209","","528.0999999940395","","0","0","arrowleft","0","arrowleft","[0.15,0.85,0.675,0.325]","","",""
"sailing-trial","64","481796","0.0-11.0-23.0","","","","false","","","","","","","","","","null","","1068.800000011921","","1","1","null","null","arrowup","[0.15,0.85,0.675,0.325]","","",""
"sailing-trial","65","486483","0.0-11.0-24.0","","","","false","","","","","","","","","","1225.699999988079","","504.60000002384186","","1","1","arrowleft","0","arrowright","[0.15,0.85,0.675,0.325]","","",""
"sailing-trial","66","489250","0.0-11.0-25.0","","","","false","","","","","","","","","","null","","854.4000000059605","","1","1","null","null","arrowup","[0.15,0.85,0.675,0.325]","","",""
"sailing-trial","67","493169","0.0-11.0-26.0","","","","false","","","","","","","","","","751.3000000119209","","170.59999999403954","","1","1","arrowleft","0","arrowright","[0.15,0.85,0.675,0.325]","","",""
"sailing-trial","68","495356","0.0-11.0-27.0","","","","false","","","","","","","","","","null","","658.7000000178814","","3","0","null","null","arrowup","[0.15,0.85,0.675,0.325]","","",""
"sailing-trial","69","499505","0.0-11.0-28.0","","","","false","","","","","","","","","","1063.300000011921","","31.69999998807907","","1","1","arrowleft","0","arrowright","[0.15,0.85,0.675,0.325]","","",""
"sailing-trial","70","502121","0.0-11.0-29.0","","","","false","","","","","","","","","","null","","1202.9000000059605","","3","0","null","null","arrowup","[0.15,0.85,0.675,0.325]","","",""
"sailing-trial","71","506783","0.0-11.0-30.0","","","","false","","","","","","","","","","1642.8999999761581","","510.90000000596046","","1","0","arrowleft","0","arrowright","[0.15,0.85,0.675,0.325]","","",""
"sailing-trial","72","510762","0.0-11.0-31.0","","","","false","","","","","","","","","","null","","978.7999999821186","","1","0","null","null","arrowup","[0.15,0.85,0.675,0.325]","","",""
"sailing-trial","73","515247","0.0-11.0-32.0","","","","false","","","","","","","","","","1543.800000011921","","465.09999999403954","","0","0","arrowleft","0","arrowleft","[0.15,0.85,0.675,0.325]","","",""
"sailing-trial","74","518246","0.0-11.0-33.0","","","","false","","","","","","","","","","null","","1081.5999999940395","","1","1","null","null","arrowup","[0.15,0.85,0.675,0.325]","","",""
"sailing-trial","75","521897","0.0-11.0-34.0","","","","false","","","","","","","","","","543.8999999761581","","594.6999999880791","","3","0","arrowright","1","arrowright","[0.325,0.675,0.85,0.15]","","",""
"sailing-trial","76","524169","0.0-11.0-35.0","","","","false","","","","","","","","","","null","","854.7000000178814","","0","0","null","null","arrowup","[0.325,0.675,0.85,0.15]","","",""
"sailing-trial","77","528052","0.0-11.0-36.0","","","","false","","","","","","","","","","793.1999999880791","","19.400000005960464","","2","1","arrowright","1","arrowleft","[0.325,0.675,0.85,0.15]","","",""
"sailing-trial","78","530359","0.0-11.0-37.0","","","","false","","","","","","","","","","null","","854.9000000059605","","0","0","null","null","arrowup","[0.325,0.675,0.85,0.15]","","",""
"sailing-trial","79","534071","0.0-11.0-38.0","","","","false","","","","","","","","","","561.7000000178814","","200.30000001192093","","2","1","arrowright","1","arrowleft","[0.325,0.675,0.85,0.15]","","",""
"sailing-trial","80","536332","0.0-11.0-39.0","","","","false","","","","","","","","","","null","","915","","2","0","null","null","arrowup","[0.325,0.675,0.85,0.15]","","",""
"sailing-trial","81","540106","0.0-11.0-40.0","","","","false","","","","","","","","","","704.9000000059605","","66.19999998807907","","2","1","arrowright","1","arrowleft","[0.325,0.675,0.85,0.15]","","",""
"sailing-trial","82","542794","0.0-11.0-41.0","","","","false","","","","","","","","","","null","","865.8000000119209","","0","0","null","null","arrowup","[0.325,0.675,0.85,0.15]","","",""
"sailing-trial","83","546300","0.0-11.0-42.0","","","","false","","","","","","","","","","543.3000000119209","","17.299999982118607","","2","1","arrowright","1","arrowleft","[0.325,0.675,0.85,0.15]","","",""
"sailing-trial","84","548327","0.0-11.0-43.0","","","","false","","","","","","","","","","null","","613.8000000119209","","0","0","null","null","arrowup","[0.325,0.675,0.85,0.15]","","",""
"sailing-trial","85","552480","0.0-11.0-44.0","","","","false","","","","","","","","","","706.0999999940395","","518.5","","2","1","arrowright","1","arrowleft","[0.325,0.675,0.85,0.15]","","",""
"sailing-trial","86","555799","0.0-11.0-45.0","","","","false","","","","","","","","","","null","","946.6999999880791","","2","1","null","null","arrowup","[0.325,0.675,0.85,0.15]","","",""
"sailing-trial","87","559334","0.0-11.0-46.0","","","","false","","","","","","","","","","527.6000000238419","","30.799999982118607","","2","1","arrowright","1","arrowleft","[0.325,0.675,0.85,0.15]","","",""
"sailing-trial","88","562285","0.0-11.0-47.0","","","","false","","","","","","","","","","null","","1041.0999999940395","","2","1","null","null","arrowup","[0.325,0.675,0.85,0.15]","","",""
"sailing-trial","89","566021","0.0-11.0-48.0","","","","false","","","","","","","","","","558.6000000238419","","474.09999999403954","","2","1","arrowright","1","arrowleft","[0.325,0.675,0.85,0.15]","","",""
"sailing-trial","90","568872","0.0-11.0-49.0","","","","false","","","","","","","","","","null","","958.8000000119209","","2","1","null","null","arrowup","[0.325,0.675,0.85,0.15]","","",""
"sailing-trial","91","572423","0.0-11.0-50.0","","","","false","","","","","","","","","","541.1999999880791","","109","","2","1","arrowright","1","arrowleft","[0.325,0.675,0.85,0.15]","","",""
"sailing-trial","92","574907","0.0-11.0-51.0","","","","false","","","","","","","","","","null","","972.3000000119209","","1","0","null","null","arrowup","[0.325,0.675,0.85,0.15]","","",""
"sailing-trial","93","578560","0.0-11.0-52.0","","","","false","","","","","","","","","","567.1999999880791","","165.40000000596046","","2","1","arrowright","1","arrowleft","[0.15,0.85,0.675,0.325]","","",""
"sailing-trial","94","580770","0.0-11.0-53.0","","","","false","","","","","","","","","","null","","562.5999999940395","","3","0","null","null","arrowup","[0.15,0.85,0.675,0.325]","","",""
"sailing-trial","95","584363","0.0-11.0-54.0","","","","false","","","","","","","","","","628.1999999880791","","25.200000017881393","","2","1","arrowright","1","arrowleft","[0.15,0.85,0.675,0.325]","","",""
"sailing-trial","96","587639","0.0-11.0-55.0","","","","false","","","","","","","","","","null","","1778.0999999940395","","3","0","null","null","arrowup","[0.15,0.85,0.675,0.325]","","",""
"sailing-trial","97","592482","0.0-11.0-56.0","","","","false","","","","","","","","","","763.6999999880791","","366.30000001192093","","2","1","arrowright","1","arrowleft","[0.15,0.85,0.675,0.325]","","",""
"sailing-trial","98","594943","0.0-11.0-57.0","","","","false","","","","","","","","","","null","","1013.5","","0","0","null","null","arrowup","[0.15,0.85,0.675,0.325]","","",""
"sailing-trial","99","598957","0.0-11.0-58.0","","","","false","","","","","","","","","","663.6999999880791","","501.7000000178814","","2","1","arrowright","1","arrowleft","[0.15,0.85,0.675,0.325]","","",""
"sailing-trial","100","601300","0.0-11.0-59.0","","","","false","","","","","","","","","","null","","902","","2","0","null","null","arrowup","[0.15,0.85,0.675,0.325]","","",""
"sailing-trial","101","604805","0.0-11.0-60.0","","","","false","","","","","","","","","","624.4000000059605","","8","","2","1","arrowright","1","arrowleft","[0.15,0.85,0.675,0.325]","","",""
"sailing-trial","102","608065","0.0-11.0-61.0","","","","false","","","","","","","","","","null","","1144.5","","0","0","null","null","arrowup","[0.15,0.85,0.675,0.325]","","",""
"sailing-trial","103","611912","0.0-11.0-62.0","","","","false","","","","","","","","","","542.5","","425.80000001192093","","2","1","arrowright","1","arrowleft","[0.15,0.85,0.675,0.325]","","",""
"sailing-trial","104","614895","0.0-11.0-63.0","","","","false","","","","","","","","","","null","","1095.0999999940395","","3","1","null","null","arrowup","[0.15,0.85,0.675,0.325]","","",""
"sailing-trial","105","619013","0.0-11.0-64.0","","","","false","","","","","","","","","","759","","418.2000000178814","","2","1","arrowright","1","arrowleft","[0.15,0.85,0.675,0.325]","","",""
"sailing-trial","106","622932","0.0-11.0-65.0","","","","false","","","","","","","","","","null","","914.5","","0","0","null","null","arrowup","[0.15,0.85,0.675,0.325]","","",""
"sailing-trial","107","629355","0.0-11.0-66.0","","","","false","","","","","","","","","","773.1999999880791","","539.3000000119209","","2","1","arrowright","1","arrowleft","[0.15,0.85,0.675,0.325]","","",""
"sailing-trial","108","631850","0.0-11.0-67.0","","","","false","","","","","","","","","","null","","1047.4000000059605","","3","0","null","null","arrowup","[0.15,0.85,0.675,0.325]","","",""
"sailing-trial","109","636105","0.0-11.0-68.0","","","","false","","","","","","","","","","618.5999999940395","","29.700000017881393","","2","1","arrowright","1","arrowleft","[0.15,0.85,0.675,0.325]","","",""
"sailing-trial","110","640057","0.0-11.0-69.0","","","","false","","","","","","","","","","null","","925.4000000059605","","2","0","null","null","arrowup","[0.15,0.85,0.675,0.325]","","",""
"sailing-trial","111","643279","0.0-11.0-70.0","","","","false","","","","","","","","","","552.1999999880791","","83.2000000178814","","2","0","arrowright","1","arrowleft","[0.15,0.85,0.675,0.325]","","",""
"sailing-trial","112","645590","0.0-11.0-71.0","","","","false","","","","","","","","","","null","","884.5999999940395","","0","0","null","null","arrowup","[0.15,0.85,0.675,0.325]","","",""
"sailing-trial","113","650913","0.0-11.0-72.0","","","","false","","","","","","","","","","585.5999999940395","","725.5999999940395","","3","0","arrowright","1","arrowright","[0.325,0.675,0.85,0.15]","","",""
"sailing-trial","114","653455","0.0-11.0-73.0","","","","false","","","","","","","","","","null","","1004.1999999880791","","1","0","null","null","arrowup","[0.325,0.675,0.85,0.15]","","",""
"sailing-trial","115","656781","0.0-11.0-74.0","","","","false","","","","","","","","","","697.6999999880791","","210.09999999403954","","3","0","arrowright","1","arrowright","[0.325,0.675,0.85,0.15]","","",""
"sailing-trial","116","659034","0.0-11.0-75.0","","","","false","","","","","","","","","","null","","871.8000000119209","","3","0","null","null","arrowup","[0.325,0.675,0.85,0.15]","","",""
"sailing-trial","117","663234","0.0-11.0-76.0","","","","false","","","","","","","","","","637.2000000178814","","634.1000000238419","","0","1","arrowleft","0","arrowleft","[0.325,0.675,0.85,0.15]","","",""
"sailing-trial","118","665694","0.0-11.0-77.0","","","","false","","","","","","","","","","null","","972.4000000059605","","1","0","null","null","arrowup","[0.325,0.675,0.85,0.15]","","",""
"sailing-trial","119","668964","0.0-11.0-78.0","","","","false","","","","","","","","","","597.7000000178814","","137.10000002384186","","0","0","arrowleft","0","arrowleft","[0.325,0.675,0.85,0.15]","","",""
"sailing-trial","120","671687","0.0-11.0-79.0","","","","false","","","","","","","","","","null","","853.4000000059605","","3","1","null","null","arrowup","[0.325,0.675,0.85,0.15]","","",""
"sailing-trial","121","676124","0.0-11.0-80.0","","","","false","","","","","","","","","","1098.5","","421.90000000596046","","1","1","arrowleft","0","arrowright","[0.325,0.675,0.85,0.15]","","",""
"sailing-trial","122","678316","0.0-11.0-81.0","","","","false","","","","","","","","","","null","","726.4000000059605","","0","0","null","null","arrowup","[0.325,0.675,0.85,0.15]","","",""
"sailing-trial","123","682310","0.0-11.0-82.0","","","","false","","","","","","","","","","895.0999999940395","","193.19999998807907","","2","1","arrowright","1","arrowleft","[0.325,0.675,0.85,0.15]","","",""
"sailing-trial","124","684604","0.0-11.0-83.0","","","","false","","","","","","","","","","null","","914.1999999880791","","1","0","null","null","arrowup","[0.325,0.675,0.85,0.15]","","",""
"sailing-trial","125","687831","0.0-11.0-84.0","","","","false","","","","","","","","","","693.6000000238419","","4.9000000059604645","","2","0","arrowright","1","arrowleft","[0.325,0.675,0.85,0.15]","","",""
"sailing-trial","126","690071","0.0-11.0-85.0","","","","false","","","","","","","","","","null","","829.0999999940395","","0","0","null","null","arrowup","[0.325,0.675,0.85,0.15]","","",""
"sailing-trial","127","694500","0.0-11.0-86.0","","","","false","","","","","","","","","","1094.2999999821186","","432.80000001192093","","1","1","arrowleft","0","arrowright","[0.325,0.675,0.85,0.15]","","",""
"sailing-trial","128","696982","0.0-11.0-87.0","","","","false","","","","","","","","","","null","","624.5","","2","1","null","null","arrowup","[0.325,0.675,0.85,0.15]","","",""
"sailing-trial","129","700547","0.0-11.0-88.0","","","","false","","","","","","","","","","752.8999999761581","","9.300000011920929","","1","0","arrowleft","0","arrowright","[0.325,0.675,0.85,0.15]","","",""
"sailing-trial","130","702869","0.0-11.0-89.0","","","","false","","","","","","","","","","null","","922.6999999880791","","1","0","null","null","arrowup","[0.325,0.675,0.85,0.15]","","",""
"sailing-trial","131","706544","0.0-11.0-90.0","","","","false","","","","","","","","","","1141.5","","0.699999988079071","","0","0","arrowleft","0","arrowleft","[0.325,0.675,0.85,0.15]","","",""
"sailing-trial","132","709524","0.0-11.0-91.0","","","","false","","","","","","","","","","null","","944.5999999940395","","2","1","null","null","arrowup","[0.325,0.675,0.85,0.15]","","",""
"sailing-trial","133","712937","0.0-11.0-92.0","","","","false","","","","","","","","","","519.6000000238419","","69.40000000596046","","3","0","arrowright","1","arrowright","[0.325,0.675,0.85,0.15]","","",""
"sailing-trial","134","715892","0.0-11.0-93.0","","","","false","","","","","","","","","","null","","1090.2000000178814","","3","1","null","null","arrowup","[0.325,0.675,0.85,0.15]","","",""
"sailing-trial","135","719207","0.0-11.0-94.0","","","","false","","","","","","","","","","752.2000000178814","","35.30000001192093","","1","0","arrowleft","0","arrowright","[0.85,0.15,0.325,0.675]","","",""
"sailing-trial","136","722030","0.0-11.0-95.0","","","","false","","","","","","","","","","null","","966.7999999821186","","2","1","null","null","arrowup","[0.85,0.15,0.325,0.675]","","",""
"sailing-trial","137","726583","0.0-11.0-96.0","","","","false","","","","","","","","","","1338.5999999940395","","120.19999998807907","","0","1","arrowleft","0","arrowleft","[0.85,0.15,0.325,0.675]","","",""
"sailing-trial","138","729405","0.0-11.0-97.0","","","","false","","","","","","","","","","null","","1347.7999999821186","","1","0","null","null","arrowup","[0.85,0.15,0.325,0.675]","","",""
"sailing-trial","139","733966","0.0-11.0-98.0","","","","false","","","","","","","","","","841.1000000238419","","744.1999999880791","","3","0","arrowright","1","arrowright","[0.85,0.15,0.325,0.675]","","",""
"sailing-trial","140","736921","0.0-11.0-99.0","","","","false","","","","","","","","","","null","","1447.2999999821186","","0","0","null","null","arrowup","[0.85,0.15,0.325,0.675]","","",""
"sailing-trial","141","741954","0.0-11.0-100.0","","","","false","","","","","","","","","","1188.9000000059605","","960","","2","1","arrowright","1","arrowleft","[0.85,0.15,0.325,0.675]","","",""
"sailing-trial","142","745274","0.0-11.0-101.0","","","","false","","","","","","","","","","null","","1112.4000000059605","","0","1","null","null","arrowup","[0.85,0.15,0.325,0.675]","","",""
"sailing-trial","143","749725","0.0-11.0-102.0","","","","false","","","","","","","","","","1532.4000000059605","","23.599999994039536","","2","1","arrowright","1","arrowleft","[0.85,0.15,0.325,0.675]","","",""
"sailing-trial","144","752684","0.0-11.0-103.0","","","","false","","","","","","","","","","null","","1121","","1","0","null","null","arrowup","[0.85,0.15,0.325,0.675]","","",""
"sailing-trial","145","756978","0.0-11.0-104.0","","","","false","","","","","","","","","","1127.199999988079","","688.8999999761581","","2","0","arrowright","1","arrowleft","[0.85,0.15,0.325,0.675]","","",""
"sailing-trial","146","759544","0.0-11.0-105.0","","","","false","","","","","","","","","","null","","1055.699999988079","","1","0","null","null","arrowup","[0.85,0.15,0.325,0.675]","","",""
"sailing-trial","147","763285","0.0-11.0-106.0","","","","false","","","","","","","","","","879.2999999821186","","497.80000001192093","","3","0","arrowright","1","arrowright","[0.85,0.15,0.325,0.675]","","",""
"sailing-trial","148","766067","0.0-11.0-107.0","","","","false","","","","","","","","","","null","","953.1999999880791","","3","1","null","null","arrowup","[0.85,0.15,0.325,0.675]","","",""
"sailing-trial","149","769651","0.0-11.0-108.0","","","","false","","","","","","","","","","562.9000000059605","","100.5","","0","1","arrowleft","0","arrowleft","[0.85,0.15,0.325,0.675]","","",""
"sailing-trial","150","772265","0.0-11.0-109.0","","","","false","","","","","","","","","","null","","981.2000000178814","","2","0","null","null","arrowup","[0.85,0.15,0.325,0.675]","","",""
"sailing-trial","151","775568","0.0-11.0-110.0","","","","false","","","","","","","","","","619.5","","67.69999998807907","","0","0","arrowleft","0","arrowleft","[0.675,0.325,0.15,0.85]","","",""
"sailing-trial","152","778490","0.0-11.0-111.0","","","","false","","","","","","","","","","null","","892.5","","2","1","null","null","arrowup","[0.675,0.325,0.15,0.85]","","",""
"sailing-trial","153","782791","0.0-11.0-112.0","","","","false","","","","","","","","","","839.5999999940395","","482.59999999403954","","1","1","arrowleft","0","arrowright","[0.675,0.325,0.15,0.85]","","",""
"sailing-trial","154","785572","0.0-11.0-113.0","","","","false","","","","","","","","","","null","","1107.4000000059605","","2","0","null","null","arrowup","[0.675,0.325,0.15,0.85]","","",""
"sailing-trial","155","789845","0.0-11.0-114.0","","","","false","","","","","","","","","","1038.5999999940395","","392.10000002384186","","1","1","arrowleft","0","arrowright","[0.675,0.325,0.15,0.85]","","",""
"sailing-trial","156","792349","0.0-11.0-115.0","","","","false","","","","","","","","","","null","","851.4000000059605","","1","0","null","null","arrowup","[0.675,0.325,0.15,0.85]","","",""
"sailing-trial","157","796321","0.0-11.0-116.0","","","","false","","","","","","","","","","927.5","","481.80000001192093","","1","0","arrowleft","0","arrowright","[0.675,0.325,0.15,0.85]","","",""
"sailing-trial","158","799088","0.0-11.0-117.0","","","","false","","","","","","","","","","null","","1277.0999999940395","","2","0","null","null","arrowup","[0.675,0.325,0.15,0.85]","","",""
"sailing-trial","159","803852","0.0-11.0-118.0","","","","false","","","","","","","","","","1490.5","","390.09999999403954","","3","1","arrowright","1","arrowright","[0.675,0.325,0.15,0.85]","","",""
"sailing-trial","160","806708","0.0-11.0-119.0","","","","false","","","","","","","","","","null","","1173.5","","2","0","null","null","arrowup","[0.675,0.325,0.15,0.85]","","",""
"sailing-trial","161","811607","0.0-11.0-120.0","","","","false","","","","","","","","","","765.2000000178814","","1233.0999999940395","","3","1","arrowright","1","arrowright","[0.675,0.325,0.15,0.85]","","",""
"sailing-trial","162","813894","0.0-11.0-121.0","","","","false","","","","","","","","","","null","","923.9000000059605","","2","0","null","null","arrowup","[0.675,0.325,0.15,0.85]","","",""
"sailing-trial","163","818676","0.0-11.0-122.0","","","","false","","","","","","","","","","690","","1269.199999988079","","3","1","arrowright","1","arrowright","[0.675,0.325,0.15,0.85]","","",""
"sailing-trial","164","821626","0.0-11.0-123.0","","","","false","","","","","","","","","","null","","1001.6999999880791","","2","1","null","null","arrowup","[0.675,0.325,0.15,0.85]","","",""
"sailing-trial","165","825663","0.0-11.0-124.0","","","","false","","","","","","","","","","722.1000000238419","","426.2000000178814","","3","1","arrowright","1","arrowright","[0.675,0.325,0.15,0.85]","","",""
"sailing-trial","166","828055","0.0-11.0-125.0","","","","false","","","","","","","","","","null","","979.4000000059605","","1","0","null","null","arrowup","[0.675,0.325,0.15,0.85]","","",""
"sailing-trial","167","831365","0.0-11.0-126.0","","","","false","","","","","","","","","","681.1999999880791","","21.80000001192093","","2","0","arrowright","1","arrowleft","[0.675,0.325,0.15,0.85]","","",""
"sailing-trial","168","834654","0.0-11.0-127.0","","","","false","","","","","","","","","","null","","1860","","2","0","null","null","arrowup","[0.675,0.325,0.15,0.85]","","",""
"sailing-trial","169","839369","0.0-11.0-128.0","","","","false","","","","","","","","","","1820.199999988079","","25.099999994039536","","0","1","arrowleft","0","arrowleft","[0.85,0.15,0.325,0.675]","","",""
"sailing-trial","170","842752","0.0-11.0-129.0","","","","false","","","","","","","","","","null","","1035.4000000059605","","3","1","null","null","arrowup","[0.85,0.15,0.325,0.675]","","",""
"sailing-trial","171","846572","0.0-11.0-130.0","","","","false","","","","","","","","","","520.5","","393.90000000596046","","0","1","arrowleft","0","arrowleft","[0.85,0.15,0.325,0.675]","","",""
"sailing-trial","172","849260","0.0-11.0-131.0","","","","false","","","","","","","","","","null","","1100.8999999761581","","1","0","null","null","arrowup","[0.85,0.15,0.325,0.675]","","",""
"sailing-trial","173","853194","0.0-11.0-132.0","","","","false","","","","","","","","","","633.4000000059605","","407","","0","1","arrowleft","0","arrowleft","[0.85,0.15,0.325,0.675]","","",""
"sailing-trial","174","856195","0.0-11.0-133.0","","","","false","","","","","","","","","","null","","1156.699999988079","","0","1","null","null","arrowup","[0.85,0.15,0.325,0.675]","","",""
"sailing-trial","175","860380","0.0-11.0-134.0","","","","false","","","","","","","","","","1145.0999999940395","","25.200000017881393","","0","1","arrowleft","0","arrowleft","[0.85,0.15,0.325,0.675]","","",""
"sailing-trial","176","863329","0.0-11.0-135.0","","","","false","","","","","","","","","","null","","1083.0999999940395","","2","1","null","null","arrowup","[0.85,0.15,0.325,0.675]","","",""
"sailing-trial","177","867432","0.0-11.0-136.0","","","","false","","","","","","","","","","654.8999999761581","","465.09999999403954","","0","1","arrowleft","0","arrowleft","[0.85,0.15,0.325,0.675]","","",""
"sailing-trial","178","870148","0.0-11.0-137.0","","","","false","","","","","","","","","","null","","843.7000000178814","","1","0","null","null","arrowup","[0.85,0.15,0.325,0.675]","","",""
"sailing-trial","179","873920","0.0-11.0-138.0","","","","false","","","","","","","","","","797.4000000059605","","450.69999998807907","","1","0","arrowleft","0","arrowright","[0.85,0.15,0.325,0.675]","","",""
"sailing-trial","180","876987","0.0-11.0-139.0","","","","false","","","","","","","","","","null","","995.9000000059605","","2","1","null","null","arrowup","[0.85,0.15,0.325,0.675]","","",""
"sailing-trial","181","882057","0.0-11.0-140.0","","","","false","","","","","","","","","","2140.5","","329.7000000178814","","0","1","arrowleft","0","arrowleft","[0.85,0.15,0.325,0.675]","","",""
"sailing-trial","182","892111","0.0-11.0-141.0","","","","false","","","","","","","","","","null","","8443.600000023842","","1","0","null","null","arrowup","[0.85,0.15,0.325,0.675]","","",""
"sailing-trial","183","896746","0.0-11.0-142.0","","","","false","","","","","","","","","","1098.7999999821186","","639.7000000178814","","0","1","arrowleft","0","arrowleft","[0.85,0.15,0.325,0.675]","","",""
"sailing-trial","184","899551","0.0-11.0-143.0","","","","false","","","","","","","","","","null","","1306.5","","1","0","null","null","arrowup","[0.85,0.15,0.325,0.675]","","",""
"sailing-trial","185","903334","0.0-11.0-144.0","","","","false","","","","","","","","","","821.9000000059605","","33","","0","1","arrowleft","0","arrowleft","[0.85,0.15,0.325,0.675]","","",""
"sailing-trial","186","909132","0.0-11.0-145.0","","","","false","","","","","","","","","","null","","3909.4000000059605","","3","0","null","null","arrowup","[0.85,0.15,0.325,0.675]","","",""
"sailing-trial","187","916203","0.0-11.0-146.0","","","","false","","","","","","","","","","4077.899999976158","","353.7000000178814","","0","0","arrowleft","0","arrowleft","[0.675,0.325,0.15,0.85]","","",""
"sailing-trial","188","919123","0.0-11.0-147.0","","","","false","","","","","","","","","","null","","992.2999999821186","","3","1","null","null","arrowup","[0.675,0.325,0.15,0.85]","","",""
"sailing-trial","189","923008","0.0-11.0-148.0","","","","false","","","","","","","","","","855.8000000119209","","143.80000001192093","","0","1","arrowleft","0","arrowleft","[0.675,0.325,0.15,0.85]","","",""
"sailing-trial","190","926393","0.0-11.0-149.0","","","","false","","","","","","","","","","null","","1441.4000000059605","","0","1","null","null","arrowup","[0.675,0.325,0.15,0.85]","","",""
"sailing-trial","191","929916","0.0-11.0-150.0","","","","false","","","","","","","","","","637","","350.39999997615814","","0","0","arrowleft","0","arrowleft","[0.675,0.325,0.15,0.85]","","",""
"sailing-trial","192","932314","0.0-11.0-151.0","","","","false","","","","","","","","","","null","","958.8000000119209","","1","0","null","null","arrowup","[0.675,0.325,0.15,0.85]","","",""
"sailing-trial","193","937198","0.0-11.0-152.0","","","","false","","","","","","","","","","1364.699999988079","","525.5999999940395","","3","1","arrowright","1","arrowright","[0.675,0.325,0.15,0.85]","","",""
"sailing-trial","194","939667","0.0-11.0-153.0","","","","false","","","","","","","","","","null","","1096.300000011921","","1","0","null","null","arrowup","[0.675,0.325,0.15,0.85]","","",""
"sailing-trial","195","943400","0.0-11.0-154.0","","","","false","","","","","","","","","","557.5999999940395","","326.5","","3","1","arrowright","1","arrowright","[0.675,0.325,0.15,0.85]","","",""
"sailing-trial","196","946170","0.0-11.0-155.0","","","","false","","","","","","","","","","null","","858.5","","2","1","null","null","arrowup","[0.675,0.325,0.15,0.85]","","",""
"sailing-trial","197","950659","0.0-11.0-156.0","","","","false","","","","","","","","","","1211","","717.0999999940395","","3","0","arrowright","1","arrowright","[0.675,0.325,0.15,0.85]","","",""
"sailing-trial","198","953441","0.0-11.0-157.0","","","","false","","","","","","","","","","null","","1433.5","","2","0","null","null","arrowup","[0.675,0.325,0.15,0.85]","","",""
"sailing-trial","199","958041","0.0-11.0-158.0","","","","false","","","","","","","","","","1227.5999999940395","","478.30000001192093","","0","1","arrowleft","0","arrowleft","[0.675,0.325,0.15,0.85]","","",""
"sailing-trial","200","961177","0.0-11.0-159.0","","","","false","","","","","","","","","","null","","1220.3999999761581","","0","1","null","null","arrowup","[0.675,0.325,0.15,0.85]","","",""
"sailing-trial","201","965312","0.0-11.0-160.0","","","","false","","","","","","","","","","857","","397.7999999821186","","0","1","arrowleft","0","arrowleft","[0.675,0.325,0.15,0.85]","","",""
"sailing-trial","202","968798","0.0-11.0-161.0","","","","false","","","","","","","","","","null","","1613.699999988079","","2","1","null","null","arrowup","[0.675,0.325,0.15,0.85]","","",""
"sailing-trial","203","973600","0.0-11.0-162.0","","","","false","","","","","","","","","","1418.199999988079","","455.7999999821186","","0","1","arrowleft","0","arrowleft","[0.85,0.15,0.325,0.675]","","",""
"sailing-trial","204","976752","0.0-11.0-163.0","","","","false","","","","","","","","","","null","","1084.5","","3","1","null","null","arrowup","[0.85,0.15,0.325,0.675]","","",""
"sailing-trial","205","980669","0.0-11.0-164.0","","","","false","","","","","","","","","","657.3000000119209","","359.30000001192093","","0","1","arrowleft","0","arrowleft","[0.85,0.15,0.325,0.675]","","",""
"sailing-trial","206","983871","0.0-11.0-165.0","","","","false","","","","","","","","","","null","","1035.7999999821186","","3","1","null","null","arrowup","[0.85,0.15,0.325,0.675]","","",""
"sailing-trial","207","988689","0.0-11.0-166.0","","","","false","","","","","","","","","","876.7999999821186","","1091.5","","0","1","arrowleft","0","arrowleft","[0.85,0.15,0.325,0.675]","","",""
"sailing-trial","208","991001","0.0-11.0-167.0","","","","false","","","","","","","","","","null","","786.6999999880791","","2","0","null","null","arrowup","[0.85,0.15,0.325,0.675]","","",""
"sailing-trial","209","995071","0.0-11.0-168.0","","","","false","","","","","","","","","","543.2000000178814","","1021.5999999940395","","0","0","arrowleft","0","arrowleft","[0.85,0.15,0.325,0.675]","","",""
"sailing-trial","210","997404","0.0-11.0-169.0","","","","false","","","","","","","","","","null","","834.3999999761581","","3","0","null","null","arrowup","[0.85,0.15,0.325,0.675]","","",""
"sailing-trial","211","1002046","0.0-11.0-170.0","","","","false","","","","","","","","","","985.8000000119209","","788.6999999880791","","3","1","arrowright","1","arrowright","[0.85,0.15,0.325,0.675]","","",""
"sailing-trial","212","1005037","0.0-11.0-171.0","","","","false","","","","","","","","","","null","","1311.9000000059605","","1","0","null","null","arrowup","[0.85,0.15,0.325,0.675]","","",""
"sailing-trial","213","1008732","0.0-11.0-172.0","","","","false","","","","","","","","","","702.9000000059605","","18.299999982118607","","3","1","arrowright","1","arrowright","[0.85,0.15,0.325,0.675]","","",""
"sailing-trial","214","1011010","0.0-11.0-173.0","","","","false","","","","","","","","","","null","","817.9000000059605","","2","0","null","null","arrowup","[0.85,0.15,0.325,0.675]","","",""
"sailing-trial","215","1014519","0.0-11.0-174.0","","","","false","","","","","","","","","","845.6999999880791","","350.30000001192093","","3","0","arrowright","1","arrowright","[0.85,0.15,0.325,0.675]","","",""
"sailing-trial","216","1017204","0.0-11.0-175.0","","","","false","","","","","","","","","","null","","765.3000000119209","","0","1","null","null","arrowup","[0.85,0.15,0.325,0.675]","","",""
"sailing-trial","217","1022295","0.0-11.0-176.0","","","","false","","","","","","","","","","2072.9000000059605","","631.8000000119209","","2","0","arrowright","1","arrowleft","[0.85,0.15,0.325,0.675]","","",""
"sailing-trial","218","1025373","0.0-11.0-177.0","","","","false","","","","","","","","","","null","","1044.7000000178814","","3","1","null","null","arrowup","[0.85,0.15,0.325,0.675]","","",""
"sailing-trial","219","1030076","0.0-11.0-178.0","","","","false","","","","","","","","","","1291.199999988079","","572.0999999940395","","3","1","arrowright","1","arrowright","[0.85,0.15,0.325,0.675]","","",""
"sailing-trial","220","1032447","0.0-11.0-179.0","","","","false","","","","","","","","","","null","","877.7999999821186","","2","0","null","null","arrowup","[0.85,0.15,0.325,0.675]","","",""
"sailing-trial","221","1036129","0.0-11.0-180.0","","","","false","","","","","","","","","","731.2999999821186","","7","","3","1","arrowright","1","arrowright","[0.85,0.15,0.325,0.675]","","",""
"sailing-trial","222","1038576","0.0-11.0-181.0","","","","false","","","","","","","","","","null","","954.0999999940395","","2","0","null","null","arrowup","[0.85,0.15,0.325,0.675]","","",""
"sailing-trial","223","1042950","0.0-11.0-182.0","","","","false","","","","","","","","","","636.5999999940395","","370","","3","1","arrowright","1","arrowright","[0.675,0.325,0.15,0.85]","","",""
"sailing-trial","224","1045399","0.0-11.0-183.0","","","","false","","","","","","","","","","null","","900.5","","1","0","null","null","arrowup","[0.675,0.325,0.15,0.85]","","",""
"sailing-trial","225","1049718","0.0-11.0-184.0","","","","false","","","","","","","","","","839.0999999940395","","472.40000000596046","","3","1","arrowright","1","arrowright","[0.675,0.325,0.15,0.85]","","",""
"sailing-trial","226","1052403","0.0-11.0-185.0","","","","false","","","","","","","","","","null","","765.9000000059605","","3","1","null","null","arrowup","[0.675,0.325,0.15,0.85]","","",""
"sailing-trial","227","1056305","0.0-11.0-186.0","","","","false","","","","","","","","","","992","","55.80000001192093","","3","1","arrowright","1","arrowright","[0.675,0.325,0.15,0.85]","","",""
"sailing-trial","228","1059223","0.0-11.0-187.0","","","","false","","","","","","","","","","null","","1020","","3","1","null","null","arrowup","[0.675,0.325,0.15,0.85]","","",""
"sailing-trial","229","1063491","0.0-11.0-188.0","","","","false","","","","","","","","","","984.3999999761581","","383.80000001192093","","3","1","arrowright","1","arrowright","[0.675,0.325,0.15,0.85]","","",""
"sailing-trial","230","1066153","0.0-11.0-189.0","","","","false","","","","","","","","","","null","","1094.699999988079","","0","0","null","null","arrowup","[0.675,0.325,0.15,0.85]","","",""
"sailing-trial","231","1069769","0.0-11.0-190.0","","","","false","","","","","","","","","","782.5","","492.7000000178814","","3","0","arrowright","1","arrowright","[0.675,0.325,0.15,0.85]","","",""
"sailing-trial","232","1072681","0.0-11.0-191.0","","","","false","","","","","","","","","","null","","1082.4000000059605","","3","1","null","null","arrowup","[0.675,0.325,0.15,0.85]","","",""
"sailing-trial","233","1076245","0.0-11.0-192.0","","","","false","","","","","","","","","","1115.9000000059605","","5.200000017881393","","3","0","arrowright","1","arrowright","[0.675,0.325,0.15,0.85]","","",""
"sailing-trial","234","1078340","0.0-11.0-193.0","","","","false","","","","","","","","","","null","","788.5","","2","0","null","null","arrowup","[0.675,0.325,0.15,0.85]","","",""
"sailing-trial","235","1082368","0.0-11.0-194.0","","","","false","","","","","","","","","","1480.5","","70.80000001192093","","2","0","arrowright","1","arrowleft","[0.675,0.325,0.15,0.85]","","",""
"sailing-trial","236","1084518","0.0-11.0-195.0","","","","false","","","","","","","","","","null","","823.2999999821186","","3","0","null","null","arrowup","[0.675,0.325,0.15,0.85]","","",""
"sailing-trial","237","1088221","0.0-11.0-196.0","","","","false","","","","","","","","","","695.7999999821186","","76.40000000596046","","0","1","arrowleft","0","arrowleft","[0.675,0.325,0.15,0.85]","","",""
"sailing-trial","238","1090802","0.0-11.0-197.0","","","","false","","","","","","","","","","null","","1044.300000011921","","2","0","null","null","arrowup","[0.675,0.325,0.15,0.85]","","",""
"sailing-trial","239","1094066","0.0-11.0-198.0","","","","false","","","","","","","","","","690.5999999940395","","35.10000002384186","","0","0","arrowleft","0","arrowleft","[0.675,0.325,0.15,0.85]","","",""
"sailing-trial","240","1096266","0.0-11.0-199.0","","","","false","","","","","","","","","","null","","860.2000000178814","","1","0","null","null","arrowup","[0.675,0.325,0.15,0.85]","","",""
"sailing-trial","241","1101177","0.0-11.0-200.0","","","","false","","","","","","","","","","1220.0999999940395","","872","","1","1","arrowleft","0","arrowright","[0.85,0.15,0.325,0.675]","","",""
"sailing-trial","242","1104094","0.0-11.0-201.0","","","","false","","","","","","","","","","null","","1339.199999988079","","3","0","null","null","arrowup","[0.85,0.15,0.325,0.675]","","",""
"sailing-trial","243","1108281","0.0-11.0-202.0","","","","false","","","","","","","","","","1223.9000000059605","","109.5","","1","1","arrowleft","0","arrowright","[0.85,0.15,0.325,0.675]","","",""
"sailing-trial","244","1111884","0.0-11.0-203.0","","","","false","","","","","","","","","","null","","594.1999999880791","","1","0","null","null","arrowup","[0.85,0.15,0.325,0.675]","","",""
"sailing-trial","245","1116440","0.0-11.0-204.0","","","","false","","","","","","","","","","950.2999999821186","","1096.800000011921","","1","0","arrowleft","0","arrowright","[0.85,0.15,0.325,0.675]","","",""
"sailing-trial","246","1119187","0.0-11.0-205.0","","","","false","","","","","","","","","","null","","865.2999999821186","","1","1","null","null","arrowup","[0.85,0.15,0.325,0.675]","","",""
"sailing-trial","247","1123638","0.0-11.0-206.0","","","","false","","","","","","","","","","655.5999999940395","","948.4000000059605","","0","1","arrowleft","0","arrowleft","[0.85,0.15,0.325,0.675]","","",""
"sailing-trial","248","1126069","0.0-11.0-207.0","","","","false","","","","","","","","","","null","","956.5","","1","0","null","null","arrowup","[0.85,0.15,0.325,0.675]","","",""
"sailing-trial","249","1131308","0.0-11.0-208.0","","","","false","","","","","","","","","","910.5","","1453.3999999761581","","3","1","arrowright","1","arrowright","[0.85,0.15,0.325,0.675]","","",""
"sailing-trial","250","1134010","0.0-11.0-209.0","","","","false","","","","","","","","","","null","","1009.9000000059605","","3","0","null","null","arrowup","[0.85,0.15,0.325,0.675]","","",""
"sailing-trial","251","1138577","0.0-11.0-210.0","","","","false","","","","","","","","","","1128.7999999821186","","975.8000000119209","","1","0","arrowleft","0","arrowright","[0.85,0.15,0.325,0.675]","","",""
"sailing-trial","252","1142054","0.0-11.0-211.0","","","","false","","","","","","","","","","null","","2144.0999999940395","","2","0","null","null","arrowup","[0.85,0.15,0.325,0.675]","","",""
"sailing-trial","253","1146064","0.0-11.0-212.0","","","","false","","","","","","","","","","895.4000000059605","","185.2999999821186","","0","1","arrowleft","0","arrowleft","[0.85,0.15,0.325,0.675]","","",""
"sailing-trial","254","1148613","0.0-11.0-213.0","","","","false","","","","","","","","","","null","","1050.8999999761581","","2","0","null","null","arrowup","[0.85,0.15,0.325,0.675]","","",""
"sailing-trial","255","1152484","0.0-11.0-214.0","","","","false","","","","","","","","","","942.5999999940395","","29.5","","0","1","arrowleft","0","arrowleft","[0.85,0.15,0.325,0.675]","","",""
"sailing-trial","256","1155066","0.0-11.0-215.0","","","","false","","","","","","","","","","null","","885","","2","0","null","null","arrowup","[0.85,0.15,0.325,0.675]","","",""
"sailing-trial","257","1158755","0.0-11.0-216.0","","","","false","","","","","","","","","","527.0999999940395","","338.2000000178814","","0","1","arrowleft","0","arrowleft","[0.85,0.15,0.325,0.675]","","",""
"sailing-trial","258","1162141","0.0-11.0-217.0","","","","false","","","","","","","","","","null","","894.4000000059605","","3","1","null","null","arrowup","[0.85,0.15,0.325,0.675]","","",""
"sailing-trial","259","1165624","0.0-11.0-218.0","","","","false","","","","","","","","","","560.9000000059605","","22.700000017881393","","0","1","arrowleft","0","arrowleft","[0.85,0.15,0.325,0.675]","","",""
"sailing-trial","260","1167850","0.0-11.0-219.0","","","","false","","","","","","","","","","null","","739.9000000059605","","2","0","null","null","arrowup","[0.85,0.15,0.325,0.675]","","",""
"sailing-trial","261","1171778","0.0-11.0-220.0","","","","false","","","","","","","","","","574.1999999880791","","491.59999999403954","","0","1","arrowleft","0","arrowleft","[0.85,0.15,0.325,0.675]","","",""
"sailing-trial","262","1174111","0.0-11.0-221.0","","","","false","","","","","","","","","","null","","949.5","","2","0","null","null","arrowup","[0.85,0.15,0.325,0.675]","","",""
"sailing-trial","263","1178145","0.0-11.0-222.0","","","","false","","","","","","","","","","1180.6000000238419","","493.40000000596046","","0","0","arrowleft","0","arrowleft","[0.675,0.325,0.15,0.85]","","",""
"sailing-trial","264","1180946","0.0-11.0-223.0","","","","false","","","","","","","","","","null","","860.4000000059605","","0","0","null","null","arrowup","[0.675,0.325,0.15,0.85]","","",""
"sailing-trial","265","1185251","0.0-11.0-224.0","","","","false","","","","","","","","","","1023.1000000238419","","474","","0","1","arrowleft","0","arrowleft","[0.675,0.325,0.15,0.85]","","",""
"sailing-trial","266","1188371","0.0-11.0-225.0","","","","false","","","","","","","","","","null","","1489.800000011921","","3","0","null","null","arrowup","[0.675,0.325,0.15,0.85]","","",""
"sailing-trial","267","1192338","0.0-11.0-226.0","","","","false","","","","","","","","","","610.8999999761581","","224.5","","0","1","arrowleft","0","arrowleft","[0.675,0.325,0.15,0.85]","","",""
"sailing-trial","268","1194669","0.0-11.0-227.0","","","","false","","","","","","","","","","null","","899","","0","0","null","null","arrowup","[0.675,0.325,0.15,0.85]","","",""
"sailing-trial","269","1198357","0.0-11.0-228.0","","","","false","","","","","","","","","","613.5","","86.90000000596046","","0","1","arrowleft","0","arrowleft","[0.675,0.325,0.15,0.85]","","",""
"sailing-trial","270","1201709","0.0-11.0-229.0","","","","false","","","","","","","","","","null","","966.5","","3","1","null","null","arrowup","[0.675,0.325,0.15,0.85]","","",""
"sailing-trial","271","1205543","0.0-11.0-230.0","","","","false","","","","","","","","","","663.6999999880791","","300.2999999821186","","0","1","arrowleft","0","arrowleft","[0.675,0.325,0.15,0.85]","","",""
"sailing-trial","272","1208412","0.0-11.0-231.0","","","","false","","","","","","","","","","null","","842.9000000059605","","0","1","null","null","arrowup","[0.675,0.325,0.15,0.85]","","",""
"sailing-trial","273","1212231","0.0-11.0-232.0","","","","false","","","","","","","","","","817.7000000178814","","51.80000001192093","","0","1","arrowleft","0","arrowleft","[0.675,0.325,0.15,0.85]","","",""
"sailing-trial","274","1214581","0.0-11.0-233.0","","","","false","","","","","","","","","","null","","879.7000000178814","","0","0","null","null","arrowup","[0.675,0.325,0.15,0.85]","","",""
"sailing-trial","275","1218850","0.0-11.0-234.0","","","","false","","","","","","","","","","830.9000000059605","","443.30000001192093","","0","1","arrowleft","0","arrowleft","[0.675,0.325,0.15,0.85]","","",""
"sailing-trial","276","1221801","0.0-11.0-235.0","","","","false","","","","","","","","","","null","","989.1000000238419","","0","1","null","null","arrowup","[0.675,0.325,0.15,0.85]","","",""
"sailing-trial","277","1225354","0.0-11.0-236.0","","","","false","","","","","","","","","","664.8000000119209","","74.2000000178814","","0","1","arrowleft","0","arrowleft","[0.675,0.325,0.15,0.85]","","",""
"sailing-trial","278","1228038","0.0-11.0-237.0","","","","false","","","","","","","","","","null","","840.3999999761581","","3","1","null","null","arrowup","[0.675,0.325,0.15,0.85]","","",""
"sailing-trial","279","1231322","0.0-11.0-238.0","","","","false","","","","","","","","","","664.2000000178814","","80.7000000178814","","0","0","arrowleft","0","arrowleft","[0.85,0.15,0.325,0.675]","","",""
"sailing-trial","280","1233808","0.0-11.0-239.0","","","","false","","","","","","","","","","null","","568.5999999940395","","0","1","null","null","arrowup","[0.85,0.15,0.325,0.675]","","",""
"sailing-trial","281","1237847","0.0-11.0-240.0","","","","false","","","","","","","","","","1040.5","","527.5999999940395","","1","0","arrowleft","0","arrowright","[0.85,0.15,0.325,0.675]","","",""
"sailing-trial","282","1240678","0.0-11.0-241.0","","","","false","","","","","","","","","","null","","927.8000000119209","","0","1","null","null","arrowup","[0.85,0.15,0.325,0.675]","","",""
"sailing-trial","283","1245346","0.0-11.0-242.0","","","","false","","","","","","","","","","1371.6000000238419","","419.80000001192093","","3","1","arrowright","1","arrowright","[0.85,0.15,0.325,0.675]","","",""
"sailing-trial","284","1247627","0.0-11.0-243.0","","","","false","","","","","","","","","","null","","965.2000000178814","","1","0","null","null","arrowup","[0.85,0.15,0.325,0.675]","","",""
"sailing-trial","285","1250981","0.0-11.0-244.0","","","","false","","","","","","","","","","653.0999999940395","","165.30000001192093","","3","0","arrowright","1","arrowright","[0.85,0.15,0.325,0.675]","","",""
"sailing-trial","286","1254134","0.0-11.0-245.0","","","","false","","","","","","","","","","null","","1008.5","","0","1","null","null","arrowup","[0.85,0.15,0.325,0.675]","","",""
"sailing-trial","287","1258377","0.0-11.0-246.0","","","","false","","","","","","","","","","1460.4000000059605","","399.59999999403954","","0","0","arrowleft","0","arrowleft","[0.85,0.15,0.325,0.675]","","",""
"sailing-trial","288","1260708","0.0-11.0-247.0","","","","false","","","","","","","","","","null","","893.1000000238419","","1","0","null","null","arrowup","[0.85,0.15,0.325,0.675]","","",""
"sailing-trial","289","1264728","0.0-11.0-248.0","","","","false","","","","","","","","","","1222.5","","418.19999998807907","","3","0","arrowright","1","arrowright","[0.85,0.15,0.325,0.675]","","",""
"sailing-trial","290","1266878","0.0-11.0-249.0","","","","false","","","","","","","","","","null","","827.5999999940395","","1","0","null","null","arrowup","[0.85,0.15,0.325,0.675]","","",""
"sailing-trial","291","1270942","0.0-11.0-250.0","","","","false","","","","","","","","","","666.4000000059605","","508.19999998807907","","3","1","arrowright","1","arrowright","[0.85,0.15,0.325,0.675]","","",""
"sailing-trial","292","1273645","0.0-11.0-251.0","","","","false","","","","","","","","","","null","","799.7000000178814","","0","1","null","null","arrowup","[0.85,0.15,0.325,0.675]","","",""
"sailing-trial","293","1278212","0.0-11.0-252.0","","","","false","","","","","","","","","","921.8000000119209","","802.1999999880791","","3","1","arrowright","1","arrowright","[0.85,0.15,0.325,0.675]","","",""
"sailing-trial","294","1281297","0.0-11.0-253.0","","","","false","","","","","","","","","","null","","1230.300000011921","","0","1","null","null","arrowup","[0.85,0.15,0.325,0.675]","","",""
"sailing-trial","295","1285466","0.0-11.0-254.0","","","","false","","","","","","","","","","645.5","","554.6999999880791","","3","1","arrowright","1","arrowright","[0.675,0.325,0.15,0.85]","","",""
"sailing-trial","296","1287726","0.0-11.0-255.0","","","","false","","","","","","","","","","null","","905.6999999880791","","3","0","null","null","arrowup","[0.675,0.325,0.15,0.85]","","",""
"sailing-trial","297","1292002","0.0-11.0-256.0","","","","false","","","","","","","","","","862.3000000119209","","480.5","","3","1","arrowright","1","arrowright","[0.675,0.325,0.15,0.85]","","",""
"sailing-trial","298","1294538","0.0-11.0-257.0","","","","false","","","","","","","","","","null","","697","","0","1","null","null","arrowup","[0.675,0.325,0.15,0.85]","","",""
"sailing-trial","299","1298128","0.0-11.0-258.0","","","","false","","","","","","","","","","1191.9000000059605","","59.80000001192093","","3","0","arrowright","1","arrowright","[0.675,0.325,0.15,0.85]","","",""
"sailing-trial","300","1301259","0.0-11.0-259.0","","","","false","","","","","","","","","","null","","676.2000000178814","","3","0","null","null","arrowup","[0.675,0.325,0.15,0.85]","","",""
"sailing-trial","301","1304741","0.0-11.0-260.0","","","","false","","","","","","","","","","520.5","","470","","2","0","arrowright","1","arrowleft","[0.675,0.325,0.15,0.85]","","",""
"sailing-trial","302","1306805","0.0-11.0-261.0","","","","false","","","","","","","","","","null","","749.7999999821186","","2","0","null","null","arrowup","[0.675,0.325,0.15,0.85]","","",""
"sailing-trial","303","1310861","0.0-11.0-262.0","","","","false","","","","","","","","","","792.5","","344.09999999403954","","3","1","arrowright","1","arrowright","[0.675,0.325,0.15,0.85]","","",""
"sailing-trial","304","1313696","0.0-11.0-263.0","","","","false","","","","","","","","","","null","","958.1000000238419","","0","1","null","null","arrowup","[0.675,0.325,0.15,0.85]","","",""
"sailing-trial","305","1317273","0.0-11.0-264.0","","","","false","","","","","","","","","","680.4000000059605","","448.2000000178814","","3","0","arrowright","1","arrowright","[0.675,0.325,0.15,0.85]","","",""
"sailing-trial","306","1319448","0.0-11.0-265.0","","","","false","","","","","","","","","","null","","848.1000000238419","","2","0","null","null","arrowup","[0.675,0.325,0.15,0.85]","","",""
"sailing-trial","307","1323034","0.0-11.0-266.0","","","","false","","","","","","","","","","603.4000000059605","","47.900000005960464","","3","1","arrowright","1","arrowright","[0.675,0.325,0.15,0.85]","","",""
"sailing-trial","308","1325585","0.0-11.0-267.0","","","","false","","","","","","","","","","null","","701.7999999821186","","0","1","null","null","arrowup","[0.675,0.325,0.15,0.85]","","",""
"sailing-trial","309","1329671","0.0-11.0-268.0","","","","false","","","","","","","","","","1152.0999999940395","","73.10000002384186","","3","1","arrowright","1","arrowright","[0.675,0.325,0.15,0.85]","","",""
"sailing-trial","310","1331859","0.0-11.0-269.0","","","","false","","","","","","","","","","null","","848.5","","1","0","null","null","arrowup","[0.675,0.325,0.15,0.85]","","",""
"sailing-trial","311","1335640","0.0-11.0-270.0","","","","false","","","","","","","","","","569.4000000059605","","349.09999999403954","","3","1","arrowright","1","arrowright","[0.85,0.15,0.325,0.675]","","",""
"sailing-trial","312","1338425","0.0-11.0-271.0","","","","false","","","","","","","","","","null","","872.9000000059605","","0","1","null","null","arrowup","[0.85,0.15,0.325,0.675]","","",""
"sailing-trial","313","1342710","0.0-11.0-272.0","","","","false","","","","","","","","","","1290.699999988079","","152.69999998807907","","3","1","arrowright","1","arrowright","[0.85,0.15,0.325,0.675]","","",""
"sailing-trial","314","1346414","0.0-11.0-273.0","","","","false","","","","","","","","","","null","","691.8000000119209","","1","0","null","null","arrowup","[0.85,0.15,0.325,0.675]","","",""
"sailing-trial","315","1349948","0.0-11.0-274.0","","","","false","","","","","","","","","","533.6999999880791","","64.69999998807907","","3","1","arrowright","1","arrowright","[0.85,0.15,0.325,0.675]","","",""
"sailing-trial","316","1352899","0.0-11.0-275.0","","","","false","","","","","","","","","","null","","703","","2","1","null","null","arrowup","[0.85,0.15,0.325,0.675]","","",""
"sailing-trial","317","1356751","0.0-11.0-276.0","","","","false","","","","","","","","","","714.4000000059605","","70","","3","1","arrowright","1","arrowright","[0.85,0.15,0.325,0.675]","","",""
"sailing-trial","318","1359468","0.0-11.0-277.0","","","","false","","","","","","","","","","null","","859.6999999880791","","2","1","null","null","arrowup","[0.85,0.15,0.325,0.675]","","",""
"sailing-trial","319","1364288","0.0-11.0-278.0","","","","false","","","","","","","","","","814.5999999940395","","515.2999999821186","","3","1","arrowright","1","arrowright","[0.85,0.15,0.325,0.675]","","",""
"sailing-trial","320","1366354","0.0-11.0-279.0","","","","false","","","","","","","","","","null","","673.9000000059605","","1","0","null","null","arrowup","[0.85,0.15,0.325,0.675]","","",""
"sailing-trial","321","1370367","0.0-11.0-280.0","","","","false","","","","","","","","","","787","","397.7999999821186","","3","0","arrowright","1","arrowright","[0.85,0.15,0.325,0.675]","","",""
"sailing-trial","322","1373158","0.0-11.0-281.0","","","","false","","","","","","","","","","null","","906.8000000119209","","2","1","null","null","arrowup","[0.85,0.15,0.325,0.675]","","",""
"sailing-trial","323","1377479","0.0-11.0-282.0","","","","false","","","","","","","","","","1121.800000011921","","276.09999999403954","","3","1","arrowright","1","arrowright","[0.85,0.15,0.325,0.675]","","",""
"sailing-trial","324","1380123","0.0-11.0-283.0","","","","false","","","","","","","","","","null","","1227.4000000059605","","3","0","null","null","arrowup","[0.85,0.15,0.325,0.675]","","",""
"sailing-trial","325","1384913","0.0-11.0-284.0","","","","false","","","","","","","","","","1517.199999988079","","384.09999999403954","","2","1","arrowright","1","arrowleft","[0.85,0.15,0.325,0.675]","","",""
"sailing-trial","326","1387617","0.0-11.0-285.0","","","","false","","","","","","","","","","null","","751.0999999940395","","3","1","null","null","arrowup","[0.85,0.15,0.325,0.675]","","",""
"sailing-trial","327","1392534","0.0-11.0-286.0","","","","false","","","","","","","","","","1927.0999999940395","","52.80000001192093","","2","1","arrowright","1","arrowleft","[0.85,0.15,0.325,0.675]","","",""
"sailing-trial","328","1394557","0.0-11.0-287.0","","","","false","","","","","","","","","","null","","698","","2","0","null","null","arrowup","[0.85,0.15,0.325,0.675]","","",""
"sailing-trial","329","1398301","0.0-11.0-288.0","","","","false","","","","","","","","","","1143.5","","78","","2","0","arrowright","1","arrowleft","[0.85,0.15,0.325,0.675]","","",""
"sailing-trial","330","1400353","0.0-11.0-289.0","","","","false","","","","","","","","","","null","","728.4000000059605","","1","0","null","null","arrowup","[0.85,0.15,0.325,0.675]","","",""
"sailing-trial","331","1405473","0.0-11.0-290.0","","","","false","","","","","","","","","","1057.199999988079","","1193.6000000238419","","0","1","arrowleft","0","arrowleft","[0.85,0.15,0.325,0.675]","","",""
"sailing-trial","332","1408087","0.0-11.0-291.0","","","","false","","","","","","","","","","null","","862.7000000178814","","3","0","null","null","arrowup","[0.85,0.15,0.325,0.675]","","",""
"sailing-trial","333","1411695","0.0-11.0-292.0","","","","false","","","","","","","","","","955.7000000178814","","125.10000002384186","","0","0","arrowleft","0","arrowleft","[0.85,0.15,0.325,0.675]","","",""
"sailing-trial","334","1414711","0.0-11.0-293.0","","","","false","","","","","","","","","","null","","876.3999999761581","","2","1","null","null","arrowup","[0.85,0.15,0.325,0.675]","","",""
"sailing-trial","335","1418313","0.0-11.0-294.0","","","","false","","","","","","","","","","642.4000000059605","","22.099999994039536","","0","1","arrowleft","0","arrowleft","[0.325,0.675,0.85,0.15]","","",""
"sailing-trial","336","1420644","0.0-11.0-295.0","","","","false","","","","","","","","","","null","","953.3999999761581","","0","0","null","null","arrowup","[0.325,0.675,0.85,0.15]","","",""
"sailing-trial","337","1424117","0.0-11.0-296.0","","","","false","","","","","","","","","","916.5999999940395","","152.7999999821186","","0","0","arrowleft","0","arrowleft","[0.325,0.675,0.85,0.15]","","",""
"sailing-trial","338","1426603","0.0-11.0-297.0","","","","false","","","","","","","","","","null","","1037.5999999940395","","3","0","null","null","arrowup","[0.325,0.675,0.85,0.15]","","",""
"sailing-trial","339","1430718","0.0-11.0-298.0","","","","false","","","","","","","","","","622.3000000119209","","569.9000000059605","","0","1","arrowleft","0","arrowleft","[0.325,0.675,0.85,0.15]","","",""
"sailing-trial","340","1433158","0.0-11.0-299.0","","","","false","","","","","","","","","","null","","995.5","","0","0","null","null","arrowup","[0.325,0.675,0.85,0.15]","","",""
"sailing-trial","341","1436116","0.0-11.0-300.0","","","","false","","","","","","","","","","542.2999999821186","","4.299999982118607","","0","0","arrowleft","0","arrowleft","[0.325,0.675,0.85,0.15]","","",""
"sailing-trial","342","1438774","0.0-11.0-301.0","","","","false","","","","","","","","","","null","","748.1999999880791","","3","1","null","null","arrowup","[0.325,0.675,0.85,0.15]","","",""
"sailing-trial","343","1442104","0.0-11.0-302.0","","","","false","","","","","","","","","","507","","364.59999999403954","","0","0","arrowleft","0","arrowleft","[0.325,0.675,0.85,0.15]","","",""
"sailing-trial","344","1444182","0.0-11.0-303.0","","","","false","","","","","","","","","","null","","728.9000000059605","","2","0","null","null","arrowup","[0.325,0.675,0.85,0.15]","","",""
"sailing-trial","345","1447438","0.0-11.0-304.0","","","","false","","","","","","","","","","590.2000000178814","","64.2000000178814","","0","0","arrowleft","0","arrowleft","[0.325,0.675,0.85,0.15]","","",""
"sailing-trial","346","1449813","0.0-11.0-305.0","","","","false","","","","","","","","","","null","","670.5999999940395","","0","0","null","null","arrowup","[0.325,0.675,0.85,0.15]","","",""
"sailing-trial","347","1453763","0.0-11.0-306.0","","","","false","","","","","","","","","","907.2999999821186","","145.59999999403954","","1","1","arrowleft","0","arrowright","[0.325,0.675,0.85,0.15]","","",""
"sailing-trial","348","1456781","0.0-11.0-307.0","","","","false","","","","","","","","","","null","","1103.699999988079","","1","1","null","null","arrowup","[0.325,0.675,0.85,0.15]","","",""
"sailing-trial","349","1460899","0.0-11.0-308.0","","","","false","","","","","","","","","","1492.4000000059605","","72.69999998807907","","1","0","arrowleft","0","arrowright","[0.325,0.675,0.85,0.15]","","",""
"sailing-trial","350","1463669","0.0-11.0-309.0","","","","false","","","","","","","","","","null","","816.3000000119209","","1","1","null","null","arrowup","[0.325,0.675,0.85,0.15]","","",""
"sailing-trial","351","1466849","0.0-11.0-310.0","","","","false","","","","","","","","","","628.4000000059605","","65.80000001192093","","3","0","arrowright","1","arrowright","[0.325,0.675,0.85,0.15]","","",""
"sailing-trial","352","1469422","0.0-11.0-311.0","","","","false","","","","","","","","","","null","","737","","0","1","null","null","arrowup","[0.325,0.675,0.85,0.15]","","",""
"sailing-trial","353","1473090","0.0-11.0-312.0","","","","false","","","","","","","","","","532.6999999880791","","240.59999999403954","","1","1","arrowleft","0","arrowright","[0.325,0.675,0.85,0.15]","","",""
"sailing-trial","354","1475530","0.0-11.0-313.0","","","","false","","","","","","","","","","null","","944.5999999940395","","0","0","null","null","arrowup","[0.325,0.675,0.85,0.15]","","",""
"sailing-trial","355","1479593","0.0-11.0-314.0","","","","false","","","","","","","","","","1126.4000000059605","","18.400000005960464","","0","1","arrowleft","0","arrowleft","[0.675,0.325,0.15,0.85]","","",""
"sailing-trial","356","1482895","0.0-11.0-315.0","","","","false","","","","","","","","","","null","","1219.1000000238419","","0","1","null","null","arrowup","[0.675,0.325,0.15,0.85]","","",""
"sailing-trial","357","1486895","0.0-11.0-316.0","","","","false","","","","","","","","","","618.0999999940395","","391.09999999403954","","0","1","arrowleft","0","arrowleft","[0.675,0.325,0.15,0.85]","","",""
"sailing-trial","358","1489866","0.0-11.0-317.0","","","","false","","","","","","","","","","null","","1033.300000011921","","1","1","null","null","arrowup","[0.675,0.325,0.15,0.85]","","",""
"sailing-trial","359","1493490","0.0-11.0-318.0","","","","false","","","","","","","","","","470.80000001192093","","428.2000000178814","","0","0","arrowleft","0","arrowleft","[0.675,0.325,0.15,0.85]","","",""
"sailing-trial","360","1497038","0.0-11.0-319.0","","","","false","","","","","","","","","","null","","583.4000000059605","","3","0","null","null","arrowup","[0.675,0.325,0.15,0.85]","","",""
"sailing-trial","361","1500868","0.0-11.0-320.0","","","","false","","","","","","","","","","466.40000000596046","","74.30000001192093","","3","1","arrowright","1","arrowright","[0.675,0.325,0.15,0.85]","","",""
"sailing-trial","362","1503704","0.0-11.0-321.0","","","","false","","","","","","","","","","null","","973.1999999880791","","3","1","null","null","arrowup","[0.675,0.325,0.15,0.85]","","",""
"sailing-trial","363","1507341","0.0-11.0-322.0","","","","false","","","","","","","","","","581.7999999821186","","88.09999999403954","","3","1","arrowright","1","arrowright","[0.675,0.325,0.15,0.85]","","",""
"sailing-trial","364","1509350","0.0-11.0-323.0","","","","false","","","","","","","","","","null","","620.4000000059605","","3","0","null","null","arrowup","[0.675,0.325,0.15,0.85]","","",""
"sailing-trial","365","1512875","0.0-11.0-324.0","","","","false","","","","","","","","","","560.2000000178814","","93","","3","1","arrowright","1","arrowright","[0.675,0.325,0.15,0.85]","","",""
"sailing-trial","366","1515050","0.0-11.0-325.0","","","","false","","","","","","","","","","null","","807.8000000119209","","2","0","null","null","arrowup","[0.675,0.325,0.15,0.85]","","",""
"sailing-trial","367","1518929","0.0-11.0-326.0","","","","false","","","","","","","","","","597.3000000119209","","366.09999999403954","","3","1","arrowright","1","arrowright","[0.675,0.325,0.15,0.85]","","",""
"sailing-trial","368","1521189","0.0-11.0-327.0","","","","false","","","","","","","","","","null","","824.2000000178814","","0","0","null","null","arrowup","[0.675,0.325,0.15,0.85]","","",""
"sailing-trial","369","1524715","0.0-11.0-328.0","","","","false","","","","","","","","","","573.6999999880791","","15.799999982118607","","3","1","arrowright","1","arrowright","[0.675,0.325,0.15,0.85]","","",""
"sailing-trial","370","1526803","0.0-11.0-329.0","","","","false","","","","","","","","","","null","","691.6999999880791","","1","0","null","null","arrowup","[0.675,0.325,0.15,0.85]","","",""
"sailing-trial","371","1530198","0.0-11.0-330.0","","","","false","","","","","","","","","","540.6000000238419","","464.2000000178814","","3","0","arrowright","1","arrowright","[0.325,0.675,0.85,0.15]","","",""
"sailing-trial","372","1532769","0.0-11.0-331.0","","","","false","","","","","","","","","","null","","669","","2","1","null","null","arrowup","[0.325,0.675,0.85,0.15]","","",""
"sailing-trial","373","1536473","0.0-11.0-332.0","","","","false","","","","","","","","","","736.9000000059605","","352","","0","0","arrowleft","0","arrowleft","[0.325,0.675,0.85,0.15]","","",""
"sailing-trial","374","1539289","0.0-11.0-333.0","","","","false","","","","","","","","","","null","","710.1999999880791","","1","1","null","null","arrowup","[0.325,0.675,0.85,0.15]","","",""
"sailing-trial","375","1543605","0.0-11.0-334.0","","","","false","","","","","","","","","","1325.800000011921","","442.2000000178814","","0","0","arrowleft","0","arrowleft","[0.325,0.675,0.85,0.15]","","",""
"sailing-trial","376","1546241","0.0-11.0-335.0","","","","false","","","","","","","","","","null","","723.7999999821186","","2","1","null","null","arrowup","[0.325,0.675,0.85,0.15]","","",""
"sailing-trial","377","1549589","0.0-11.0-336.0","","","","false","","","","","","","","","","597.7999999821186","","118.5","","3","0","arrowright","1","arrowright","[0.325,0.675,0.85,0.15]","","",""
"sailing-trial","378","1551943","0.0-11.0-337.0","","","","false","","","","","","","","","","null","","1061.2000000178814","","3","0","null","null","arrowup","[0.325,0.675,0.85,0.15]","","",""
"sailing-trial","379","1555929","0.0-11.0-338.0","","","","false","","","","","","","","","","1020.2000000178814","","16.80000001192093","","2","1","arrowright","1","arrowleft","[0.325,0.675,0.85,0.15]","","",""
"sailing-trial","380","1559899","0.0-11.0-339.0","","","","false","","","","","","","","","","null","","964.8000000119209","","0","0","null","null","arrowup","[0.325,0.675,0.85,0.15]","","",""
"sailing-trial","381","1563816","0.0-11.0-340.0","","","","false","","","","","","","","","","738.2000000178814","","381","","2","1","arrowright","1","arrowleft","[0.325,0.675,0.85,0.15]","","",""
"sailing-trial","382","1565758","0.0-11.0-341.0","","","","false","","","","","","","","","","null","","557.9000000059605","","3","0","null","null","arrowup","[0.325,0.675,0.85,0.15]","","",""
"sailing-trial","383","1569690","0.0-11.0-342.0","","","","false","","","","","","","","","","783","","611.1999999880791","","3","0","arrowright","1","arrowright","[0.325,0.675,0.85,0.15]","","",""
"sailing-trial","384","1571769","0.0-11.0-343.0","","","","false","","","","","","","","","","null","","768.5","","1","0","null","null","arrowup","[0.325,0.675,0.85,0.15]","","",""
"sailing-trial","385","1575424","0.0-11.0-344.0","","","","false","","","","","","","","","","568.2999999821186","","245","","2","1","arrowright","1","arrowleft","[0.325,0.675,0.85,0.15]","","",""
"sailing-trial","386","1577980","0.0-11.0-345.0","","","","false","","","","","","","","","","null","","1212.2000000178814","","0","0","null","null","arrowup","[0.325,0.675,0.85,0.15]","","",""
"sailing-trial","387","1581574","0.0-11.0-346.0","","","","false","","","","","","","","","","902.6999999880791","","206.59999999403954","","0","0","arrowleft","0","arrowleft","[0.325,0.675,0.85,0.15]","","",""
"sailing-trial","388","1584443","0.0-11.0-347.0","","","","false","","","","","","","","","","null","","1030.199999988079","","2","1","null","null","arrowup","[0.325,0.675,0.85,0.15]","","",""
"sailing-trial","389","1587959","0.0-11.0-348.0","","","","false","","","","","","","","","","511.30000001192093","","497.59999999403954","","1","0","arrowleft","0","arrowright","[0.325,0.675,0.85,0.15]","","",""
"sailing-trial","390","1591012","0.0-11.0-349.0","","","","false","","","","","","","","","","null","","939","","1","1","null","null","arrowup","[0.325,0.675,0.85,0.15]","","",""
"sailing-trial","391","1595115","0.0-11.0-350.0","","","","false","","","","","","","","","","766.2999999821186","","433.80000001192093","","3","1","arrowright","1","arrowright","[0.15,0.85,0.675,0.325]","","",""
"sailing-trial","392","1597862","0.0-11.0-351.0","","","","false","","","","","","","","","","null","","1198.3999999761581","","0","0","null","null","arrowup","[0.15,0.85,0.675,0.325]","","",""
"sailing-trial","393","1601065","0.0-11.0-352.0","","","","false","","","","","","","","","","490","","239.40000000596046","","3","0","arrowright","1","arrowright","[0.15,0.85,0.675,0.325]","","",""
"sailing-trial","394","1603970","0.0-11.0-353.0","","","","false","","","","","","","","","","null","","779.5","","0","0","null","null","arrowup","[0.15,0.85,0.675,0.325]","","",""
"sailing-trial","395","1607438","0.0-11.0-354.0","","","","false","","","","","","","","","","566.5999999940395","","450.40000000596046","","3","0","arrowright","1","arrowright","[0.15,0.85,0.675,0.325]","","",""
"sailing-trial","396","1609671","0.0-11.0-355.0","","","","false","","","","","","","","","","null","","854.4000000059605","","2","0","null","null","arrowup","[0.15,0.85,0.675,0.325]","","",""
"sailing-trial","397","1613406","0.0-11.0-356.0","","","","false","","","","","","","","","","625.4000000059605","","502","","3","0","arrowright","1","arrowright","[0.15,0.85,0.675,0.325]","","",""
"sailing-trial","398","1616325","0.0-11.0-357.0","","","","false","","","","","","","","","","null","","817.6000000238419","","1","1","null","null","arrowup","[0.15,0.85,0.675,0.325]","","",""
"sailing-trial","399","1621077","0.0-11.0-358.0","","","","false","","","","","","","","","","1496.5","","418.90000000596046","","0","1","arrowleft","0","arrowleft","[0.15,0.85,0.675,0.325]","","",""
"sailing-trial","400","1624095","0.0-11.0-359.0","","","","false","","","","","","","","","","null","","998.2000000178814","","1","1","null","null","arrowup","[0.15,0.85,0.675,0.325]","","",""
"sailing-trial","401","1627400","0.0-11.0-360.0","","","","false","","","","","","","","","","719","","44.30000001192093","","0","0","arrowleft","0","arrowleft","[0.15,0.85,0.675,0.325]","","",""
"sailing-trial","402","1629516","0.0-11.0-361.0","","","","false","","","","","","","","","","null","","685.3000000119209","","3","0","null","null","arrowup","[0.15,0.85,0.675,0.325]","","",""
"sailing-trial","403","1633346","0.0-11.0-362.0","","","","false","","","","","","","","","","1215.199999988079","","311.5","","1","0","arrowleft","0","arrowright","[0.15,0.85,0.675,0.325]","","",""
"sailing-trial","404","1636443","0.0-11.0-363.0","","","","false","","","","","","","","","","null","","694.8000000119209","","0","0","null","null","arrowup","[0.15,0.85,0.675,0.325]","","",""
"sailing-trial","405","1639966","0.0-11.0-364.0","","","","false","","","","","","","","","","727.5999999940395","","368.7000000178814","","0","0","arrowleft","0","arrowleft","[0.15,0.85,0.675,0.325]","","",""
"sailing-trial","406","1642738","0.0-11.0-365.0","","","","false","","","","","","","","","","null","","936.5","","1","1","null","null","arrowup","[0.15,0.85,0.675,0.325]","","",""
"sailing-trial","407","1646823","0.0-11.0-366.0","","","","false","","","","","","","","","","1081.800000011921","","48.5","","1","1","arrowleft","0","arrowright","[0.15,0.85,0.675,0.325]","","",""
"sailing-trial","408","1649876","0.0-11.0-367.0","","","","false","","","","","","","","","","null","","1085.7999999821186","","1","1","null","null","arrowup","[0.15,0.85,0.675,0.325]","","",""
"sailing-trial","409","1654146","0.0-11.0-368.0","","","","false","","","","","","","","","","1093.2999999821186","","206.40000000596046","","0","1","arrowleft","0","arrowleft","[0.85,0.15,0.325,0.675]","","",""
"sailing-trial","410","1656611","0.0-11.0-369.0","","","","false","","","","","","","","","","null","","897.1999999880791","","0","0","null","null","arrowup","[0.85,0.15,0.325,0.675]","","",""
"sailing-trial","411","1660296","0.0-11.0-370.0","","","","false","","","","","","","","","","596.8000000119209","","153.59999999403954","","0","1","arrowleft","0","arrowleft","[0.85,0.15,0.325,0.675]","","",""
"sailing-trial","412","1662776","0.0-11.0-371.0","","","","false","","","","","","","","","","null","","1141.699999988079","","1","0","null","null","arrowup","[0.85,0.15,0.325,0.675]","","",""
"sailing-trial","413","1666449","0.0-11.0-372.0","","","","false","","","","","","","","","","619.7000000178814","","91","","0","1","arrowleft","0","arrowleft","[0.85,0.15,0.325,0.675]","","",""
"sailing-trial","414","1669457","0.0-11.0-373.0","","","","false","","","","","","","","","","null","","1598.0999999940395","","0","0","null","null","arrowup","[0.85,0.15,0.325,0.675]","","",""
"sailing-trial","415","1673520","0.0-11.0-374.0","","","","false","","","","","","","","","","1074.5","","45.30000001192093","","0","1","arrowleft","0","arrowleft","[0.85,0.15,0.325,0.675]","","",""
"sailing-trial","416","1676486","0.0-11.0-375.0","","","","false","","","","","","","","","","null","","1137.3999999761581","","3","1","null","null","arrowup","[0.85,0.15,0.325,0.675]","","",""
"sailing-trial","417","1680591","0.0-11.0-376.0","","","","false","","","","","","","","","","636","","527.1999999880791","","0","1","arrowleft","0","arrowleft","[0.85,0.15,0.325,0.675]","","",""
"sailing-trial","418","1683424","0.0-11.0-377.0","","","","false","","","","","","","","","","null","","956.3000000119209","","3","1","null","null","arrowup","[0.85,0.15,0.325,0.675]","","",""
"sailing-trial","419","1687108","0.0-11.0-378.0","","","","false","","","","","","","","","","743.6999999880791","","56.70000001788139","","0","1","arrowleft","0","arrowleft","[0.85,0.15,0.325,0.675]","","",""
"sailing-trial","420","1689910","0.0-11.0-379.0","","","","false","","","","","","","","","","null","","942","","0","1","null","null","arrowup","[0.85,0.15,0.325,0.675]","","",""
"sailing-trial","421","1693879","0.0-11.0-380.0","","","","false","","","","","","","","","","867.4000000059605","","227.80000001192093","","0","1","arrowleft","0","arrowleft","[0.85,0.15,0.325,0.675]","","",""
"sailing-trial","422","1696219","0.0-11.0-381.0","","","","false","","","","","","","","","","null","","993.5999999940395","","1","0","null","null","arrowup","[0.85,0.15,0.325,0.675]","","",""
"sailing-trial","423","1699950","0.0-11.0-382.0","","","","false","","","","","","","","","","799.2999999821186","","27.5","","0","1","arrowleft","0","arrowleft","[0.85,0.15,0.325,0.675]","","",""
"sailing-trial","424","1702617","0.0-11.0-383.0","","","","false","","","","","","","","","","null","","809.0999999940395","","3","1","null","null","arrowup","[0.85,0.15,0.325,0.675]","","",""
"sailing-trial","425","1706153","0.0-11.0-384.0","","","","false","","","","","","","","","","577.9000000059605","","18.099999994039536","","0","1","arrowleft","0","arrowleft","[0.325,0.675,0.85,0.15]","","",""
"sailing-trial","426","1708376","0.0-11.0-385.0","","","","false","","","","","","","","","","null","","891.5","","3","0","null","null","arrowup","[0.325,0.675,0.85,0.15]","","",""
"sailing-trial","427","1711304","0.0-11.0-386.0","","","","false","","","","","","","","","","565.8000000119209","","13.599999994039536","","0","0","arrowleft","0","arrowleft","[0.325,0.675,0.85,0.15]","","",""
"sailing-trial","428","1713399","0.0-11.0-387.0","","","","false","","","","","","","","","","null","","680.2999999821186","","3","0","null","null","arrowup","[0.325,0.675,0.85,0.15]","","",""
"sailing-trial","429","1717243","0.0-11.0-388.0","","","","false","","","","","","","","","","777.1999999880791","","664.9000000059605","","3","0","arrowright","1","arrowright","[0.325,0.675,0.85,0.15]","","",""
"sailing-trial","430","1719602","0.0-11.0-389.0","","","","false","","","","","","","","","","null","","1000.8000000119209","","3","0","null","null","arrowup","[0.325,0.675,0.85,0.15]","","",""
"sailing-trial","431","1724326","0.0-11.0-390.0","","","","false","","","","","","","","","","775.5999999940395","","961.3000000119209","","2","1","arrowright","1","arrowleft","[0.325,0.675,0.85,0.15]","","",""
"sailing-trial","432","1726478","0.0-11.0-391.0","","","","false","","","","","","","","","","null","","721","","1","0","null","null","arrowup","[0.325,0.675,0.85,0.15]","","",""
"sailing-trial","433","1730563","0.0-11.0-392.0","","","","false","","","","","","","","","","852.6999999880791","","211.19999998807907","","2","1","arrowright","1","arrowleft","[0.325,0.675,0.85,0.15]","","",""
"sailing-trial","434","1732874","0.0-11.0-393.0","","","","false","","","","","","","","","","null","","949.3000000119209","","1","0","null","null","arrowup","[0.325,0.675,0.85,0.15]","","",""
"sailing-trial","435","1736818","0.0-11.0-394.0","","","","false","","","","","","","","","","749.5999999940395","","174.2000000178814","","2","1","arrowright","1","arrowleft","[0.325,0.675,0.85,0.15]","","",""
"sailing-trial","436","1739350","0.0-11.0-395.0","","","","false","","","","","","","","","","null","","954.6999999880791","","3","1","null","null","arrowup","[0.325,0.675,0.85,0.15]","","",""
"sailing-trial","437","1743371","0.0-11.0-396.0","","","","false","","","","","","","","","","1048.199999988079","","62.900000005960464","","2","1","arrowright","1","arrowleft","[0.325,0.675,0.85,0.15]","","",""
"sailing-trial","438","1746254","0.0-11.0-397.0","","","","false","","","","","","","","","","null","","976","","2","1","null","null","arrowup","[0.325,0.675,0.85,0.15]","","",""
"sailing-trial","439","1750056","0.0-11.0-398.0","","","","false","","","","","","","","","","1000.6000000238419","","209.2000000178814","","2","0","arrowright","1","arrowleft","[0.325,0.675,0.85,0.15]","","",""
"sailing-trial","440","1752494","0.0-11.0-399.0","","","","false","","","","","","","","","","null","","1072.9000000059605","","3","0","null","null","arrowup","[0.325,0.675,0.85,0.15]","","",""
"instructions","441","1757829","0.0-12.0","","","","","","","","","","5334.4000000059605","","","","","","","","","","","","","","","","[{""page_index"":0,""viewing_time"":5333.5999999940395}]"
"survey-debrief","442","1769877","0.0-13.0","","","","","","","","","","12046.59999999404","","","","","","","","","","","","","","{""difficulty"":""3"",""fun"":""3"",""clarity"":""5"",""strategy"":"""",""feedback"":""""}","",""
