"trial_type","trial_index","time_elapsed","internal_node_id","value","metadata","success","timeout","failed_images","failed_audio","failed_video","browser_interaction","low_quality","rt","stimulus","response","button_pressed","island_rt","island_response","boat_rt","boat_response","boat","reward","island_key","island","boat_key","reward_probabilities","responses","num_errors","view_history"
"pavlovia","0","2","0.0-0.0","","","","","","","","","","","","","","","","","","","","","","","","","",""
"call-function","1","3","0.0-1.0","","{""task_version"":""sr_pilot_v2"",""task_condition"":""good"",""boats"":[""D"",""C"",""B"",""A""],""boats_demo"":[""E"",""G"",""H"",""F""],""islands"":[""B"",""A""],""subject_id"":""13849"",""age"":""11"",""gender"":""Female""}","","","","","","","","","","","","","","","","","","","","","","","",""
"preload","2","7483","0.0-2.0","","","true","false","[]","[]","[]","[{""event"":""fullscreenenter"",""trial"":3,""time"":12094}]","false","","","","","","","","","","","","","","","","",""
"fullscreen","3","13072","0.0-3.0","","","true","","","","","","","","","","","","","","","","","","","","","","",""
"audio-keyboard-response","4","15028","0.0-4.0-0.0","","","","","","","","","","821.3333333333334","audio/beep_loop.wav"," ","","","","","","","","","","","","","",""
"audio-test","5","17262","0.0-4.0-1.0","","","","","","","","","","null","audio/turtle.mp3","","3","","","","","","","","","","","","",""
"audio-test","6","19794","0.0-4.0-2.0","","","","","","","","","","null","audio/shark.mp3","","2","","","","","","","","","","","","",""
"sailing-instructions","7","55318","0.0-5.0-0.0-0.0","","","","","","","","","","","","","","null","null","null","null","null","null","","","","","","",""
"sailing-trial","8","60255","0.0-5.0-0.0-1.0-0.0","","","","false","","","","","","","","","","3809.6999999284744","","null","","null","null","arrowleft","0","null","null","","",""
"sailing-trial","9","62299","0.0-5.0-0.0-1.0-1.0","","","","false","","","","","","","","","","923.6000000238419","","null","","null","null","arrowright","1","null","null","","",""
"sailing-trial","10","66812","0.0-5.0-0.0-1.0-2.0","","","","false","","","","","","","","","","3377.8000000715256","","null","","null","null","arrowleft","0","null","null","","",""
"sailing-instructions","11","112244","0.0-5.0-0.0-2.0","","","","","","","","","","","","","","null","null","null","null","0","null","","","","","","",""
"sailing-trial","12","119317","0.0-5.0-0.0-3.0-0.0","","","","false","","","","","","","","","","null","","3235.100000023842","","2","1","null","null","arrowleft","[1,1,1,1]","","",""
"sailing-trial","13","126992","0.0-5.0-0.0-3.0-1.0","","","","false","","","","","","","","","","null","","4273.799999952316","","3","1","null","null","arrowright","[1,1,1,1]","","",""
"sailing-trial","14","132491","0.0-5.0-0.0-3.0-2.0","","","","false","","","","","","","","","","null","","1937.7999999523163","","3","0","null","null","arrowright","[0,0,0,0]","","",""
"sailing-instructions","15","140329","0.0-5.0-0.0-4.0","","","","","","","","","","","","","","null","null","null","null","null","null","","","","","","",""
"sailing-comprehension","16","182439","0.0-5.0-0.0-5.0","","","","","","","","","","37607","","","","","","","","","","","","","","[""true"",""true"",""false"",""true""]","0",""
"sailing-instructions","17","252406","0.0-6.0-0.0-0.0","","","","","","","","","","","","","","null","null","null","null","null","null","","","","","","",""
"sailing-comprehension","18","274061","0.0-6.0-0.0-1.0","","","","","","","","","","18398.299999952316","","","","","","","","","","","","","","[""true"",""false"",""true""]","0",""
"sailing-instructions","19","289806","0.0-7.0-0.0-0.0","","","","","","","","","","","","","","null","null","null","null","null","null","","","","","","",""
"sailing-trial","20","296174","0.0-7.0-0.0-1.0-0.0","","","","false","","","","","","","","","","null","","2928.6999999284744","","0","1","null","null","arrowup","[0.2,0.8,0.2,0.8]","","",""
"sailing-trial","21","300860","0.0-7.0-0.0-1.0-1.0","","","","false","","","","","","","","","","null","","2201.2999999523163","","1","1","null","null","arrowup","[0.2,0.8,0.2,0.8]","","",""
"sailing-trial","22","304818","0.0-7.0-0.0-1.0-2.0","","","","false","","","","","","","","","","null","","1566.2000000476837","","2","0","null","null","arrowup","[0.2,0.8,0.2,0.8]","","",""
"sailing-trial","23","309109","0.0-7.0-0.0-1.0-3.0","","","","false","","","","","","","","","","null","","1789.5999999046326","","3","1","null","null","arrowup","[0.2,0.8,0.2,0.8]","","",""
"sailing-comprehension","24","325666","0.0-7.0-0.0-2.0","","","","","","","","","","12473.800000071526","","","","","","","","","","","","","","[""false""]","0",""
"sailing-instructions","25","340074","0.0-8.0-0.0-0.0","","","","","","","","","","","","","","null","null","null","null","null","null","","","","","","",""
"sailing-comprehension","26","355384","0.0-8.0-0.0-1.0","","","","","","","","","","12658.5","","","","","","","","","","","","","","[""true""]","0",""
"sailing-instructions","27","380236","0.0-9.0-0.0-0.0","","","","","","","","","","","","","","null","null","null","null","null","null","","","","","","",""
"sailing-trial","28","386653","0.0-9.0-0.0-1.0-0.0","","","","false","","","","","","","","","","1826.1999999284744","","897.2000000476837","","0","0","arrowleft","0","arrowleft","[0.2,0.8,0.2,0.8]","","",""
"sailing-trial","29","394425","0.0-9.0-0.0-1.0-1.0","","","","false","","","","","","","","","","2619.100000023842","","1410.1000000238419","","1","1","arrowleft","0","arrowright","[0.2,0.8,0.2,0.8]","","",""
"sailing-trial","30","398504","0.0-9.0-0.0-1.0-2.0","","","","false","","","","","","","","","","null","","1951.3999999761581","","0","0","null","null","arrowup","[0.2,0.8,0.2,0.8]","","",""
"sailing-trial","31","402942","0.0-9.0-0.0-1.0-3.0","","","","false","","","","","","","","","","959.7000000476837","","293.7999999523163","","2","0","arrowright","1","arrowleft","[0.2,0.8,0.2,0.8]","","",""
"sailing-trial","32","406838","0.0-9.0-0.0-1.0-4.0","","","","false","","","","","","","","","","null","","1780.3000000715256","","3","0","null","null","arrowup","[0.2,0.8,0.2,0.8]","","",""
"sailing-trial","33","411528","0.0-9.0-0.0-1.0-5.0","","","","false","","","","","","","","","","1248.6000000238419","","33.5","","3","1","arrowright","1","arrowright","[0.2,0.8,0.2,0.8]","","",""
"sailing-instructions","34","441897","0.0-10.0","","","","","","","","","","","","","","null","null","null","null","null","null","","","","","","",""
"sailing-trial","35","447793","0.0-11.0-0.0","","","","false","","","","","","","","","","1666.6999999284744","","415.7000000476837","","1","1","arrowleft","0","arrowright","[0.675,0.325,0.85,0.15]","","",""
"sailing-trial","36","451423","0.0-11.0-1.0","","","","false","","","","","","","","","","null","","1631.7999999523163","","1","0","null","null","arrowup","[0.675,0.325,0.85,0.15]","","",""
"sailing-trial","37","455416","0.0-11.0-2.0","","","","false","","","","","","","","","","1034.2999999523163","","171.5","","0","0","arrowleft","0","arrowleft","[0.675,0.325,0.85,0.15]","","",""
"sailing-trial","38","458559","0.0-11.0-3.0","","","","false","","","","","","","","","","null","","1325","","1","0","null","null","arrowup","[0.675,0.325,0.85,0.15]","","",""
"sailing-trial","39","465253","0.0-11.0-4.0","","","","false","","","","","","","","","","1377.2000000476837","","1244.6000000238419","","1","0","arrowleft","0","arrowright","[0.675,0.325,0.85,0.15]","","",""
"sailing-trial","40","468730","0.0-11.0-5.0","","","","false","","","","","","","","","","null","","1539.3999999761581","","3","0","null","null","arrowup","[0.675,0.325,0.85,0.15]","","",""
"sailing-trial","41","473142","0.0-11.0-6.0","","","","false","","","","","","","","","","989","","132.20000004768372","","2","1","arrowright","1","arrowleft","[0.675,0.325,0.85,0.15]","","",""
"sailing-trial","42","476787","0.0-11.0-7.0","","","","false","","","","","","","","","","null","","1760.5","","0","0","null","null","arrowup","[0.675,0.325,0.85,0.15]","","",""
"sailing-trial","43","480941","0.0-11.0-8.0","","","","false","","","","","","","","","","1253.5","","210.60000002384186","","3","0","arrowright","1","arrowright","[0.675,0.325,0.85,0.15]","","",""
"sailing-trial","44","484557","0.0-11.0-9.0","","","","false","","","","","","","","","","null","","1718","","1","0","null","null","arrowup","[0.675,0.325,0.85,0.15]","","",""
"sailing-trial","45","488467","0.0-11.0-10.0","","","","false","","","","","","","","","","691","","212.69999992847443","","1","0","arrowleft","0","arrowright","[0.675,0.325,0.85,0.15]","","",""
"sailing-trial","46","491943","0.0-11.0-11.0","","","","false","","","","","","","","","","null","","1518.6000000238419","","0","1","null","null","arrowup","[0.675,0.325,0.85,0.15]","","",""
"sailing-trial","47","496244","0.0-11.0-12.0","","","","false","","","","","","","","","","890.8999999761581","","85.5","","2","1","arrowright","1","arrowleft","[0.675,0.325,0.85,0.15]","","",""
"sailing-trial","48","499741","0.0-11.0-13.0","","","","false","","","","","","","","","","null","","1580.2999999523163","","3","0","null","null","arrowup","[0.675,0.325,0.85,0.15]","","",""
"sailing-trial","49","503849","0.0-11.0-14.0","","","","false","","","","","","","","","","1144","","58.799999952316284","","2","0","arrowright","1","arrowleft","[0.675,0.325,0.85,0.15]","","",""
"sailing-trial","50","507355","0.0-11.0-15.0","","","","false","","","","","","","","","","null","","1540.6000000238419","","2","1","null","null","arrowup","[0.675,0.325,0.85,0.15]","","",""
"sailing-trial","51","511755","0.0-11.0-16.0","","","","false","","","","","","","","","","1046.7999999523163","","0.8999999761581421","","2","1","arrowright","1","arrowleft","[0.675,0.325,0.85,0.15]","","",""
"sailing-trial","52","515074","0.0-11.0-17.0","","","","false","","","","","","","","","","null","","1173.3999999761581","","0","1","null","null","arrowup","[0.675,0.325,0.85,0.15]","","",""
"sailing-trial","53","519010","0.0-11.0-18.0","","","","false","","","","","","","","","","922.1000000238419","","108.09999990463257","","1","0","arrowleft","0","arrowright","[0.675,0.325,0.85,0.15]","","",""
"sailing-trial","54","522419","0.0-11.0-19.0","","","","false","","","","","","","","","","null","","1132","","0","1","null","null","arrowup","[0.675,0.325,0.85,0.15]","","",""
"sailing-trial","55","527842","0.0-11.0-20.0","","","","false","","","","","","","","","","1210","","1408.6999999284744","","0","0","arrowleft","0","arrowleft","[0.85,0.15,0.675,0.325]","","",""
"sailing-trial","56","530774","0.0-11.0-21.0","","","","false","","","","","","","","","","null","","1528.1000000238419","","0","0","null","null","arrowup","[0.85,0.15,0.675,0.325]","","",""
"sailing-trial","57","534684","0.0-11.0-22.0","","","","false","","","","","","","","","","662.7000000476837","","366.10000002384186","","2","0","arrowright","1","arrowleft","[0.85,0.15,0.675,0.325]","","",""
"sailing-trial","58","538087","0.0-11.0-23.0","","","","false","","","","","","","","","","null","","1450.2999999523163","","2","1","null","null","arrowup","[0.85,0.15,0.675,0.325]","","",""
"sailing-trial","59","542628","0.0-11.0-24.0","","","","false","","","","","","","","","","916.9000000953674","","290.7000000476837","","3","1","arrowright","1","arrowright","[0.85,0.15,0.675,0.325]","","",""
"sailing-trial","60","545739","0.0-11.0-25.0","","","","false","","","","","","","","","","null","","1345.8999999761581","","1","0","null","null","arrowup","[0.85,0.15,0.675,0.325]","","",""
"sailing-trial","61","550623","0.0-11.0-26.0","","","","false","","","","","","","","","","847.5","","805.7000000476837","","0","1","arrowleft","0","arrowleft","[0.85,0.15,0.675,0.325]","","",""
"sailing-trial","62","553312","0.0-11.0-27.0","","","","false","","","","","","","","","","null","","1312.0999999046326","","3","0","null","null","arrowup","[0.85,0.15,0.675,0.325]","","",""
"sailing-trial","63","557728","0.0-11.0-28.0","","","","false","","","","","","","","","","941.7999999523163","","45.39999997615814","","2","1","arrowright","1","arrowleft","[0.85,0.15,0.675,0.325]","","",""
"sailing-trial","64","560506","0.0-11.0-29.0","","","","false","","","","","","","","","","null","","1252.6000000238419","","1","0","null","null","arrowup","[0.85,0.15,0.675,0.325]","","",""
"sailing-trial","65","564410","0.0-11.0-30.0","","","","false","","","","","","","","","","675.6999999284744","","323.7999999523163","","0","1","arrowleft","0","arrowleft","[0.85,0.15,0.675,0.325]","","",""
"sailing-trial","66","567619","0.0-11.0-31.0","","","","false","","","","","","","","","","null","","1294.2999999523163","","3","1","null","null","arrowup","[0.85,0.15,0.675,0.325]","","",""
"sailing-trial","67","571201","0.0-11.0-32.0","","","","false","","","","","","","","","","839.4000000953674","","1.399999976158142","","0","1","arrowleft","0","arrowleft","[0.85,0.15,0.675,0.325]","","",""
"sailing-trial","68","574003","0.0-11.0-33.0","","","","false","","","","","","","","","","null","","1178.1000000238419","","0","1","null","null","arrowup","[0.85,0.15,0.675,0.325]","","",""
"sailing-trial","69","578063","0.0-11.0-34.0","","","","false","","","","","","","","","","864.6999999284744","","155.09999990463257","","2","1","arrowright","1","arrowleft","[0.85,0.15,0.675,0.325]","","",""
"sailing-trial","70","581555","0.0-11.0-35.0","","","","false","","","","","","","","","","null","","1111.2999999523163","","2","1","null","null","arrowup","[0.85,0.15,0.675,0.325]","","",""
"sailing-trial","71","586604","0.0-11.0-36.0","","","","false","","","","","","","","","","1374","","995.3999999761581","","0","0","arrowleft","0","arrowleft","[0.85,0.15,0.675,0.325]","","",""
"sailing-trial","72","590470","0.0-11.0-37.0","","","","false","","","","","","","","","","null","","1952.8999999761581","","3","1","null","null","arrowup","[0.85,0.15,0.675,0.325]","","",""
"sailing-trial","73","594934","0.0-11.0-38.0","","","","false","","","","","","","","","","980.3000000715256","","251.5","","0","1","arrowleft","0","arrowleft","[0.15,0.85,0.325,0.675]","","",""
"sailing-trial","74","597811","0.0-11.0-39.0","","","","false","","","","","","","","","","null","","984","","3","1","null","null","arrowup","[0.15,0.85,0.325,0.675]","","",""
"sailing-trial","75","601537","0.0-11.0-40.0","","","","false","","","","","","","","","","915.8999999761581","","46.60000002384186","","0","0","arrowleft","0","arrowleft","[0.15,0.85,0.325,0.675]","","",""
"sailing-trial","76","604627","0.0-11.0-41.0","","","","false","","","","","","","","","","null","","1180.8999999761581","","1","1","null","null","arrowup","[0.15,0.85,0.325,0.675]","","",""
"sailing-trial","77","608673","0.0-11.0-42.0","","","","false","","","","","","","","","","1035.6999999284744","","34.60000002384186","","0","0","arrowleft","0","arrowleft","[0.15,0.85,0.325,0.675]","","",""
"sailing-trial","78","611768","0.0-11.0-43.0","","","","false","","","","","","","","","","null","","1244.5","","0","0","null","null","arrowup","[0.15,0.85,0.325,0.675]","","",""
"sailing-trial","79","617330","0.0-11.0-44.0","","","","false","","","","","","","","","","1370.3000000715256","","1043.5999999046326","","1","1","arrowleft","0","arrowright","[0.15,0.85,0.325,0.675]","","",""
"sailing-trial","80","620762","0.0-11.0-45.0","","","","false","","","","","","","","","","null","","1428.6999999284744","","1","1","null","null","arrowup","[0.15,0.85,0.325,0.675]","","",""
"sailing-trial","81","625353","0.0-11.0-46.0","","","","false","","","","","","","","","","671","","1005.2999999523163","","1","1","arrowleft","0","arrowright","[0.15,0.85,0.325,0.675]","","",""
"sailing-trial","82","628410","0.0-11.0-47.0","","","","false","","","","","","","","","","null","","1177.2000000476837","","1","1","null","null","arrowup","[0.15,0.85,0.325,0.675]","","",""
"sailing-trial","83","632760","0.0-11.0-48.0","","","","false","","","","","","","","","","989.5","","202.39999997615814","","2","1","arrowright","1","arrowleft","[0.15,0.85,0.325,0.675]","","",""
"sailing-trial","84","635763","0.0-11.0-49.0","","","","false","","","","","","","","","","null","","1075.6000000238419","","3","1","null","null","arrowup","[0.15,0.85,0.325,0.675]","","",""
"sailing-trial","85","640473","0.0-11.0-50.0","","","","false","","","","","","","","","","961.2999999523163","","762.9000000953674","","3","1","arrowright","1","arrowright","[0.15,0.85,0.325,0.675]","","",""
"sailing-trial","86","643362","0.0-11.0-51.0","","","","false","","","","","","","","","","null","","1193.7999999523163","","3","0","null","null","arrowup","[0.15,0.85,0.325,0.675]","","",""
"sailing-trial","87","647772","0.0-11.0-52.0","","","","false","","","","","","","","","","753","","308.10000002384186","","1","1","arrowleft","0","arrowright","[0.15,0.85,0.325,0.675]","","",""
"sailing-trial","88","651054","0.0-11.0-53.0","","","","false","","","","","","","","","","null","","1319.8999999761581","","2","1","null","null","arrowup","[0.15,0.85,0.325,0.675]","","",""
"sailing-trial","89","654803","0.0-11.0-54.0","","","","false","","","","","","","","","","622.5","","44.60000002384186","","0","1","arrowleft","0","arrowleft","[0.85,0.15,0.675,0.325]","","",""
"sailing-trial","90","657274","0.0-11.0-55.0","","","","false","","","","","","","","","","null","","1128.6000000238419","","1","0","null","null","arrowup","[0.85,0.15,0.675,0.325]","","",""
"sailing-trial","91","662266","0.0-11.0-56.0","","","","false","","","","","","","","","","885.6999999284744","","1132.6000000238419","","0","1","arrowleft","0","arrowleft","[0.85,0.15,0.675,0.325]","","",""
"sailing-trial","92","665130","0.0-11.0-57.0","","","","false","","","","","","","","","","null","","1003.1999999284744","","0","1","null","null","arrowup","[0.85,0.15,0.675,0.325]","","",""
"sailing-trial","93","668987","0.0-11.0-58.0","","","","false","","","","","","","","","","523","","894","","2","0","arrowright","1","arrowleft","[0.85,0.15,0.675,0.325]","","",""
"sailing-trial","94","671986","0.0-11.0-59.0","","","","false","","","","","","","","","","null","","1571","","1","0","null","null","arrowup","[0.85,0.15,0.675,0.325]","","",""
"sailing-trial","95","677095","0.0-11.0-60.0","","","","false","","","","","","","","","","771.1999999284744","","688.5","","0","1","arrowleft","0","arrowleft","[0.85,0.15,0.675,0.325]","","",""
"sailing-trial","96","680032","0.0-11.0-61.0","","","","false","","","","","","","","","","null","","1278.3000000715256","","3","0","null","null","arrowup","[0.85,0.15,0.675,0.325]","","",""
"sailing-trial","97","684564","0.0-11.0-62.0","","","","false","","","","","","","","","","1169.5","","439.2000000476837","","0","1","arrowleft","0","arrowleft","[0.85,0.15,0.675,0.325]","","",""
"sailing-trial","98","687913","0.0-11.0-63.0","","","","false","","","","","","","","","","null","","1394","","0","1","null","null","arrowup","[0.85,0.15,0.675,0.325]","","",""
"sailing-trial","99","692610","0.0-11.0-64.0","","","","false","","","","","","","","","","837.7000000476837","","490.7000000476837","","2","1","arrowright","1","arrowleft","[0.85,0.15,0.675,0.325]","","",""
"sailing-trial","100","695760","0.0-11.0-65.0","","","","false","","","","","","","","","","null","","1278.2999999523163","","3","1","null","null","arrowup","[0.85,0.15,0.675,0.325]","","",""
"sailing-trial","101","700560","0.0-11.0-66.0","","","","false","","","","","","","","","","457.1999999284744","","873.5","","0","0","arrowleft","0","arrowleft","[0.85,0.15,0.675,0.325]","","",""
"sailing-trial","102","703454","0.0-11.0-67.0","","","","false","","","","","","","","","","null","","1374.2000000476837","","2","0","null","null","arrowup","[0.85,0.15,0.675,0.325]","","",""
"sailing-trial","103","708040","0.0-11.0-68.0","","","","false","","","","","","","","","","784.0999999046326","","781.8999999761581","","0","1","arrowleft","0","arrowleft","[0.85,0.15,0.675,0.325]","","",""
"sailing-trial","104","711079","0.0-11.0-69.0","","","","false","","","","","","","","","","null","","1102.3000000715256","","3","1","null","null","arrowup","[0.85,0.15,0.675,0.325]","","",""
"sailing-trial","105","715336","0.0-11.0-70.0","","","","false","","","","","","","","","","680.2999999523163","","888.6000000238419","","2","0","arrowright","1","arrowleft","[0.85,0.15,0.675,0.325]","","",""
"sailing-trial","106","718173","0.0-11.0-71.0","","","","false","","","","","","","","","","null","","1250.1999999284744","","2","0","null","null","arrowup","[0.85,0.15,0.675,0.325]","","",""
"sailing-trial","107","721905","0.0-11.0-72.0","","","","false","","","","","","","","","","730.7000000476837","","52.5","","0","1","arrowleft","0","arrowleft","[0.85,0.15,0.675,0.325]","","",""
"sailing-trial","108","724992","0.0-11.0-73.0","","","","false","","","","","","","","","","null","","1240.5","","2","1","null","null","arrowup","[0.85,0.15,0.675,0.325]","","",""
"sailing-trial","109","729439","0.0-11.0-74.0","","","","false","","","","","","","","","","969.3000000715256","","415.1999999284744","","0","1","arrowleft","0","arrowleft","[0.675,0.325,0.85,0.15]","","",""
"sailing-trial","110","732445","0.0-11.0-75.0","","","","false","","","","","","","","","","null","","1498.3999999761581","","1","0","null","null","arrowup","[0.675,0.325,0.85,0.15]","","",""
"sailing-trial","111","736946","0.0-11.0-76.0","","","","false","","","","","","","","","","1114.8999999761581","","145.20000004768372","","2","1","arrowright","1","arrowleft","[0.675,0.325,0.85,0.15]","","",""
"sailing-trial","112","739881","0.0-11.0-77.0","","","","false","","","","","","","","","","null","","1039.4000000953674","","2","1","null","null","arrowup","[0.675,0.325,0.85,0.15]","","",""
"sailing-trial","113","744031","0.0-11.0-78.0","","","","false","","","","","","","","","","1041.1999999284744","","78.70000004768372","","3","0","arrowright","1","arrowright","[0.675,0.325,0.85,0.15]","","",""
"sailing-trial","114","747614","0.0-11.0-79.0","","","","false","","","","","","","","","","null","","1524.1000000238419","","1","0","null","null","arrowup","[0.675,0.325,0.85,0.15]","","",""
"sailing-trial","115","751451","0.0-11.0-80.0","","","","false","","","","","","","","","","770.7000000476837","","50.800000071525574","","0","1","arrowleft","0","arrowleft","[0.675,0.325,0.85,0.15]","","",""
"sailing-trial","116","755162","0.0-11.0-81.0","","","","false","","","","","","","","","","null","","1741.5","","3","0","null","null","arrowup","[0.675,0.325,0.85,0.15]","","",""
"sailing-trial","117","759760","0.0-11.0-82.0","","","","false","","","","","","","","","","1122.1000000238419","","695.3999999761581","","0","0","arrowleft","0","arrowleft","[0.675,0.325,0.85,0.15]","","",""
"sailing-trial","118","762387","0.0-11.0-83.0","","","","false","","","","","","","","","","null","","1019.1000000238419","","1","0","null","null","arrowup","[0.675,0.325,0.85,0.15]","","",""
"sailing-trial","119","766265","0.0-11.0-84.0","","","","false","","","","","","","","","","916.6999999284744","","216.69999992847443","","3","0","arrowright","1","arrowright","[0.675,0.325,0.85,0.15]","","",""
"sailing-trial","120","769612","0.0-11.0-85.0","","","","false","","","","","","","","","","null","","1109.7000000476837","","2","1","null","null","arrowup","[0.675,0.325,0.85,0.15]","","",""
"sailing-trial","121","773877","0.0-11.0-86.0","","","","false","","","","","","","","","","927.6999999284744","","179.5","","2","1","arrowright","1","arrowleft","[0.675,0.325,0.85,0.15]","","",""
"sailing-trial","122","778082","0.0-11.0-87.0","","","","false","","","","","","","","","","null","","2345.1999999284744","","0","0","null","null","arrowup","[0.675,0.325,0.85,0.15]","","",""
"sailing-trial","123","782706","0.0-11.0-88.0","","","","false","","","","","","","","","","909.7999999523163","","157.39999997615814","","0","1","arrowleft","0","arrowleft","[0.675,0.325,0.85,0.15]","","",""
"sailing-trial","124","785706","0.0-11.0-89.0","","","","false","","","","","","","","","","null","","1322.1000000238419","","2","0","null","null","arrowup","[0.675,0.325,0.85,0.15]","","",""
"sailing-trial","125","790113","0.0-11.0-90.0","","","","false","","","","","","","","","","746.8999999761581","","752.0999999046326","","0","0","arrowleft","0","arrowleft","[0.15,0.85,0.325,0.675]","","",""
"sailing-trial","126","793227","0.0-11.0-91.0","","","","false","","","","","","","","","","null","","1182.3999999761581","","2","0","null","null","arrowup","[0.15,0.85,0.325,0.675]","","",""
"sailing-trial","127","797420","0.0-11.0-92.0","","","","false","","","","","","","","","","779.5999999046326","","413.10000002384186","","2","0","arrowright","1","arrowleft","[0.15,0.85,0.325,0.675]","","",""
"sailing-trial","128","800683","0.0-11.0-93.0","","","","false","","","","","","","","","","null","","1186.8000000715256","","0","1","null","null","arrowup","[0.15,0.85,0.325,0.675]","","",""
"sailing-trial","129","805201","0.0-11.0-94.0","","","","false","","","","","","","","","","937","","196.29999995231628","","3","1","arrowright","1","arrowright","[0.15,0.85,0.325,0.675]","","",""
"sailing-trial","130","808412","0.0-11.0-95.0","","","","false","","","","","","","","","","null","","1132.2000000476837","","1","1","null","null","arrowup","[0.15,0.85,0.325,0.675]","","",""
"sailing-trial","131","813350","0.0-11.0-96.0","","","","false","","","","","","","","","","640.6000000238419","","1207.9000000953674","","1","1","arrowleft","0","arrowright","[0.15,0.85,0.325,0.675]","","",""
"sailing-trial","132","816028","0.0-11.0-97.0","","","","false","","","","","","","","","","null","","1101.8999999761581","","2","0","null","null","arrowup","[0.15,0.85,0.325,0.675]","","",""
"sailing-trial","133","819993","0.0-11.0-98.0","","","","false","","","","","","","","","","864.4000000953674","","158.69999992847443","","1","1","arrowleft","0","arrowright","[0.15,0.85,0.325,0.675]","","",""
"sailing-trial","134","822994","0.0-11.0-99.0","","","","false","","","","","","","","","","null","","1552.2999999523163","","0","0","null","null","arrowup","[0.15,0.85,0.325,0.675]","","",""
"sailing-trial","135","827643","0.0-11.0-100.0","","","","false","","","","","","","","","","865.7999999523163","","846.7000000476837","","3","1","arrowright","1","arrowright","[0.15,0.85,0.325,0.675]","","",""
"sailing-trial","136","831295","0.0-11.0-101.0","","","","false","","","","","","","","","","null","","1872","","2","0","null","null","arrowup","[0.15,0.85,0.325,0.675]","","",""
"sailing-trial","137","835792","0.0-11.0-102.0","","","","false","","","","","","","","","","870.4000000953674","","224.79999995231628","","1","1","arrowleft","0","arrowright","[0.15,0.85,0.325,0.675]","","",""
"sailing-trial","138","838321","0.0-11.0-103.0","","","","false","","","","","","","","","","null","","1177.7999999523163","","0","0","null","null","arrowup","[0.15,0.85,0.325,0.675]","","",""
"sailing-trial","139","843754","0.0-11.0-104.0","","","","false","","","","","","","","","","1521.5","","543.2999999523163","","1","1","arrowleft","0","arrowright","[0.15,0.85,0.325,0.675]","","",""
"sailing-trial","140","846753","0.0-11.0-105.0","","","","false","","","","","","","","","","null","","1387.2000000476837","","3","0","null","null","arrowup","[0.15,0.85,0.325,0.675]","","",""
"sailing-trial","141","850603","0.0-11.0-106.0","","","","false","","","","","","","","","","742.3999999761581","","90.19999992847443","","1","1","arrowleft","0","arrowright","[0.15,0.85,0.325,0.675]","","",""
"sailing-trial","142","854182","0.0-11.0-107.0","","","","false","","","","","","","","","","null","","1210.5","","1","1","null","null","arrowup","[0.15,0.85,0.325,0.675]","","",""
"sailing-trial","143","859757","0.0-11.0-108.0","","","","false","","","","","","","","","","1417.5999999046326","","972.6000000238419","","3","1","arrowright","1","arrowright","[0.675,0.325,0.85,0.15]","","",""
"sailing-trial","144","862379","0.0-11.0-109.0","","","","false","","","","","","","","","","null","","898.6999999284744","","3","0","null","null","arrowup","[0.675,0.325,0.85,0.15]","","",""
"sailing-trial","145","866970","0.0-11.0-110.0","","","","false","","","","","","","","","","1448.5","","27.600000023841858","","3","1","arrowright","1","arrowright","[0.675,0.325,0.85,0.15]","","",""
"sailing-trial","146","870139","0.0-11.0-111.0","","","","false","","","","","","","","","","null","","1165.2999999523163","","2","1","null","null","arrowup","[0.675,0.325,0.85,0.15]","","",""
"sailing-trial","147","874219","0.0-11.0-112.0","","","","false","","","","","","","","","","848.9000000953674","","98.40000009536743","","1","1","arrowleft","0","arrowright","[0.675,0.325,0.85,0.15]","","",""
"sailing-trial","148","877400","0.0-11.0-113.0","","","","false","","","","","","","","","","null","","975.6999999284744","","2","1","null","null","arrowup","[0.675,0.325,0.85,0.15]","","",""
"sailing-trial","149","881818","0.0-11.0-114.0","","","","false","","","","","","","","","","823.3999999761581","","187.5","","0","1","arrowleft","0","arrowleft","[0.675,0.325,0.85,0.15]","","",""
"sailing-trial","150","884929","0.0-11.0-115.0","","","","false","","","","","","","","","","null","","1161.7999999523163","","1","1","null","null","arrowup","[0.675,0.325,0.85,0.15]","","",""
"sailing-trial","151","889452","0.0-11.0-116.0","","","","false","","","","","","","","","","691.8999999761581","","1041.1000000238419","","0","0","arrowleft","0","arrowleft","[0.675,0.325,0.85,0.15]","","",""
"sailing-trial","152","892827","0.0-11.0-117.0","","","","false","","","","","","","","","","null","","1440","","0","1","null","null","arrowup","[0.675,0.325,0.85,0.15]","","",""
"sailing-trial","153","897318","0.0-11.0-118.0","","","","false","","","","","","","","","","948.5","","389.89999997615814","","3","0","arrowright","1","arrowright","[0.675,0.325,0.85,0.15]","","",""
"sailing-trial","154","899916","0.0-11.0-119.0","","","","false","","","","","","","","","","null","","1073.3000000715256","","2","0","null","null","arrowup","[0.675,0.325,0.85,0.15]","","",""
"sailing-trial","155","903797","0.0-11.0-120.0","","","","false","","","","","","","","","","720.3999999761581","","63.59999990463257","","2","1","arrowright","1","arrowleft","[0.675,0.325,0.85,0.15]","","",""
"sailing-trial","156","906580","0.0-11.0-121.0","","","","false","","","","","","","","","","null","","1049.2000000476837","","1","0","null","null","arrowup","[0.675,0.325,0.85,0.15]","","",""
"sailing-trial","157","911269","0.0-11.0-122.0","","","","false","","","","","","","","","","1246.8999999761581","","849.6999999284744","","1","0","arrowleft","0","arrowright","[0.675,0.325,0.85,0.15]","","",""
"sailing-trial","158","914364","0.0-11.0-123.0","","","","false","","","","","","","","","","null","","1419.6000000238419","","3","0","null","null","arrowup","[0.675,0.325,0.85,0.15]","","",""
"sailing-trial","159","918874","0.0-11.0-124.0","","","","false","","","","","","","","","","1074.8999999761581","","34.39999997615814","","2","1","arrowright","1","arrowleft","[0.675,0.325,0.85,0.15]","","",""
"sailing-trial","160","921967","0.0-11.0-125.0","","","","false","","","","","","","","","","null","","1099.7999999523163","","2","1","null","null","arrowup","[0.675,0.325,0.85,0.15]","","",""
"sailing-trial","161","926088","0.0-11.0-126.0","","","","false","","","","","","","","","","546.5","","858.1000000238419","","2","0","arrowright","1","arrowleft","[0.85,0.15,0.675,0.325]","","",""
"sailing-trial","162","928778","0.0-11.0-127.0","","","","false","","","","","","","","","","null","","1005.6000000238419","","3","0","null","null","arrowup","[0.85,0.15,0.675,0.325]","","",""
"sailing-trial","163","932003","0.0-11.0-128.0","","","","false","","","","","","","","","","627.5","","112","","1","0","arrowleft","0","arrowright","[0.85,0.15,0.675,0.325]","","",""
"sailing-trial","164","934447","0.0-11.0-129.0","","","","false","","","","","","","","","","null","","1092.7999999523163","","3","0","null","null","arrowup","[0.85,0.15,0.675,0.325]","","",""
"sailing-trial","165","938769","0.0-11.0-130.0","","","","false","","","","","","","","","","831.1999999284744","","426.2999999523163","","0","1","arrowleft","0","arrowleft","[0.85,0.15,0.675,0.325]","","",""
"sailing-trial","166","942028","0.0-11.0-131.0","","","","false","","","","","","","","","","null","","1517.5999999046326","","3","0","null","null","arrowup","[0.85,0.15,0.675,0.325]","","",""
"sailing-trial","167","945938","0.0-11.0-132.0","","","","false","","","","","","","","","","860.6000000238419","","124.10000002384186","","0","1","arrowleft","0","arrowleft","[0.85,0.15,0.675,0.325]","","",""
"sailing-trial","168","949084","0.0-11.0-133.0","","","","false","","","","","","","","","","null","","1167.5","","0","1","null","null","arrowup","[0.85,0.15,0.675,0.325]","","",""
"sailing-trial","169","953850","0.0-11.0-134.0","","","","false","","","","","","","","","","1089.2000000476837","","759.2999999523163","","0","1","arrowleft","0","arrowleft","[0.85,0.15,0.675,0.325]","","",""
"sailing-trial","170","956475","0.0-11.0-135.0","","","","false","","","","","","","","","","null","","855.8000000715256","","1","0","null","null","arrowup","[0.85,0.15,0.675,0.325]","","",""
"sailing-trial","171","961049","0.0-11.0-136.0","","","","false","","","","","","","","","","754.0999999046326","","537.4000000953674","","0","1","arrowleft","0","arrowleft","[0.85,0.15,0.675,0.325]","","",""
"sailing-trial","172","965550","0.0-11.0-137.0","","","","false","","","","","","","","","","null","","2404.5999999046326","","2","1","null","null","arrowup","[0.85,0.15,0.675,0.325]","","",""
"sailing-trial","173","970042","0.0-11.0-138.0","","","","false","","","","","","","","","","1560.4000000953674","","206.19999992847443","","1","0","arrowleft","0","arrowright","[0.85,0.15,0.675,0.325]","","",""
"sailing-trial","174","973503","0.0-11.0-139.0","","","","false","","","","","","","","","","null","","1127.7999999523163","","2","1","null","null","arrowup","[0.85,0.15,0.675,0.325]","","",""
"sailing-trial","175","977737","0.0-11.0-140.0","","","","false","","","","","","","","","","623.3999999761581","","699.7999999523163","","2","1","arrowright","1","arrowleft","[0.85,0.15,0.675,0.325]","","",""
"sailing-trial","176","980637","0.0-11.0-141.0","","","","false","","","","","","","","","","null","","1063.8999999761581","","0","1","null","null","arrowup","[0.85,0.15,0.675,0.325]","","",""
"sailing-trial","177","985029","0.0-11.0-142.0","","","","false","","","","","","","","","","898.1000000238419","","213.10000002384186","","0","1","arrowleft","0","arrowleft","[0.675,0.325,0.85,0.15]","","",""
"sailing-trial","178","988816","0.0-11.0-143.0","","","","false","","","","","","","","","","null","","2045.4000000953674","","3","0","null","null","arrowup","[0.675,0.325,0.85,0.15]","","",""
"sailing-trial","179","992557","0.0-11.0-144.0","","","","false","","","","","","","","","","670.3000000715256","","78.90000009536743","","2","1","arrowright","1","arrowleft","[0.675,0.325,0.85,0.15]","","",""
"sailing-trial","180","995962","0.0-11.0-145.0","","","","false","","","","","","","","","","null","","1373.6000000238419","","3","0","null","null","arrowup","[0.675,0.325,0.85,0.15]","","",""
"sailing-trial","181","1000099","0.0-11.0-146.0","","","","false","","","","","","","","","","1153.2999999523163","","25.100000023841858","","0","1","arrowleft","0","arrowleft","[0.675,0.325,0.85,0.15]","","",""
"sailing-trial","182","1003152","0.0-11.0-147.0","","","","false","","","","","","","","","","null","","1212.6999999284744","","3","1","null","null","arrowup","[0.675,0.325,0.85,0.15]","","",""
"sailing-trial","183","1008220","0.0-11.0-148.0","","","","false","","","","","","","","","","881","","1052.8999999761581","","0","1","arrowleft","0","arrowleft","[0.675,0.325,0.85,0.15]","","",""
"sailing-trial","184","1012591","0.0-11.0-149.0","","","","false","","","","","","","","","","null","","2961.7000000476837","","3","0","null","null","arrowup","[0.675,0.325,0.85,0.15]","","",""
"sailing-trial","185","1016733","0.0-11.0-150.0","","","","false","","","","","","","","","","901.8000000715256","","536.5","","0","0","arrowleft","0","arrowleft","[0.675,0.325,0.85,0.15]","","",""
"sailing-trial","186","1019893","0.0-11.0-151.0","","","","false","","","","","","","","","","null","","1075.8000000715256","","3","1","null","null","arrowup","[0.675,0.325,0.85,0.15]","","",""
"sailing-trial","187","1023765","0.0-11.0-152.0","","","","false","","","","","","","","","","630.1000000238419","","163.80000007152557","","2","1","arrowright","1","arrowleft","[0.675,0.325,0.85,0.15]","","",""
"sailing-trial","188","1026059","0.0-11.0-153.0","","","","false","","","","","","","","","","null","","944.8999999761581","","0","0","null","null","arrowup","[0.675,0.325,0.85,0.15]","","",""
"sailing-trial","189","1030752","0.0-11.0-154.0","","","","false","","","","","","","","","","801.1000000238419","","807.7999999523163","","3","1","arrowright","1","arrowright","[0.675,0.325,0.85,0.15]","","",""
"sailing-trial","190","1033966","0.0-11.0-155.0","","","","false","","","","","","","","","","null","","1758.5","","2","0","null","null","arrowup","[0.675,0.325,0.85,0.15]","","",""
"sailing-trial","191","1038475","0.0-11.0-156.0","","","","false","","","","","","","","","","1062.7000000476837","","42.89999997615814","","0","1","arrowleft","0","arrowleft","[0.675,0.325,0.85,0.15]","","",""
"sailing-trial","192","1041407","0.0-11.0-157.0","","","","false","","","","","","","","","","null","","1551.6999999284744","","1","0","null","null","arrowup","[0.675,0.325,0.85,0.15]","","",""
"sailing-trial","193","1045343","0.0-11.0-158.0","","","","false","","","","","","","","","","739","","804.2000000476837","","0","0","arrowleft","0","arrowleft","[0.675,0.325,0.85,0.15]","","",""
"sailing-trial","194","1047821","0.0-11.0-159.0","","","","false","","","","","","","","","","null","","1149.7000000476837","","3","0","null","null","arrowup","[0.675,0.325,0.85,0.15]","","",""
"sailing-trial","195","1052443","0.0-11.0-160.0","","","","false","","","","","","","","","","1206.6000000238419","","755.7000000476837","","2","1","arrowright","1","arrowleft","[0.675,0.325,0.85,0.15]","","",""
"sailing-trial","196","1055187","0.0-11.0-161.0","","","","false","","","","","","","","","","null","","1228.2999999523163","","1","0","null","null","arrowup","[0.675,0.325,0.85,0.15]","","",""
"sailing-trial","197","1059777","0.0-11.0-162.0","","","","false","","","","","","","","","","659.3000000715256","","960.7000000476837","","0","1","arrowleft","0","arrowleft","[0.85,0.15,0.675,0.325]","","",""
"sailing-trial","198","1062985","0.0-11.0-163.0","","","","false","","","","","","","","","","null","","1368.6000000238419","","0","1","null","null","arrowup","[0.85,0.15,0.675,0.325]","","",""
"sailing-trial","199","1068172","0.0-11.0-164.0","","","","false","","","","","","","","","","1654.7000000476837","","1167.7000000476837","","0","0","arrowleft","0","arrowleft","[0.85,0.15,0.675,0.325]","","",""
"sailing-trial","200","1071049","0.0-11.0-165.0","","","","false","","","","","","","","","","null","","1021.8000000715256","","2","1","null","null","arrowup","[0.85,0.15,0.675,0.325]","","",""
"sailing-trial","201","1074593","0.0-11.0-166.0","","","","false","","","","","","","","","","951.1999999284744","","22.100000023841858","","3","0","arrowright","1","arrowright","[0.85,0.15,0.675,0.325]","","",""
"sailing-trial","202","1079495","0.0-11.0-167.0","","","","false","","","","","","","","","","null","","2947.600000023842","","2","1","null","null","arrowup","[0.85,0.15,0.675,0.325]","","",""
"sailing-trial","203","1084737","0.0-11.0-168.0","","","","false","","","","","","","","","","1040.2000000476837","","824.6000000238419","","0","1","arrowleft","0","arrowleft","[0.85,0.15,0.675,0.325]","","",""
"sailing-trial","204","1087916","0.0-11.0-169.0","","","","false","","","","","","","","","","null","","975.2999999523163","","0","1","null","null","arrowup","[0.85,0.15,0.675,0.325]","","",""
"sailing-trial","205","1092443","0.0-11.0-170.0","","","","false","","","","","","","","","","522.3999999761581","","1000.3000000715256","","0","1","arrowleft","0","arrowleft","[0.85,0.15,0.675,0.325]","","",""
"sailing-trial","206","1094984","0.0-11.0-171.0","","","","false","","","","","","","","","","null","","1200","","1","0","null","null","arrowup","[0.85,0.15,0.675,0.325]","","",""
"sailing-trial","207","1099620","0.0-11.0-172.0","","","","false","","","","","","","","","","1112.1000000238419","","648.2000000476837","","0","1","arrowleft","0","arrowleft","[0.85,0.15,0.675,0.325]","","",""
"sailing-trial","208","1102061","0.0-11.0-173.0","","","","false","","","","","","","","","","null","","1058.7000000476837","","1","0","null","null","arrowup","[0.85,0.15,0.675,0.325]","","",""
"sailing-trial","209","1106841","0.0-11.0-174.0","","","","false","","","","","","","","","","1734.3999999761581","","13.799999952316284","","0","1","arrowleft","0","arrowleft","[0.85,0.15,0.675,0.325]","","",""
"sailing-trial","210","1109960","0.0-11.0-175.0","","","","false","","","","","","","","","","null","","1219.2999999523163","","0","1","null","null","arrowup","[0.85,0.15,0.675,0.325]","","",""
"sailing-trial","211","1114744","0.0-11.0-176.0","","","","false","","","","","","","","","","829.3999999761581","","615.7000000476837","","0","1","arrowleft","0","arrowleft","[0.85,0.15,0.675,0.325]","","",""
"sailing-trial","212","1117658","0.0-11.0-177.0","","","","false","","","","","","","","","","null","","1137.3999999761581","","3","1","null","null","arrowup","[0.85,0.15,0.675,0.325]","","",""
"sailing-trial","213","1121616","0.0-11.0-178.0","","","","false","","","","","","","","","","794.6000000238419","","123.60000002384186","","0","1","arrowleft","0","arrowleft","[0.85,0.15,0.675,0.325]","","",""
"sailing-trial","214","1124402","0.0-11.0-179.0","","","","false","","","","","","","","","","null","","840.0999999046326","","0","1","null","null","arrowup","[0.85,0.15,0.675,0.325]","","",""
"sailing-trial","215","1128143","0.0-11.0-180.0","","","","false","","","","","","","","","","953.3999999761581","","43.09999990463257","","0","0","arrowleft","0","arrowleft","[0.325,0.675,0.15,0.85]","","",""
"sailing-trial","216","1130545","0.0-11.0-181.0","","","","false","","","","","","","","","","null","","975.3000000715256","","1","0","null","null","arrowup","[0.325,0.675,0.15,0.85]","","",""
"sailing-trial","217","1135517","0.0-11.0-182.0","","","","false","","","","","","","","","","866.3999999761581","","1035.7000000476837","","3","1","arrowright","1","arrowright","[0.325,0.675,0.15,0.85]","","",""
"sailing-trial","218","1138119","0.0-11.0-183.0","","","","false","","","","","","","","","","null","","1243.3000000715256","","0","0","null","null","arrowup","[0.325,0.675,0.15,0.85]","","",""
"sailing-trial","219","1142421","0.0-11.0-184.0","","","","false","","","","","","","","","","884.5","","617.6000000238419","","0","0","arrowleft","0","arrowleft","[0.325,0.675,0.15,0.85]","","",""
"sailing-trial","220","1145045","0.0-11.0-185.0","","","","false","","","","","","","","","","null","","1135.1000000238419","","2","0","null","null","arrowup","[0.325,0.675,0.15,0.85]","","",""
"sailing-trial","221","1148888","0.0-11.0-186.0","","","","false","","","","","","","","","","757.1999999284744","","94.80000007152557","","3","1","arrowright","1","arrowright","[0.325,0.675,0.15,0.85]","","",""
"sailing-trial","222","1151833","0.0-11.0-187.0","","","","false","","","","","","","","","","null","","1023.7999999523163","","2","1","null","null","arrowup","[0.325,0.675,0.15,0.85]","","",""
"sailing-trial","223","1156367","0.0-11.0-188.0","","","","false","","","","","","","","","","689.3000000715256","","907.9000000953674","","3","1","arrowright","1","arrowright","[0.325,0.675,0.15,0.85]","","",""
"sailing-trial","224","1160047","0.0-11.0-189.0","","","","false","","","","","","","","","","null","","2316.7000000476837","","0","0","null","null","arrowup","[0.325,0.675,0.15,0.85]","","",""
"sailing-trial","225","1163900","0.0-11.0-190.0","","","","false","","","","","","","","","","813.5","","77","","3","1","arrowright","1","arrowright","[0.325,0.675,0.15,0.85]","","",""
"sailing-trial","226","1167054","0.0-11.0-191.0","","","","false","","","","","","","","","","null","","1238.2999999523163","","3","1","null","null","arrowup","[0.325,0.675,0.15,0.85]","","",""
"sailing-trial","227","1171231","0.0-11.0-192.0","","","","false","","","","","","","","","","1050.9000000953674","","86.30000007152557","","3","1","arrowright","1","arrowright","[0.325,0.675,0.15,0.85]","","",""
"sailing-trial","228","1174344","0.0-11.0-193.0","","","","false","","","","","","","","","","null","","1390.1000000238419","","2","0","null","null","arrowup","[0.325,0.675,0.15,0.85]","","",""
"sailing-trial","229","1179868","0.0-11.0-194.0","","","","false","","","","","","","","","","1138.6999999284744","","1138","","3","1","arrowright","1","arrowright","[0.325,0.675,0.15,0.85]","","",""
"sailing-trial","230","1182790","0.0-11.0-195.0","","","","false","","","","","","","","","","null","","987.7000000476837","","0","1","null","null","arrowup","[0.325,0.675,0.15,0.85]","","",""
"sailing-trial","231","1187891","0.0-11.0-196.0","","","","false","","","","","","","","","","949","","936.3999999761581","","3","1","arrowright","1","arrowright","[0.325,0.675,0.15,0.85]","","",""
"sailing-trial","232","1190827","0.0-11.0-197.0","","","","false","","","","","","","","","","null","","1199.5","","2","0","null","null","arrowup","[0.325,0.675,0.15,0.85]","","",""
"sailing-trial","233","1194564","0.0-11.0-198.0","","","","false","","","","","","","","","","877.8000000715256","","3.8000000715255737","","0","0","arrowleft","0","arrowleft","[0.15,0.85,0.325,0.675]","","",""
"sailing-trial","234","1197814","0.0-11.0-199.0","","","","false","","","","","","","","","","null","","1235.6999999284744","","3","1","null","null","arrowup","[0.15,0.85,0.325,0.675]","","",""
"sailing-trial","235","1203020","0.0-11.0-200.0","","","","false","","","","","","","","","","940.3999999761581","","1055.7000000476837","","3","1","arrowright","1","arrowright","[0.15,0.85,0.325,0.675]","","",""
"sailing-trial","236","1206034","0.0-11.0-201.0","","","","false","","","","","","","","","","null","","980.7000000476837","","1","1","null","null","arrowup","[0.15,0.85,0.325,0.675]","","",""
"sailing-trial","237","1210150","0.0-11.0-202.0","","","","false","","","","","","","","","","873.5","","730.6999999284744","","0","0","arrowleft","0","arrowleft","[0.15,0.85,0.325,0.675]","","",""
"sailing-trial","238","1213753","0.0-11.0-203.0","","","","false","","","","","","","","","","null","","1098.5999999046326","","1","1","null","null","arrowup","[0.15,0.85,0.325,0.675]","","",""
"sailing-trial","239","1218924","0.0-11.0-204.0","","","","false","","","","","","","","","","986.6000000238419","","518.6000000238419","","3","1","arrowright","1","arrowright","[0.15,0.85,0.325,0.675]","","",""
"sailing-trial","240","1222067","0.0-11.0-205.0","","","","false","","","","","","","","","","null","","1094.2999999523163","","1","1","null","null","arrowup","[0.15,0.85,0.325,0.675]","","",""
"sailing-trial","241","1226706","0.0-11.0-206.0","","","","false","","","","","","","","","","1294.6000000238419","","169.10000002384186","","3","1","arrowright","1","arrowright","[0.15,0.85,0.325,0.675]","","",""
"sailing-trial","242","1229582","0.0-11.0-207.0","","","","false","","","","","","","","","","null","","942.5","","1","1","null","null","arrowup","[0.15,0.85,0.325,0.675]","","",""
"sailing-trial","243","1234830","0.0-11.0-208.0","","","","false","","","","","","","","","","1008.7999999523163","","935.6000000238419","","1","1","arrowleft","0","arrowright","[0.15,0.85,0.325,0.675]","","",""
"sailing-trial","244","1237832","0.0-11.0-209.0","","","","false","","","","","","","","","","null","","1018.8999999761581","","3","1","null","null","arrowup","[0.15,0.85,0.325,0.675]","","",""
"sailing-trial","245","1242751","0.0-11.0-210.0","","","","false","","","","","","","","","","922.5999999046326","","845.6000000238419","","1","1","arrowleft","0","arrowright","[0.15,0.85,0.325,0.675]","","",""
"sailing-trial","246","1245458","0.0-11.0-211.0","","","","false","","","","","","","","","","null","","1088.8999999761581","","3","0","null","null","arrowup","[0.15,0.85,0.325,0.675]","","",""
"sailing-trial","247","1250737","0.0-11.0-212.0","","","","false","","","","","","","","","","1279.0999999046326","","1012.2000000476837","","3","1","arrowright","1","arrowright","[0.15,0.85,0.325,0.675]","","",""
"sailing-trial","248","1253708","0.0-11.0-213.0","","","","false","","","","","","","","","","null","","992.1000000238419","","2","1","null","null","arrowup","[0.15,0.85,0.325,0.675]","","",""
"sailing-trial","249","1257637","0.0-11.0-214.0","","","","false","","","","","","","","","","607.7000000476837","","314.09999990463257","","1","1","arrowleft","0","arrowright","[0.325,0.675,0.15,0.85]","","",""
"sailing-trial","250","1260543","0.0-11.0-215.0","","","","false","","","","","","","","","","null","","921.7000000476837","","2","1","null","null","arrowup","[0.325,0.675,0.15,0.85]","","",""
"sailing-trial","251","1265413","0.0-11.0-216.0","","","","false","","","","","","","","","","934.1000000238419","","281","","1","1","arrowleft","0","arrowright","[0.325,0.675,0.15,0.85]","","",""
"sailing-trial","252","1268667","0.0-11.0-217.0","","","","false","","","","","","","","","","null","","1168.1999999284744","","2","1","null","null","arrowup","[0.325,0.675,0.15,0.85]","","",""
"sailing-trial","253","1273129","0.0-11.0-218.0","","","","false","","","","","","","","","","1022","","683.1000000238419","","2","0","arrowright","1","arrowleft","[0.325,0.675,0.15,0.85]","","",""
"sailing-trial","254","1275969","0.0-11.0-219.0","","","","false","","","","","","","","","","null","","1268.7999999523163","","2","0","null","null","arrowup","[0.325,0.675,0.15,0.85]","","",""
"sailing-trial","255","1280374","0.0-11.0-220.0","","","","false","","","","","","","","","","627.2999999523163","","727.8000000715256","","3","1","arrowright","1","arrowright","[0.325,0.675,0.15,0.85]","","",""
"sailing-trial","256","1283902","0.0-11.0-221.0","","","","false","","","","","","","","","","null","","1648","","2","0","null","null","arrowup","[0.325,0.675,0.15,0.85]","","",""
"sailing-trial","257","1286990","0.0-11.0-222.0","","","","false","","","","","","","","","","668.1999999284744","","31","","0","0","arrowleft","0","arrowleft","[0.325,0.675,0.15,0.85]","","",""
"sailing-trial","258","1289243","0.0-11.0-223.0","","","","false","","","","","","","","","","null","","944.2000000476837","","2","0","null","null","arrowup","[0.325,0.675,0.15,0.85]","","",""
"sailing-trial","259","1293776","0.0-11.0-224.0","","","","false","","","","","","","","","","587.6999999284744","","770.6000000238419","","3","1","arrowright","1","arrowright","[0.325,0.675,0.15,0.85]","","",""
"sailing-trial","260","1297197","0.0-11.0-225.0","","","","false","","","","","","","","","","null","","1052.5","","3","1","null","null","arrowup","[0.325,0.675,0.15,0.85]","","",""
"sailing-trial","261","1302186","0.0-11.0-226.0","","","","false","","","","","","","","","","1191.6000000238419","","818.5","","1","1","arrowleft","0","arrowright","[0.325,0.675,0.15,0.85]","","",""
"sailing-trial","262","1305598","0.0-11.0-227.0","","","","false","","","","","","","","","","null","","1676.1999999284744","","0","0","null","null","arrowup","[0.325,0.675,0.15,0.85]","","",""
"sailing-trial","263","1310372","0.0-11.0-228.0","","","","false","","","","","","","","","","1200.1999999284744","","352.60000002384186","","3","1","arrowright","1","arrowright","[0.325,0.675,0.15,0.85]","","",""
"sailing-trial","264","1313438","0.0-11.0-229.0","","","","false","","","","","","","","","","null","","1377.7999999523163","","2","0","null","null","arrowup","[0.325,0.675,0.15,0.85]","","",""
"sailing-trial","265","1318440","0.0-11.0-230.0","","","","false","","","","","","","","","","1335.8000000715256","","714.6000000238419","","0","0","arrowleft","0","arrowleft","[0.325,0.675,0.15,0.85]","","",""
"sailing-trial","266","1321114","0.0-11.0-231.0","","","","false","","","","","","","","","","null","","1038.7999999523163","","1","0","null","null","arrowup","[0.325,0.675,0.15,0.85]","","",""
"sailing-trial","267","1325912","0.0-11.0-232.0","","","","false","","","","","","","","","","634.4000000953674","","808.2000000476837","","3","1","arrowright","1","arrowright","[0.325,0.675,0.15,0.85]","","",""
"sailing-trial","268","1328336","0.0-11.0-233.0","","","","false","","","","","","","","","","null","","956.3999999761581","","0","0","null","null","arrowup","[0.325,0.675,0.15,0.85]","","",""
"sailing-trial","269","1331751","0.0-11.0-234.0","","","","false","","","","","","","","","","653.1999999284744","","250.10000002384186","","0","0","arrowleft","0","arrowleft","[0.325,0.675,0.15,0.85]","","",""
"sailing-trial","270","1334217","0.0-11.0-235.0","","","","false","","","","","","","","","","null","","986.5","","0","0","null","null","arrowup","[0.325,0.675,0.15,0.85]","","",""
"sailing-trial","271","1339027","0.0-11.0-236.0","","","","false","","","","","","","","","","806.2000000476837","","942.3999999761581","","2","1","arrowright","1","arrowleft","[0.15,0.85,0.325,0.675]","","",""
"sailing-trial","272","1342471","0.0-11.0-237.0","","","","false","","","","","","","","","","null","","1236.8000000715256","","1","1","null","null","arrowup","[0.15,0.85,0.325,0.675]","","",""
"sailing-trial","273","1346111","0.0-11.0-238.0","","","","false","","","","","","","","","","870.2000000476837","","64.70000004768372","","2","0","arrowright","1","arrowleft","[0.15,0.85,0.325,0.675]","","",""
"sailing-trial","274","1349587","0.0-11.0-239.0","","","","false","","","","","","","","","","null","","1549.1999999284744","","3","1","null","null","arrowup","[0.15,0.85,0.325,0.675]","","",""
"sailing-trial","275","1353267","0.0-11.0-240.0","","","","false","","","","","","","","","","622.6999999284744","","104.90000009536743","","3","0","arrowright","1","arrowright","[0.15,0.85,0.325,0.675]","","",""
"sailing-trial","276","1356493","0.0-11.0-241.0","","","","false","","","","","","","","","","null","","1119.2000000476837","","1","1","null","null","arrowup","[0.15,0.85,0.325,0.675]","","",""
"sailing-trial","277","1361242","0.0-11.0-242.0","","","","false","","","","","","","","","","820.3999999761581","","629.6000000238419","","1","1","arrowleft","0","arrowright","[0.15,0.85,0.325,0.675]","","",""
"sailing-trial","278","1364153","0.0-11.0-243.0","","","","false","","","","","","","","","","null","","1516.8999999761581","","3","0","null","null","arrowup","[0.15,0.85,0.325,0.675]","","",""
"sailing-trial","279","1369477","0.0-11.0-244.0","","","","false","","","","","","","","","","1500.0999999046326","","751.9000000953674","","3","1","arrowright","1","arrowright","[0.15,0.85,0.325,0.675]","","",""
"sailing-trial","280","1372741","0.0-11.0-245.0","","","","false","","","","","","","","","","null","","1380.3000000715256","","0","1","null","null","arrowup","[0.15,0.85,0.325,0.675]","","",""
"sailing-trial","281","1376848","0.0-11.0-246.0","","","","false","","","","","","","","","","904.7000000476837","","58.5","","1","1","arrowleft","0","arrowright","[0.15,0.85,0.325,0.675]","","",""
"sailing-trial","282","1379714","0.0-11.0-247.0","","","","false","","","","","","","","","","null","","1059.5","","1","1","null","null","arrowup","[0.15,0.85,0.325,0.675]","","",""
"sailing-trial","283","1383945","0.0-11.0-248.0","","","","false","","","","","","","","","","821.5","","163.89999997615814","","1","0","arrowleft","0","arrowright","[0.15,0.85,0.325,0.675]","","",""
"sailing-trial","284","1386856","0.0-11.0-249.0","","","","false","","","","","","","","","","null","","890.2000000476837","","0","1","null","null","arrowup","[0.15,0.85,0.325,0.675]","","",""
"sailing-trial","285","1391185","0.0-11.0-250.0","","","","false","","","","","","","","","","690.5","","808.3999999761581","","0","0","arrowleft","0","arrowleft","[0.15,0.85,0.325,0.675]","","",""
"sailing-trial","286","1393909","0.0-11.0-251.0","","","","false","","","","","","","","","","null","","1026.2999999523163","","1","0","null","null","arrowup","[0.15,0.85,0.325,0.675]","","",""
"sailing-trial","287","1397771","0.0-11.0-252.0","","","","false","","","","","","","","","","658.5","","18.90000009536743","","3","1","arrowright","1","arrowright","[0.15,0.85,0.325,0.675]","","",""
"sailing-trial","288","1400411","0.0-11.0-253.0","","","","false","","","","","","","","","","null","","1072.5","","2","0","null","null","arrowup","[0.15,0.85,0.325,0.675]","","",""
"sailing-trial","289","1404369","0.0-11.0-254.0","","","","false","","","","","","","","","","672.8000000715256","","714.5","","2","0","arrowright","1","arrowleft","[0.325,0.675,0.15,0.85]","","",""
"sailing-trial","290","1406821","0.0-11.0-255.0","","","","false","","","","","","","","","","null","","990.2999999523163","","0","0","null","null","arrowup","[0.325,0.675,0.15,0.85]","","",""
"sailing-trial","291","1411843","0.0-11.0-256.0","","","","false","","","","","","","","","","784.3999999761581","","838.6000000238419","","3","1","arrowright","1","arrowright","[0.325,0.675,0.15,0.85]","","",""
"sailing-trial","292","1415350","0.0-11.0-257.0","","","","false","","","","","","","","","","null","","1542.7999999523163","","3","1","null","null","arrowup","[0.325,0.675,0.15,0.85]","","",""
"sailing-trial","293","1419893","0.0-11.0-258.0","","","","false","","","","","","","","","","784.5","","751.3999999761581","","3","1","arrowright","1","arrowright","[0.325,0.675,0.15,0.85]","","",""
"sailing-trial","294","1422833","0.0-11.0-259.0","","","","false","","","","","","","","","","null","","1067.9000000953674","","3","1","null","null","arrowup","[0.325,0.675,0.15,0.85]","","",""
"sailing-trial","295","1426611","0.0-11.0-260.0","","","","false","","","","","","","","","","857.5999999046326","","20.399999976158142","","3","1","arrowright","1","arrowright","[0.325,0.675,0.15,0.85]","","",""
"sailing-trial","296","1429278","0.0-11.0-261.0","","","","false","","","","","","","","","","null","","1319.3999999761581","","0","0","null","null","arrowup","[0.325,0.675,0.15,0.85]","","",""
"sailing-trial","297","1433628","0.0-11.0-262.0","","","","false","","","","","","","","","","714.6000000238419","","741.1000000238419","","3","1","arrowright","1","arrowright","[0.325,0.675,0.15,0.85]","","",""
"sailing-trial","298","1436161","0.0-11.0-263.0","","","","false","","","","","","","","","","null","","797.7000000476837","","3","1","null","null","arrowup","[0.325,0.675,0.15,0.85]","","",""
"sailing-trial","299","1440268","0.0-11.0-264.0","","","","false","","","","","","","","","","673","","105","","3","1","arrowright","1","arrowright","[0.325,0.675,0.15,0.85]","","",""
"sailing-trial","300","1443352","0.0-11.0-265.0","","","","false","","","","","","","","","","null","","1149.8999999761581","","3","1","null","null","arrowup","[0.325,0.675,0.15,0.85]","","",""
"sailing-trial","301","1448257","0.0-11.0-266.0","","","","false","","","","","","","","","","703.5999999046326","","1221.2999999523163","","3","0","arrowright","1","arrowright","[0.325,0.675,0.15,0.85]","","",""
"sailing-trial","302","1450971","0.0-11.0-267.0","","","","false","","","","","","","","","","null","","1185.1999999284744","","2","0","null","null","arrowup","[0.325,0.675,0.15,0.85]","","",""
"sailing-trial","303","1455143","0.0-11.0-268.0","","","","false","","","","","","","","","","638.5","","745","","3","0","arrowright","1","arrowright","[0.325,0.675,0.15,0.85]","","",""
"sailing-trial","304","1458178","0.0-11.0-269.0","","","","false","","","","","","","","","","null","","1065.1000000238419","","1","1","null","null","arrowup","[0.325,0.675,0.15,0.85]","","",""
"sailing-trial","305","1462319","0.0-11.0-270.0","","","","false","","","","","","","","","","658.4000000953674","","321.5","","1","1","arrowleft","0","arrowright","[0.325,0.675,0.15,0.85]","","",""
"sailing-trial","306","1465028","0.0-11.0-271.0","","","","false","","","","","","","","","","null","","953.7999999523163","","0","0","null","null","arrowup","[0.325,0.675,0.15,0.85]","","",""
"sailing-trial","307","1468793","0.0-11.0-272.0","","","","false","","","","","","","","","","659.3999999761581","","40.60000002384186","","3","1","arrowright","1","arrowright","[0.325,0.675,0.15,0.85]","","",""
"sailing-trial","308","1471966","0.0-11.0-273.0","","","","false","","","","","","","","","","null","","1313.1000000238419","","1","0","null","null","arrowup","[0.325,0.675,0.15,0.85]","","",""
"sailing-trial","309","1476407","0.0-11.0-274.0","","","","false","","","","","","","","","","681.5","","769.2000000476837","","3","1","arrowright","1","arrowright","[0.325,0.675,0.15,0.85]","","",""
"sailing-trial","310","1479761","0.0-11.0-275.0","","","","false","","","","","","","","","","null","","1450.5","","3","1","null","null","arrowup","[0.325,0.675,0.15,0.85]","","",""
"sailing-trial","311","1485115","0.0-11.0-276.0","","","","false","","","","","","","","","","967.2000000476837","","1111.2999999523163","","3","1","arrowright","1","arrowright","[0.15,0.85,0.325,0.675]","","",""
"sailing-trial","312","1488211","0.0-11.0-277.0","","","","false","","","","","","","","","","null","","1088.1999999284744","","0","0","null","null","arrowup","[0.15,0.85,0.325,0.675]","","",""
"sailing-trial","313","1492565","0.0-11.0-278.0","","","","false","","","","","","","","","","1294.8000000715256","","112.39999997615814","","1","1","arrowleft","0","arrowright","[0.15,0.85,0.325,0.675]","","",""
"sailing-trial","314","1495377","0.0-11.0-279.0","","","","false","","","","","","","","","","null","","1164.3000000715256","","0","0","null","null","arrowup","[0.15,0.85,0.325,0.675]","","",""
"sailing-trial","315","1500434","0.0-11.0-280.0","","","","false","","","","","","","","","","1277.6000000238419","","1091.1000000238419","","3","0","arrowright","1","arrowright","[0.15,0.85,0.325,0.675]","","",""
"sailing-trial","316","1503272","0.0-11.0-281.0","","","","false","","","","","","","","","","null","","1026.1000000238419","","0","0","null","null","arrowup","[0.15,0.85,0.325,0.675]","","",""
"sailing-trial","317","1507145","0.0-11.0-282.0","","","","false","","","","","","","","","","1243.3999999761581","","78.20000004768372","","2","0","arrowright","1","arrowleft","[0.15,0.85,0.325,0.675]","","",""
"sailing-trial","318","1509822","0.0-11.0-283.0","","","","false","","","","","","","","","","null","","1226.6000000238419","","0","0","null","null","arrowup","[0.15,0.85,0.325,0.675]","","",""
"sailing-trial","319","1514098","0.0-11.0-284.0","","","","false","","","","","","","","","","796.3000000715256","","83.10000002384186","","1","1","arrowleft","0","arrowright","[0.15,0.85,0.325,0.675]","","",""
"sailing-trial","320","1516843","0.0-11.0-285.0","","","","false","","","","","","","","","","null","","1166.1999999284744","","2","0","null","null","arrowup","[0.15,0.85,0.325,0.675]","","",""
"sailing-trial","321","1521454","0.0-11.0-286.0","","","","false","","","","","","","","","","783.3999999761581","","748.5","","1","1","arrowleft","0","arrowright","[0.15,0.85,0.325,0.675]","","",""
"sailing-trial","322","1524189","0.0-11.0-287.0","","","","false","","","","","","","","","","null","","1312.7000000476837","","2","0","null","null","arrowup","[0.15,0.85,0.325,0.675]","","",""
"sailing-trial","323","1527988","0.0-11.0-288.0","","","","false","","","","","","","","","","1142.2000000476837","","283.10000002384186","","1","0","arrowleft","0","arrowright","[0.15,0.85,0.325,0.675]","","",""
"sailing-trial","324","1530961","0.0-11.0-289.0","","","","false","","","","","","","","","","null","","1094.2999999523163","","3","1","null","null","arrowup","[0.15,0.85,0.325,0.675]","","",""
"sailing-trial","325","1535005","0.0-11.0-290.0","","","","false","","","","","","","","","","791","","67.89999997615814","","1","1","arrowleft","0","arrowright","[0.15,0.85,0.325,0.675]","","",""
"sailing-trial","326","1537673","0.0-11.0-291.0","","","","false","","","","","","","","","","null","","1053.1000000238419","","2","0","null","null","arrowup","[0.15,0.85,0.325,0.675]","","",""
"sailing-trial","327","1542005","0.0-11.0-292.0","","","","false","","","","","","","","","","781.4000000953674","","565.8000000715256","","1","1","arrowleft","0","arrowright","[0.325,0.675,0.15,0.85]","","",""
"sailing-trial","328","1544528","0.0-11.0-293.0","","","","false","","","","","","","","","","null","","1107.5","","0","0","null","null","arrowup","[0.325,0.675,0.15,0.85]","","",""
"sailing-trial","329","1549665","0.0-11.0-294.0","","","","false","","","","","","","","","","1395.7000000476837","","640","","3","1","arrowright","1","arrowright","[0.325,0.675,0.15,0.85]","","",""
"sailing-trial","330","1552524","0.0-11.0-295.0","","","","false","","","","","","","","","","null","","1183.8999999761581","","1","0","null","null","arrowup","[0.325,0.675,0.15,0.85]","","",""
"sailing-trial","331","1556077","0.0-11.0-296.0","","","","false","","","","","","","","","","679.7000000476837","","30.600000023841858","","1","0","arrowleft","0","arrowright","[0.325,0.675,0.15,0.85]","","",""
"sailing-trial","332","1558706","0.0-11.0-297.0","","","","false","","","","","","","","","","null","","1247.8999999761581","","1","0","null","null","arrowup","[0.325,0.675,0.15,0.85]","","",""
"sailing-trial","333","1562669","0.0-11.0-298.0","","","","false","","","","","","","","","","747.3000000715256","","666.7999999523163","","3","0","arrowright","1","arrowright","[0.325,0.675,0.15,0.85]","","",""
"sailing-trial","334","1565674","0.0-11.0-299.0","","","","false","","","","","","","","","","null","","1066.4000000953674","","3","1","null","null","arrowup","[0.325,0.675,0.15,0.85]","","",""
"sailing-trial","335","1570890","0.0-11.0-300.0","","","","false","","","","","","","","","","871.6000000238419","","839","","0","0","arrowleft","0","arrowleft","[0.325,0.675,0.15,0.85]","","",""
"sailing-trial","336","1574102","0.0-11.0-301.0","","","","false","","","","","","","","","","null","","1198","","3","1","null","null","arrowup","[0.325,0.675,0.15,0.85]","","",""
"sailing-trial","337","1578574","0.0-11.0-302.0","","","","false","","","","","","","","","","841.2000000476837","","653.2999999523163","","3","1","arrowright","1","arrowright","[0.325,0.675,0.15,0.85]","","",""
"sailing-trial","338","1581693","0.0-11.0-303.0","","","","false","","","","","","","","","","null","","979.1999999284744","","1","1","null","null","arrowup","[0.325,0.675,0.15,0.85]","","",""
"sailing-trial","339","1586251","0.0-11.0-304.0","","","","false","","","","","","","","","","844.7999999523163","","762.2999999523163","","3","1","arrowright","1","arrowright","[0.325,0.675,0.15,0.85]","","",""
"sailing-trial","340","1588780","0.0-11.0-305.0","","","","false","","","","","","","","","","null","","903","","1","0","null","null","arrowup","[0.325,0.675,0.15,0.85]","","",""
"sailing-trial","341","1594370","0.0-11.0-306.0","","","","false","","","","","","","","","","783","","256.39999997615814","","1","1","arrowleft","0","arrowright","[0.325,0.675,0.15,0.85]","","",""
"sailing-trial","342","1597414","0.0-11.0-307.0","","","","false","","","","","","","","","","null","","906.8999999761581","","3","1","null","null","arrowup","[0.325,0.675,0.15,0.85]","","",""
"sailing-trial","343","1601531","0.0-11.0-308.0","","","","false","","","","","","","","","","1029.6000000238419","","87.30000007152557","","3","1","arrowright","1","arrowright","[0.15,0.85,0.325,0.675]","","",""
"sailing-trial","344","1603860","0.0-11.0-309.0","","","","false","","","","","","","","","","null","","935.0999999046326","","2","0","null","null","arrowup","[0.15,0.85,0.325,0.675]","","",""
"sailing-trial","345","1608716","0.0-11.0-310.0","","","","false","","","","","","","","","","985.5","","713.5999999046326","","3","1","arrowright","1","arrowright","[0.15,0.85,0.325,0.675]","","",""
"sailing-trial","346","1611446","0.0-11.0-311.0","","","","false","","","","","","","","","","null","","812.7999999523163","","3","1","null","null","arrowup","[0.15,0.85,0.325,0.675]","","",""
"sailing-trial","347","1615373","0.0-11.0-312.0","","","","false","","","","","","","","","","697.5999999046326","","674.4000000953674","","3","0","arrowright","1","arrowright","[0.15,0.85,0.325,0.675]","","",""
"sailing-trial","348","1618398","0.0-11.0-313.0","","","","false","","","","","","","","","","null","","1169.5","","1","1","null","null","arrowup","[0.15,0.85,0.325,0.675]","","",""
"sailing-trial","349","1622591","0.0-11.0-314.0","","","","false","","","","","","","","","","777.7999999523163","","4.600000023841858","","3","1","arrowright","1","arrowright","[0.15,0.85,0.325,0.675]","","",""
"sailing-trial","350","1626035","0.0-11.0-315.0","","","","false","","","","","","","","","","null","","1932","","3","0","null","null","arrowup","[0.15,0.85,0.325,0.675]","","",""
"sailing-trial","351","1629898","0.0-11.0-316.0","","","","false","","","","","","","","","","1035.8999999761581","","1.6999999284744263","","3","0","arrowright","1","arrowright","[0.15,0.85,0.325,0.675]","","",""
"sailing-trial","352","1633247","0.0-11.0-317.0","","","","false","","","","","","","","","","null","","1079.3999999761581","","3","1","null","null","arrowup","[0.15,0.85,0.325,0.675]","","",""
"sailing-trial","353","1636899","0.0-11.0-318.0","","","","false","","","","","","","","","","132.39999997615814","","586.2000000476837","","3","1","arrowright","1","arrowright","[0.15,0.85,0.325,0.675]","","",""
"sailing-trial","354","1639951","0.0-11.0-319.0","","","","false","","","","","","","","","","null","","1254.3999999761581","","1","1","null","null","arrowup","[0.15,0.85,0.325,0.675]","","",""
"sailing-trial","355","1644222","0.0-11.0-320.0","","","","false","","","","","","","","","","802.5","","483.8000000715256","","1","1","arrowleft","0","arrowright","[0.15,0.85,0.325,0.675]","","",""
"sailing-trial","356","1647746","0.0-11.0-321.0","","","","false","","","","","","","","","","null","","1505.7999999523163","","1","1","null","null","arrowup","[0.15,0.85,0.325,0.675]","","",""
"sailing-trial","357","1652101","0.0-11.0-322.0","","","","false","","","","","","","","","","1105.3999999761581","","349.39999997615814","","3","1","arrowright","1","arrowright","[0.15,0.85,0.325,0.675]","","",""
"sailing-trial","358","1655142","0.0-11.0-323.0","","","","false","","","","","","","","","","null","","1216","","0","0","null","null","arrowup","[0.15,0.85,0.325,0.675]","","",""
"sailing-trial","359","1659133","0.0-11.0-324.0","","","","false","","","","","","","","","","931.5","","1.100000023841858","","3","1","arrowright","1","arrowright","[0.325,0.675,0.15,0.85]","","",""
"sailing-trial","360","1661453","0.0-11.0-325.0","","","","false","","","","","","","","","","null","","1008","","3","0","null","null","arrowup","[0.325,0.675,0.15,0.85]","","",""
"sailing-trial","361","1666608","0.0-11.0-326.0","","","","false","","","","","","","","","","2279.7000000476837","","278.5","","1","0","arrowleft","0","arrowright","[0.325,0.675,0.15,0.85]","","",""
"sailing-trial","362","1669188","0.0-11.0-327.0","","","","false","","","","","","","","","","null","","1151","","0","0","null","null","arrowup","[0.325,0.675,0.15,0.85]","","",""
"sailing-trial","363","1674153","0.0-11.0-328.0","","","","false","","","","","","","","","","1658.5","","692.1999999284744","","1","0","arrowleft","0","arrowright","[0.325,0.675,0.15,0.85]","","",""
"sailing-trial","364","1676937","0.0-11.0-329.0","","","","false","","","","","","","","","","null","","1133","","2","0","null","null","arrowup","[0.325,0.675,0.15,0.85]","","",""
"sailing-trial","365","1681598","0.0-11.0-330.0","","","","false","","","","","","","","","","669.2999999523163","","747.5","","3","1","arrowright","1","arrowright","[0.325,0.675,0.15,0.85]","","",""
"sailing-trial","366","1684514","0.0-11.0-331.0","","","","false","","","","","","","","","","null","","1096.1000000238419","","3","1","null","null","arrowup","[0.325,0.675,0.15,0.85]","","",""
"sailing-trial","367","1688358","0.0-11.0-332.0","","","","false","","","","","","","","","","745.6000000238419","","61.799999952316284","","3","1","arrowright","1","arrowright","[0.325,0.675,0.15,0.85]","","",""
"sailing-trial","368","1691123","0.0-11.0-333.0","","","","false","","","","","","","","","","null","","876.0999999046326","","1","1","null","null","arrowup","[0.325,0.675,0.15,0.85]","","",""
"sailing-trial","369","1696026","0.0-11.0-334.0","","","","false","","","","","","","","","","753.6999999284744","","975.9000000953674","","3","1","arrowright","1","arrowright","[0.325,0.675,0.15,0.85]","","",""
"sailing-trial","370","1699257","0.0-11.0-335.0","","","","false","","","","","","","","","","null","","1115.8999999761581","","0","0","null","null","arrowup","[0.325,0.675,0.15,0.85]","","",""
"sailing-trial","371","1704099","0.0-11.0-336.0","","","","false","","","","","","","","","","785","","154","","3","1","arrowright","1","arrowright","[0.325,0.675,0.15,0.85]","","",""
"sailing-trial","372","1707787","0.0-11.0-337.0","","","","false","","","","","","","","","","null","","2576.600000023842","","2","0","null","null","arrowup","[0.325,0.675,0.15,0.85]","","",""
"sailing-trial","373","1711940","0.0-11.0-338.0","","","","false","","","","","","","","","","1136.6000000238419","","139.60000002384186","","3","1","arrowright","1","arrowright","[0.325,0.675,0.15,0.85]","","",""
"sailing-trial","374","1714471","0.0-11.0-339.0","","","","false","","","","","","","","","","null","","1185.6999999284744","","1","0","null","null","arrowup","[0.325,0.675,0.15,0.85]","","",""
"sailing-trial","375","1718779","0.0-11.0-340.0","","","","false","","","","","","","","","","831.8000000715256","","631","","3","1","arrowright","1","arrowright","[0.325,0.675,0.15,0.85]","","",""
"sailing-trial","376","1722372","0.0-11.0-341.0","","","","false","","","","","","","","","","null","","1954.6000000238419","","2","0","null","null","arrowup","[0.325,0.675,0.15,0.85]","","",""
"sailing-trial","377","1726658","0.0-11.0-342.0","","","","false","","","","","","","","","","971.4000000953674","","215","","3","1","arrowright","1","arrowright","[0.325,0.675,0.15,0.85]","","",""
"sailing-trial","378","1729906","0.0-11.0-343.0","","","","false","","","","","","","","","","null","","1514.1000000238419","","2","0","null","null","arrowup","[0.325,0.675,0.15,0.85]","","",""
"sailing-trial","379","1733857","0.0-11.0-344.0","","","","false","","","","","","","","","","927","","90.39999997615814","","3","1","arrowright","1","arrowright","[0.325,0.675,0.15,0.85]","","",""
"sailing-trial","380","1736532","0.0-11.0-345.0","","","","false","","","","","","","","","","null","","1148.9000000953674","","2","0","null","null","arrowup","[0.325,0.675,0.15,0.85]","","",""
"sailing-trial","381","1740260","0.0-11.0-346.0","","","","false","","","","","","","","","","988.5","","28.100000023841858","","1","0","arrowleft","0","arrowright","[0.325,0.675,0.15,0.85]","","",""
"sailing-trial","382","1743097","0.0-11.0-347.0","","","","false","","","","","","","","","","null","","1407.3999999761581","","2","0","null","null","arrowup","[0.325,0.675,0.15,0.85]","","",""
"sailing-trial","383","1747307","0.0-11.0-348.0","","","","false","","","","","","","","","","850.8999999761581","","730.4000000953674","","3","0","arrowright","1","arrowright","[0.675,0.325,0.85,0.15]","","",""
"sailing-trial","384","1750254","0.0-11.0-349.0","","","","false","","","","","","","","","","null","","1170.8000000715256","","1","1","null","null","arrowup","[0.675,0.325,0.85,0.15]","","",""
"sailing-trial","385","1754392","0.0-11.0-350.0","","","","false","","","","","","","","","","669.1000000238419","","761.2000000476837","","1","0","arrowleft","0","arrowright","[0.675,0.325,0.85,0.15]","","",""
"sailing-trial","386","1757436","0.0-11.0-351.0","","","","false","","","","","","","","","","null","","1086.1000000238419","","2","1","null","null","arrowup","[0.675,0.325,0.85,0.15]","","",""
"sailing-trial","387","1760576","0.0-11.0-352.0","","","","false","","","","","","","","","","528.8999999761581","","53.5","","3","0","arrowright","1","arrowright","[0.675,0.325,0.85,0.15]","","",""
"sailing-trial","388","1762942","0.0-11.0-353.0","","","","false","","","","","","","","","","null","","913","","1","0","null","null","arrowup","[0.675,0.325,0.85,0.15]","","",""
"sailing-trial","389","1767143","0.0-11.0-354.0","","","","false","","","","","","","","","","1022.8999999761581","","126.59999990463257","","0","1","arrowleft","0","arrowleft","[0.675,0.325,0.85,0.15]","","",""
"sailing-trial","390","1770244","0.0-11.0-355.0","","","","false","","","","","","","","","","null","","1191.7000000476837","","1","1","null","null","arrowup","[0.675,0.325,0.85,0.15]","","",""
"sailing-trial","391","1773634","0.0-11.0-356.0","","","","false","","","","","","","","","","627.7999999523163","","84","","1","0","arrowleft","0","arrowright","[0.675,0.325,0.85,0.15]","","",""
"sailing-trial","392","1776664","0.0-11.0-357.0","","","","false","","","","","","","","","","null","","1550.2000000476837","","1","0","null","null","arrowup","[0.675,0.325,0.85,0.15]","","",""
"sailing-trial","393","1780424","0.0-11.0-358.0","","","","false","","","","","","","","","","843","","5.799999952316284","","0","1","arrowleft","0","arrowleft","[0.675,0.325,0.85,0.15]","","",""
"sailing-trial","394","1783526","0.0-11.0-359.0","","","","false","","","","","","","","","","null","","1074","","0","1","null","null","arrowup","[0.675,0.325,0.85,0.15]","","",""
"sailing-trial","395","1788003","0.0-11.0-360.0","","","","false","","","","","","","","","","1158.8000000715256","","453.39999997615814","","0","0","arrowleft","0","arrowleft","[0.675,0.325,0.85,0.15]","","",""
"sailing-trial","396","1790603","0.0-11.0-361.0","","","","false","","","","","","","","","","null","","1091.6000000238419","","1","0","null","null","arrowup","[0.675,0.325,0.85,0.15]","","",""
"sailing-trial","397","1795008","0.0-11.0-362.0","","","","false","","","","","","","","","","910.7999999523163","","127.29999995231628","","0","1","arrowleft","0","arrowleft","[0.675,0.325,0.85,0.15]","","",""
"sailing-trial","398","1800058","0.0-11.0-363.0","","","","false","","","","","","","","","","null","","2724.6999999284744","","2","1","null","null","arrowup","[0.675,0.325,0.85,0.15]","","",""
"sailing-trial","399","1803911","0.0-11.0-364.0","","","","false","","","","","","","","","","715.5","","106","","2","1","arrowright","1","arrowleft","[0.675,0.325,0.85,0.15]","","",""
"sailing-trial","400","1806721","0.0-11.0-365.0","","","","false","","","","","","","","","","null","","1024.1000000238419","","0","1","null","null","arrowup","[0.675,0.325,0.85,0.15]","","",""
"sailing-trial","401","1810824","0.0-11.0-366.0","","","","false","","","","","","","","","","860","","175.29999995231628","","0","0","arrowleft","0","arrowleft","[0.675,0.325,0.85,0.15]","","",""
"sailing-trial","402","1813810","0.0-11.0-367.0","","","","false","","","","","","","","","","null","","1046.7999999523163","","0","1","null","null","arrowup","[0.675,0.325,0.85,0.15]","","",""
"sailing-trial","403","1818124","0.0-11.0-368.0","","","","false","","","","","","","","","","907.2999999523163","","400.7999999523163","","0","1","arrowleft","0","arrowleft","[0.85,0.15,0.675,0.325]","","",""
"sailing-trial","404","1821984","0.0-11.0-369.0","","","","false","","","","","","","","","","null","","2245.7999999523163","","3","0","null","null","arrowup","[0.85,0.15,0.675,0.325]","","",""
"sailing-trial","405","1826194","0.0-11.0-370.0","","","","false","","","","","","","","","","1096.3000000715256","","10.600000023841858","","0","1","arrowleft","0","arrowleft","[0.85,0.15,0.675,0.325]","","",""
"sailing-trial","406","1830216","0.0-11.0-371.0","","","","false","","","","","","","","","","null","","2054.8000000715256","","0","1","null","null","arrowup","[0.85,0.15,0.675,0.325]","","",""
"sailing-trial","407","1834070","0.0-11.0-372.0","","","","false","","","","","","","","","","941.8999999761581","","60","","0","1","arrowleft","0","arrowleft","[0.85,0.15,0.675,0.325]","","",""
"sailing-trial","408","1837412","0.0-11.0-373.0","","","","false","","","","","","","","","","null","","1764","","1","0","null","null","arrowup","[0.85,0.15,0.675,0.325]","","",""
"sailing-trial","409","1842009","0.0-11.0-374.0","","","","false","","","","","","","","","","576.5999999046326","","778.7000000476837","","0","1","arrowleft","0","arrowleft","[0.85,0.15,0.675,0.325]","","",""
"sailing-trial","410","1845501","0.0-11.0-375.0","","","","false","","","","","","","","","","null","","1482","","0","1","null","null","arrowup","[0.85,0.15,0.675,0.325]","","",""
"sailing-trial","411","1849672","0.0-11.0-376.0","","","","false","","","","","","","","","","903.2999999523163","","460.2999999523163","","2","0","arrowright","1","arrowleft","[0.85,0.15,0.675,0.325]","","",""
"sailing-trial","412","1852321","0.0-11.0-377.0","","","","false","","","","","","","","","","null","","1232.0999999046326","","3","0","null","null","arrowup","[0.85,0.15,0.675,0.325]","","",""
"sailing-trial","413","1856914","0.0-11.0-378.0","","","","false","","","","","","","","","","867.2999999523163","","628.6000000238419","","0","1","arrowleft","0","arrowleft","[0.85,0.15,0.675,0.325]","","",""
"sailing-trial","414","1859707","0.0-11.0-379.0","","","","false","","","","","","","","","","null","","991.5999999046326","","0","1","null","null","arrowup","[0.85,0.15,0.675,0.325]","","",""
"sailing-trial","415","1864004","0.0-11.0-380.0","","","","false","","","","","","","","","","859.6000000238419","","476.89999997615814","","0","1","arrowleft","0","arrowleft","[0.85,0.15,0.675,0.325]","","",""
"sailing-trial","416","1866212","0.0-11.0-381.0","","","","false","","","","","","","","","","null","","954.2999999523163","","0","0","null","null","arrowup","[0.85,0.15,0.675,0.325]","","",""
"sailing-trial","417","1871228","0.0-11.0-382.0","","","","false","","","","","","","","","","1043.2000000476837","","937.6999999284744","","0","1","arrowleft","0","arrowleft","[0.85,0.15,0.675,0.325]","","",""
"sailing-trial","418","1874228","0.0-11.0-383.0","","","","false","","","","","","","","","","null","","959.8999999761581","","0","1","null","null","arrowup","[0.85,0.15,0.675,0.325]","","",""
"sailing-trial","419","1877841","0.0-11.0-384.0","","","","false","","","","","","","","","","1025.6999999284744","","223","","0","0","arrowleft","0","arrowleft","[0.675,0.325,0.85,0.15]","","",""
"sailing-trial","420","1881297","0.0-11.0-385.0","","","","false","","","","","","","","","","null","","1842.5","","1","0","null","null","arrowup","[0.675,0.325,0.85,0.15]","","",""
"sailing-trial","421","1885265","0.0-11.0-386.0","","","","false","","","","","","","","","","1039.3000000715256","","319.7000000476837","","3","0","arrowright","1","arrowright","[0.675,0.325,0.85,0.15]","","",""
"sailing-trial","422","1888395","0.0-11.0-387.0","","","","false","","","","","","","","","","null","","1018.2999999523163","","0","1","null","null","arrowup","[0.675,0.325,0.85,0.15]","","",""
"sailing-trial","423","1892647","0.0-11.0-388.0","","","","false","","","","","","","","","","1049.3999999761581","","522.7000000476837","","0","0","arrowleft","0","arrowleft","[0.675,0.325,0.85,0.15]","","",""
"sailing-trial","424","1895935","0.0-11.0-389.0","","","","false","","","","","","","","","","null","","1498.3999999761581","","2","0","null","null","arrowup","[0.675,0.325,0.85,0.15]","","",""
"sailing-trial","425","1900025","0.0-11.0-390.0","","","","false","","","","","","","","","","870.5999999046326","","200.09999990463257","","0","1","arrowleft","0","arrowleft","[0.675,0.325,0.85,0.15]","","",""
"sailing-trial","426","1903743","0.0-11.0-391.0","","","","false","","","","","","","","","","null","","1744.7999999523163","","3","0","null","null","arrowup","[0.675,0.325,0.85,0.15]","","",""
"sailing-trial","427","1907877","0.0-11.0-392.0","","","","false","","","","","","","","","","897.3999999761581","","167.70000004768372","","0","1","arrowleft","0","arrowleft","[0.675,0.325,0.85,0.15]","","",""
"sailing-trial","428","1911311","0.0-11.0-393.0","","","","false","","","","","","","","","","null","","1853.8000000715256","","3","0","null","null","arrowup","[0.675,0.325,0.85,0.15]","","",""
"sailing-trial","429","1917432","0.0-11.0-394.0","","","","false","","","","","","","","","","1904.5","","830.8999999761581","","2","1","arrowright","1","arrowleft","[0.675,0.325,0.85,0.15]","","",""
"sailing-trial","430","1920309","0.0-11.0-395.0","","","","false","","","","","","","","","","null","","1202.3999999761581","","0","0","null","null","arrowup","[0.675,0.325,0.85,0.15]","","",""
"sailing-trial","431","1924579","0.0-11.0-396.0","","","","false","","","","","","","","","","1147.8999999761581","","65.89999997615814","","0","1","arrowleft","0","arrowleft","[0.675,0.325,0.85,0.15]","","",""
"sailing-trial","432","1927885","0.0-11.0-397.0","","","","false","","","","","","","","","","null","","1185.8999999761581","","2","1","null","null","arrowup","[0.675,0.325,0.85,0.15]","","",""
"sailing-trial","433","1931899","0.0-11.0-398.0","","","","false","","","","","","","","","","989.3999999761581","","115.39999997615814","","0","1","arrowleft","0","arrowleft","[0.675,0.325,0.85,0.15]","","",""
"sailing-trial","434","1936245","0.0-11.0-399.0","","","","false","","","","","","","","","","null","","2666.9000000953674","","2","0","null","null","arrowup","[0.675,0.325,0.85,0.15]","","",""
"instructions","435","1941256","0.0-12.0","","","","","","","","","","5010.299999952316","","","","","","","","","","","","","","","","[{""page_index"":0,""viewing_time"":5009.299999952316}]"
"survey-debrief","436","1985607","0.0-13.0","","","","","","","","","","44345.60000002384","","","","","","","","","","","","","","{""difficulty"":""3"",""fun"":""3"",""clarity"":""4"",""strategy"":""No"",""feedback"":""No""}","",""
