"trial_type","trial_index","time_elapsed","internal_node_id","value","metadata","success","timeout","failed_images","failed_audio","failed_video","browser_interaction","low_quality","rt","stimulus","response","button_pressed","island_rt","island_response","boat_rt","boat_response","boat","reward","island_key","island","boat_key","reward_probabilities","responses","num_errors"
"pavlovia","0","3","0.0-0.0","","","","","","","","","","","","","","","","","","","","","","","","",""
"call-function","1","3","0.0-1.0","","{""task_version"":""sailing_part1_v1"",""task_condition"":""good"",""boats"":[""C"",""B"",""A"",""D""],""boats_demo"":[""G"",""F"",""H"",""E""],""islands"":[""A"",""B""],""subject_id"":""14528"",""age"":""10"",""gender"":""Male""}","","","","","","","","","","","","","","","","","","","","","","",""
"preload","2","14311","0.0-2.0","","","true","false","[]","[]","[]","[{""event"":""fullscreenenter"",""trial"":3,""time"":20617}]","false","","","","","","","","","","","","","","","",""
"fullscreen","3","21599","0.0-3.0","","","true","","","","","","","","","","","","","","","","","","","","","",""
"audio-keyboard-response","4","24315","0.0-4.0-0.0","","","","","","","","","","2669.3333333333335","audio/beep_loop.wav"," ","","","","","","","","","","","","",""
"audio-test","5","28440","0.0-4.0-1.0","","","","","","","","","","null","audio/turtle.mp3","","3","","","","","","","","","","","",""
"audio-test","6","30877","0.0-4.0-2.0","","","","","","","","","","null","audio/shark.mp3","","2","","","","","","","","","","","",""
"sailing-instructions","7","70996","0.0-5.0-0.0-0.0","","","","","","","","","","","","","","null","null","null","null","null","null","","","","","",""
"sailing-trial","8","110818","0.0-5.0-0.0-1.0-0.0","","","","false","","","","","","","","","","38723.700000047684","","null","","null","null","arrowleft","0","null","null","",""
"sailing-trial","9","115449","0.0-5.0-0.0-1.0-1.0","","","","false","","","","","","","","","","3526.5","","null","","null","null","arrowright","1","null","null","",""
"sailing-trial","10","121283","0.0-5.0-0.0-1.0-2.0","","","","false","","","","","","","","","","4736","","null","","null","null","arrowleft","0","null","null","",""
"sailing-instructions","11","183463","0.0-5.0-0.0-2.0","","","","","","","","","","","","","","null","null","null","null","0","null","","","","","",""
"sailing-trial","12","194057","0.0-5.0-0.0-3.0-0.0","","","","false","","","","","","","","","","null","","6295.5","","2","1","null","null","arrowleft","[1,1,1,1]","",""
"sailing-trial","13","213016","0.0-5.0-0.0-3.0-1.0","","","","false","","","","","","","","","","null","","7716.5","","3","1","null","null","arrowright","[1,1,1,1]","",""
"sailing-trial","14","223501","0.0-5.0-0.0-3.0-2.0","","","","false","","","","","","","","","","null","","6974.099999904633","","3","0","null","null","arrowright","[0,0,0,0]","",""
"sailing-instructions","15","235815","0.0-5.0-0.0-4.0","","","","","","","","","","","","","","null","null","null","null","null","null","","","","","",""
"sailing-comprehension","16","310171","0.0-5.0-0.0-5.0","","","","","","","","","","59217.89999985695","","","","","","","","","","","","","","[""true"",""true"",""false"",""true""]","0"
"sailing-instructions","17","383939","0.0-6.0-0.0-0.0","","","","","","","","","","","","","","null","null","null","null","null","null","","","","","",""
"sailing-comprehension","18","416891","0.0-6.0-0.0-1.0","","","","","","","","","","28394.200000047684","","","","","","","","","","","","","","[""true"",""false"",""true""]","0"
"sailing-instructions","19","437359","0.0-7.0-0.0-0.0","","","","","","","","","","","","","","null","null","null","null","null","null","","","","","",""
"sailing-trial","20","447483","0.0-7.0-0.0-1.0-0.0","","","","false","","","","","","","","","","null","","7114.700000047684","","0","0","null","null","arrowup","[0.2,0.8,0.2,0.8]","",""
"sailing-trial","21","453142","0.0-7.0-0.0-1.0-1.0","","","","false","","","","","","","","","","null","","2428.7999999523163","","1","1","null","null","arrowup","[0.2,0.8,0.2,0.8]","",""
"sailing-trial","22","460825","0.0-7.0-0.0-1.0-2.0","","","","false","","","","","","","","","","null","","5026.600000143051","","2","1","null","null","arrowup","[0.2,0.8,0.2,0.8]","",""
"sailing-trial","23","467501","0.0-7.0-0.0-1.0-3.0","","","","false","","","","","","","","","","null","","3119.600000143051","","3","1","null","null","arrowup","[0.2,0.8,0.2,0.8]","",""
"sailing-comprehension","24","482810","0.0-7.0-0.0-2.0","","","","","","","","","","11335.799999952316","","","","","","","","","","","","","","[""false""]","0"
"sailing-instructions","25","497067","0.0-8.0-0.0-0.0","","","","","","","","","","","","","","null","null","null","null","null","null","","","","","",""
"sailing-comprehension","26","505451","0.0-8.0-0.0-1.0","","","","","","","","","","5835.299999952316","","","","","","","","","","","","","","[""true""]","0"
"sailing-instructions","27","533948","0.0-9.0-0.0-0.0","","","","","","","","","","","","","","null","null","null","null","null","null","","","","","",""
"sailing-trial","28","540151","0.0-9.0-0.0-1.0-0.0","","","","false","","","","","","","","","","1245.1999998092651","","1136.2000000476837","","3","1","arrowright","1","arrowright","[0.2,0.8,0.2,0.8]","",""
"sailing-trial","29","545247","0.0-9.0-0.0-1.0-1.0","","","","false","","","","","","","","","","1602.6000001430511","","188.20000004768372","","2","0","arrowright","1","arrowleft","[0.2,0.8,0.2,0.8]","",""
"sailing-trial","30","550875","0.0-9.0-0.0-1.0-2.0","","","","false","","","","","","","","","","null","","3658.600000143051","","0","0","null","null","arrowup","[0.2,0.8,0.2,0.8]","",""
"sailing-trial","31","558434","0.0-9.0-0.0-1.0-3.0","","","","false","","","","","","","","","","1181.8999998569489","","991","","1","1","arrowleft","0","arrowright","[0.2,0.8,0.2,0.8]","",""
"sailing-trial","32","563202","0.0-9.0-0.0-1.0-4.0","","","","false","","","","","","","","","","null","","2359.100000143051","","3","1","null","null","arrowup","[0.2,0.8,0.2,0.8]","",""
"sailing-trial","33","567418","0.0-9.0-0.0-1.0-5.0","","","","false","","","","","","","","","","950.5","","92.29999995231628","","3","1","arrowright","1","arrowright","[0.2,0.8,0.2,0.8]","",""
"sailing-instructions","34","595739","0.0-10.0","","","","","","","","","","","","","","null","null","null","null","null","null","","","","","",""
"sailing-trial","35","603384","0.0-11.0-0.0","","","","false","","","","","","","","","","2045.7999999523163","","360.80000019073486","","3","1","arrowright","1","arrowright","[0.675,0.325,0.15,0.85]","",""
"sailing-trial","36","608232","0.0-11.0-1.0","","","","false","","","","","","","","","","null","","2303.2000000476837","","0","1","null","null","arrowup","[0.675,0.325,0.15,0.85]","",""
"sailing-trial","37","612567","0.0-11.0-2.0","","","","false","","","","","","","","","","577.2999999523163","","272.7000000476837","","0","1","arrowleft","0","arrowleft","[0.675,0.325,0.15,0.85]","",""
"sailing-trial","38","617162","0.0-11.0-3.0","","","","false","","","","","","","","","","null","","2513.300000190735","","3","0","null","null","arrowup","[0.675,0.325,0.15,0.85]","",""
"sailing-trial","39","622879","0.0-11.0-4.0","","","","false","","","","","","","","","","718.4000000953674","","1093.7000000476837","","1","0","arrowleft","0","arrowright","[0.675,0.325,0.15,0.85]","",""
"sailing-trial","40","629935","0.0-11.0-5.0","","","","false","","","","","","","","","","null","","4041.5","","3","1","null","null","arrowup","[0.675,0.325,0.15,0.85]","",""
"sailing-trial","41","635350","0.0-11.0-6.0","","","","false","","","","","","","","","","1017.5","","636.5","","0","0","arrowleft","0","arrowleft","[0.675,0.325,0.15,0.85]","",""
"sailing-trial","42","641320","0.0-11.0-7.0","","","","false","","","","","","","","","","null","","2977.800000190735","","2","0","null","null","arrowup","[0.675,0.325,0.15,0.85]","",""
"sailing-trial","43","647736","0.0-11.0-8.0","","","","false","","","","","","","","","","1873","","562.5999999046326","","0","0","arrowleft","0","arrowleft","[0.675,0.325,0.15,0.85]","",""
"sailing-trial","44","652084","0.0-11.0-9.0","","","","false","","","","","","","","","","null","","1904.3000001907349","","3","1","null","null","arrowup","[0.675,0.325,0.15,0.85]","",""
"sailing-trial","45","656535","0.0-11.0-10.0","","","","false","","","","","","","","","","1348.1999998092651","","568.5","","2","0","arrowright","1","arrowleft","[0.675,0.325,0.15,0.85]","",""
"sailing-trial","46","662001","0.0-11.0-11.0","","","","false","","","","","","","","","","null","","3314.199999809265","","3","1","null","null","arrowup","[0.675,0.325,0.15,0.85]","",""
"sailing-trial","47","666636","0.0-11.0-12.0","","","","false","","","","","","","","","","1223.4000000953674","","385.2000000476837","","3","1","arrowright","1","arrowright","[0.675,0.325,0.15,0.85]","",""
"sailing-trial","48","671591","0.0-11.0-13.0","","","","false","","","","","","","","","","null","","2332.9000000953674","","2","0","null","null","arrowup","[0.675,0.325,0.15,0.85]","",""
"sailing-trial","49","676501","0.0-11.0-14.0","","","","false","","","","","","","","","","1025.7000000476837","","585.2999999523163","","3","1","arrowright","1","arrowright","[0.675,0.325,0.15,0.85]","",""
"sailing-trial","50","681049","0.0-11.0-15.0","","","","false","","","","","","","","","","null","","3299.800000190735","","2","0","null","null","arrowup","[0.675,0.325,0.15,0.85]","",""
"sailing-trial","51","685344","0.0-11.0-16.0","","","","false","","","","","","","","","","896.5","","483.7000000476837","","3","1","arrowright","1","arrowright","[0.675,0.325,0.15,0.85]","",""
"sailing-trial","52","690718","0.0-11.0-17.0","","","","false","","","","","","","","","","null","","3352.5999999046326","","0","1","null","null","arrowup","[0.675,0.325,0.15,0.85]","",""
"sailing-trial","53","703869","0.0-11.0-18.0","","","","false","","","","","","","","","","4106.900000095367","","113.20000004768372","","3","1","arrowright","1","arrowright","[0.675,0.325,0.15,0.85]","",""
"sailing-trial","54","708068","0.0-11.0-19.0","","","","false","","","","","","","","","","null","","2332.2999999523163","","0","1","null","null","arrowup","[0.675,0.325,0.15,0.85]","",""
"sailing-trial","55","713270","0.0-11.0-20.0","","","","false","","","","","","","","","","948.2999999523163","","249.29999995231628","","3","0","arrowright","1","arrowright","[0.85,0.15,0.325,0.675]","",""
"sailing-trial","56","719103","0.0-11.0-21.0","","","","false","","","","","","","","","","null","","2835.2999999523163","","1","0","null","null","arrowup","[0.85,0.15,0.325,0.675]","",""
"sailing-trial","57","724219","0.0-11.0-22.0","","","","false","","","","","","","","","","1177.5","","693","","0","1","arrowleft","0","arrowleft","[0.85,0.15,0.325,0.675]","",""
"sailing-trial","58","729607","0.0-11.0-23.0","","","","false","","","","","","","","","","null","","3934.7000000476837","","1","0","null","null","arrowup","[0.85,0.15,0.325,0.675]","",""
"sailing-trial","59","735668","0.0-11.0-24.0","","","","false","","","","","","","","","","1330","","1244.5","","0","1","arrowleft","0","arrowleft","[0.85,0.15,0.325,0.675]","",""
"sailing-trial","60","740166","0.0-11.0-25.0","","","","false","","","","","","","","","","null","","2628.2999999523163","","2","0","null","null","arrowup","[0.85,0.15,0.325,0.675]","",""
"sailing-trial","61","744801","0.0-11.0-26.0","","","","false","","","","","","","","","","961.8000001907349","","485","","0","1","arrowleft","0","arrowleft","[0.85,0.15,0.325,0.675]","",""
"sailing-trial","62","750872","0.0-11.0-27.0","","","","false","","","","","","","","","","null","","4519.700000047684","","3","0","null","null","arrowup","[0.85,0.15,0.325,0.675]","",""
"sailing-trial","63","755601","0.0-11.0-28.0","","","","false","","","","","","","","","","704.5","","674.7999999523163","","0","1","arrowleft","0","arrowleft","[0.85,0.15,0.325,0.675]","",""
"sailing-trial","64","760951","0.0-11.0-29.0","","","","false","","","","","","","","","","null","","3479","","2","0","null","null","arrowup","[0.85,0.15,0.325,0.675]","",""
"sailing-trial","65","765268","0.0-11.0-30.0","","","","false","","","","","","","","","","657.8999998569489","","369.69999980926514","","0","1","arrowleft","0","arrowleft","[0.85,0.15,0.325,0.675]","",""
"sailing-trial","66","770686","0.0-11.0-31.0","","","","false","","","","","","","","","","null","","3188.7999999523163","","0","1","null","null","arrowup","[0.85,0.15,0.325,0.675]","",""
"sailing-trial","67","776235","0.0-11.0-32.0","","","","false","","","","","","","","","","1658.2000000476837","","852.3999998569489","","0","1","arrowleft","0","arrowleft","[0.85,0.15,0.325,0.675]","",""
"sailing-trial","68","781351","0.0-11.0-33.0","","","","false","","","","","","","","","","null","","3325.4000000953674","","3","0","null","null","arrowup","[0.85,0.15,0.325,0.675]","",""
"sailing-trial","69","785285","0.0-11.0-34.0","","","","false","","","","","","","","","","769.3000001907349","","508.5","","0","1","arrowleft","0","arrowleft","[0.85,0.15,0.325,0.675]","",""
"sailing-trial","70","788735","0.0-11.0-35.0","","","","false","","","","","","","","","","null","","1555.8999998569489","","3","1","null","null","arrowup","[0.85,0.15,0.325,0.675]","",""
"sailing-trial","71","793820","0.0-11.0-36.0","","","","false","","","","","","","","","","634","","442.89999985694885","","0","0","arrowleft","0","arrowleft","[0.675,0.325,0.15,0.85]","",""
"sailing-trial","72","798647","0.0-11.0-37.0","","","","false","","","","","","","","","","null","","2717.600000143051","","1","0","null","null","arrowup","[0.675,0.325,0.15,0.85]","",""
"sailing-trial","73","804486","0.0-11.0-38.0","","","","false","","","","","","","","","","1090.2999999523163","","140.29999995231628","","0","1","arrowleft","0","arrowleft","[0.675,0.325,0.15,0.85]","",""
"sailing-trial","74","809452","0.0-11.0-39.0","","","","false","","","","","","","","","","null","","2947.600000143051","","3","1","null","null","arrowup","[0.675,0.325,0.15,0.85]","",""
"sailing-trial","75","813835","0.0-11.0-40.0","","","","false","","","","","","","","","","877","","852.8999998569489","","0","1","arrowleft","0","arrowleft","[0.675,0.325,0.15,0.85]","",""
"sailing-trial","76","819069","0.0-11.0-41.0","","","","false","","","","","","","","","","null","","2941.7000000476837","","0","1","null","null","arrowup","[0.675,0.325,0.15,0.85]","",""
"sailing-trial","77","823384","0.0-11.0-42.0","","","","false","","","","","","","","","","749","","584.7999999523163","","0","0","arrowleft","0","arrowleft","[0.675,0.325,0.15,0.85]","",""
"sailing-trial","78","828103","0.0-11.0-43.0","","","","false","","","","","","","","","","null","","2465.600000143051","","0","1","null","null","arrowup","[0.675,0.325,0.15,0.85]","",""
"sailing-trial","79","832603","0.0-11.0-44.0","","","","false","","","","","","","","","","1650.2000000476837","","11.199999809265137","","0","1","arrowleft","0","arrowleft","[0.675,0.325,0.15,0.85]","",""
"sailing-trial","80","837128","0.0-11.0-45.0","","","","false","","","","","","","","","","null","","2942.5999999046326","","1","0","null","null","arrowup","[0.675,0.325,0.15,0.85]","",""
"sailing-trial","81","841920","0.0-11.0-46.0","","","","false","","","","","","","","","","529.5","","271.5","","0","0","arrowleft","0","arrowleft","[0.675,0.325,0.15,0.85]","",""
"sailing-trial","82","846852","0.0-11.0-47.0","","","","false","","","","","","","","","","null","","1833.1999998092651","","3","1","null","null","arrowup","[0.675,0.325,0.15,0.85]","",""
"sailing-trial","83","852485","0.0-11.0-48.0","","","","false","","","","","","","","","","2581.0999999046326","","279.7999999523163","","0","1","arrowleft","0","arrowleft","[0.675,0.325,0.15,0.85]","",""
"sailing-trial","84","855688","0.0-11.0-49.0","","","","false","","","","","","","","","","null","","1635.7000000476837","","1","0","null","null","arrowup","[0.675,0.325,0.15,0.85]","",""
"sailing-trial","85","859502","0.0-11.0-50.0","","","","false","","","","","","","","","","561.2999999523163","","135.59999990463257","","0","1","arrowleft","0","arrowleft","[0.675,0.325,0.15,0.85]","",""
"sailing-trial","86","863543","0.0-11.0-51.0","","","","false","","","","","","","","","","null","","2650.899999856949","","2","0","null","null","arrowup","[0.675,0.325,0.15,0.85]","",""
"sailing-trial","87","871502","0.0-11.0-52.0","","","","false","","","","","","","","","","449.89999985694885","","450","","0","1","arrowleft","0","arrowleft","[0.85,0.15,0.325,0.675]","",""
"sailing-trial","88","886506","0.0-11.0-53.0","","","","true","","","","","","","","","","null","","null","","null","null","null","null","null","[0.85,0.15,0.325,0.675]","",""
"sailing-trial","89","890619","0.0-11.0-54.0","","","","false","","","","","","","","","","1150.8999998569489","","47.09999990463257","","0","1","arrowleft","0","arrowleft","[0.85,0.15,0.325,0.675]","",""
"sailing-trial","90","894808","0.0-11.0-55.0","","","","false","","","","","","","","","","null","","1566.7000000476837","","2","0","null","null","arrowup","[0.85,0.15,0.325,0.675]","",""
"sailing-trial","91","900302","0.0-11.0-56.0","","","","false","","","","","","","","","","1313.8999998569489","","876.5999999046326","","0","1","arrowleft","0","arrowleft","[0.85,0.15,0.325,0.675]","",""
"sailing-trial","92","903802","0.0-11.0-57.0","","","","false","","","","","","","","","","null","","1643.0999999046326","","0","1","null","null","arrowup","[0.85,0.15,0.325,0.675]","",""
"sailing-trial","93","908232","0.0-11.0-58.0","","","","false","","","","","","","","","","879.3999998569489","","438.19999980926514","","0","0","arrowleft","0","arrowleft","[0.85,0.15,0.325,0.675]","",""
"sailing-trial","94","913986","0.0-11.0-59.0","","","","false","","","","","","","","","","null","","2241.5","","2","1","null","null","arrowup","[0.85,0.15,0.325,0.675]","",""
"sailing-trial","95","920469","0.0-11.0-60.0","","","","false","","","","","","","","","","3063.199999809265","","135.60000014305115","","0","1","arrowleft","0","arrowleft","[0.85,0.15,0.325,0.675]","",""
"sailing-trial","96","924088","0.0-11.0-61.0","","","","false","","","","","","","","","","null","","1652.5","","1","0","null","null","arrowup","[0.85,0.15,0.325,0.675]","",""
"sailing-trial","97","929836","0.0-11.0-62.0","","","","false","","","","","","","","","","2577.199999809265","","373.09999990463257","","0","1","arrowleft","0","arrowleft","[0.85,0.15,0.325,0.675]","",""
"sailing-trial","98","933192","0.0-11.0-63.0","","","","false","","","","","","","","","","null","","1644.5999999046326","","3","0","null","null","arrowup","[0.85,0.15,0.325,0.675]","",""
"sailing-trial","99","936952","0.0-11.0-64.0","","","","false","","","","","","","","","","417.2000000476837","","65.19999980926514","","0","1","arrowleft","0","arrowleft","[0.85,0.15,0.325,0.675]","",""
"sailing-trial","100","941079","0.0-11.0-65.0","","","","false","","","","","","","","","","null","","1504.7999999523163","","1","0","null","null","arrowup","[0.85,0.15,0.325,0.675]","",""
"sailing-trial","101","945220","0.0-11.0-66.0","","","","false","","","","","","","","","","546","","144.39999985694885","","0","1","arrowleft","0","arrowleft","[0.85,0.15,0.325,0.675]","",""
"sailing-trial","102","951800","0.0-11.0-67.0","","","","false","","","","","","","","","","null","","5109.899999856949","","2","0","null","null","arrowup","[0.85,0.15,0.325,0.675]","",""
"sailing-trial","103","956303","0.0-11.0-68.0","","","","false","","","","","","","","","","833.7999999523163","","167.70000004768372","","0","1","arrowleft","0","arrowleft","[0.85,0.15,0.325,0.675]","",""
"sailing-trial","104","960403","0.0-11.0-69.0","","","","false","","","","","","","","","","null","","2202.5","","0","1","null","null","arrowup","[0.85,0.15,0.325,0.675]","",""
"sailing-trial","105","965486","0.0-11.0-70.0","","","","false","","","","","","","","","","1942.8999998569489","","83.89999985694885","","0","1","arrowleft","0","arrowleft","[0.85,0.15,0.325,0.675]","",""
"sailing-trial","106","967848","0.0-11.0-71.0","","","","false","","","","","","","","","","null","","1099.2999999523163","","1","0","null","null","arrowup","[0.85,0.15,0.325,0.675]","",""
"sailing-trial","107","971402","0.0-11.0-72.0","","","","false","","","","","","","","","","897.2999999523163","","35.700000047683716","","0","1","arrowleft","0","arrowleft","[0.85,0.15,0.325,0.675]","",""
"sailing-trial","108","978735","0.0-11.0-73.0","","","","false","","","","","","","","","","null","","1438.3999998569489","","1","1","null","null","arrowup","[0.85,0.15,0.325,0.675]","",""
"sailing-trial","109","983469","0.0-11.0-74.0","","","","false","","","","","","","","","","1177.5","","437","","0","1","arrowleft","0","arrowleft","[0.85,0.15,0.325,0.675]","",""
"sailing-trial","110","987835","0.0-11.0-75.0","","","","false","","","","","","","","","","null","","1403.5999999046326","","3","1","null","null","arrowup","[0.85,0.15,0.325,0.675]","",""
"sailing-trial","111","992685","0.0-11.0-76.0","","","","false","","","","","","","","","","621.6999998092651","","207","","0","1","arrowleft","0","arrowleft","[0.675,0.325,0.15,0.85]","",""
"sailing-trial","112","997911","0.0-11.0-77.0","","","","false","","","","","","","","","","null","","3370.7000000476837","","0","0","null","null","arrowup","[0.675,0.325,0.15,0.85]","",""
"sailing-trial","113","1001990","0.0-11.0-78.0","","","","false","","","","","","","","","","1089.6999998092651","","249","","0","0","arrowleft","0","arrowleft","[0.675,0.325,0.15,0.85]","",""
"sailing-trial","114","1006768","0.0-11.0-79.0","","","","false","","","","","","","","","","null","","2530.399999856949","","0","1","null","null","arrowup","[0.675,0.325,0.15,0.85]","",""
"sailing-trial","115","1010452","0.0-11.0-80.0","","","","false","","","","","","","","","","600.4000000953674","","538.2999999523163","","0","1","arrowleft","0","arrowleft","[0.675,0.325,0.15,0.85]","",""
"sailing-trial","116","1013641","0.0-11.0-81.0","","","","false","","","","","","","","","","null","","1268.5999999046326","","1","0","null","null","arrowup","[0.675,0.325,0.15,0.85]","",""
"sailing-trial","117","1017319","0.0-11.0-82.0","","","","false","","","","","","","","","","464.2999999523163","","540.7999999523163","","0","1","arrowleft","0","arrowleft","[0.675,0.325,0.15,0.85]","",""
"sailing-trial","118","1020552","0.0-11.0-83.0","","","","false","","","","","","","","","","null","","1362","","0","1","null","null","arrowup","[0.675,0.325,0.15,0.85]","",""
"sailing-trial","119","1025320","0.0-11.0-84.0","","","","false","","","","","","","","","","1008.5","","514.8999998569489","","0","1","arrowleft","0","arrowleft","[0.675,0.325,0.15,0.85]","",""
"sailing-trial","120","1028552","0.0-11.0-85.0","","","","false","","","","","","","","","","null","","1136.8999998569489","","3","1","null","null","arrowup","[0.675,0.325,0.15,0.85]","",""
"sailing-trial","121","1033702","0.0-11.0-86.0","","","","false","","","","","","","","","","817.0999999046326","","138.5","","0","1","arrowleft","0","arrowleft","[0.675,0.325,0.15,0.85]","",""
"sailing-trial","122","1037527","0.0-11.0-87.0","","","","false","","","","","","","","","","null","","1154.7999999523163","","1","0","null","null","arrowup","[0.675,0.325,0.15,0.85]","",""
"sailing-trial","123","1041159","0.0-11.0-88.0","","","","false","","","","","","","","","","433.7999999523163","","627.2999999523163","","0","0","arrowleft","0","arrowleft","[0.675,0.325,0.15,0.85]","",""
"sailing-trial","124","1044519","0.0-11.0-89.0","","","","false","","","","","","","","","","null","","1058.2000000476837","","0","1","null","null","arrowup","[0.675,0.325,0.15,0.85]","",""
"sailing-trial","125","1048752","0.0-11.0-90.0","","","","false","","","","","","","","","","673.6999998092651","","481.5","","0","1","arrowleft","0","arrowleft","[0.675,0.325,0.15,0.85]","",""
"sailing-trial","126","1052102","0.0-11.0-91.0","","","","false","","","","","","","","","","null","","905","","3","1","null","null","arrowup","[0.675,0.325,0.15,0.85]","",""
"sailing-trial","127","1056586","0.0-11.0-92.0","","","","false","","","","","","","","","","497.7999999523163","","456.90000009536743","","0","1","arrowleft","0","arrowleft","[0.675,0.325,0.15,0.85]","",""
"sailing-trial","128","1061952","0.0-11.0-93.0","","","","false","","","","","","","","","","null","","3246.899999856949","","1","1","null","null","arrowup","[0.675,0.325,0.15,0.85]","",""
"sailing-trial","129","1066231","0.0-11.0-94.0","","","","false","","","","","","","","","","776.7000000476837","","819.8999998569489","","0","0","arrowleft","0","arrowleft","[0.15,0.85,0.675,0.325]","",""
"sailing-trial","130","1070706","0.0-11.0-95.0","","","","false","","","","","","","","","","null","","1473.6000001430511","","3","0","null","null","arrowup","[0.15,0.85,0.675,0.325]","",""
"sailing-trial","131","1074936","0.0-11.0-96.0","","","","false","","","","","","","","","","869.3999998569489","","738.0999999046326","","0","1","arrowleft","0","arrowleft","[0.15,0.85,0.675,0.325]","",""
"sailing-trial","132","1077785","0.0-11.0-97.0","","","","false","","","","","","","","","","null","","1072.6999998092651","","1","1","null","null","arrowup","[0.15,0.85,0.675,0.325]","",""
"sailing-trial","133","1082304","0.0-11.0-98.0","","","","false","","","","","","","","","","863.4000000953674","","517.3999998569489","","0","1","arrowleft","0","arrowleft","[0.15,0.85,0.675,0.325]","",""
"sailing-trial","134","1087069","0.0-11.0-99.0","","","","false","","","","","","","","","","null","","1481.4000000953674","","3","1","null","null","arrowup","[0.15,0.85,0.675,0.325]","",""
"sailing-trial","135","1092304","0.0-11.0-100.0","","","","false","","","","","","","","","","1099.6000001430511","","138","","0","0","arrowleft","0","arrowleft","[0.15,0.85,0.675,0.325]","",""
"sailing-trial","136","1097653","0.0-11.0-101.0","","","","false","","","","","","","","","","null","","1657.1000001430511","","1","1","null","null","arrowup","[0.15,0.85,0.675,0.325]","",""
"sailing-trial","137","1103352","0.0-11.0-102.0","","","","false","","","","","","","","","","1251.7999999523163","","1580.3999998569489","","0","1","arrowleft","0","arrowleft","[0.15,0.85,0.675,0.325]","",""
"sailing-trial","138","1107420","0.0-11.0-103.0","","","","false","","","","","","","","","","null","","1072.2000000476837","","3","0","null","null","arrowup","[0.15,0.85,0.675,0.325]","",""
"sailing-trial","139","1111255","0.0-11.0-104.0","","","","false","","","","","","","","","","940.2999999523163","","578.5","","0","0","arrowleft","0","arrowleft","[0.15,0.85,0.675,0.325]","",""
"sailing-trial","140","1116935","0.0-11.0-105.0","","","","false","","","","","","","","","","null","","2673.2999999523163","","1","1","null","null","arrowup","[0.15,0.85,0.675,0.325]","",""
"sailing-trial","141","1122088","0.0-11.0-106.0","","","","false","","","","","","","","","","1008.7999999523163","","451.10000014305115","","0","0","arrowleft","0","arrowleft","[0.15,0.85,0.675,0.325]","",""
"sailing-trial","142","1127069","0.0-11.0-107.0","","","","false","","","","","","","","","","null","","2032.7000000476837","","1","1","null","null","arrowup","[0.15,0.85,0.675,0.325]","",""
"sailing-trial","143","1133810","0.0-11.0-108.0","","","","false","","","","","","","","","","2428.2000000476837","","325.2000000476837","","0","0","arrowleft","0","arrowleft","[0.15,0.85,0.675,0.325]","",""
"sailing-trial","144","1137569","0.0-11.0-109.0","","","","false","","","","","","","","","","null","","1159","","1","1","null","null","arrowup","[0.15,0.85,0.675,0.325]","",""
"sailing-trial","145","1141503","0.0-11.0-110.0","","","","false","","","","","","","","","","647.9000000953674","","103.79999995231628","","0","1","arrowleft","0","arrowleft","[0.85,0.15,0.325,0.675]","",""
"sailing-trial","146","1156506","0.0-11.0-111.0","","","","true","","","","","","","","","","null","","null","","null","null","null","null","null","[0.85,0.15,0.325,0.675]","",""
"sailing-trial","147","1164456","0.0-11.0-112.0","","","","false","","","","","","","","","","5039","","115.09999990463257","","0","0","arrowleft","0","arrowleft","[0.85,0.15,0.325,0.675]","",""
"sailing-trial","148","1168653","0.0-11.0-113.0","","","","false","","","","","","","","","","null","","2177.600000143051","","0","1","null","null","arrowup","[0.85,0.15,0.325,0.675]","",""
"sailing-trial","149","1173286","0.0-11.0-114.0","","","","false","","","","","","","","","","1036.1999998092651","","221","","0","1","arrowleft","0","arrowleft","[0.85,0.15,0.325,0.675]","",""
"sailing-trial","150","1176470","0.0-11.0-115.0","","","","false","","","","","","","","","","null","","1235","","0","1","null","null","arrowup","[0.85,0.15,0.325,0.675]","",""
"sailing-trial","151","1180405","0.0-11.0-116.0","","","","false","","","","","","","","","","563.7999999523163","","389.7999999523163","","0","1","arrowleft","0","arrowleft","[0.85,0.15,0.325,0.675]","",""
"sailing-trial","152","1184436","0.0-11.0-117.0","","","","false","","","","","","","","","","null","","1444.7000000476837","","3","1","null","null","arrowup","[0.85,0.15,0.325,0.675]","",""
"sailing-trial","153","1189003","0.0-11.0-118.0","","","","false","","","","","","","","","","1365.5","","120","","0","1","arrowleft","0","arrowleft","[0.85,0.15,0.325,0.675]","",""
"sailing-trial","154","1193220","0.0-11.0-119.0","","","","false","","","","","","","","","","null","","2238.2999999523163","","0","1","null","null","arrowup","[0.85,0.15,0.325,0.675]","",""
"sailing-trial","155","1198270","0.0-11.0-120.0","","","","false","","","","","","","","","","885.4000000953674","","236.39999985694885","","0","1","arrowleft","0","arrowleft","[0.85,0.15,0.325,0.675]","",""
"sailing-trial","156","1201015","0.0-11.0-121.0","","","","false","","","","","","","","","","null","","1115.9000000953674","","1","0","null","null","arrowup","[0.85,0.15,0.325,0.675]","",""
"sailing-trial","157","1206487","0.0-11.0-122.0","","","","false","","","","","","","","","","850.5","","1510.4000000953674","","0","1","arrowleft","0","arrowleft","[0.85,0.15,0.325,0.675]","",""
"sailing-trial","158","1209287","0.0-11.0-123.0","","","","false","","","","","","","","","","null","","1154.6000001430511","","1","1","null","null","arrowup","[0.85,0.15,0.325,0.675]","",""
"sailing-trial","159","1213654","0.0-11.0-124.0","","","","false","","","","","","","","","","546.6999998092651","","805.7000000476837","","0","1","arrowleft","0","arrowleft","[0.85,0.15,0.325,0.675]","",""
"sailing-trial","160","1218488","0.0-11.0-125.0","","","","false","","","","","","","","","","null","","1347.7999999523163","","3","1","null","null","arrowup","[0.85,0.15,0.325,0.675]","",""
"sailing-trial","161","1222937","0.0-11.0-126.0","","","","false","","","","","","","","","","1137.6000001430511","","111.5","","0","1","arrowleft","0","arrowleft","[0.85,0.15,0.325,0.675]","",""
"sailing-trial","162","1226216","0.0-11.0-127.0","","","","false","","","","","","","","","","null","","880.7999999523163","","3","0","null","null","arrowup","[0.85,0.15,0.325,0.675]","",""
"sailing-trial","163","1229954","0.0-11.0-128.0","","","","false","","","","","","","","","","626","","238.89999985694885","","0","1","arrowleft","0","arrowleft","[0.85,0.15,0.325,0.675]","",""
"sailing-trial","164","1232287","0.0-11.0-129.0","","","","false","","","","","","","","","","null","","711.5","","1","1","null","null","arrowup","[0.85,0.15,0.325,0.675]","",""
"sailing-trial","165","1236120","0.0-11.0-130.0","","","","false","","","","","","","","","","522.7999999523163","","512.3999998569489","","0","1","arrowleft","0","arrowleft","[0.85,0.15,0.325,0.675]","",""
"sailing-trial","166","1238770","0.0-11.0-131.0","","","","false","","","","","","","","","","null","","785.2999999523163","","1","1","null","null","arrowup","[0.85,0.15,0.325,0.675]","",""
"sailing-trial","167","1242354","0.0-11.0-132.0","","","","false","","","","","","","","","","583.6000001430511","","458","","0","1","arrowleft","0","arrowleft","[0.675,0.325,0.15,0.85]","",""
"sailing-trial","168","1244989","0.0-11.0-133.0","","","","false","","","","","","","","","","null","","823.2999999523163","","0","1","null","null","arrowup","[0.675,0.325,0.15,0.85]","",""
"sailing-trial","169","1248570","0.0-11.0-134.0","","","","false","","","","","","","","","","493.10000014305115","","133.60000014305115","","0","1","arrowleft","0","arrowleft","[0.675,0.325,0.15,0.85]","",""
"sailing-trial","170","1251752","0.0-11.0-135.0","","","","false","","","","","","","","","","null","","1007.7000000476837","","2","0","null","null","arrowup","[0.675,0.325,0.15,0.85]","",""
"sailing-trial","171","1255256","0.0-11.0-136.0","","","","false","","","","","","","","","","817.3999998569489","","201.60000014305115","","0","0","arrowleft","0","arrowleft","[0.675,0.325,0.15,0.85]","",""
"sailing-trial","172","1258169","0.0-11.0-137.0","","","","false","","","","","","","","","","null","","1505.5","","3","0","null","null","arrowup","[0.675,0.325,0.15,0.85]","",""
"sailing-trial","173","1263137","0.0-11.0-138.0","","","","false","","","","","","","","","","704.7000000476837","","1261.9000000953674","","0","1","arrowleft","0","arrowleft","[0.675,0.325,0.15,0.85]","",""
"sailing-trial","174","1267176","0.0-11.0-139.0","","","","false","","","","","","","","","","null","","1848.7000000476837","","2","0","null","null","arrowup","[0.675,0.325,0.15,0.85]","",""
"sailing-trial","175","1272744","0.0-11.0-140.0","","","","false","","","","","","","","","","2354.2000000476837","","211.59999990463257","","0","0","arrowleft","0","arrowleft","[0.675,0.325,0.15,0.85]","",""
"sailing-trial","176","1287760","0.0-11.0-141.0","","","","true","","","","","","","","","","null","","null","","null","null","null","null","null","[0.675,0.325,0.15,0.85]","",""
"sailing-trial","177","1302763","0.0-11.0-142.0","","","","true","","","","","","","","","","null","","null","","null","null","null","null","null","[0.675,0.325,0.15,0.85]","",""
"sailing-trial","178","1308103","0.0-11.0-143.0","","","","false","","","","","","","","","","null","","3486.5999999046326","","2","0","null","null","arrowup","[0.675,0.325,0.15,0.85]","",""
"sailing-trial","179","1312220","0.0-11.0-144.0","","","","false","","","","","","","","","","1298","","133.60000014305115","","0","1","arrowleft","0","arrowleft","[0.675,0.325,0.15,0.85]","",""
"sailing-trial","180","1314664","0.0-11.0-145.0","","","","false","","","","","","","","","","null","","909.3999998569489","","1","0","null","null","arrowup","[0.675,0.325,0.15,0.85]","",""
"sailing-trial","181","1319064","0.0-11.0-146.0","","","","false","","","","","","","","","","497","","573.1000001430511","","0","0","arrowleft","0","arrowleft","[0.675,0.325,0.15,0.85]","",""
"sailing-trial","182","1322320","0.0-11.0-147.0","","","","false","","","","","","","","","","null","","1057.7999999523163","","3","1","null","null","arrowup","[0.675,0.325,0.15,0.85]","",""
"sailing-trial","183","1326804","0.0-11.0-148.0","","","","false","","","","","","","","","","905.5999999046326","","271.10000014305115","","0","1","arrowleft","0","arrowleft","[0.675,0.325,0.15,0.85]","",""
"sailing-trial","184","1330571","0.0-11.0-149.0","","","","false","","","","","","","","","","null","","885.9000000953674","","1","1","null","null","arrowup","[0.675,0.325,0.15,0.85]","",""
"sailing-trial","185","1336254","0.0-11.0-150.0","","","","false","","","","","","","","","","1550.9000000953674","","330.2999999523163","","0","1","arrowleft","0","arrowleft","[0.85,0.15,0.325,0.675]","",""
"sailing-trial","186","1340437","0.0-11.0-151.0","","","","false","","","","","","","","","","null","","1707.7999999523163","","1","1","null","null","arrowup","[0.85,0.15,0.325,0.675]","",""
"sailing-trial","187","1346554","0.0-11.0-152.0","","","","false","","","","","","","","","","468","","284","","0","1","arrowleft","0","arrowleft","[0.85,0.15,0.325,0.675]","",""
"sailing-trial","188","1350521","0.0-11.0-153.0","","","","false","","","","","","","","","","null","","975.2999999523163","","1","0","null","null","arrowup","[0.85,0.15,0.325,0.675]","",""
"sailing-trial","189","1358263","0.0-11.0-154.0","","","","false","","","","","","","","","","3568.2000000476837","","268.7000000476837","","0","0","arrowleft","0","arrowleft","[0.85,0.15,0.325,0.675]","",""
"sailing-trial","190","1362988","0.0-11.0-155.0","","","","false","","","","","","","","","","null","","1730.0999999046326","","2","0","null","null","arrowup","[0.85,0.15,0.325,0.675]","",""
"sailing-trial","191","1368537","0.0-11.0-156.0","","","","false","","","","","","","","","","1421.5","","335.59999990463257","","0","1","arrowleft","0","arrowleft","[0.85,0.15,0.325,0.675]","",""
"sailing-trial","192","1375153","0.0-11.0-157.0","","","","false","","","","","","","","","","null","","1696.0999999046326","","3","1","null","null","arrowup","[0.85,0.15,0.325,0.675]","",""
"sailing-trial","193","1390157","0.0-11.0-158.0","","","","true","","","","","","","","","","null","","null","","null","null","null","null","null","[0.85,0.15,0.325,0.675]","",""
"sailing-trial","194","1397703","0.0-11.0-159.0","","","","false","","","","","","","","","","null","","5964.700000047684","","0","1","null","null","arrowup","[0.85,0.15,0.325,0.675]","",""
"sailing-trial","195","1406272","0.0-11.0-160.0","","","","false","","","","","","","","","","5249.799999952316","","393.7000000476837","","0","1","arrowleft","0","arrowleft","[0.85,0.15,0.325,0.675]","",""
"sailing-trial","196","1409353","0.0-11.0-161.0","","","","false","","","","","","","","","","null","","969.6999998092651","","2","1","null","null","arrowup","[0.85,0.15,0.325,0.675]","",""
"sailing-trial","197","1414021","0.0-11.0-162.0","","","","false","","","","","","","","","","927.8999998569489","","437.09999990463257","","0","1","arrowleft","0","arrowleft","[0.85,0.15,0.325,0.675]","",""
"sailing-trial","198","1417688","0.0-11.0-163.0","","","","false","","","","","","","","","","null","","1380.2999999523163","","3","1","null","null","arrowup","[0.85,0.15,0.325,0.675]","",""
"sailing-trial","199","1422253","0.0-11.0-164.0","","","","false","","","","","","","","","","1089.4000000953674","","337","","0","1","arrowleft","0","arrowleft","[0.85,0.15,0.325,0.675]","",""
"sailing-trial","200","1430936","0.0-11.0-165.0","","","","false","","","","","","","","","","null","","6907","","2","0","null","null","arrowup","[0.85,0.15,0.325,0.675]","",""
"sailing-trial","201","1435455","0.0-11.0-166.0","","","","false","","","","","","","","","","1969.4000000953674","","11.399999856948853","","0","1","arrowleft","0","arrowleft","[0.85,0.15,0.325,0.675]","",""
"sailing-trial","202","1442271","0.0-11.0-167.0","","","","false","","","","","","","","","","null","","5033.799999952316","","0","1","null","null","arrowup","[0.85,0.15,0.325,0.675]","",""
"sailing-trial","203","1447521","0.0-11.0-168.0","","","","false","","","","","","","","","","1769.5999999046326","","414.30000019073486","","0","1","arrowleft","0","arrowleft","[0.85,0.15,0.325,0.675]","",""
"sailing-trial","204","1462525","0.0-11.0-169.0","","","","true","","","","","","","","","","null","","null","","null","null","null","null","null","[0.85,0.15,0.325,0.675]","",""
"sailing-trial","205","1477530","0.0-11.0-170.0","","","","true","","","","","","","","","","null","","null","","null","null","null","null","null","[0.325,0.675,0.85,0.15]","",""
"sailing-trial","206","1492534","0.0-11.0-171.0","","","","true","","","","","","","","","","null","","null","","null","null","null","null","null","[0.325,0.675,0.85,0.15]","",""
"sailing-trial","207","1507538","0.0-11.0-172.0","","","","true","","","","","","","","","","null","","null","","null","null","null","null","null","[0.325,0.675,0.85,0.15]","",""
"sailing-trial","208","1522542","0.0-11.0-173.0","","","","true","","","","","","","","","","null","","null","","null","null","null","null","null","[0.325,0.675,0.85,0.15]","",""
"sailing-trial","209","1537546","0.0-11.0-174.0","","","","true","","","","[{""event"":""fullscreenenter"",""trial"":3,""time"":20617},{""event"":""blur"",""trial"":210,""time"":1580252},{""event"":""fullscreenexit"",""trial"":210,""time"":1580256},{""event"":""focus"",""trial"":210,""time"":1580258},{""event"":""blur"",""trial"":210,""time"":1592521},{""event"":""focus"",""trial"":210,""time"":1592538}]","false","","","","","null","","null","","null","null","null","null","null","[0.325,0.675,0.85,0.15]","",""
