"trial_type","trial_index","time_elapsed","internal_node_id","value","metadata","success","timeout","failed_images","failed_audio","failed_video","browser_interaction","low_quality","rt","stimulus","response","button_pressed","island_rt","island_response","boat_rt","boat_response","boat","reward","island_key","island","boat_key","reward_probabilities","responses","num_errors","view_history"
"pavlovia","0","5","0.0-0.0","","","","","","","","","","","","","","","","","","","","","","","","","",""
"call-function","1","6","0.0-1.0","","{""task_version"":""sailing_part1_v1"",""task_condition"":""good"",""boats"":[""B"",""D"",""C"",""A""],""boats_demo"":[""E"",""F"",""G"",""H""],""islands"":[""B"",""A""],""subject_id"":""14728"",""age"":""15"",""gender"":""Female""}","","","","","","","","","","","","","","","","","","","","","","","",""
"preload","2","2071","0.0-2.0","","","true","false","[]","[]","[]","[{""event"":""fullscreenenter"",""trial"":3,""time"":4183}]","false","","","","","","","","","","","","","","","","",""
"fullscreen","3","5157","0.0-3.0","","","true","","","","","","","","","","","","","","","","","","","","","","",""
"audio-keyboard-response","4","7375","0.0-4.0-0.0","","","","","","","","","","1920","audio/beep_loop.wav"," ","","","","","","","","","","","","","",""
"audio-test","5","11409","0.0-4.0-1.0","","","","","","","","","","null","audio/turtle.mp3","","3","","","","","","","","","","","","",""
"audio-test","6","13906","0.0-4.0-2.0","","","","","","","","","","null","audio/shark.mp3","","2","","","","","","","","","","","","",""
"sailing-instructions","7","48268","0.0-5.0-0.0-0.0","","","","","","","","","","","","","","null","null","null","null","null","null","","","","","","",""
"sailing-trial","8","52597","0.0-5.0-0.0-1.0-0.0","","","","false","","","","","","","","","","3217","","null","","null","null","arrowleft","0","null","null","","",""
"sailing-trial","9","55447","0.0-5.0-0.0-1.0-1.0","","","","false","","","","","","","","","","1717.2999999523163","","null","","null","null","arrowright","1","null","null","","",""
"sailing-trial","10","59418","0.0-5.0-0.0-1.0-2.0","","","","false","","","","","","","","","","2859.399999856949","","null","","null","null","arrowleft","0","null","null","","",""
"sailing-instructions","11","101333","0.0-5.0-0.0-2.0","","","","","","","","","","","","","","null","null","null","null","0","null","","","","","","",""
"sailing-trial","12","108693","0.0-5.0-0.0-3.0-0.0","","","","false","","","","","","","","","","null","","2204.7999999523163","","2","1","null","null","arrowleft","[1,1,1,1]","","",""
"sailing-trial","13","113595","0.0-5.0-0.0-3.0-1.0","","","","false","","","","","","","","","","null","","1713.7000000476837","","3","1","null","null","arrowright","[1,1,1,1]","","",""
"sailing-trial","14","118994","0.0-5.0-0.0-3.0-2.0","","","","false","","","","","","","","","","null","","2098.5999999046326","","2","0","null","null","arrowleft","[0,0,0,0]","","",""
"sailing-instructions","15","126372","0.0-5.0-0.0-4.0","","","","","","","","","","","","","","null","null","null","null","null","null","","","","","","",""
"sailing-comprehension","16","161552","0.0-5.0-0.0-5.0","","","","","","","","","","19972.099999904633","","","","","","","","","","","","","","[""true"",""false"",""false"",""true""]","1",""
"sailing-instructions","17","216557","0.0-5.0-0.1-0.1","","","","","","","","","","","","","","null","null","null","null","null","null","","","","","","",""
"sailing-trial","18","219989","0.0-5.0-0.1-1.1-0.1","","","","false","","","","","","","","","","2315","","null","","null","null","arrowleft","0","null","null","","",""
"sailing-trial","19","222157","0.0-5.0-0.1-1.1-1.1","","","","false","","","","","","","","","","1037.0999999046326","","null","","null","null","arrowright","1","null","null","","",""
"sailing-trial","20","225711","0.0-5.0-0.1-1.1-2.1","","","","false","","","","","","","","","","2430.7999999523163","","null","","null","null","arrowleft","0","null","null","","",""
"sailing-instructions","21","274149","0.0-5.0-0.1-2.1","","","","","","","","","","","","","","null","null","null","null","0","null","","","","","","",""
"sailing-trial","22","280787","0.0-5.0-0.1-3.1-0.1","","","","false","","","","","","","","","","null","","2008.5","","2","1","null","null","arrowleft","[1,1,1,1]","","",""
"sailing-trial","23","284005","0.0-5.0-0.1-3.1-1.1","","","","false","","","","","","","","","","null","","439.90000009536743","","3","1","null","null","arrowright","[1,1,1,1]","","",""
"sailing-trial","24","287027","0.0-5.0-0.1-3.1-2.1","","","","false","","","","","","","","","","null","","245.19999980926514","","3","0","null","null","arrowright","[0,0,0,0]","","",""
"sailing-instructions","25","295567","0.0-5.0-0.1-4.1","","","","","","","","","","","","","","null","null","null","null","null","null","","","","","","",""
"sailing-comprehension","26","316771","0.0-5.0-0.1-5.1","","","","","","","","","","13178.900000095367","","","","","","","","","","","","","","[""true"",""true"",""false"",""false""]","1",""
"sailing-instructions","27","384563","0.0-6.0-0.0-0.0","","","","","","","","","","","","","","null","null","null","null","null","null","","","","","","",""
"sailing-comprehension","28","400999","0.0-6.0-0.0-1.0","","","","","","","","","","14173.700000047684","","","","","","","","","","","","","","[""true"",""false"",""true""]","0",""
"sailing-instructions","29","416002","0.0-7.0-0.0-0.0","","","","","","","","","","","","","","null","null","null","null","null","null","","","","","","",""
"sailing-trial","30","421566","0.0-7.0-0.0-1.0-0.0","","","","false","","","","","","","","","","null","","2528.5","","0","0","null","null","arrowup","[0.2,0.8,0.2,0.8]","","",""
"sailing-trial","31","427232","0.0-7.0-0.0-1.0-1.0","","","","false","","","","","","","","","","null","","3129.699999809265","","1","1","null","null","arrowup","[0.2,0.8,0.2,0.8]","","",""
"sailing-trial","32","431357","0.0-7.0-0.0-1.0-2.0","","","","false","","","","","","","","","","null","","1679.5","","2","1","null","null","arrowup","[0.2,0.8,0.2,0.8]","","",""
"sailing-trial","33","434194","0.0-7.0-0.0-1.0-3.0","","","","false","","","","","","","","","","null","","1298.5999999046326","","3","0","null","null","arrowup","[0.2,0.8,0.2,0.8]","","",""
"sailing-comprehension","34","442419","0.0-7.0-0.0-2.0","","","","","","","","","","5297.799999952316","","","","","","","","","","","","","","[""false""]","0",""
"sailing-instructions","35","452439","0.0-8.0-0.0-0.0","","","","","","","","","","","","","","null","null","null","null","null","null","","","","","","",""
"sailing-comprehension","36","459490","0.0-8.0-0.0-1.0","","","","","","","","","","4451.599999904633","","","","","","","","","","","","","","[""true""]","0",""
"sailing-instructions","37","491690","0.0-9.0-0.0-0.0","","","","","","","","","","","","","","null","null","null","null","null","null","","","","","","",""
"sailing-trial","38","498228","0.0-9.0-0.0-1.0-0.0","","","","false","","","","","","","","","","1642.6000001430511","","523.2999999523163","","2","0","arrowright","1","arrowleft","[0.2,0.8,0.2,0.8]","","",""
"sailing-trial","39","503816","0.0-9.0-0.0-1.0-1.0","","","","false","","","","","","","","","","1166","","872.7999999523163","","1","1","arrowleft","0","arrowright","[0.2,0.8,0.2,0.8]","","",""
"sailing-trial","40","507842","0.0-9.0-0.0-1.0-2.0","","","","false","","","","","","","","","","null","","1904.0999999046326","","0","0","null","null","arrowup","[0.2,0.8,0.2,0.8]","","",""
"sailing-trial","41","512591","0.0-9.0-0.0-1.0-3.0","","","","false","","","","","","","","","","687.2999999523163","","370.2000000476837","","0","0","arrowleft","0","arrowleft","[0.2,0.8,0.2,0.8]","","",""
"sailing-trial","42","519007","0.0-9.0-0.0-1.0-4.0","","","","false","","","","","","","","","","null","","3833","","3","1","null","null","arrowup","[0.2,0.8,0.2,0.8]","","",""
"sailing-trial","43","523429","0.0-9.0-0.0-1.0-5.0","","","","false","","","","","","","","","","796.1000001430511","","441.5","","1","1","arrowleft","0","arrowright","[0.2,0.8,0.2,0.8]","","",""
"sailing-instructions","44","551038","0.0-10.0","","","","","","","","","","","","","","null","null","null","null","null","null","","","","","","",""
"sailing-trial","45","556156","0.0-11.0-0.0","","","","false","","","","","","","","","","1549.7000000476837","","138.90000009536743","","2","0","arrowright","1","arrowleft","[0.675,0.325,0.15,0.85]","","",""
"sailing-trial","46","560728","0.0-11.0-1.0","","","","false","","","","","","","","","","null","","2291.4000000953674","","0","1","null","null","arrowup","[0.675,0.325,0.15,0.85]","","",""
"sailing-trial","47","565342","0.0-11.0-2.0","","","","false","","","","","","","","","","686","","233.70000004768372","","1","0","arrowleft","0","arrowright","[0.675,0.325,0.15,0.85]","","",""
"sailing-trial","48","571540","0.0-11.0-3.0","","","","false","","","","","","","","","","null","","4288","","3","1","null","null","arrowup","[0.675,0.325,0.15,0.85]","","",""
"sailing-trial","49","575396","0.0-11.0-4.0","","","","false","","","","","","","","","","693.7000000476837","","191.70000004768372","","0","1","arrowleft","0","arrowleft","[0.675,0.325,0.15,0.85]","","",""
"sailing-trial","50","579487","0.0-11.0-5.0","","","","false","","","","","","","","","","null","","2044.6999998092651","","1","0","null","null","arrowup","[0.675,0.325,0.15,0.85]","","",""
"sailing-trial","51","583543","0.0-11.0-6.0","","","","false","","","","","","","","","","748.2999999523163","","242.79999995231628","","3","1","arrowright","1","arrowright","[0.675,0.325,0.15,0.85]","","",""
"sailing-trial","52","588710","0.0-11.0-7.0","","","","false","","","","","","","","","","null","","1787.4000000953674","","3","1","null","null","arrowup","[0.675,0.325,0.15,0.85]","","",""
"sailing-trial","53","595075","0.0-11.0-8.0","","","","false","","","","","","","","","","758.8000001907349","","2723","","0","1","arrowleft","0","arrowleft","[0.675,0.325,0.15,0.85]","","",""
"sailing-trial","54","600143","0.0-11.0-9.0","","","","false","","","","","","","","","","null","","2911.899999856949","","1","0","null","null","arrowup","[0.675,0.325,0.15,0.85]","","",""
"sailing-trial","55","604982","0.0-11.0-10.0","","","","false","","","","","","","","","","890.5999999046326","","670.1999998092651","","3","1","arrowright","1","arrowright","[0.675,0.325,0.15,0.85]","","",""
"sailing-trial","56","608652","0.0-11.0-11.0","","","","false","","","","","","","","","","null","","2264.699999809265","","2","0","null","null","arrowup","[0.675,0.325,0.15,0.85]","","",""
"sailing-trial","57","612524","0.0-11.0-12.0","","","","false","","","","","","","","","","951.2999999523163","","230.89999985694885","","3","1","arrowright","1","arrowright","[0.675,0.325,0.15,0.85]","","",""
"sailing-trial","58","615914","0.0-11.0-13.0","","","","false","","","","","","","","","","null","","1735.3999998569489","","1","0","null","null","arrowup","[0.675,0.325,0.15,0.85]","","",""
"sailing-trial","59","619858","0.0-11.0-14.0","","","","false","","","","","","","","","","613.0999999046326","","192.70000004768372","","0","1","arrowleft","0","arrowleft","[0.675,0.325,0.15,0.85]","","",""
"sailing-trial","60","623407","0.0-11.0-15.0","","","","false","","","","","","","","","","null","","1684.2999999523163","","3","1","null","null","arrowup","[0.675,0.325,0.15,0.85]","","",""
"sailing-trial","61","629025","0.0-11.0-16.0","","","","false","","","","","","","","","","719.3000001907349","","1950","","3","1","arrowright","1","arrowright","[0.85,0.15,0.325,0.675]","","",""
"sailing-trial","62","633543","0.0-11.0-17.0","","","","false","","","","","","","","","","null","","1516.4000000953674","","2","0","null","null","arrowup","[0.85,0.15,0.325,0.675]","","",""
"sailing-trial","63","638503","0.0-11.0-18.0","","","","false","","","","","","","","","","746.7000000476837","","361.59999990463257","","3","0","arrowright","1","arrowright","[0.85,0.15,0.325,0.675]","","",""
"sailing-trial","64","643443","0.0-11.0-19.0","","","","false","","","","","","","","","","null","","1940.7000000476837","","1","0","null","null","arrowup","[0.85,0.15,0.325,0.675]","","",""
"sailing-trial","65","647223","0.0-11.0-20.0","","","","false","","","","","","","","","","858.0999999046326","","188.19999980926514","","0","1","arrowleft","0","arrowleft","[0.85,0.15,0.325,0.675]","","",""
"sailing-trial","66","652023","0.0-11.0-21.0","","","","false","","","","","","","","","","null","","1691.7999999523163","","2","1","null","null","arrowup","[0.85,0.15,0.325,0.675]","","",""
"sailing-trial","67","655165","0.0-11.0-22.0","","","","false","","","","","","","","","","725.7000000476837","","377.59999990463257","","2","0","arrowright","1","arrowleft","[0.85,0.15,0.325,0.675]","","",""
"sailing-trial","68","661621","0.0-11.0-23.0","","","","false","","","","","","","","","","null","","4428.799999952316","","0","1","null","null","arrowup","[0.85,0.15,0.325,0.675]","","",""
"sailing-trial","69","666440","0.0-11.0-24.0","","","","false","","","","","","","","","","1282.2000000476837","","533","","0","1","arrowleft","0","arrowleft","[0.85,0.15,0.325,0.675]","","",""
"sailing-trial","70","671039","0.0-11.0-25.0","","","","false","","","","","","","","","","null","","2474.4000000953674","","2","1","null","null","arrowup","[0.85,0.15,0.325,0.675]","","",""
"sailing-trial","71","673912","0.0-11.0-26.0","","","","false","","","","","","","","","","630.6000001430511","","56.90000009536743","","2","0","arrowright","1","arrowleft","[0.85,0.15,0.325,0.675]","","",""
"sailing-trial","72","678955","0.0-11.0-27.0","","","","false","","","","","","","","","","null","","2047.0999999046326","","0","0","null","null","arrowup","[0.85,0.15,0.325,0.675]","","",""
"sailing-trial","73","682888","0.0-11.0-28.0","","","","false","","","","","","","","","","770.5999999046326","","171.40000009536743","","3","1","arrowright","1","arrowright","[0.85,0.15,0.325,0.675]","","",""
"sailing-trial","74","688286","0.0-11.0-29.0","","","","false","","","","","","","","","","null","","2849.7000000476837","","1","0","null","null","arrowup","[0.85,0.15,0.325,0.675]","","",""
"sailing-trial","75","693237","0.0-11.0-30.0","","","","false","","","","","","","","","","1054.8000001907349","","254.70000004768372","","0","0","arrowleft","0","arrowleft","[0.85,0.15,0.325,0.675]","","",""
"sailing-trial","76","696929","0.0-11.0-31.0","","","","false","","","","","","","","","","null","","1244.2000000476837","","2","0","null","null","arrowup","[0.85,0.15,0.325,0.675]","","",""
"sailing-trial","77","700588","0.0-11.0-32.0","","","","false","","","","","","","","","","638.9000000953674","","171.09999990463257","","3","1","arrowright","1","arrowright","[0.675,0.325,0.15,0.85]","","",""
"sailing-trial","78","703870","0.0-11.0-33.0","","","","false","","","","","","","","","","null","","1439","","0","1","null","null","arrowup","[0.675,0.325,0.15,0.85]","","",""
"sailing-trial","79","707037","0.0-11.0-34.0","","","","false","","","","","","","","","","550.2000000476837","","33.5","","3","1","arrowright","1","arrowright","[0.675,0.325,0.15,0.85]","","",""
"sailing-trial","80","711707","0.0-11.0-35.0","","","","false","","","","","","","","","","null","","1658.5","","3","0","null","null","arrowup","[0.675,0.325,0.15,0.85]","","",""
"sailing-trial","81","715172","0.0-11.0-36.0","","","","false","","","","","","","","","","627.0999999046326","","101.40000009536743","","0","1","arrowleft","0","arrowleft","[0.675,0.325,0.15,0.85]","","",""
"sailing-trial","82","718402","0.0-11.0-37.0","","","","false","","","","","","","","","","null","","1179.7999999523163","","0","1","null","null","arrowup","[0.675,0.325,0.15,0.85]","","",""
"sailing-trial","83","722554","0.0-11.0-38.0","","","","false","","","","","","","","","","680.1999998092651","","605.5999999046326","","0","1","arrowleft","0","arrowleft","[0.675,0.325,0.15,0.85]","","",""
"sailing-trial","84","726221","0.0-11.0-39.0","","","","false","","","","","","","","","","null","","1663.5","","3","1","null","null","arrowup","[0.675,0.325,0.15,0.85]","","",""
"sailing-trial","85","729003","0.0-11.0-40.0","","","","false","","","","","","","","","","627.0999999046326","","52.39999985694885","","3","0","arrowright","1","arrowright","[0.675,0.325,0.15,0.85]","","",""
"sailing-trial","86","732820","0.0-11.0-41.0","","","","false","","","","","","","","","","null","","2039.3000001907349","","0","1","null","null","arrowup","[0.675,0.325,0.15,0.85]","","",""
"sailing-trial","87","735804","0.0-11.0-42.0","","","","false","","","","","","","","","","521","","366.2000000476837","","0","0","arrowleft","0","arrowleft","[0.675,0.325,0.15,0.85]","","",""
"sailing-trial","88","739205","0.0-11.0-43.0","","","","false","","","","","","","","","","null","","1584.4000000953674","","3","1","null","null","arrowup","[0.675,0.325,0.15,0.85]","","",""
"sailing-trial","89","743434","0.0-11.0-44.0","","","","false","","","","","","","","","","591.5","","779","","0","1","arrowleft","0","arrowleft","[0.675,0.325,0.15,0.85]","","",""
"sailing-trial","90","747384","0.0-11.0-45.0","","","","false","","","","","","","","","","null","","1763.5","","3","1","null","null","arrowup","[0.675,0.325,0.15,0.85]","","",""
"sailing-trial","91","750395","0.0-11.0-46.0","","","","false","","","","","","","","","","494.10000014305115","","86.29999995231628","","1","0","arrowleft","0","arrowright","[0.675,0.325,0.15,0.85]","","",""
"sailing-trial","92","753746","0.0-11.0-47.0","","","","false","","","","","","","","","","null","","2180.0999999046326","","1","0","null","null","arrowup","[0.675,0.325,0.15,0.85]","","",""
"sailing-trial","93","757769","0.0-11.0-48.0","","","","false","","","","","","","","","","725.7000000476837","","738.1000001430511","","0","1","arrowleft","0","arrowleft","[0.675,0.325,0.15,0.85]","","",""
"sailing-trial","94","759953","0.0-11.0-49.0","","","","false","","","","","","","","","","null","","1118.2000000476837","","0","0","null","null","arrowup","[0.675,0.325,0.15,0.85]","","",""
"sailing-trial","95","763330","0.0-11.0-50.0","","","","false","","","","","","","","","","659.0999999046326","","537.7000000476837","","3","0","arrowright","1","arrowright","[0.85,0.15,0.325,0.675]","","",""
"sailing-trial","96","765661","0.0-11.0-51.0","","","","false","","","","","","","","","","null","","1232.7000000476837","","0","0","null","null","arrowup","[0.85,0.15,0.325,0.675]","","",""
"sailing-trial","97","771306","0.0-11.0-52.0","","","","false","","","","","","","","","","1018.4000000953674","","615.8999998569489","","3","0","arrowright","1","arrowright","[0.85,0.15,0.325,0.675]","","",""
"sailing-trial","98","775317","0.0-11.0-53.0","","","","false","","","","","","","","","","null","","2185.2000000476837","","3","1","null","null","arrowup","[0.85,0.15,0.325,0.675]","","",""
"sailing-trial","99","779299","0.0-11.0-54.0","","","","false","","","","","","","","","","1354","","417.5","","2","0","arrowright","1","arrowleft","[0.85,0.15,0.325,0.675]","","",""
"sailing-trial","100","781923","0.0-11.0-55.0","","","","false","","","","","","","","","","null","","1572","","2","0","null","null","arrowup","[0.85,0.15,0.325,0.675]","","",""
"sailing-trial","101","785786","0.0-11.0-56.0","","","","false","","","","","","","","","","584","","503.59999990463257","","0","1","arrowleft","0","arrowleft","[0.85,0.15,0.325,0.675]","","",""
"sailing-trial","102","789220","0.0-11.0-57.0","","","","false","","","","","","","","","","null","","1621.0999999046326","","1","1","null","null","arrowup","[0.85,0.15,0.325,0.675]","","",""
"sailing-trial","103","792933","0.0-11.0-58.0","","","","false","","","","","","","","","","1047.2000000476837","","515.6000001430511","","1","0","arrowleft","0","arrowright","[0.85,0.15,0.325,0.675]","","",""
"sailing-trial","104","796763","0.0-11.0-59.0","","","","false","","","","","","","","","","null","","1529.2000000476837","","3","0","null","null","arrowup","[0.85,0.15,0.325,0.675]","","",""
"sailing-trial","105","800215","0.0-11.0-60.0","","","","false","","","","","","","","","","695.5","","39.799999952316284","","2","1","arrowright","1","arrowleft","[0.85,0.15,0.325,0.675]","","",""
"sailing-trial","106","804535","0.0-11.0-61.0","","","","false","","","","","","","","","","null","","1278.2000000476837","","2","0","null","null","arrowup","[0.85,0.15,0.325,0.675]","","",""
"sailing-trial","107","809957","0.0-11.0-62.0","","","","false","","","","","","","","","","776.5","","608.9000000953674","","2","0","arrowright","1","arrowleft","[0.85,0.15,0.325,0.675]","","",""
"sailing-trial","108","815118","0.0-11.0-63.0","","","","false","","","","","","","","","","null","","2160.2000000476837","","3","0","null","null","arrowup","[0.85,0.15,0.325,0.675]","","",""
"sailing-trial","109","818549","0.0-11.0-64.0","","","","false","","","","","","","","","","788.5","","77.40000009536743","","0","1","arrowleft","0","arrowleft","[0.85,0.15,0.325,0.675]","","",""
"sailing-trial","110","821881","0.0-11.0-65.0","","","","false","","","","","","","","","","null","","1302.1999998092651","","3","1","null","null","arrowup","[0.85,0.15,0.325,0.675]","","",""
"sailing-trial","111","824444","0.0-11.0-66.0","","","","false","","","","","","","","","","498","","19.799999952316284","","0","0","arrowleft","0","arrowleft","[0.325,0.675,0.85,0.15]","","",""
"sailing-trial","112","827983","0.0-11.0-67.0","","","","false","","","","","","","","","","null","","1118.7000000476837","","0","1","null","null","arrowup","[0.325,0.675,0.85,0.15]","","",""
"sailing-trial","113","830976","0.0-11.0-68.0","","","","false","","","","","","","","","","628.9000000953674","","349.90000009536743","","3","0","arrowright","1","arrowright","[0.325,0.675,0.85,0.15]","","",""
"sailing-trial","114","834415","0.0-11.0-69.0","","","","false","","","","","","","","","","null","","1178.0999999046326","","1","1","null","null","arrowup","[0.325,0.675,0.85,0.15]","","",""
"sailing-trial","115","837764","0.0-11.0-70.0","","","","false","","","","","","","","","","650.5","","4","","1","1","arrowleft","0","arrowright","[0.325,0.675,0.85,0.15]","","",""
"sailing-trial","116","842251","0.0-11.0-71.0","","","","false","","","","","","","","","","null","","1484.4000000953674","","0","0","null","null","arrowup","[0.325,0.675,0.85,0.15]","","",""
"sailing-trial","117","847664","0.0-11.0-72.0","","","","false","","","","","","","","","","1644.6000001430511","","942.2999999523163","","1","1","arrowleft","0","arrowright","[0.325,0.675,0.85,0.15]","","",""
"sailing-trial","118","851832","0.0-11.0-73.0","","","","false","","","","","","","","","","null","","1147.5999999046326","","0","0","null","null","arrowup","[0.325,0.675,0.85,0.15]","","",""
"sailing-trial","119","855896","0.0-11.0-74.0","","","","false","","","","","","","","","","972.3000001907349","","790.5999999046326","","1","0","arrowleft","0","arrowright","[0.325,0.675,0.85,0.15]","","",""
"sailing-trial","120","859065","0.0-11.0-75.0","","","","false","","","","","","","","","","null","","1376.7000000476837","","1","1","null","null","arrowup","[0.325,0.675,0.85,0.15]","","",""
"sailing-trial","121","863228","0.0-11.0-76.0","","","","false","","","","","","","","","","958.9000000953674","","565.2999999523163","","1","1","arrowleft","0","arrowright","[0.325,0.675,0.85,0.15]","","",""
"sailing-trial","122","867132","0.0-11.0-77.0","","","","false","","","","","","","","","","null","","2321.699999809265","","0","0","null","null","arrowup","[0.325,0.675,0.85,0.15]","","",""
"sailing-trial","123","871277","0.0-11.0-78.0","","","","false","","","","","","","","","","1412.4000000953674","","495.60000014305115","","3","0","arrowright","1","arrowright","[0.325,0.675,0.85,0.15]","","",""
"sailing-trial","124","877464","0.0-11.0-79.0","","","","false","","","","","","","","","","null","","2334.899999856949","","1","1","null","null","arrowup","[0.325,0.675,0.85,0.15]","","",""
"sailing-trial","125","881379","0.0-11.0-80.0","","","","false","","","","","","","","","","753.0999999046326","","588.2999999523163","","1","1","arrowleft","0","arrowright","[0.325,0.675,0.85,0.15]","","",""
"sailing-trial","126","885431","0.0-11.0-81.0","","","","false","","","","","","","","","","null","","2504.2000000476837","","2","1","null","null","arrowup","[0.325,0.675,0.85,0.15]","","",""
"sailing-trial","127","890782","0.0-11.0-82.0","","","","false","","","","","","","","","","755.4000000953674","","609.4000000953674","","1","0","arrowleft","0","arrowright","[0.675,0.325,0.15,0.85]","","",""
"sailing-trial","128","894882","0.0-11.0-83.0","","","","false","","","","","","","","","","null","","1099.1000001430511","","2","0","null","null","arrowup","[0.675,0.325,0.15,0.85]","","",""
"sailing-trial","129","899980","0.0-11.0-84.0","","","","false","","","","","","","","","","966.2999999523163","","135.89999985694885","","2","0","arrowright","1","arrowleft","[0.675,0.325,0.15,0.85]","","",""
"sailing-trial","130","903480","0.0-11.0-85.0","","","","false","","","","","","","","","","null","","1372.0999999046326","","2","0","null","null","arrowup","[0.675,0.325,0.15,0.85]","","",""
"sailing-trial","131","907120","0.0-11.0-86.0","","","","false","","","","","","","","","","1076.4000000953674","","489.2999999523163","","3","0","arrowright","1","arrowright","[0.675,0.325,0.15,0.85]","","",""
"sailing-trial","132","910178","0.0-11.0-87.0","","","","false","","","","","","","","","","null","","1254.7999999523163","","1","1","null","null","arrowup","[0.675,0.325,0.15,0.85]","","",""
"sailing-trial","133","913644","0.0-11.0-88.0","","","","false","","","","","","","","","","845.2999999523163","","496.59999990463257","","1","0","arrowleft","0","arrowright","[0.675,0.325,0.15,0.85]","","",""
"sailing-trial","134","917395","0.0-11.0-89.0","","","","false","","","","","","","","","","null","","1987.5","","3","1","null","null","arrowup","[0.675,0.325,0.15,0.85]","","",""
"sailing-trial","135","920812","0.0-11.0-90.0","","","","false","","","","","","","","","","603.2999999523163","","151.90000009536743","","0","1","arrowleft","0","arrowleft","[0.675,0.325,0.15,0.85]","","",""
"sailing-trial","136","923944","0.0-11.0-91.0","","","","false","","","","","","","","","","null","","1349.5999999046326","","3","1","null","null","arrowup","[0.675,0.325,0.15,0.85]","","",""
"sailing-trial","137","928731","0.0-11.0-92.0","","","","false","","","","","","","","","","680.8000001907349","","80.60000014305115","","0","0","arrowleft","0","arrowleft","[0.675,0.325,0.15,0.85]","","",""
"sailing-trial","138","933812","0.0-11.0-93.0","","","","false","","","","","","","","","","null","","2073.4000000953674","","2","0","null","null","arrowup","[0.675,0.325,0.15,0.85]","","",""
"sailing-trial","139","939713","0.0-11.0-94.0","","","","false","","","","","","","","","","927.7000000476837","","966.1000001430511","","0","0","arrowleft","0","arrowleft","[0.675,0.325,0.15,0.85]","","",""
"sailing-trial","140","942776","0.0-11.0-95.0","","","","false","","","","","","","","","","null","","1176.7000000476837","","0","1","null","null","arrowup","[0.675,0.325,0.15,0.85]","","",""
"sailing-trial","141","947626","0.0-11.0-96.0","","","","false","","","","","","","","","","732","","390.7000000476837","","1","1","arrowleft","0","arrowright","[0.675,0.325,0.15,0.85]","","",""
"sailing-trial","142","951830","0.0-11.0-97.0","","","","false","","","","","","","","","","null","","1199.5","","1","0","null","null","arrowup","[0.675,0.325,0.15,0.85]","","",""
"sailing-trial","143","955215","0.0-11.0-98.0","","","","false","","","","","","","","","","692.7000000476837","","641.0999999046326","","2","0","arrowright","1","arrowleft","[0.675,0.325,0.15,0.85]","","",""
"sailing-trial","144","957833","0.0-11.0-99.0","","","","false","","","","","","","","","","null","","1420.7000000476837","","0","0","null","null","arrowup","[0.675,0.325,0.15,0.85]","","",""
"sailing-trial","145","962070","0.0-11.0-100.0","","","","false","","","","","","","","","","630.6000001430511","","41.10000014305115","","1","0","arrowleft","0","arrowright","[0.675,0.325,0.15,0.85]","","",""
"sailing-trial","146","966319","0.0-11.0-101.0","","","","false","","","","","","","","","","null","","1771.3999998569489","","1","0","null","null","arrowup","[0.675,0.325,0.15,0.85]","","",""
"sailing-trial","147","971593","0.0-11.0-102.0","","","","false","","","","","","","","","","641.7999999523163","","1318.5999999046326","","0","0","arrowleft","0","arrowleft","[0.675,0.325,0.15,0.85]","","",""
"sailing-trial","148","976144","0.0-11.0-103.0","","","","false","","","","","","","","","","null","","1120.7000000476837","","3","1","null","null","arrowup","[0.675,0.325,0.15,0.85]","","",""
"sailing-trial","149","979478","0.0-11.0-104.0","","","","false","","","","","","","","","","740.0999999046326","","535.7000000476837","","3","0","arrowright","1","arrowright","[0.325,0.675,0.85,0.15]","","",""
"sailing-trial","150","982675","0.0-11.0-105.0","","","","false","","","","","","","","","","null","","1358.2000000476837","","2","1","null","null","arrowup","[0.325,0.675,0.85,0.15]","","",""
"sailing-trial","151","988077","0.0-11.0-106.0","","","","false","","","","","","","","","","530.8000001907349","","855.9000000953674","","3","0","arrowright","1","arrowright","[0.325,0.675,0.85,0.15]","","",""
"sailing-trial","152","992011","0.0-11.0-107.0","","","","false","","","","","","","","","","null","","907.0999999046326","","0","0","null","null","arrowup","[0.325,0.675,0.85,0.15]","","",""
"sailing-trial","153","994908","0.0-11.0-108.0","","","","false","","","","","","","","","","813.6999998092651","","32.299999952316284","","2","0","arrowright","1","arrowleft","[0.325,0.675,0.85,0.15]","","",""
"sailing-trial","154","997435","0.0-11.0-109.0","","","","false","","","","","","","","","","null","","1373.5","","3","0","null","null","arrowup","[0.325,0.675,0.85,0.15]","","",""
"sailing-trial","155","1001442","0.0-11.0-110.0","","","","false","","","","","","","","","","828.9000000953674","","672.7999999523163","","2","1","arrowright","1","arrowleft","[0.325,0.675,0.85,0.15]","","",""
"sailing-trial","156","1007376","0.0-11.0-111.0","","","","false","","","","","","","","","","null","","2921.7999999523163","","3","0","null","null","arrowup","[0.325,0.675,0.85,0.15]","","",""
"sailing-trial","157","1011091","0.0-11.0-112.0","","","","false","","","","","","","","","","986","","473.7999999523163","","2","0","arrowright","1","arrowleft","[0.325,0.675,0.85,0.15]","","",""
"sailing-trial","158","1014858","0.0-11.0-113.0","","","","false","","","","","","","","","","null","","1999.7000000476837","","1","1","null","null","arrowup","[0.325,0.675,0.85,0.15]","","",""
"sailing-trial","159","1017923","0.0-11.0-114.0","","","","false","","","","","","","","","","567.2000000476837","","393.09999990463257","","0","0","arrowleft","0","arrowleft","[0.325,0.675,0.85,0.15]","","",""
"sailing-trial","160","1021040","0.0-11.0-115.0","","","","false","","","","","","","","","","null","","1083.9000000953674","","1","1","null","null","arrowup","[0.325,0.675,0.85,0.15]","","",""
"sailing-trial","161","1024638","0.0-11.0-116.0","","","","false","","","","","","","","","","818.5999999046326","","720","","1","0","arrowleft","0","arrowright","[0.325,0.675,0.85,0.15]","","",""
"sailing-trial","162","1029526","0.0-11.0-117.0","","","","false","","","","","","","","","","null","","1881.2999999523163","","0","0","null","null","arrowup","[0.325,0.675,0.85,0.15]","","",""
"sailing-trial","163","1035843","0.0-11.0-118.0","","","","false","","","","","","","","","","1656.7999999523163","","659.8000001907349","","3","0","arrowright","1","arrowright","[0.325,0.675,0.85,0.15]","","",""
"sailing-trial","164","1039056","0.0-11.0-119.0","","","","false","","","","","","","","","","null","","1252.0999999046326","","1","1","null","null","arrowup","[0.325,0.675,0.85,0.15]","","",""
"sailing-trial","165","1042824","0.0-11.0-120.0","","","","false","","","","","","","","","","1132.5999999046326","","40.10000014305115","","2","1","arrowright","1","arrowleft","[0.325,0.675,0.85,0.15]","","",""
"sailing-trial","166","1045122","0.0-11.0-121.0","","","","false","","","","","","","","","","null","","1200.5","","1","0","null","null","arrowup","[0.325,0.675,0.85,0.15]","","",""
"sailing-trial","167","1050175","0.0-11.0-122.0","","","","false","","","","","","","","","","664.2000000476837","","371.7999999523163","","2","0","arrowright","1","arrowleft","[0.325,0.675,0.85,0.15]","","",""
"sailing-trial","168","1056556","0.0-11.0-123.0","","","","false","","","","","","","","","","null","","3284.7999999523163","","2","1","null","null","arrowup","[0.325,0.675,0.85,0.15]","","",""
"sailing-trial","169","1061870","0.0-11.0-124.0","","","","false","","","","","","","","","","1738.4000000953674","","1017.8999998569489","","3","1","arrowright","1","arrowright","[0.15,0.85,0.675,0.325]","","",""
"sailing-trial","170","1065089","0.0-11.0-125.0","","","","false","","","","","","","","","","null","","1424.1000001430511","","2","1","null","null","arrowup","[0.15,0.85,0.675,0.325]","","",""
"sailing-trial","171","1067969","0.0-11.0-126.0","","","","false","","","","","","","","","","620.9000000953674","","12","","1","0","arrowleft","0","arrowright","[0.15,0.85,0.675,0.325]","","",""
"sailing-trial","172","1071639","0.0-11.0-127.0","","","","false","","","","","","","","","","null","","1106.2999999523163","","1","1","null","null","arrowup","[0.15,0.85,0.675,0.325]","","",""
"sailing-trial","173","1075264","0.0-11.0-128.0","","","","false","","","","","","","","","","865.7000000476837","","462.59999990463257","","0","0","arrowleft","0","arrowleft","[0.15,0.85,0.675,0.325]","","",""
"sailing-trial","174","1079473","0.0-11.0-129.0","","","","false","","","","","","","","","","null","","1211.4000000953674","","3","0","null","null","arrowup","[0.15,0.85,0.675,0.325]","","",""
"sailing-trial","175","1084591","0.0-11.0-130.0","","","","false","","","","","","","","","","723","","384.7000000476837","","2","0","arrowright","1","arrowleft","[0.15,0.85,0.675,0.325]","","",""
"sailing-trial","176","1087067","0.0-11.0-131.0","","","","false","","","","","","","","","","null","","1146","","1","0","null","null","arrowup","[0.15,0.85,0.675,0.325]","","",""
"sailing-trial","177","1090788","0.0-11.0-132.0","","","","false","","","","","","","","","","639.5","","538.2000000476837","","3","1","arrowright","1","arrowright","[0.15,0.85,0.675,0.325]","","",""
"sailing-trial","178","1093770","0.0-11.0-133.0","","","","false","","","","","","","","","","null","","1048.3000001907349","","1","1","null","null","arrowup","[0.15,0.85,0.675,0.325]","","",""
"sailing-trial","179","1097175","0.0-11.0-134.0","","","","false","","","","","","","","","","729.5","","66.59999990463257","","3","1","arrowright","1","arrowright","[0.15,0.85,0.675,0.325]","","",""
"sailing-trial","180","1099508","0.0-11.0-135.0","","","","false","","","","","","","","","","null","","1331.3999998569489","","0","0","null","null","arrowup","[0.15,0.85,0.675,0.325]","","",""
"sailing-trial","181","1104890","0.0-11.0-136.0","","","","false","","","","","","","","","","755.5","","629.7000000476837","","3","0","arrowright","1","arrowright","[0.15,0.85,0.675,0.325]","","",""
"sailing-trial","182","1110319","0.0-11.0-137.0","","","","false","","","","","","","","","","null","","3396.4000000953674","","1","1","null","null","arrowup","[0.15,0.85,0.675,0.325]","","",""
"sailing-trial","183","1114563","0.0-11.0-138.0","","","","false","","","","","","","","","","1564.8999998569489","","610.8000001907349","","0","0","arrowleft","0","arrowleft","[0.15,0.85,0.675,0.325]","","",""
"sailing-trial","184","1118334","0.0-11.0-139.0","","","","false","","","","","","","","","","null","","1910.5","","1","1","null","null","arrowup","[0.15,0.85,0.675,0.325]","","",""
"sailing-trial","185","1121293","0.0-11.0-140.0","","","","false","","","","","","","","","","826.7000000476837","","111.59999990463257","","3","0","arrowright","1","arrowright","[0.15,0.85,0.675,0.325]","","",""
"sailing-trial","186","1125002","0.0-11.0-141.0","","","","false","","","","","","","","","","null","","2121.5999999046326","","1","1","null","null","arrowup","[0.15,0.85,0.675,0.325]","","",""
"sailing-trial","187","1127783","0.0-11.0-142.0","","","","false","","","","","","","","","","627.5999999046326","","114.29999995231628","","0","0","arrowleft","0","arrowleft","[0.15,0.85,0.675,0.325]","","",""
"sailing-trial","188","1131237","0.0-11.0-143.0","","","","false","","","","","","","","","","null","","1665.9000000953674","","1","1","null","null","arrowup","[0.15,0.85,0.675,0.325]","","",""
"sailing-trial","189","1136218","0.0-11.0-144.0","","","","false","","","","","","","","","","777.2999999523163","","372.59999990463257","","1","1","arrowleft","0","arrowright","[0.15,0.85,0.675,0.325]","","",""
"sailing-trial","190","1139017","0.0-11.0-145.0","","","","false","","","","","","","","","","null","","978.8999998569489","","1","1","null","null","arrowup","[0.15,0.85,0.675,0.325]","","",""
"sailing-trial","191","1141884","0.0-11.0-146.0","","","","false","","","","","","","","","","518","","323.89999985694885","","1","0","arrowleft","0","arrowright","[0.325,0.675,0.85,0.15]","","",""
"sailing-trial","192","1145782","0.0-11.0-147.0","","","","false","","","","","","","","","","null","","1059.2999999523163","","1","0","null","null","arrowup","[0.325,0.675,0.85,0.15]","","",""
"sailing-trial","193","1150911","0.0-11.0-148.0","","","","false","","","","","","","","","","666","","417.69999980926514","","3","0","arrowright","1","arrowright","[0.325,0.675,0.85,0.15]","","",""
"sailing-trial","194","1154699","0.0-11.0-149.0","","","","false","","","","","","","","","","null","","1371.5","","3","0","null","null","arrowup","[0.325,0.675,0.85,0.15]","","",""
"sailing-trial","195","1157935","0.0-11.0-150.0","","","","false","","","","","","","","","","509","","52.5","","1","1","arrowleft","0","arrowright","[0.325,0.675,0.85,0.15]","","",""
"sailing-trial","196","1161233","0.0-11.0-151.0","","","","false","","","","","","","","","","null","","1476.5","","2","1","null","null","arrowup","[0.325,0.675,0.85,0.15]","","",""
"sailing-trial","197","1166051","0.0-11.0-152.0","","","","false","","","","","","","","","","919","","410.89999985694885","","2","1","arrowright","1","arrowleft","[0.325,0.675,0.85,0.15]","","",""
"sailing-trial","198","1170145","0.0-11.0-153.0","","","","false","","","","","","","","","","null","","1171.5","","0","0","null","null","arrowup","[0.325,0.675,0.85,0.15]","","",""
"sailing-trial","199","1173851","0.0-11.0-154.0","","","","false","","","","","","","","","","917.2000000476837","","116.69999980926514","","2","1","arrowright","1","arrowleft","[0.325,0.675,0.85,0.15]","","",""
"sailing-trial","200","1176873","0.0-11.0-155.0","","","","false","","","","","","","","","","null","","1529.3999998569489","","3","0","null","null","arrowup","[0.325,0.675,0.85,0.15]","","",""
"sailing-trial","201","1181752","0.0-11.0-156.0","","","","false","","","","","","","","","","561","","809.3999998569489","","2","1","arrowright","1","arrowleft","[0.325,0.675,0.85,0.15]","","",""
"sailing-trial","202","1185257","0.0-11.0-157.0","","","","false","","","","","","","","","","null","","1181.7000000476837","","1","0","null","null","arrowup","[0.325,0.675,0.85,0.15]","","",""
"sailing-trial","203","1188749","0.0-11.0-158.0","","","","false","","","","","","","","","","604.9000000953674","","5.200000047683716","","2","1","arrowright","1","arrowleft","[0.325,0.675,0.85,0.15]","","",""
"sailing-trial","204","1191178","0.0-11.0-159.0","","","","false","","","","","","","","","","null","","1111.5","","3","0","null","null","arrowup","[0.325,0.675,0.85,0.15]","","",""
"sailing-trial","205","1195248","0.0-11.0-160.0","","","","false","","","","","","","","","","937.2999999523163","","496","","0","1","arrowleft","0","arrowleft","[0.325,0.675,0.85,0.15]","","",""
"sailing-trial","206","1198231","0.0-11.0-161.0","","","","false","","","","","","","","","","null","","1340.4000000953674","","3","1","null","null","arrowup","[0.325,0.675,0.85,0.15]","","",""
"sailing-trial","207","1203266","0.0-11.0-162.0","","","","false","","","","","","","","","","664.0999999046326","","346.19999980926514","","2","0","arrowright","1","arrowleft","[0.325,0.675,0.85,0.15]","","",""
"sailing-trial","208","1206545","0.0-11.0-163.0","","","","false","","","","","","","","","","null","","2010.7999999523163","","3","0","null","null","arrowup","[0.325,0.675,0.85,0.15]","","",""
"sailing-trial","209","1209940","0.0-11.0-164.0","","","","false","","","","","","","","","","556.3999998569489","","525.0999999046326","","0","0","arrowleft","0","arrowleft","[0.15,0.85,0.675,0.325]","","",""
"sailing-trial","210","1212359","0.0-11.0-165.0","","","","false","","","","","","","","","","null","","1080.9000000953674","","3","0","null","null","arrowup","[0.15,0.85,0.675,0.325]","","",""
"sailing-trial","211","1215964","0.0-11.0-166.0","","","","false","","","","","","","","","","752.5","","295.40000009536743","","1","1","arrowleft","0","arrowright","[0.15,0.85,0.675,0.325]","","",""
"sailing-trial","212","1218614","0.0-11.0-167.0","","","","false","","","","","","","","","","null","","1094.4000000953674","","0","1","null","null","arrowup","[0.15,0.85,0.675,0.325]","","",""
"sailing-trial","213","1222631","0.0-11.0-168.0","","","","false","","","","","","","","","","777","","403.7999999523163","","1","1","arrowleft","0","arrowright","[0.15,0.85,0.675,0.325]","","",""
"sailing-trial","214","1226515","0.0-11.0-169.0","","","","false","","","","","","","","","","null","","2054.7000000476837","","0","1","null","null","arrowup","[0.15,0.85,0.675,0.325]","","",""
"sailing-trial","215","1230073","0.0-11.0-170.0","","","","false","","","","","","","","","","997","","491.5","","3","0","arrowright","1","arrowright","[0.15,0.85,0.675,0.325]","","",""
"sailing-trial","216","1235617","0.0-11.0-171.0","","","","false","","","","","","","","","","null","","2527","","2","0","null","null","arrowup","[0.15,0.85,0.675,0.325]","","",""
"sailing-trial","217","1239896","0.0-11.0-172.0","","","","false","","","","","","","","","","1043.6000001430511","","146.79999995231628","","0","1","arrowleft","0","arrowleft","[0.15,0.85,0.675,0.325]","","",""
"sailing-trial","218","1242436","0.0-11.0-173.0","","","","false","","","","","","","","","","null","","1198.3999998569489","","0","0","null","null","arrowup","[0.15,0.85,0.675,0.325]","","",""
"sailing-trial","219","1245696","0.0-11.0-174.0","","","","false","","","","","","","","","","923.9000000953674","","97.39999985694885","","3","0","arrowright","1","arrowright","[0.15,0.85,0.675,0.325]","","",""
"sailing-trial","220","1249046","0.0-11.0-175.0","","","","false","","","","","","","","","","null","","1079.8999998569489","","1","1","null","null","arrowup","[0.15,0.85,0.675,0.325]","","",""
"sailing-trial","221","1253897","0.0-11.0-176.0","","","","false","","","","","","","","","","692.2000000476837","","97.90000009536743","","0","0","arrowleft","0","arrowleft","[0.15,0.85,0.675,0.325]","","",""
"sailing-trial","222","1256164","0.0-11.0-177.0","","","","false","","","","","","","","","","null","","1080.7000000476837","","3","0","null","null","arrowup","[0.15,0.85,0.675,0.325]","","",""
"sailing-trial","223","1261179","0.0-11.0-178.0","","","","false","","","","","","","","","","573.5999999046326","","452.7000000476837","","1","0","arrowleft","0","arrowright","[0.15,0.85,0.675,0.325]","","",""
"sailing-trial","224","1264231","0.0-11.0-179.0","","","","false","","","","","","","","","","null","","1337.2000000476837","","2","1","null","null","arrowup","[0.15,0.85,0.675,0.325]","","",""
"sailing-trial","225","1268644","0.0-11.0-180.0","","","","false","","","","","","","","","","547.2999999523163","","502.60000014305115","","2","1","arrowright","1","arrowleft","[0.15,0.85,0.675,0.325]","","",""
"sailing-trial","226","1271454","0.0-11.0-181.0","","","","false","","","","","","","","","","null","","999.5","","3","0","null","null","arrowup","[0.15,0.85,0.675,0.325]","","",""
"sailing-trial","227","1275562","0.0-11.0-182.0","","","","false","","","","","","","","","","617.2999999523163","","405","","2","1","arrowright","1","arrowleft","[0.15,0.85,0.675,0.325]","","",""
"sailing-trial","228","1277818","0.0-11.0-183.0","","","","false","","","","","","","","","","null","","915.7999999523163","","3","0","null","null","arrowup","[0.15,0.85,0.675,0.325]","","",""
"sailing-trial","229","1281429","0.0-11.0-184.0","","","","false","","","","","","","","","","625.5","","451.2999999523163","","2","1","arrowright","1","arrowleft","[0.15,0.85,0.675,0.325]","","",""
"sailing-trial","230","1285432","0.0-11.0-185.0","","","","false","","","","","","","","","","null","","994.5","","0","0","null","null","arrowup","[0.15,0.85,0.675,0.325]","","",""
"sailing-trial","231","1292043","0.0-11.0-186.0","","","","false","","","","","","","","","","890.5","","454.39999985694885","","2","1","arrowright","1","arrowleft","[0.15,0.85,0.675,0.325]","","",""
"sailing-trial","232","1295880","0.0-11.0-187.0","","","","false","","","","","","","","","","null","","795.2000000476837","","3","0","null","null","arrowup","[0.15,0.85,0.675,0.325]","","",""
"sailing-trial","233","1299544","0.0-11.0-188.0","","","","false","","","","","","","","","","1038.4000000953674","","521.1999998092651","","2","0","arrowright","1","arrowleft","[0.675,0.325,0.15,0.85]","","",""
"sailing-trial","234","1302094","0.0-11.0-189.0","","","","false","","","","","","","","","","null","","1317.7999999523163","","2","0","null","null","arrowup","[0.675,0.325,0.15,0.85]","","",""
"sailing-trial","235","1305296","0.0-11.0-190.0","","","","false","","","","","","","","","","790.4000000953674","","325","","1","0","arrowleft","0","arrowright","[0.675,0.325,0.15,0.85]","","",""
"sailing-trial","236","1308295","0.0-11.0-191.0","","","","false","","","","","","","","","","null","","1013.6000001430511","","1","1","null","null","arrowup","[0.675,0.325,0.15,0.85]","","",""
"sailing-trial","237","1311411","0.0-11.0-192.0","","","","false","","","","","","","","","","622.3999998569489","","345.80000019073486","","3","0","arrowright","1","arrowright","[0.675,0.325,0.15,0.85]","","",""
"sailing-trial","238","1316261","0.0-11.0-193.0","","","","false","","","","","","","","","","null","","3028.5","","3","1","null","null","arrowup","[0.675,0.325,0.15,0.85]","","",""
"sailing-trial","239","1319578","0.0-11.0-194.0","","","","false","","","","","","","","","","719.5999999046326","","21.700000047683716","","3","1","arrowright","1","arrowright","[0.675,0.325,0.15,0.85]","","",""
"sailing-trial","240","1321870","0.0-11.0-195.0","","","","false","","","","","","","","","","null","","1011.5999999046326","","0","0","null","null","arrowup","[0.675,0.325,0.15,0.85]","","",""
"sailing-trial","241","1326027","0.0-11.0-196.0","","","","false","","","","","","","","","","636.0999999046326","","428.7999999523163","","3","1","arrowright","1","arrowright","[0.675,0.325,0.15,0.85]","","",""
"sailing-trial","242","1329192","0.0-11.0-197.0","","","","false","","","","","","","","","","null","","1246.4000000953674","","3","1","null","null","arrowup","[0.675,0.325,0.15,0.85]","","",""
"sailing-trial","243","1333628","0.0-11.0-198.0","","","","false","","","","","","","","","","1215.5999999046326","","365.2999999523163","","3","1","arrowright","1","arrowright","[0.675,0.325,0.15,0.85]","","",""
"sailing-trial","244","1336729","0.0-11.0-199.0","","","","false","","","","","","","","","","null","","1381.7999999523163","","0","1","null","null","arrowup","[0.675,0.325,0.15,0.85]","","",""
"sailing-trial","245","1340960","0.0-11.0-200.0","","","","false","","","","","","","","","","1036.7999999523163","","367.5","","3","1","arrowright","1","arrowright","[0.675,0.325,0.15,0.85]","","",""
"sailing-trial","246","1345560","0.0-11.0-201.0","","","","false","","","","","","","","","","null","","2725.4000000953674","","3","1","null","null","arrowup","[0.675,0.325,0.15,0.85]","","",""
"sailing-trial","247","1349626","0.0-11.0-202.0","","","","false","","","","","","","","","","1290.5","","4.599999904632568","","3","1","arrowright","1","arrowright","[0.675,0.325,0.15,0.85]","","",""
"sailing-trial","248","1352326","0.0-11.0-203.0","","","","false","","","","","","","","","","null","","1178.5999999046326","","0","1","null","null","arrowup","[0.675,0.325,0.15,0.85]","","",""
"sailing-trial","249","1356325","0.0-11.0-204.0","","","","false","","","","","","","","","","920.2000000476837","","290.19999980926514","","3","1","arrowright","1","arrowright","[0.675,0.325,0.15,0.85]","","",""
"sailing-trial","250","1359442","0.0-11.0-205.0","","","","false","","","","","","","","","","null","","1290.2000000476837","","3","1","null","null","arrowup","[0.675,0.325,0.15,0.85]","","",""
"sailing-trial","251","1363607","0.0-11.0-206.0","","","","false","","","","","","","","","","1187.8999998569489","","411.7000000476837","","3","1","arrowright","1","arrowright","[0.675,0.325,0.15,0.85]","","",""
"sailing-trial","252","1366065","0.0-11.0-207.0","","","","false","","","","","","","","","","null","","1223.2000000476837","","3","0","null","null","arrowup","[0.675,0.325,0.15,0.85]","","",""
"sailing-trial","253","1370225","0.0-11.0-208.0","","","","false","","","","","","","","","","1204.6000001430511","","219.79999995231628","","3","1","arrowright","1","arrowright","[0.85,0.15,0.325,0.675]","","",""
"sailing-trial","254","1372483","0.0-11.0-209.0","","","","false","","","","","","","","","","null","","1115.5","","1","0","null","null","arrowup","[0.85,0.15,0.325,0.675]","","",""
"sailing-trial","255","1377059","0.0-11.0-210.0","","","","false","","","","","","","","","","1508.8000001907349","","424.89999985694885","","3","1","arrowright","1","arrowright","[0.85,0.15,0.325,0.675]","","",""
"sailing-trial","256","1380923","0.0-11.0-211.0","","","","false","","","","","","","","","","null","","1750.3000001907349","","2","1","null","null","arrowup","[0.85,0.15,0.325,0.675]","","",""
"sailing-trial","257","1385741","0.0-11.0-212.0","","","","false","","","","","","","","","","1011.8999998569489","","592.9000000953674","","0","1","arrowleft","0","arrowleft","[0.85,0.15,0.325,0.675]","","",""
"sailing-trial","258","1388108","0.0-11.0-213.0","","","","false","","","","","","","","","","null","","1102.2999999523163","","2","0","null","null","arrowup","[0.85,0.15,0.325,0.675]","","",""
"sailing-trial","259","1391308","0.0-11.0-214.0","","","","false","","","","","","","","","","590.2999999523163","","37.89999985694885","","0","1","arrowleft","0","arrowleft","[0.85,0.15,0.325,0.675]","","",""
"sailing-trial","260","1394884","0.0-11.0-215.0","","","","false","","","","","","","","","","null","","1080.1000001430511","","2","0","null","null","arrowup","[0.85,0.15,0.325,0.675]","","",""
"sailing-trial","261","1398741","0.0-11.0-216.0","","","","false","","","","","","","","","","724.8999998569489","","573.9000000953674","","0","1","arrowleft","0","arrowleft","[0.85,0.15,0.325,0.675]","","",""
"sailing-trial","262","1403483","0.0-11.0-217.0","","","","false","","","","","","","","","","null","","1732.4000000953674","","0","0","null","null","arrowup","[0.85,0.15,0.325,0.675]","","",""
"sailing-trial","263","1407507","0.0-11.0-218.0","","","","false","","","","","","","","","","876.5","","413.89999985694885","","0","1","arrowleft","0","arrowleft","[0.85,0.15,0.325,0.675]","","",""
"sailing-trial","264","1412433","0.0-11.0-219.0","","","","false","","","","","","","","","","null","","2099.7999999523163","","2","0","null","null","arrowup","[0.85,0.15,0.325,0.675]","","",""
"sailing-trial","265","1415822","0.0-11.0-220.0","","","","false","","","","","","","","","","714.1999998092651","","60.19999980926514","","0","1","arrowleft","0","arrowleft","[0.85,0.15,0.325,0.675]","","",""
"sailing-trial","266","1418606","0.0-11.0-221.0","","","","false","","","","","","","","","","null","","1123.2999999523163","","0","1","null","null","arrowup","[0.85,0.15,0.325,0.675]","","",""
"sailing-trial","267","1422087","0.0-11.0-222.0","","","","false","","","","","","","","","","1089.9000000953674","","337.7999999523163","","0","0","arrowleft","0","arrowleft","[0.85,0.15,0.325,0.675]","","",""
"sailing-trial","268","1424618","0.0-11.0-223.0","","","","false","","","","","","","","","","null","","1283.0999999046326","","1","0","null","null","arrowup","[0.85,0.15,0.325,0.675]","","",""
"sailing-trial","269","1427706","0.0-11.0-224.0","","","","false","","","","","","","","","","649.3999998569489","","363.69999980926514","","0","0","arrowleft","0","arrowleft","[0.85,0.15,0.325,0.675]","","",""
"sailing-trial","270","1430874","0.0-11.0-225.0","","","","false","","","","","","","","","","null","","1347.5","","3","1","null","null","arrowup","[0.85,0.15,0.325,0.675]","","",""
"sailing-trial","271","1434688","0.0-11.0-226.0","","","","false","","","","","","","","","","941.4000000953674","","368.2000000476837","","3","1","arrowright","1","arrowright","[0.85,0.15,0.325,0.675]","","",""
"sailing-trial","272","1437172","0.0-11.0-227.0","","","","false","","","","","","","","","","null","","950.8000001907349","","0","1","null","null","arrowup","[0.85,0.15,0.325,0.675]","","",""
"sailing-trial","273","1440857","0.0-11.0-228.0","","","","false","","","","","","","","","","821.9000000953674","","238.70000004768372","","3","1","arrowright","1","arrowright","[0.675,0.325,0.15,0.85]","","",""
"sailing-trial","274","1443289","0.0-11.0-229.0","","","","false","","","","","","","","","","null","","1160.6000001430511","","2","0","null","null","arrowup","[0.675,0.325,0.15,0.85]","","",""
"sailing-trial","275","1446740","0.0-11.0-230.0","","","","false","","","","","","","","","","665.1999998092651","","34.89999985694885","","3","1","arrowright","1","arrowright","[0.675,0.325,0.15,0.85]","","",""
"sailing-trial","276","1450517","0.0-11.0-231.0","","","","false","","","","","","","","","","null","","1144.4000000953674","","1","0","null","null","arrowup","[0.675,0.325,0.15,0.85]","","",""
"sailing-trial","277","1453905","0.0-11.0-232.0","","","","false","","","","","","","","","","795","","42.5","","3","1","arrowright","1","arrowright","[0.675,0.325,0.15,0.85]","","",""
"sailing-trial","278","1458606","0.0-11.0-233.0","","","","false","","","","","","","","","","null","","2758.100000143051","","0","1","null","null","arrowup","[0.675,0.325,0.15,0.85]","","",""
"sailing-trial","279","1462272","0.0-11.0-234.0","","","","false","","","","","","","","","","869.7999999523163","","216.20000004768372","","3","1","arrowright","1","arrowright","[0.675,0.325,0.15,0.85]","","",""
"sailing-trial","280","1464623","0.0-11.0-235.0","","","","false","","","","","","","","","","null","","1150","","1","0","null","null","arrowup","[0.675,0.325,0.15,0.85]","","",""
"sailing-trial","281","1473603","0.0-11.0-236.0","","","","false","","","","","","","","","","1432.1000001430511","","2007.2000000476837","","2","1","arrowright","1","arrowleft","[0.675,0.325,0.15,0.85]","","",""
"sailing-trial","282","1476108","0.0-11.0-237.0","","","","false","","","","","","","","","","null","","1273.7000000476837","","3","0","null","null","arrowup","[0.675,0.325,0.15,0.85]","","",""
"sailing-trial","283","1482000","0.0-11.0-238.0","","","","false","","","","","","","","","","1490.0999999046326","","351.7000000476837","","2","0","arrowright","1","arrowleft","[0.675,0.325,0.15,0.85]","","",""
"sailing-trial","284","1484854","0.0-11.0-239.0","","","","false","","","","","","","","","","null","","1123.0999999046326","","2","1","null","null","arrowup","[0.675,0.325,0.15,0.85]","","",""
"sailing-trial","285","1489455","0.0-11.0-240.0","","","","false","","","","","","","","","","1319.0999999046326","","284.7000000476837","","2","1","arrowright","1","arrowleft","[0.675,0.325,0.15,0.85]","","",""
"sailing-trial","286","1491977","0.0-11.0-241.0","","","","false","","","","","","","","","","null","","1213.5999999046326","","2","0","null","null","arrowup","[0.675,0.325,0.15,0.85]","","",""
"sailing-trial","287","1496828","0.0-11.0-242.0","","","","false","","","","","","","","","","2380.9000000953674","","389.39999985694885","","0","0","arrowleft","0","arrowleft","[0.675,0.325,0.15,0.85]","","",""
"sailing-trial","288","1498994","0.0-11.0-243.0","","","","false","","","","","","","","","","null","","880.5","","0","0","null","null","arrowup","[0.675,0.325,0.15,0.85]","","",""
"sailing-trial","289","1503195","0.0-11.0-244.0","","","","false","","","","","","","","","","613.4000000953674","","342.59999990463257","","2","0","arrowright","1","arrowleft","[0.675,0.325,0.15,0.85]","","",""
"sailing-trial","290","1505487","0.0-11.0-245.0","","","","false","","","","","","","","","","null","","1095.2999999523163","","1","0","null","null","arrowup","[0.675,0.325,0.15,0.85]","","",""
"sailing-trial","291","1510029","0.0-11.0-246.0","","","","false","","","","","","","","","","578.5","","250.39999985694885","","3","0","arrowright","1","arrowright","[0.85,0.15,0.325,0.675]","","",""
"sailing-trial","292","1513118","0.0-11.0-247.0","","","","false","","","","","","","","","","null","","971.2999999523163","","3","1","null","null","arrowup","[0.85,0.15,0.325,0.675]","","",""
"sailing-trial","293","1516243","0.0-11.0-248.0","","","","false","","","","","","","","","","880.7999999523163","","125.59999990463257","","0","0","arrowleft","0","arrowleft","[0.85,0.15,0.325,0.675]","","",""
"sailing-trial","294","1518903","0.0-11.0-249.0","","","","false","","","","","","","","","","null","","1504","","0","0","null","null","arrowup","[0.85,0.15,0.325,0.675]","","",""
"sailing-trial","295","1522469","0.0-11.0-250.0","","","","false","","","","","","","","","","703.6999998092651","","28.899999856948853","","3","1","arrowright","1","arrowright","[0.85,0.15,0.325,0.675]","","",""
"sailing-trial","296","1524970","0.0-11.0-251.0","","","","false","","","","","","","","","","null","","892","","0","1","null","null","arrowup","[0.85,0.15,0.325,0.675]","","",""
"sailing-trial","297","1529018","0.0-11.0-252.0","","","","false","","","","","","","","","","811.2000000476837","","206.80000019073486","","3","1","arrowright","1","arrowright","[0.85,0.15,0.325,0.675]","","",""
"sailing-trial","298","1532381","0.0-11.0-253.0","","","","false","","","","","","","","","","null","","2061.800000190735","","2","0","null","null","arrowup","[0.85,0.15,0.325,0.675]","","",""
"sailing-trial","299","1536435","0.0-11.0-254.0","","","","false","","","","","","","","","","779.7000000476837","","304.19999980926514","","3","1","arrowright","1","arrowright","[0.85,0.15,0.325,0.675]","","",""
"sailing-trial","300","1539492","0.0-11.0-255.0","","","","false","","","","","","","","","","null","","984.2000000476837","","2","0","null","null","arrowup","[0.85,0.15,0.325,0.675]","","",""
"sailing-trial","301","1543752","0.0-11.0-256.0","","","","false","","","","","","","","","","1115.3999998569489","","302.2000000476837","","3","1","arrowright","1","arrowright","[0.85,0.15,0.325,0.675]","","",""
"sailing-trial","302","1545972","0.0-11.0-257.0","","","","false","","","","","","","","","","null","","944.8000001907349","","2","0","null","null","arrowup","[0.85,0.15,0.325,0.675]","","",""
"sailing-trial","303","1548831","0.0-11.0-258.0","","","","false","","","","","","","","","","586.7000000476837","","254.89999985694885","","3","0","arrowright","1","arrowright","[0.85,0.15,0.325,0.675]","","",""
"sailing-trial","304","1551882","0.0-11.0-259.0","","","","false","","","","","","","","","","null","","1038.5","","2","1","null","null","arrowup","[0.85,0.15,0.325,0.675]","","",""
"sailing-trial","305","1556300","0.0-11.0-260.0","","","","false","","","","","","","","","","645.4000000953674","","264.7000000476837","","3","1","arrowright","1","arrowright","[0.85,0.15,0.325,0.675]","","",""
"sailing-trial","306","1560336","0.0-11.0-261.0","","","","false","","","","","","","","","","null","","1985.6999998092651","","3","1","null","null","arrowup","[0.85,0.15,0.325,0.675]","","",""
"sailing-trial","307","1563717","0.0-11.0-262.0","","","","false","","","","","","","","","","710.8999998569489","","136.40000009536743","","3","1","arrowright","1","arrowright","[0.85,0.15,0.325,0.675]","","",""
"sailing-trial","308","1566617","0.0-11.0-263.0","","","","false","","","","","","","","","","null","","1121.7000000476837","","2","1","null","null","arrowup","[0.85,0.15,0.325,0.675]","","",""
"sailing-trial","309","1570749","0.0-11.0-264.0","","","","false","","","","","","","","","","829.7999999523163","","299","","2","1","arrowright","1","arrowleft","[0.325,0.675,0.85,0.15]","","",""
"sailing-trial","310","1572857","0.0-11.0-265.0","","","","false","","","","","","","","","","null","","965.2999999523163","","3","0","null","null","arrowup","[0.325,0.675,0.85,0.15]","","",""
"sailing-trial","311","1577017","0.0-11.0-266.0","","","","false","","","","","","","","","","771.3999998569489","","328.80000019073486","","2","1","arrowright","1","arrowleft","[0.325,0.675,0.85,0.15]","","",""
"sailing-trial","312","1579982","0.0-11.0-267.0","","","","false","","","","","","","","","","null","","936.5","","1","1","null","null","arrowup","[0.325,0.675,0.85,0.15]","","",""
"sailing-trial","313","1583865","0.0-11.0-268.0","","","","false","","","","","","","","","","954.5","","400.59999990463257","","2","1","arrowright","1","arrowleft","[0.325,0.675,0.85,0.15]","","",""
"sailing-trial","314","1586765","0.0-11.0-269.0","","","","false","","","","","","","","","","null","","894.4000000953674","","1","1","null","null","arrowup","[0.325,0.675,0.85,0.15]","","",""
"sailing-trial","315","1590700","0.0-11.0-270.0","","","","false","","","","","","","","","","798.3999998569489","","240.89999985694885","","1","1","arrowleft","0","arrowright","[0.325,0.675,0.85,0.15]","","",""
"sailing-trial","316","1593283","0.0-11.0-271.0","","","","false","","","","","","","","","","null","","943.8000001907349","","0","1","null","null","arrowup","[0.325,0.675,0.85,0.15]","","",""
"sailing-trial","317","1598500","0.0-11.0-272.0","","","","false","","","","","","","","","","881.6000001430511","","340.89999985694885","","2","0","arrowright","1","arrowleft","[0.325,0.675,0.85,0.15]","","",""
"sailing-trial","318","1602500","0.0-11.0-273.0","","","","false","","","","","","","","","","null","","989.2999999523163","","2","0","null","null","arrowup","[0.325,0.675,0.85,0.15]","","",""
"sailing-trial","319","1606397","0.0-11.0-274.0","","","","false","","","","","","","","","","665.7999999523163","","342.2999999523163","","1","1","arrowleft","0","arrowright","[0.325,0.675,0.85,0.15]","","",""
"sailing-trial","320","1608321","0.0-11.0-275.0","","","","false","","","","","","","","","","null","","877.2000000476837","","3","0","null","null","arrowup","[0.325,0.675,0.85,0.15]","","",""
"sailing-trial","321","1611963","0.0-11.0-276.0","","","","false","","","","","","","","","","988.4000000953674","","7.5","","1","1","arrowleft","0","arrowright","[0.325,0.675,0.85,0.15]","","",""
"sailing-trial","322","1614912","0.0-11.0-277.0","","","","false","","","","","","","","","","null","","995.2000000476837","","3","1","null","null","arrowup","[0.325,0.675,0.85,0.15]","","",""
"sailing-trial","323","1618512","0.0-11.0-278.0","","","","false","","","","","","","","","","818.7000000476837","","263.90000009536743","","1","1","arrowleft","0","arrowright","[0.325,0.675,0.85,0.15]","","",""
"sailing-trial","324","1621163","0.0-11.0-279.0","","","","false","","","","","","","","","","null","","1098.1999998092651","","1","1","null","null","arrowup","[0.325,0.675,0.85,0.15]","","",""
"sailing-trial","325","1625781","0.0-11.0-280.0","","","","false","","","","","","","","","","806","","196.5","","3","0","arrowright","1","arrowright","[0.15,0.85,0.675,0.325]","","",""
"sailing-trial","326","1629830","0.0-11.0-281.0","","","","false","","","","","","","","","","null","","1046.7000000476837","","0","0","null","null","arrowup","[0.15,0.85,0.675,0.325]","","",""
"sailing-trial","327","1634328","0.0-11.0-282.0","","","","false","","","","","","","","","","918.5999999046326","","73.09999990463257","","1","1","arrowleft","0","arrowright","[0.15,0.85,0.675,0.325]","","",""
"sailing-trial","328","1637587","0.0-11.0-283.0","","","","false","","","","","","","","","","null","","1549.7000000476837","","0","0","null","null","arrowup","[0.15,0.85,0.675,0.325]","","",""
"sailing-trial","329","1642111","0.0-11.0-284.0","","","","false","","","","","","","","","","1090.6999998092651","","377.30000019073486","","1","1","arrowleft","0","arrowright","[0.15,0.85,0.675,0.325]","","",""
"sailing-trial","330","1644675","0.0-11.0-285.0","","","","false","","","","","","","","","","null","","886.5","","3","0","null","null","arrowup","[0.15,0.85,0.675,0.325]","","",""
"sailing-trial","331","1648394","0.0-11.0-286.0","","","","false","","","","","","","","","","1041.2999999523163","","18.5","","1","1","arrowleft","0","arrowright","[0.15,0.85,0.675,0.325]","","",""
"sailing-trial","332","1650658","0.0-11.0-287.0","","","","false","","","","","","","","","","null","","927.6000001430511","","3","0","null","null","arrowup","[0.15,0.85,0.675,0.325]","","",""
"sailing-trial","333","1654244","0.0-11.0-288.0","","","","false","","","","","","","","","","677.3999998569489","","368.7999999523163","","1","1","arrowleft","0","arrowright","[0.15,0.85,0.675,0.325]","","",""
"sailing-trial","334","1656794","0.0-11.0-289.0","","","","false","","","","","","","","","","null","","860.2000000476837","","2","1","null","null","arrowup","[0.15,0.85,0.675,0.325]","","",""
"sailing-trial","335","1661077","0.0-11.0-290.0","","","","false","","","","","","","","","","934.9000000953674","","407.59999990463257","","1","1","arrowleft","0","arrowright","[0.15,0.85,0.675,0.325]","","",""
"sailing-trial","336","1663169","0.0-11.0-291.0","","","","false","","","","","","","","","","null","","968.2000000476837","","0","0","null","null","arrowup","[0.15,0.85,0.675,0.325]","","",""
"sailing-trial","337","1667694","0.0-11.0-292.0","","","","false","","","","","","","","","","1291","","341.60000014305115","","1","1","arrowleft","0","arrowright","[0.15,0.85,0.675,0.325]","","",""
"sailing-trial","338","1670894","0.0-11.0-293.0","","","","false","","","","","","","","","","null","","882.9000000953674","","2","0","null","null","arrowup","[0.15,0.85,0.675,0.325]","","",""
"sailing-trial","339","1674863","0.0-11.0-294.0","","","","false","","","","","","","","","","693.5999999046326","","345.7999999523163","","1","1","arrowleft","0","arrowright","[0.15,0.85,0.675,0.325]","","",""
"sailing-trial","340","1678709","0.0-11.0-295.0","","","","false","","","","","","","","","","null","","823.6000001430511","","3","0","null","null","arrowup","[0.15,0.85,0.675,0.325]","","",""
"sailing-trial","341","1682447","0.0-11.0-296.0","","","","false","","","","","","","","","","519.5","","451","","1","1","arrowleft","0","arrowright","[0.15,0.85,0.675,0.325]","","",""
"sailing-trial","342","1685931","0.0-11.0-297.0","","","","false","","","","","","","","","","null","","994.3999998569489","","1","0","null","null","arrowup","[0.15,0.85,0.675,0.325]","","",""
"sailing-trial","343","1689577","0.0-11.0-298.0","","","","false","","","","","","","","","","512.8000001907349","","130.89999985694885","","1","1","arrowleft","0","arrowright","[0.15,0.85,0.675,0.325]","","",""
"sailing-trial","344","1691922","0.0-11.0-299.0","","","","false","","","","","","","","","","null","","1137.7000000476837","","2","0","null","null","arrowup","[0.15,0.85,0.675,0.325]","","",""
"sailing-trial","345","1695575","0.0-11.0-300.0","","","","false","","","","","","","","","","517.0999999046326","","246.10000014305115","","3","1","arrowright","1","arrowright","[0.325,0.675,0.85,0.15]","","",""
"sailing-trial","346","1698889","0.0-11.0-301.0","","","","false","","","","","","","","","","null","","1131.3999998569489","","2","0","null","null","arrowup","[0.325,0.675,0.85,0.15]","","",""
"sailing-trial","347","1702493","0.0-11.0-302.0","","","","false","","","","","","","","","","568.9000000953674","","149.89999985694885","","1","1","arrowleft","0","arrowright","[0.325,0.675,0.85,0.15]","","",""
"sailing-trial","348","1705110","0.0-11.0-303.0","","","","false","","","","","","","","","","null","","904.7999999523163","","2","1","null","null","arrowup","[0.325,0.675,0.85,0.15]","","",""
"sailing-trial","349","1708829","0.0-11.0-304.0","","","","false","","","","","","","","","","870.1000001430511","","308.2999999523163","","1","1","arrowleft","0","arrowright","[0.325,0.675,0.85,0.15]","","",""
"sailing-trial","350","1711169","0.0-11.0-305.0","","","","false","","","","","","","","","","null","","853.0999999046326","","0","0","null","null","arrowup","[0.325,0.675,0.85,0.15]","","",""
"sailing-trial","351","1714879","0.0-11.0-306.0","","","","false","","","","","","","","","","891.2000000476837","","273.7000000476837","","1","1","arrowleft","0","arrowright","[0.325,0.675,0.85,0.15]","","",""
"sailing-trial","352","1717664","0.0-11.0-307.0","","","","false","","","","","","","","","","null","","900.4000000953674","","1","0","null","null","arrowup","[0.325,0.675,0.85,0.15]","","",""
"sailing-trial","353","1722442","0.0-11.0-308.0","","","","false","","","","","","","","","","1486.4000000953674","","395.5","","3","0","arrowright","1","arrowright","[0.325,0.675,0.85,0.15]","","",""
"sailing-trial","354","1726158","0.0-11.0-309.0","","","","false","","","","","","","","","","null","","1645.4000000953674","","1","1","null","null","arrowup","[0.325,0.675,0.85,0.15]","","",""
"sailing-trial","355","1729960","0.0-11.0-310.0","","","","false","","","","","","","","","","705.2999999523163","","259.19999980926514","","1","1","arrowleft","0","arrowright","[0.325,0.675,0.85,0.15]","","",""
"sailing-trial","356","1732825","0.0-11.0-311.0","","","","false","","","","","","","","","","null","","893","","2","1","null","null","arrowup","[0.325,0.675,0.85,0.15]","","",""
"sailing-trial","357","1736693","0.0-11.0-312.0","","","","false","","","","","","","","","","634.5999999046326","","309.60000014305115","","1","1","arrowleft","0","arrowright","[0.325,0.675,0.85,0.15]","","",""
"sailing-trial","358","1739043","0.0-11.0-313.0","","","","false","","","","","","","","","","null","","886.5999999046326","","2","0","null","null","arrowup","[0.325,0.675,0.85,0.15]","","",""
"sailing-trial","359","1742827","0.0-11.0-314.0","","","","false","","","","","","","","","","898.9000000953674","","39.5","","1","1","arrowleft","0","arrowright","[0.325,0.675,0.85,0.15]","","",""
"sailing-trial","360","1745559","0.0-11.0-315.0","","","","false","","","","","","","","","","null","","879.6999998092651","","2","1","null","null","arrowup","[0.325,0.675,0.85,0.15]","","",""
"sailing-trial","361","1748835","0.0-11.0-316.0","","","","false","","","","","","","","","","604","","337.59999990463257","","1","0","arrowleft","0","arrowright","[0.675,0.325,0.15,0.85]","","",""
"sailing-trial","362","1751001","0.0-11.0-317.0","","","","false","","","","","","","","","","null","","949.8999998569489","","2","0","null","null","arrowup","[0.675,0.325,0.15,0.85]","","",""
"sailing-trial","363","1754327","0.0-11.0-318.0","","","","false","","","","","","","","","","704","","302.7000000476837","","2","0","arrowright","1","arrowleft","[0.675,0.325,0.15,0.85]","","",""
"sailing-trial","364","1756593","0.0-11.0-319.0","","","","false","","","","","","","","","","null","","936.2000000476837","","2","0","null","null","arrowup","[0.675,0.325,0.15,0.85]","","",""
"sailing-trial","365","1760658","0.0-11.0-320.0","","","","false","","","","","","","","","","782.7999999523163","","494.90000009536743","","0","1","arrowleft","0","arrowleft","[0.675,0.325,0.15,0.85]","","",""
"sailing-trial","366","1762865","0.0-11.0-321.0","","","","false","","","","","","","","","","null","","962.8000001907349","","1","0","null","null","arrowup","[0.675,0.325,0.15,0.85]","","",""
"sailing-trial","367","1766425","0.0-11.0-322.0","","","","false","","","","","","","","","","685.0999999046326","","20.90000009536743","","0","1","arrowleft","0","arrowleft","[0.675,0.325,0.15,0.85]","","",""
"sailing-trial","368","1769290","0.0-11.0-323.0","","","","false","","","","","","","","","","null","","1031.4000000953674","","0","1","null","null","arrowup","[0.675,0.325,0.15,0.85]","","",""
"sailing-trial","369","1772524","0.0-11.0-324.0","","","","false","","","","","","","","","","987.6999998092651","","14.200000047683716","","0","0","arrowleft","0","arrowleft","[0.675,0.325,0.15,0.85]","","",""
"sailing-trial","370","1775072","0.0-11.0-325.0","","","","false","","","","","","","","","","null","","830.5999999046326","","3","1","null","null","arrowup","[0.675,0.325,0.15,0.85]","","",""
"sailing-trial","371","1780024","0.0-11.0-326.0","","","","false","","","","","","","","","","2233.600000143051","","1.6000001430511475","","0","1","arrowleft","0","arrowleft","[0.675,0.325,0.15,0.85]","","",""
"sailing-trial","372","1782755","0.0-11.0-327.0","","","","false","","","","","","","","","","null","","1004.9000000953674","","0","1","null","null","arrowup","[0.675,0.325,0.15,0.85]","","",""
"sailing-trial","373","1786426","0.0-11.0-328.0","","","","false","","","","","","","","","","1014.5999999046326","","349","","0","0","arrowleft","0","arrowleft","[0.675,0.325,0.15,0.85]","","",""
"sailing-trial","374","1788669","0.0-11.0-329.0","","","","false","","","","","","","","","","null","","1052.7000000476837","","2","0","null","null","arrowup","[0.675,0.325,0.15,0.85]","","",""
"sailing-trial","375","1793272","0.0-11.0-330.0","","","","false","","","","","","","","","","534.2000000476837","","347.2999999523163","","3","1","arrowright","1","arrowright","[0.675,0.325,0.15,0.85]","","",""
"sailing-trial","376","1795876","0.0-11.0-331.0","","","","false","","","","","","","","","","null","","580.5","","1","1","null","null","arrowup","[0.675,0.325,0.15,0.85]","","",""
"sailing-trial","377","1799622","0.0-11.0-332.0","","","","false","","","","","","","","","","616.2000000476837","","447.39999985694885","","3","1","arrowright","1","arrowright","[0.85,0.15,0.325,0.675]","","",""
"sailing-trial","378","1801603","0.0-11.0-333.0","","","","false","","","","","","","","","","null","","817.7999999523163","","1","0","null","null","arrowup","[0.85,0.15,0.325,0.675]","","",""
"sailing-trial","379","1805439","0.0-11.0-334.0","","","","false","","","","","","","","","","595.7999999523163","","508.39999985694885","","3","1","arrowright","1","arrowright","[0.85,0.15,0.325,0.675]","","",""
"sailing-trial","380","1809389","0.0-11.0-335.0","","","","false","","","","","","","","","","null","","956.5999999046326","","1","0","null","null","arrowup","[0.85,0.15,0.325,0.675]","","",""
"sailing-trial","381","1812684","0.0-11.0-336.0","","","","false","","","","","","","","","","572.3999998569489","","465.59999990463257","","3","0","arrowright","1","arrowright","[0.85,0.15,0.325,0.675]","","",""
"sailing-trial","382","1815236","0.0-11.0-337.0","","","","false","","","","","","","","","","null","","1315.9000000953674","","1","0","null","null","arrowup","[0.85,0.15,0.325,0.675]","","",""
"sailing-trial","383","1819140","0.0-11.0-338.0","","","","false","","","","","","","","","","722","","642.2000000476837","","0","1","arrowleft","0","arrowleft","[0.85,0.15,0.325,0.675]","","",""
"sailing-trial","384","1820922","0.0-11.0-339.0","","","","false","","","","","","","","","","null","","700.2000000476837","","1","0","null","null","arrowup","[0.85,0.15,0.325,0.675]","","",""
"sailing-trial","385","1824605","0.0-11.0-340.0","","","","false","","","","","","","","","","698.5999999046326","","400.60000014305115","","0","1","arrowleft","0","arrowleft","[0.85,0.15,0.325,0.675]","","",""
"sailing-trial","386","1827089","0.0-11.0-341.0","","","","false","","","","","","","","","","null","","932.5","","0","1","null","null","arrowup","[0.85,0.15,0.325,0.675]","","",""
"sailing-trial","387","1830299","0.0-11.0-342.0","","","","false","","","","","","","","","","704.5999999046326","","341.09999990463257","","0","0","arrowleft","0","arrowleft","[0.85,0.15,0.325,0.675]","","",""
"sailing-trial","388","1833290","0.0-11.0-343.0","","","","false","","","","","","","","","","null","","928.7000000476837","","2","1","null","null","arrowup","[0.85,0.15,0.325,0.675]","","",""
"sailing-trial","389","1836852","0.0-11.0-344.0","","","","false","","","","","","","","","","843.5","","435.7000000476837","","2","0","arrowright","1","arrowleft","[0.85,0.15,0.325,0.675]","","",""
"sailing-trial","390","1839409","0.0-11.0-345.0","","","","false","","","","","","","","","","null","","843.2000000476837","","0","1","null","null","arrowup","[0.85,0.15,0.325,0.675]","","",""
"sailing-trial","391","1843854","0.0-11.0-346.0","","","","false","","","","","","","","","","1077","","617.1000001430511","","0","1","arrowleft","0","arrowleft","[0.85,0.15,0.325,0.675]","","",""
"sailing-trial","392","1846588","0.0-11.0-347.0","","","","false","","","","","","","","","","null","","1091.6999998092651","","0","1","null","null","arrowup","[0.85,0.15,0.325,0.675]","","",""
"sailing-trial","393","1850303","0.0-11.0-348.0","","","","false","","","","","","","","","","748.7999999523163","","396.90000009536743","","0","1","arrowleft","0","arrowleft","[0.85,0.15,0.325,0.675]","","",""
"sailing-trial","394","1853854","0.0-11.0-349.0","","","","false","","","","","","","","","","null","","1702.6999998092651","","0","1","null","null","arrowup","[0.85,0.15,0.325,0.675]","","",""
"sailing-trial","395","1857618","0.0-11.0-350.0","","","","false","","","","","","","","","","1037.5","","27.40000009536743","","0","1","arrowleft","0","arrowleft","[0.675,0.325,0.15,0.85]","","",""
"sailing-trial","396","1859505","0.0-11.0-351.0","","","","false","","","","","","","","","","null","","815.2000000476837","","2","0","null","null","arrowup","[0.675,0.325,0.15,0.85]","","",""
"sailing-trial","397","1863304","0.0-11.0-352.0","","","","false","","","","","","","","","","633.9000000953674","","403.5","","0","1","arrowleft","0","arrowleft","[0.675,0.325,0.15,0.85]","","",""
"sailing-trial","398","1865836","0.0-11.0-353.0","","","","false","","","","","","","","","","null","","829.5","","2","1","null","null","arrowup","[0.675,0.325,0.15,0.85]","","",""
"sailing-trial","399","1869277","0.0-11.0-354.0","","","","false","","","","","","","","","","952","","316.19999980926514","","2","0","arrowright","1","arrowleft","[0.675,0.325,0.15,0.85]","","",""
"sailing-trial","400","1872752","0.0-11.0-355.0","","","","false","","","","","","","","","","null","","706.9000000953674","","3","1","null","null","arrowup","[0.675,0.325,0.15,0.85]","","",""
"sailing-trial","401","1876385","0.0-11.0-356.0","","","","false","","","","","","","","","","710.5","","267.2999999523163","","3","1","arrowright","1","arrowright","[0.675,0.325,0.15,0.85]","","",""
"sailing-trial","402","1879226","0.0-11.0-357.0","","","","false","","","","","","","","","","null","","1006.5","","2","0","null","null","arrowup","[0.675,0.325,0.15,0.85]","","",""
"sailing-trial","403","1882950","0.0-11.0-358.0","","","","false","","","","","","","","","","611.0999999046326","","467.40000009536743","","3","1","arrowright","1","arrowright","[0.675,0.325,0.15,0.85]","","",""
"sailing-trial","404","1885652","0.0-11.0-359.0","","","","false","","","","","","","","","","null","","993.7999999523163","","0","1","null","null","arrowup","[0.675,0.325,0.15,0.85]","","",""
"sailing-trial","405","1890018","0.0-11.0-360.0","","","","false","","","","","","","","","","657.7999999523163","","495.2000000476837","","0","1","arrowleft","0","arrowleft","[0.675,0.325,0.15,0.85]","","",""
"sailing-trial","406","1892473","0.0-11.0-361.0","","","","false","","","","","","","","","","null","","1168.4000000953674","","0","0","null","null","arrowup","[0.675,0.325,0.15,0.85]","","",""
"sailing-trial","407","1896618","0.0-11.0-362.0","","","","false","","","","","","","","","","897.6000001430511","","368.7000000476837","","3","1","arrowright","1","arrowright","[0.675,0.325,0.15,0.85]","","",""
"sailing-trial","408","1899551","0.0-11.0-363.0","","","","false","","","","","","","","","","null","","903.2999999523163","","3","1","null","null","arrowup","[0.675,0.325,0.15,0.85]","","",""
"sailing-trial","409","1903720","0.0-11.0-364.0","","","","false","","","","","","","","","","736.1999998092651","","829.5","","0","1","arrowleft","0","arrowleft","[0.675,0.325,0.15,0.85]","","",""
"sailing-trial","410","1906285","0.0-11.0-365.0","","","","false","","","","","","","","","","null","","927.0999999046326","","3","1","null","null","arrowup","[0.675,0.325,0.15,0.85]","","",""
"sailing-trial","411","1910368","0.0-11.0-366.0","","","","false","","","","","","","","","","1056.4000000953674","","302.5","","3","1","arrowright","1","arrowright","[0.85,0.15,0.325,0.675]","","",""
"sailing-trial","412","1912952","0.0-11.0-367.0","","","","false","","","","","","","","","","null","","915.7000000476837","","0","1","null","null","arrowup","[0.85,0.15,0.325,0.675]","","",""
"sailing-trial","413","1917134","0.0-11.0-368.0","","","","false","","","","","","","","","","1043","","357.2000000476837","","3","1","arrowright","1","arrowright","[0.85,0.15,0.325,0.675]","","",""
"sailing-trial","414","1919886","0.0-11.0-369.0","","","","false","","","","","","","","","","null","","1023.3000001907349","","1","1","null","null","arrowup","[0.85,0.15,0.325,0.675]","","",""
"sailing-trial","415","1925985","0.0-11.0-370.0","","","","false","","","","","","","","","","1040.2000000476837","","2334.9000000953674","","3","1","arrowright","1","arrowright","[0.85,0.15,0.325,0.675]","","",""
"sailing-trial","416","1928518","0.0-11.0-371.0","","","","false","","","","","","","","","","null","","911.3999998569489","","0","1","null","null","arrowup","[0.85,0.15,0.325,0.675]","","",""
"sailing-trial","417","1932500","0.0-11.0-372.0","","","","false","","","","","","","","","","886","","391.7000000476837","","3","1","arrowright","1","arrowright","[0.85,0.15,0.325,0.675]","","",""
"sailing-trial","418","1934607","0.0-11.0-373.0","","","","false","","","","","","","","","","null","","941.4000000953674","","2","0","null","null","arrowup","[0.85,0.15,0.325,0.675]","","",""
"sailing-trial","419","1938566","0.0-11.0-374.0","","","","false","","","","","","","","","","585.2000000476837","","675.6999998092651","","0","1","arrowleft","0","arrowleft","[0.85,0.15,0.325,0.675]","","",""
"sailing-trial","420","1941685","0.0-11.0-375.0","","","","false","","","","","","","","","","null","","1108.8999998569489","","3","1","null","null","arrowup","[0.85,0.15,0.325,0.675]","","",""
"sailing-trial","421","1945250","0.0-11.0-376.0","","","","false","","","","","","","","","","471.09999990463257","","190.70000004768372","","0","1","arrowleft","0","arrowleft","[0.85,0.15,0.325,0.675]","","",""
"sailing-trial","422","1947619","0.0-11.0-377.0","","","","false","","","","","","","","","","null","","464","","1","0","null","null","arrowup","[0.85,0.15,0.325,0.675]","","",""
"sailing-trial","423","1951400","0.0-11.0-378.0","","","","false","","","","","","","","","","683.5999999046326","","500.59999990463257","","3","1","arrowright","1","arrowright","[0.85,0.15,0.325,0.675]","","",""
"sailing-trial","424","1954033","0.0-11.0-379.0","","","","false","","","","","","","","","","null","","915.5","","0","1","null","null","arrowup","[0.85,0.15,0.325,0.675]","","",""
"sailing-trial","425","1958017","0.0-11.0-380.0","","","","false","","","","","","","","","","679.2999999523163","","522.0999999046326","","3","1","arrowright","1","arrowright","[0.85,0.15,0.325,0.675]","","",""
"sailing-trial","426","1960143","0.0-11.0-381.0","","","","false","","","","","","","","","","null","","930","","1","0","null","null","arrowup","[0.85,0.15,0.325,0.675]","","",""
"sailing-trial","427","1964633","0.0-11.0-382.0","","","","false","","","","","","","","","","632.7999999523163","","613","","0","1","arrowleft","0","arrowleft","[0.85,0.15,0.325,0.675]","","",""
"sailing-trial","428","1966715","0.0-11.0-383.0","","","","false","","","","","","","","","","null","","900.5999999046326","","1","0","null","null","arrowup","[0.85,0.15,0.325,0.675]","","",""
"sailing-trial","429","1971051","0.0-11.0-384.0","","","","false","","","","","","","","","","587.0999999046326","","480.59999990463257","","0","1","arrowleft","0","arrowleft","[0.675,0.325,0.15,0.85]","","",""
"sailing-trial","430","1973051","0.0-11.0-385.0","","","","false","","","","","","","","","","null","","784.5","","2","0","null","null","arrowup","[0.675,0.325,0.15,0.85]","","",""
"sailing-trial","431","1976949","0.0-11.0-386.0","","","","false","","","","","","","","","","627.0999999046326","","658.3000001907349","","3","1","arrowright","1","arrowright","[0.675,0.325,0.15,0.85]","","",""
"sailing-trial","432","1979615","0.0-11.0-387.0","","","","false","","","","","","","","","","null","","882.2000000476837","","3","1","null","null","arrowup","[0.675,0.325,0.15,0.85]","","",""
"sailing-trial","433","1983664","0.0-11.0-388.0","","","","false","","","","","","","","","","829.5","","387","","0","1","arrowleft","0","arrowleft","[0.675,0.325,0.15,0.85]","","",""
"sailing-trial","434","1986897","0.0-11.0-389.0","","","","false","","","","","","","","","","null","","1313.5","","0","1","null","null","arrowup","[0.675,0.325,0.15,0.85]","","",""
"sailing-trial","435","1990815","0.0-11.0-390.0","","","","false","","","","","","","","","","861.5999999046326","","326.5","","3","1","arrowright","1","arrowright","[0.675,0.325,0.15,0.85]","","",""
"sailing-trial","436","1995075","0.0-11.0-391.0","","","","false","","","","","","","","","","null","","2938.7999999523163","","0","0","null","null","arrowup","[0.675,0.325,0.15,0.85]","","",""
"sailing-trial","437","1998597","0.0-11.0-392.0","","","","false","","","","","","","","","","584.9000000953674","","352","","0","1","arrowleft","0","arrowleft","[0.675,0.325,0.15,0.85]","","",""
"sailing-trial","438","2000561","0.0-11.0-393.0","","","","false","","","","","","","","","","null","","922.3999998569489","","2","0","null","null","arrowup","[0.675,0.325,0.15,0.85]","","",""
"sailing-trial","439","2004066","0.0-11.0-394.0","","","","false","","","","","","","","","","530.5999999046326","","294.2000000476837","","3","1","arrowright","1","arrowright","[0.675,0.325,0.15,0.85]","","",""
"sailing-trial","440","2006681","0.0-11.0-395.0","","","","false","","","","","","","","","","null","","834","","3","1","null","null","arrowup","[0.675,0.325,0.15,0.85]","","",""
"sailing-trial","441","2010383","0.0-11.0-396.0","","","","false","","","","","","","","","","580.6000001430511","","511.7000000476837","","3","1","arrowright","1","arrowright","[0.675,0.325,0.15,0.85]","","",""
"sailing-trial","442","2012373","0.0-11.0-397.0","","","","false","","","","","","","","","","null","","862.7000000476837","","2","0","null","null","arrowup","[0.675,0.325,0.15,0.85]","","",""
"sailing-trial","443","2017917","0.0-11.0-398.0","","","","false","","","","","","","","","","579","","1499.7999999523163","","3","0","arrowright","1","arrowright","[0.675,0.325,0.15,0.85]","","",""
"sailing-trial","444","2020594","0.0-11.0-399.0","","","","false","","","","","","","","","","null","","980","","3","1","null","null","arrowup","[0.675,0.325,0.15,0.85]","","",""
"instructions","445","2026193","0.0-12.0","","","","","","","","","","5598","","","","","","","","","","","","","","","","[{""page_index"":0,""viewing_time"":5596.399999856949}]"
"survey-debrief","446","2060318","0.0-13.0","","","","","","","","","","34123.200000047684","","","","","","","","","","","","","","{""difficulty"":""2"",""fun"":""2"",""clarity"":""3"",""strategy"":"""",""feedback"":""""}","",""
