"trial_type","trial_index","time_elapsed","internal_node_id","value","metadata","success","timeout","failed_images","failed_audio","failed_video","browser_interaction","low_quality","rt","stimulus","response","button_pressed","island_rt","island_response","boat_rt","boat_response","boat","reward","island_key","island","boat_key","reward_probabilities","responses","num_errors","view_history"
"pavlovia","0","2","0.0-0.0","","","","","","","","","","","","","","","","","","","","","","","","","",""
"call-function","1","2","0.0-1.0","","{""task_version"":""sr_pilot_v2"",""task_condition"":""good"",""boats"":[""D"",""A"",""C"",""B""],""boats_demo"":[""F"",""G"",""E"",""H""],""islands"":[""B"",""A""],""subject_id"":""13809"",""age"":""9"",""gender"":""Male""}","","","","","","","","","","","","","","","","","","","","","","","",""
"preload","2","1089","0.0-2.0","","","true","false","[]","[]","[]","[{""event"":""fullscreenenter"",""trial"":3,""time"":2397}]","false","","","","","","","","","","","","","","","","",""
"fullscreen","3","3378","0.0-3.0","","","true","","","","","","","","","","","","","","","","","","","","","","",""
"audio-keyboard-response","4","6069","0.0-4.0-0.0","","","","","","","","","","2501.333333333333","audio/beep_loop.wav"," ","","","","","","","","","","","","","",""
"audio-test","5","9231","0.0-4.0-1.0","","","","","","","","","","null","audio/turtle.mp3","","3","","","","","","","","","","","","",""
"audio-test","6","11698","0.0-4.0-2.0","","","","","","","","","","null","audio/shark.mp3","","2","","","","","","","","","","","","",""
"sailing-instructions","7","52879","0.0-5.0-0.0-0.0","","","","","","","","","","","","","","null","null","null","null","null","null","","","","","","",""
"sailing-trial","8","58413","0.0-5.0-0.0-1.0-0.0","","","","false","","","","","","","","","","4413.699999928474","","null","","null","null","arrowleft","0","null","null","","",""
"sailing-trial","9","62013","0.0-5.0-0.0-1.0-1.0","","","","false","","","","","","","","","","2488.8000000715256","","null","","null","null","arrowright","1","null","null","","",""
"sailing-trial","10","65663","0.0-5.0-0.0-1.0-2.0","","","","false","","","","","","","","","","2544.5","","null","","null","null","arrowleft","0","null","null","","",""
"sailing-instructions","11","110433","0.0-5.0-0.0-2.0","","","","","","","","","","","","","","null","null","null","null","0","null","","","","","","",""
"sailing-trial","12","117383","0.0-5.0-0.0-3.0-0.0","","","","false","","","","","","","","","","null","","2963.3000000715256","","2","1","null","null","arrowleft","[1,1,1,1]","","",""
"sailing-trial","13","120733","0.0-5.0-0.0-3.0-1.0","","","","false","","","","","","","","","","null","","814.8999999761581","","3","1","null","null","arrowright","[1,1,1,1]","","",""
"sailing-trial","14","125482","0.0-5.0-0.0-3.0-2.0","","","","false","","","","","","","","","","null","","1664.6000000238419","","2","0","null","null","arrowleft","[0,0,0,0]","","",""
"sailing-instructions","15","133354","0.0-5.0-0.0-4.0","","","","","","","","","","","","","","null","null","null","null","null","null","","","","","","",""
"sailing-comprehension","16","148818","0.0-5.0-0.0-5.0","","","","","","","","","","13463.5","","","","","","","","","","","","","","[""true"",""true"",""false"",""true""]","0",""
"sailing-instructions","17","216104","0.0-6.0-0.0-0.0","","","","","","","","","","","","","","null","null","null","null","null","null","","","","","","",""
"sailing-comprehension","18","241974","0.0-6.0-0.0-1.0","","","","","","","","","","14171","","","","","","","","","","","","","","[""true"",""true"",""true""]","1",""
"sailing-instructions","19","303872","0.0-6.0-0.1-0.1","","","","","","","","","","","","","","null","null","null","null","null","null","","","","","","",""
"sailing-comprehension","20","312313","0.0-6.0-0.1-1.1","","","","","","","","","","6396.099999904633","","","","","","","","","","","","","","[""true"",""false"",""true""]","0",""
"sailing-instructions","21","325584","0.0-7.0-0.0-0.0","","","","","","","","","","","","","","null","null","null","null","null","null","","","","","","",""
"sailing-trial","22","330939","0.0-7.0-0.0-1.0-0.0","","","","false","","","","","","","","","","null","","2454.7000000476837","","0","0","null","null","arrowup","[0.2,0.8,0.2,0.8]","","",""
"sailing-trial","23","334589","0.0-7.0-0.0-1.0-1.0","","","","false","","","","","","","","","","null","","1643.4000000953674","","1","1","null","null","arrowup","[0.2,0.8,0.2,0.8]","","",""
"sailing-trial","24","337856","0.0-7.0-0.0-1.0-2.0","","","","false","","","","","","","","","","null","","1410","","2","0","null","null","arrowup","[0.2,0.8,0.2,0.8]","","",""
"sailing-trial","25","340340","0.0-7.0-0.0-1.0-3.0","","","","false","","","","","","","","","","null","","599.2000000476837","","3","1","null","null","arrowup","[0.2,0.8,0.2,0.8]","","",""
"sailing-comprehension","26","348258","0.0-7.0-0.0-2.0","","","","","","","","","","5372.600000023842","","","","","","","","","","","","","","[""true""]","1",""
"sailing-instructions","27","363762","0.0-7.0-0.1-0.1","","","","","","","","","","","","","","null","null","null","null","null","null","","","","","","",""
"sailing-trial","28","367340","0.0-7.0-0.1-1.1-0.1","","","","false","","","","","","","","","","null","","1494.7999999523163","","0","0","null","null","arrowup","[0.2,0.8,0.2,0.8]","","",""
"sailing-trial","29","369323","0.0-7.0-0.1-1.1-1.1","","","","false","","","","","","","","","","null","","435.5","","1","1","null","null","arrowup","[0.2,0.8,0.2,0.8]","","",""
"sailing-trial","30","372641","0.0-7.0-0.1-1.1-2.1","","","","false","","","","","","","","","","null","","1444.3000000715256","","2","1","null","null","arrowup","[0.2,0.8,0.2,0.8]","","",""
"sailing-trial","31","374791","0.0-7.0-0.1-1.1-3.1","","","","false","","","","","","","","","","null","","775.3999999761581","","3","0","null","null","arrowup","[0.2,0.8,0.2,0.8]","","",""
"sailing-comprehension","32","379890","0.0-7.0-0.1-2.1","","","","","","","","","","3160.2000000476837","","","","","","","","","","","","","","[""false""]","0",""
"sailing-instructions","33","391528","0.0-8.0-0.0-0.0","","","","","","","","","","","","","","null","null","null","null","null","null","","","","","","",""
"sailing-comprehension","34","397907","0.0-8.0-0.0-1.0","","","","","","","","","","4787.699999928474","","","","","","","","","","","","","","[""true""]","0",""
"sailing-instructions","35","435000","0.0-9.0-0.0-0.0","","","","","","","","","","","","","","null","null","null","null","null","null","","","","","","",""
"sailing-trial","36","441643","0.0-9.0-0.0-1.0-0.0","","","","false","","","","","","","","","","2098.8000000715256","","1383","","0","0","arrowleft","0","arrowleft","[0.2,0.8,0.2,0.8]","","",""
"sailing-trial","37","446461","0.0-9.0-0.0-1.0-1.0","","","","false","","","","","","","","","","1143.6000000238419","","505.1999999284744","","3","1","arrowright","1","arrowright","[0.2,0.8,0.2,0.8]","","",""
"sailing-trial","38","450394","0.0-9.0-0.0-1.0-2.0","","","","false","","","","","","","","","","null","","1990","","0","0","null","null","arrowup","[0.2,0.8,0.2,0.8]","","",""
"sailing-trial","39","455759","0.0-9.0-0.0-1.0-3.0","","","","false","","","","","","","","","","1401.2000000476837","","1267.3000000715256","","0","0","arrowleft","0","arrowleft","[0.2,0.8,0.2,0.8]","","",""
"sailing-trial","40","459794","0.0-9.0-0.0-1.0-4.0","","","","false","","","","","","","","","","null","","1819.0999999046326","","3","1","null","null","arrowup","[0.2,0.8,0.2,0.8]","","",""
"sailing-trial","41","463243","0.0-9.0-0.0-1.0-5.0","","","","false","","","","","","","","","","296.3000000715256","","141.5","","3","0","arrowright","1","arrowright","[0.2,0.8,0.2,0.8]","","",""
"sailing-instructions","42","488862","0.0-10.0","","","","","","","","","","","","","","null","null","null","null","null","null","","","","","","",""
"sailing-trial","43","495428","0.0-11.0-0.0","","","","false","","","","","","","","","","2670.100000023842","","370.60000002384186","","1","1","arrowleft","0","arrowright","[0.675,0.325,0.85,0.15]","","",""
"sailing-trial","44","499044","0.0-11.0-1.0","","","","false","","","","","","","","","","null","","2423","","3","0","null","null","arrowup","[0.675,0.325,0.85,0.15]","","",""
"sailing-trial","45","503911","0.0-11.0-2.0","","","","false","","","","","","","","","","623.1000000238419","","1534.5","","3","0","arrowright","1","arrowright","[0.675,0.325,0.85,0.15]","","",""
"sailing-trial","46","507044","0.0-11.0-3.0","","","","false","","","","","","","","","","null","","1429.2000000476837","","3","0","null","null","arrowup","[0.675,0.325,0.85,0.15]","","",""
"sailing-trial","47","511476","0.0-11.0-4.0","","","","false","","","","","","","","","","495.89999997615814","","741.0999999046326","","1","1","arrowleft","0","arrowright","[0.675,0.325,0.85,0.15]","","",""
"sailing-trial","48","514995","0.0-11.0-5.0","","","","false","","","","","","","","","","null","","1550.3999999761581","","3","0","null","null","arrowup","[0.675,0.325,0.85,0.15]","","",""
"sailing-trial","49","519901","0.0-11.0-6.0","","","","false","","","","","","","","","","1362","","604.5","","1","0","arrowleft","0","arrowright","[0.675,0.325,0.85,0.15]","","",""
"sailing-trial","50","523516","0.0-11.0-7.0","","","","false","","","","","","","","","","null","","1456.6999999284744","","1","0","null","null","arrowup","[0.675,0.325,0.85,0.15]","","",""
"sailing-trial","51","528514","0.0-11.0-8.0","","","","false","","","","","","","","","","1169","","509.6999999284744","","2","1","arrowright","1","arrowleft","[0.675,0.325,0.85,0.15]","","",""
"sailing-trial","52","531931","0.0-11.0-9.0","","","","false","","","","","","","","","","null","","1396.2999999523163","","0","1","null","null","arrowup","[0.675,0.325,0.85,0.15]","","",""
"sailing-trial","53","535432","0.0-11.0-10.0","","","","false","","","","","","","","","","130.29999995231628","","223.09999990463257","","2","1","arrowright","1","arrowleft","[0.675,0.325,0.85,0.15]","","",""
"sailing-trial","54","538283","0.0-11.0-11.0","","","","false","","","","","","","","","","null","","1038.3999999761581","","1","1","null","null","arrowup","[0.675,0.325,0.85,0.15]","","",""
"sailing-trial","55","541981","0.0-11.0-12.0","","","","false","","","","","","","","","","155","","432.39999997615814","","2","1","arrowright","1","arrowleft","[0.675,0.325,0.85,0.15]","","",""
"sailing-trial","56","543949","0.0-11.0-13.0","","","","false","","","","","","","","","","null","","113","","1","0","null","null","arrowup","[0.675,0.325,0.85,0.15]","","",""
"sailing-trial","57","548277","0.0-11.0-14.0","","","","false","","","","","","","","","","737.1999999284744","","871","","3","0","arrowright","1","arrowright","[0.675,0.325,0.85,0.15]","","",""
"sailing-trial","58","550513","0.0-11.0-15.0","","","","false","","","","","","","","","","null","","545.1000000238419","","0","1","null","null","arrowup","[0.675,0.325,0.85,0.15]","","",""
"sailing-trial","59","553468","0.0-11.0-16.0","","","","false","","","","","","","","","","228","","381.60000002384186","","1","0","arrowleft","0","arrowright","[0.675,0.325,0.85,0.15]","","",""
"sailing-trial","60","556247","0.0-11.0-17.0","","","","false","","","","","","","","","","null","","961","","2","1","null","null","arrowup","[0.675,0.325,0.85,0.15]","","",""
"sailing-trial","61","559530","0.0-11.0-18.0","","","","false","","","","","","","","","","206.89999997615814","","176.40000009536743","","2","1","arrowright","1","arrowleft","[0.675,0.325,0.85,0.15]","","",""
"sailing-trial","62","561346","0.0-11.0-19.0","","","","false","","","","","","","","","","null","","419.7000000476837","","3","0","null","null","arrowup","[0.675,0.325,0.85,0.15]","","",""
"sailing-trial","63","565432","0.0-11.0-20.0","","","","false","","","","","","","","","","1243.6000000238419","","19.200000047683716","","2","1","arrowright","1","arrowleft","[0.675,0.325,0.85,0.15]","","",""
"sailing-trial","64","567531","0.0-11.0-21.0","","","","false","","","","","","","","","","null","","6.700000047683716","","0","1","null","null","arrowup","[0.675,0.325,0.85,0.15]","","",""
"sailing-trial","65","573664","0.0-11.0-22.0","","","","false","","","","","","","","","","1555.6000000238419","","1319.3000000715256","","1","1","arrowleft","0","arrowright","[0.85,0.15,0.675,0.325]","","",""
"sailing-trial","66","575718","0.0-11.0-23.0","","","","false","","","","","","","","","","null","","773.7000000476837","","3","0","null","null","arrowup","[0.85,0.15,0.675,0.325]","","",""
"sailing-trial","67","579668","0.0-11.0-24.0","","","","false","","","","","","","","","","865.2999999523163","","403.1999999284744","","2","1","arrowright","1","arrowleft","[0.85,0.15,0.675,0.325]","","",""
"sailing-trial","68","581278","0.0-11.0-25.0","","","","false","","","","","","","","","","null","","211.5","","3","0","null","null","arrowup","[0.85,0.15,0.675,0.325]","","",""
"sailing-trial","69","585142","0.0-11.0-26.0","","","","false","","","","","","","","","","528.1000000238419","","873.6000000238419","","2","0","arrowright","1","arrowleft","[0.85,0.15,0.675,0.325]","","",""
"sailing-trial","70","588982","0.0-11.0-27.0","","","","false","","","","","","","","","","null","","1679.2999999523163","","2","1","null","null","arrowup","[0.85,0.15,0.675,0.325]","","",""
"sailing-trial","71","592417","0.0-11.0-28.0","","","","false","","","","","","","","","","232.10000002384186","","130.20000004768372","","3","1","arrowright","1","arrowright","[0.85,0.15,0.675,0.325]","","",""
"sailing-trial","72","594316","0.0-11.0-29.0","","","","false","","","","","","","","","","null","","133.60000002384186","","3","1","null","null","arrowup","[0.85,0.15,0.675,0.325]","","",""
"sailing-trial","73","598333","0.0-11.0-30.0","","","","false","","","","","","","","","","43.39999997615814","","834.6999999284744","","3","0","arrowright","1","arrowright","[0.85,0.15,0.675,0.325]","","",""
"sailing-trial","74","600799","0.0-11.0-31.0","","","","false","","","","","","","","","","null","","768.8999999761581","","2","1","null","null","arrowup","[0.85,0.15,0.675,0.325]","","",""
"sailing-trial","75","604374","0.0-11.0-32.0","","","","false","","","","","","","","","","792","","580","","1","0","arrowleft","0","arrowright","[0.85,0.15,0.675,0.325]","","",""
"sailing-trial","76","607071","0.0-11.0-33.0","","","","false","","","","","","","","","","null","","1121.1000000238419","","1","0","null","null","arrowup","[0.85,0.15,0.675,0.325]","","",""
"sailing-trial","77","610918","0.0-11.0-34.0","","","","false","","","","","","","","","","552.5","","264.5","","3","1","arrowright","1","arrowright","[0.85,0.15,0.675,0.325]","","",""
"sailing-trial","78","612231","0.0-11.0-35.0","","","","false","","","","","","","","","","null","","121.20000004768372","","1","0","null","null","arrowup","[0.85,0.15,0.675,0.325]","","",""
"sailing-trial","79","615239","0.0-11.0-36.0","","","","false","","","","","","","","","","544.6999999284744","","308.10000002384186","","3","0","arrowright","1","arrowright","[0.85,0.15,0.675,0.325]","","",""
"sailing-trial","80","617951","0.0-11.0-37.0","","","","false","","","","","","","","","","null","","1096.3999999761581","","2","1","null","null","arrowup","[0.85,0.15,0.675,0.325]","","",""
"sailing-trial","81","622267","0.0-11.0-38.0","","","","false","","","","","","","","","","673.5999999046326","","537.8999999761581","","1","1","arrowleft","0","arrowright","[0.675,0.325,0.85,0.15]","","",""
"sailing-trial","82","624084","0.0-11.0-39.0","","","","false","","","","","","","","","","null","","62.10000002384186","","2","1","null","null","arrowup","[0.675,0.325,0.85,0.15]","","",""
"sailing-trial","83","628783","0.0-11.0-40.0","","","","false","","","","","","","","","","1261","","693.7999999523163","","2","1","arrowright","1","arrowleft","[0.675,0.325,0.85,0.15]","","",""
"sailing-trial","84","630533","0.0-11.0-41.0","","","","false","","","","","","","","","","null","","168.5","","1","1","null","null","arrowup","[0.675,0.325,0.85,0.15]","","",""
"sailing-trial","85","634585","0.0-11.0-42.0","","","","false","","","","","","","","","","555.6000000238419","","726","","2","1","arrowright","1","arrowleft","[0.675,0.325,0.85,0.15]","","",""
"sailing-trial","86","638402","0.0-11.0-43.0","","","","false","","","","","","","","","","null","","1688.3999999761581","","1","1","null","null","arrowup","[0.675,0.325,0.85,0.15]","","",""
"sailing-trial","87","644352","0.0-11.0-44.0","","","","false","","","","","","","","","","1599","","490.89999997615814","","0","1","arrowleft","0","arrowleft","[0.675,0.325,0.85,0.15]","","",""
"sailing-trial","88","647118","0.0-11.0-45.0","","","","false","","","","","","","","","","null","","1121.5","","1","1","null","null","arrowup","[0.675,0.325,0.85,0.15]","","",""
"sailing-trial","89","650317","0.0-11.0-46.0","","","","false","","","","","","","","","","146.69999992847443","","135","","2","1","arrowright","1","arrowleft","[0.675,0.325,0.85,0.15]","","",""
"sailing-trial","90","652232","0.0-11.0-47.0","","","","false","","","","","","","","","","null","","595.7999999523163","","3","0","null","null","arrowup","[0.675,0.325,0.85,0.15]","","",""
"sailing-trial","91","655884","0.0-11.0-48.0","","","","false","","","","","","","","","","784","","305","","2","1","arrowright","1","arrowleft","[0.675,0.325,0.85,0.15]","","",""
"sailing-trial","92","659792","0.0-11.0-49.0","","","","false","","","","","","","","","","null","","2661.600000023842","","1","0","null","null","arrowup","[0.675,0.325,0.85,0.15]","","",""
"sailing-trial","93","664369","0.0-11.0-50.0","","","","false","","","","","","","","","","608.6999999284744","","866.3999999761581","","2","1","arrowright","1","arrowleft","[0.675,0.325,0.85,0.15]","","",""
"sailing-trial","94","666603","0.0-11.0-51.0","","","","false","","","","","","","","","","null","","609","","2","1","null","null","arrowup","[0.675,0.325,0.85,0.15]","","",""
"sailing-trial","95","669385","0.0-11.0-52.0","","","","false","","","","","","","","","","118.29999995231628","","100.79999995231628","","0","1","arrowleft","0","arrowleft","[0.675,0.325,0.85,0.15]","","",""
"sailing-trial","96","670697","0.0-11.0-53.0","","","","false","","","","","","","","","","null","","184.30000007152557","","0","0","null","null","arrowup","[0.675,0.325,0.85,0.15]","","",""
"sailing-trial","97","674913","0.0-11.0-54.0","","","","false","","","","","","","","","","345.2000000476837","","248.10000002384186","","3","0","arrowright","1","arrowright","[0.675,0.325,0.85,0.15]","","",""
"sailing-trial","98","676561","0.0-11.0-55.0","","","","false","","","","","","","","","","null","","360.5","","1","0","null","null","arrowup","[0.675,0.325,0.85,0.15]","","",""
"sailing-trial","99","679031","0.0-11.0-56.0","","","","false","","","","","","","","","","121.30000007152557","","79.09999990463257","","3","0","arrowright","1","arrowright","[0.675,0.325,0.85,0.15]","","",""
"sailing-trial","100","681269","0.0-11.0-57.0","","","","false","","","","","","","","","","null","","595.8999999761581","","1","1","null","null","arrowup","[0.675,0.325,0.85,0.15]","","",""
"sailing-trial","101","684256","0.0-11.0-58.0","","","","false","","","","","","","","","","36.700000047683716","","573.3999999761581","","1","0","arrowleft","0","arrowright","[0.85,0.15,0.675,0.325]","","",""
"sailing-trial","102","686519","0.0-11.0-59.0","","","","false","","","","","","","","","","null","","90.5","","2","1","null","null","arrowup","[0.85,0.15,0.675,0.325]","","",""
"sailing-trial","103","689403","0.0-11.0-60.0","","","","false","","","","","","","","","","42.300000071525574","","219.5","","2","1","arrowright","1","arrowleft","[0.85,0.15,0.675,0.325]","","",""
"sailing-trial","104","691120","0.0-11.0-61.0","","","","false","","","","","","","","","","null","","87.89999997615814","","2","0","null","null","arrowup","[0.85,0.15,0.675,0.325]","","",""
"sailing-trial","105","695089","0.0-11.0-62.0","","","","false","","","","","","","","","","90.89999997615814","","250.5","","2","0","arrowright","1","arrowleft","[0.85,0.15,0.675,0.325]","","",""
"sailing-trial","106","697537","0.0-11.0-63.0","","","","false","","","","","","","","","","null","","761.3000000715256","","1","1","null","null","arrowup","[0.85,0.15,0.675,0.325]","","",""
"sailing-trial","107","700719","0.0-11.0-64.0","","","","false","","","","","","","","","","378.7000000476837","","156.30000007152557","","3","1","arrowright","1","arrowright","[0.85,0.15,0.675,0.325]","","",""
"sailing-trial","108","703070","0.0-11.0-65.0","","","","false","","","","","","","","","","null","","179.90000009536743","","0","1","null","null","arrowup","[0.85,0.15,0.675,0.325]","","",""
"sailing-trial","109","706162","0.0-11.0-66.0","","","","false","","","","","","","","","","324.89999997615814","","553.6000000238419","","1","0","arrowleft","0","arrowright","[0.85,0.15,0.675,0.325]","","",""
"sailing-trial","110","707801","0.0-11.0-67.0","","","","false","","","","","","","","","","null","","401.5","","3","0","null","null","arrowup","[0.85,0.15,0.675,0.325]","","",""
"sailing-trial","111","711153","0.0-11.0-68.0","","","","false","","","","","","","","","","362.2999999523163","","12.799999952316284","","0","1","arrowleft","0","arrowleft","[0.85,0.15,0.675,0.325]","","",""
"sailing-trial","112","715090","0.0-11.0-69.0","","","","false","","","","","","","","","","null","","2481.5","","3","0","null","null","arrowup","[0.85,0.15,0.675,0.325]","","",""
"sailing-trial","113","718506","0.0-11.0-70.0","","","","false","","","","","","","","","","641","","125.39999997615814","","0","0","arrowleft","0","arrowleft","[0.85,0.15,0.675,0.325]","","",""
"sailing-trial","114","720337","0.0-11.0-71.0","","","","false","","","","","","","","","","null","","264.89999997615814","","2","1","null","null","arrowup","[0.85,0.15,0.675,0.325]","","",""
"sailing-trial","115","723523","0.0-11.0-72.0","","","","false","","","","","","","","","","148.70000004768372","","381.7999999523163","","2","0","arrowright","1","arrowleft","[0.85,0.15,0.675,0.325]","","",""
"sailing-trial","116","725115","0.0-11.0-73.0","","","","false","","","","","","","","","","null","","376.40000009536743","","3","0","null","null","arrowup","[0.85,0.15,0.675,0.325]","","",""
"sailing-trial","117","727851","0.0-11.0-74.0","","","","false","","","","","","","","","","328.5","","161.39999997615814","","1","0","arrowleft","0","arrowright","[0.85,0.15,0.675,0.325]","","",""
"sailing-trial","118","730171","0.0-11.0-75.0","","","","false","","","","","","","","","","null","","440.7999999523163","","0","1","null","null","arrowup","[0.85,0.15,0.675,0.325]","","",""
"sailing-trial","119","733586","0.0-11.0-76.0","","","","false","","","","","","","","","","1080.3000000715256","","256.2000000476837","","3","0","arrowright","1","arrowright","[0.85,0.15,0.675,0.325]","","",""
"sailing-trial","120","735820","0.0-11.0-77.0","","","","false","","","","","","","","","","null","","145.90000009536743","","2","1","null","null","arrowup","[0.85,0.15,0.675,0.325]","","",""
"sailing-trial","121","738516","0.0-11.0-78.0","","","","false","","","","","","","","","","471.7000000476837","","87.80000007152557","","0","0","arrowleft","0","arrowleft","[0.85,0.15,0.675,0.325]","","",""
"sailing-trial","122","742020","0.0-11.0-79.0","","","","false","","","","","","","","","","null","","1271.2999999523163","","0","1","null","null","arrowup","[0.85,0.15,0.675,0.325]","","",""
"sailing-trial","123","745947","0.0-11.0-80.0","","","","false","","","","","","","","","","392.2999999523163","","1099.0999999046326","","3","0","arrowright","1","arrowright","[0.675,0.325,0.85,0.15]","","",""
"sailing-trial","124","748219","0.0-11.0-81.0","","","","false","","","","","","","","","","null","","1258.5","","2","0","null","null","arrowup","[0.675,0.325,0.85,0.15]","","",""
"sailing-trial","125","751227","0.0-11.0-82.0","","","","false","","","","","","","","","","650.2000000476837","","270.89999997615814","","1","0","arrowleft","0","arrowright","[0.675,0.325,0.85,0.15]","","",""
"sailing-trial","126","753387","0.0-11.0-83.0","","","","false","","","","","","","","","","null","","553.5","","2","1","null","null","arrowup","[0.675,0.325,0.85,0.15]","","",""
"sailing-trial","127","756204","0.0-11.0-84.0","","","","false","","","","","","","","","","137.69999992847443","","141.60000002384186","","2","1","arrowright","1","arrowleft","[0.675,0.325,0.85,0.15]","","",""
"sailing-trial","128","759117","0.0-11.0-85.0","","","","false","","","","","","","","","","null","","1824.8999999761581","","3","0","null","null","arrowup","[0.675,0.325,0.85,0.15]","","",""
"sailing-trial","129","763921","0.0-11.0-86.0","","","","false","","","","","","","","","","1296.6000000238419","","523.2000000476837","","0","1","arrowleft","0","arrowleft","[0.675,0.325,0.85,0.15]","","",""
"sailing-trial","130","767557","0.0-11.0-87.0","","","","false","","","","","","","","","","null","","2276.7000000476837","","3","0","null","null","arrowup","[0.675,0.325,0.85,0.15]","","",""
"sailing-trial","131","770284","0.0-11.0-88.0","","","","false","","","","","","","","","","183.39999997615814","","61.5","","1","0","arrowleft","0","arrowright","[0.675,0.325,0.85,0.15]","","",""
"sailing-trial","132","774613","0.0-11.0-89.0","","","","false","","","","","","","","","","null","","3176.5","","1","0","null","null","arrowup","[0.675,0.325,0.85,0.15]","","",""
"sailing-trial","133","778790","0.0-11.0-90.0","","","","false","","","","","","","","","","881.1000000238419","","255.69999992847443","","2","1","arrowright","1","arrowleft","[0.675,0.325,0.85,0.15]","","",""
"sailing-trial","134","780413","0.0-11.0-91.0","","","","false","","","","","","","","","","null","","143","","0","0","null","null","arrowup","[0.675,0.325,0.85,0.15]","","",""
"sailing-trial","135","783388","0.0-11.0-92.0","","","","false","","","","","","","","","","368.59999990463257","","27","","0","1","arrowleft","0","arrowleft","[0.675,0.325,0.85,0.15]","","",""
"sailing-trial","136","785156","0.0-11.0-93.0","","","","false","","","","","","","","","","null","","105","","2","1","null","null","arrowup","[0.675,0.325,0.85,0.15]","","",""
"sailing-trial","137","787677","0.0-11.0-94.0","","","","false","","","","","","","","","","209.30000007152557","","180.29999995231628","","3","0","arrowright","1","arrowright","[0.675,0.325,0.85,0.15]","","",""
"sailing-trial","138","790029","0.0-11.0-95.0","","","","false","","","","","","","","","","null","","1272.3999999761581","","3","0","null","null","arrowup","[0.675,0.325,0.85,0.15]","","",""
"sailing-trial","139","794072","0.0-11.0-96.0","","","","false","","","","","","","","","","1240.6999999284744","","96.39999997615814","","1","1","arrowleft","0","arrowright","[0.325,0.675,0.15,0.85]","","",""
"sailing-trial","140","797316","0.0-11.0-97.0","","","","false","","","","","","","","","","null","","1846.1000000238419","","2","0","null","null","arrowup","[0.325,0.675,0.15,0.85]","","",""
"sailing-trial","141","800670","0.0-11.0-98.0","","","","false","","","","","","","","","","890","","364","","2","0","arrowright","1","arrowleft","[0.325,0.675,0.15,0.85]","","",""
"sailing-trial","142","802374","0.0-11.0-99.0","","","","false","","","","","","","","","","null","","96","","2","1","null","null","arrowup","[0.325,0.675,0.15,0.85]","","",""
"sailing-trial","143","806949","0.0-11.0-100.0","","","","false","","","","","","","","","","224.70000004768372","","689.5","","2","0","arrowright","1","arrowleft","[0.325,0.675,0.15,0.85]","","",""
"sailing-trial","144","809750","0.0-11.0-101.0","","","","false","","","","","","","","","","null","","1072.8000000715256","","0","0","null","null","arrowup","[0.325,0.675,0.15,0.85]","","",""
"sailing-trial","145","814333","0.0-11.0-102.0","","","","false","","","","","","","","","","1544.7000000476837","","391","","0","0","arrowleft","0","arrowleft","[0.325,0.675,0.15,0.85]","","",""
"sailing-trial","146","816260","0.0-11.0-103.0","","","","false","","","","","","","","","","null","","530.0999999046326","","0","0","null","null","arrowup","[0.325,0.675,0.15,0.85]","","",""
"sailing-trial","147","820972","0.0-11.0-104.0","","","","false","","","","","","","","","","1209.5999999046326","","56.60000002384186","","2","0","arrowright","1","arrowleft","[0.325,0.675,0.15,0.85]","","",""
"sailing-trial","148","823623","0.0-11.0-105.0","","","","false","","","","","","","","","","null","","978.0999999046326","","2","1","null","null","arrowup","[0.325,0.675,0.15,0.85]","","",""
"sailing-trial","149","825973","0.0-11.0-106.0","","","","false","","","","","","","","","","71.29999995231628","","142.79999995231628","","0","0","arrowleft","0","arrowleft","[0.325,0.675,0.15,0.85]","","",""
"sailing-trial","150","829374","0.0-11.0-107.0","","","","false","","","","","","","","","","null","","2313.1999999284744","","1","0","null","null","arrowup","[0.325,0.675,0.15,0.85]","","",""
"sailing-trial","151","832222","0.0-11.0-108.0","","","","false","","","","","","","","","","104.60000002384186","","184.09999990463257","","0","1","arrowleft","0","arrowleft","[0.325,0.675,0.15,0.85]","","",""
"sailing-trial","152","835856","0.0-11.0-109.0","","","","false","","","","","","","","","","null","","2065","","3","1","null","null","arrowup","[0.325,0.675,0.15,0.85]","","",""
"sailing-trial","153","842289","0.0-11.0-110.0","","","","false","","","","","","","","","","301.89999997615814","","3420.3000000715256","","3","1","arrowright","1","arrowright","[0.325,0.675,0.15,0.85]","","",""
"sailing-trial","154","845656","0.0-11.0-111.0","","","","false","","","","","","","","","","null","","1765.7000000476837","","3","1","null","null","arrowup","[0.325,0.675,0.15,0.85]","","",""
"sailing-trial","155","850290","0.0-11.0-112.0","","","","false","","","","","","","","","","701.6000000238419","","604.5","","1","1","arrowleft","0","arrowright","[0.15,0.85,0.325,0.675]","","",""
"sailing-trial","156","853134","0.0-11.0-113.0","","","","false","","","","","","","","","","null","","1493.1000000238419","","2","0","null","null","arrowup","[0.15,0.85,0.325,0.675]","","",""
"sailing-trial","157","856414","0.0-11.0-114.0","","","","false","","","","","","","","","","361.8000000715256","","727.8999999761581","","2","0","arrowright","1","arrowleft","[0.15,0.85,0.325,0.675]","","",""
"sailing-trial","158","857798","0.0-11.0-115.0","","","","false","","","","","","","","","","null","","321.2999999523163","","2","0","null","null","arrowup","[0.15,0.85,0.325,0.675]","","",""
"sailing-trial","159","860919","0.0-11.0-116.0","","","","false","","","","","","","","","","472.7999999523163","","495.5","","0","0","arrowleft","0","arrowleft","[0.15,0.85,0.325,0.675]","","",""
"sailing-trial","160","862214","0.0-11.0-117.0","","","","false","","","","","","","","","","null","","56.200000047683716","","0","0","null","null","arrowup","[0.15,0.85,0.325,0.675]","","",""
"sailing-trial","161","865424","0.0-11.0-118.0","","","","false","","","","","","","","","","90.5","","453.40000009536743","","2","1","arrowright","1","arrowleft","[0.15,0.85,0.325,0.675]","","",""
"sailing-trial","162","866742","0.0-11.0-119.0","","","","false","","","","","","","","","","null","","119.29999995231628","","2","0","null","null","arrowup","[0.15,0.85,0.325,0.675]","","",""
"sailing-trial","163","869415","0.0-11.0-120.0","","","","false","","","","","","","","","","17.700000047683716","","435.60000002384186","","0","0","arrowleft","0","arrowleft","[0.15,0.85,0.325,0.675]","","",""
"sailing-trial","164","870671","0.0-11.0-121.0","","","","false","","","","","","","","","","null","","80.80000007152557","","2","0","null","null","arrowup","[0.15,0.85,0.325,0.675]","","",""
"sailing-trial","165","873941","0.0-11.0-122.0","","","","false","","","","","","","","","","544.8999999761581","","114.20000004768372","","3","1","arrowright","1","arrowright","[0.15,0.85,0.325,0.675]","","",""
"sailing-trial","166","875952","0.0-11.0-123.0","","","","false","","","","","","","","","","null","","834.3999999761581","","0","0","null","null","arrowup","[0.15,0.85,0.325,0.675]","","",""
"sailing-trial","167","880659","0.0-11.0-124.0","","","","false","","","","","","","","","","1072.2000000476837","","1025.8999999761581","","1","1","arrowleft","0","arrowright","[0.15,0.85,0.325,0.675]","","",""
"sailing-trial","168","883384","0.0-11.0-125.0","","","","false","","","","","","","","","","null","","1646.5999999046326","","0","0","null","null","arrowup","[0.15,0.85,0.325,0.675]","","",""
"sailing-trial","169","887793","0.0-11.0-126.0","","","","false","","","","","","","","","","1040.6000000238419","","377.3000000715256","","2","1","arrowright","1","arrowleft","[0.15,0.85,0.325,0.675]","","",""
"sailing-trial","170","891536","0.0-11.0-127.0","","","","false","","","","","","","","","","null","","2191.899999976158","","0","0","null","null","arrowup","[0.15,0.85,0.325,0.675]","","",""
"sailing-trial","171","895176","0.0-11.0-128.0","","","","false","","","","","","","","","","353.39999997615814","","447.10000002384186","","3","1","arrowright","1","arrowright","[0.15,0.85,0.325,0.675]","","",""
"sailing-trial","172","898010","0.0-11.0-129.0","","","","false","","","","","","","","","","null","","993.2999999523163","","2","1","null","null","arrowup","[0.15,0.85,0.325,0.675]","","",""
"sailing-trial","173","901296","0.0-11.0-130.0","","","","false","","","","","","","","","","614.8999999761581","","441.2999999523163","","2","0","arrowright","1","arrowleft","[0.325,0.675,0.15,0.85]","","",""
"sailing-trial","174","903927","0.0-11.0-131.0","","","","false","","","","","","","","","","null","","1561.6000000238419","","2","0","null","null","arrowup","[0.325,0.675,0.15,0.85]","","",""
"sailing-trial","175","907337","0.0-11.0-132.0","","","","false","","","","","","","","","","977.3999999761581","","285.6999999284744","","2","0","arrowright","1","arrowleft","[0.325,0.675,0.15,0.85]","","",""
"sailing-trial","176","911776","0.0-11.0-133.0","","","","false","","","","","","","","","","null","","2832.5","","3","1","null","null","arrowup","[0.325,0.675,0.15,0.85]","","",""
"sailing-trial","177","918194","0.0-11.0-134.0","","","","false","","","","","","","","","","890.6999999284744","","1520.9000000953674","","0","1","arrowleft","0","arrowleft","[0.325,0.675,0.15,0.85]","","",""
"sailing-trial","178","920962","0.0-11.0-135.0","","","","false","","","","","","","","","","null","","1280.2999999523163","","0","0","null","null","arrowup","[0.325,0.675,0.15,0.85]","","",""
"sailing-trial","179","924752","0.0-11.0-136.0","","","","false","","","","","","","","","","576.6999999284744","","251.39999997615814","","0","0","arrowleft","0","arrowleft","[0.325,0.675,0.15,0.85]","","",""
"sailing-trial","180","928287","0.0-11.0-137.0","","","","false","","","","","","","","","","null","","2265.399999976158","","0","0","null","null","arrowup","[0.325,0.675,0.15,0.85]","","",""
"sailing-trial","181","932072","0.0-11.0-138.0","","","","false","","","","","","","","","","299","","643.5","","2","0","arrowright","1","arrowleft","[0.325,0.675,0.15,0.85]","","",""
"sailing-trial","182","935297","0.0-11.0-139.0","","","","false","","","","","","","","","","null","","1762.4000000953674","","2","0","null","null","arrowup","[0.325,0.675,0.15,0.85]","","",""
"sailing-trial","183","939778","0.0-11.0-140.0","","","","false","","","","","","","","","","416.39999997615814","","494.2999999523163","","3","1","arrowright","1","arrowright","[0.325,0.675,0.15,0.85]","","",""
"sailing-trial","184","943095","0.0-11.0-141.0","","","","false","","","","","","","","","","null","","1409.3999999761581","","3","1","null","null","arrowup","[0.325,0.675,0.15,0.85]","","",""
"sailing-trial","185","947061","0.0-11.0-142.0","","","","false","","","","","","","","","","525.1000000238419","","323.10000002384186","","3","1","arrowright","1","arrowright","[0.325,0.675,0.15,0.85]","","",""
"sailing-trial","186","949911","0.0-11.0-143.0","","","","false","","","","","","","","","","null","","1173.8999999761581","","2","1","null","null","arrowup","[0.325,0.675,0.15,0.85]","","",""
"sailing-trial","187","952995","0.0-11.0-144.0","","","","false","","","","","","","","","","36.10000002384186","","84.19999992847443","","3","1","arrowright","1","arrowright","[0.325,0.675,0.15,0.85]","","",""
"sailing-trial","188","955187","0.0-11.0-145.0","","","","false","","","","","","","","","","null","","1073.2000000476837","","0","0","null","null","arrowup","[0.325,0.675,0.15,0.85]","","",""
"sailing-trial","189","959467","0.0-11.0-146.0","","","","false","","","","","","","","","","800.6000000238419","","307.89999997615814","","1","0","arrowleft","0","arrowright","[0.675,0.325,0.85,0.15]","","",""
"sailing-trial","190","962114","0.0-11.0-147.0","","","","false","","","","","","","","","","null","","1088.7999999523163","","1","0","null","null","arrowup","[0.675,0.325,0.85,0.15]","","",""
"sailing-trial","191","966002","0.0-11.0-148.0","","","","false","","","","","","","","","","513.7000000476837","","234.39999997615814","","3","0","arrowright","1","arrowright","[0.675,0.325,0.85,0.15]","","",""
"sailing-trial","192","968928","0.0-11.0-149.0","","","","false","","","","","","","","","","null","","1241.3999999761581","","0","1","null","null","arrowup","[0.675,0.325,0.85,0.15]","","",""
"sailing-trial","193","973396","0.0-11.0-150.0","","","","false","","","","","","","","","","699.1000000238419","","400.60000002384186","","2","1","arrowright","1","arrowleft","[0.675,0.325,0.85,0.15]","","",""
"sailing-trial","194","976397","0.0-11.0-151.0","","","","false","","","","","","","","","","null","","1168.3000000715256","","3","1","null","null","arrowup","[0.675,0.325,0.85,0.15]","","",""
"sailing-trial","195","980803","0.0-11.0-152.0","","","","false","","","","","","","","","","1607.0999999046326","","58","","1","0","arrowleft","0","arrowright","[0.675,0.325,0.85,0.15]","","",""
"sailing-trial","196","983427","0.0-11.0-153.0","","","","false","","","","","","","","","","null","","1082.1999999284744","","1","0","null","null","arrowup","[0.675,0.325,0.85,0.15]","","",""
"sailing-trial","197","987995","0.0-11.0-154.0","","","","false","","","","","","","","","","1272.1000000238419","","463","","2","1","arrowright","1","arrowleft","[0.675,0.325,0.85,0.15]","","",""
"sailing-trial","198","991644","0.0-11.0-155.0","","","","false","","","","","","","","","","null","","2161.399999976158","","3","0","null","null","arrowup","[0.675,0.325,0.85,0.15]","","",""
"sailing-trial","199","996279","0.0-11.0-156.0","","","","false","","","","","","","","","","1328.7999999523163","","436.60000002384186","","1","1","arrowleft","0","arrowright","[0.675,0.325,0.85,0.15]","","",""
"sailing-trial","200","998931","0.0-11.0-157.0","","","","false","","","","","","","","","","null","","1500.1000000238419","","3","0","null","null","arrowup","[0.675,0.325,0.85,0.15]","","",""
"sailing-trial","201","1002979","0.0-11.0-158.0","","","","false","","","","","","","","","","449.39999997615814","","619.0999999046326","","2","1","arrowright","1","arrowleft","[0.675,0.325,0.85,0.15]","","",""
"sailing-trial","202","1004779","0.0-11.0-159.0","","","","false","","","","","","","","","","null","","152.19999992847443","","2","1","null","null","arrowup","[0.675,0.325,0.85,0.15]","","",""
"sailing-trial","203","1008516","0.0-11.0-160.0","","","","false","","","","","","","","","","1130.1000000238419","","158.69999992847443","","0","0","arrowleft","0","arrowleft","[0.675,0.325,0.85,0.15]","","",""
"sailing-trial","204","1009683","0.0-11.0-161.0","","","","false","","","","","","","","","","null","","111.70000004768372","","1","0","null","null","arrowup","[0.675,0.325,0.85,0.15]","","",""
"sailing-trial","205","1012452","0.0-11.0-162.0","","","","false","","","","","","","","","","497.6999999284744","","35.199999928474426","","0","0","arrowleft","0","arrowleft","[0.15,0.85,0.325,0.675]","","",""
"sailing-trial","206","1014612","0.0-11.0-163.0","","","","false","","","","","","","","","","null","","159","","1","1","null","null","arrowup","[0.15,0.85,0.325,0.675]","","",""
"sailing-trial","207","1017695","0.0-11.0-164.0","","","","false","","","","","","","","","","456.3000000715256","","80.60000002384186","","2","1","arrowright","1","arrowleft","[0.15,0.85,0.325,0.675]","","",""
"sailing-trial","208","1019662","0.0-11.0-165.0","","","","false","","","","","","","","","","null","","100.60000002384186","","1","1","null","null","arrowup","[0.15,0.85,0.325,0.675]","","",""
"sailing-trial","209","1022513","0.0-11.0-166.0","","","","false","","","","","","","","","","64.39999997615814","","213.39999997615814","","3","1","arrowright","1","arrowright","[0.15,0.85,0.325,0.675]","","",""
"sailing-trial","210","1024279","0.0-11.0-167.0","","","","false","","","","","","","","","","null","","107.89999997615814","","3","1","null","null","arrowup","[0.15,0.85,0.325,0.675]","","",""
"sailing-trial","211","1028228","0.0-11.0-168.0","","","","false","","","","","","","","","","733.3999999761581","","499.2999999523163","","3","0","arrowright","1","arrowright","[0.15,0.85,0.325,0.675]","","",""
"sailing-trial","212","1030713","0.0-11.0-169.0","","","","false","","","","","","","","","","null","","497.39999997615814","","2","1","null","null","arrowup","[0.15,0.85,0.325,0.675]","","",""
"sailing-trial","213","1034012","0.0-11.0-170.0","","","","false","","","","","","","","","","229.10000002384186","","277.6999999284744","","3","1","arrowright","1","arrowright","[0.15,0.85,0.325,0.675]","","",""
"sailing-trial","214","1035445","0.0-11.0-171.0","","","","false","","","","","","","","","","null","","304.6999999284744","","2","0","null","null","arrowup","[0.15,0.85,0.325,0.675]","","",""
"sailing-trial","215","1039296","0.0-11.0-172.0","","","","false","","","","","","","","","","904","","94.19999992847443","","1","1","arrowleft","0","arrowright","[0.15,0.85,0.325,0.675]","","",""
"sailing-trial","216","1042444","0.0-11.0-173.0","","","","false","","","","","","","","","","null","","1309.2999999523163","","0","0","null","null","arrowup","[0.15,0.85,0.325,0.675]","","",""
"sailing-trial","217","1046388","0.0-11.0-174.0","","","","false","","","","","","","","","","936.7000000476837","","379.8000000715256","","0","0","arrowleft","0","arrowleft","[0.15,0.85,0.325,0.675]","","",""
"sailing-trial","218","1051980","0.0-11.0-175.0","","","","false","","","","","","","","","","null","","3609.2000000476837","","2","1","null","null","arrowup","[0.15,0.85,0.325,0.675]","","",""
"sailing-trial","219","1056565","0.0-11.0-176.0","","","","false","","","","","","","","","","1201.8000000715256","","100","","3","1","arrowright","1","arrowright","[0.15,0.85,0.325,0.675]","","",""
"sailing-trial","220","1061381","0.0-11.0-177.0","","","","false","","","","","","","","","","null","","3233.7000000476837","","3","1","null","null","arrowup","[0.15,0.85,0.325,0.675]","","",""
"sailing-trial","221","1065997","0.0-11.0-178.0","","","","false","","","","","","","","","","937.7999999523163","","358.2000000476837","","1","1","arrowleft","0","arrowright","[0.15,0.85,0.325,0.675]","","",""
"sailing-trial","222","1069781","0.0-11.0-179.0","","","","false","","","","","","","","","","null","","1536.3999999761581","","0","1","null","null","arrowup","[0.15,0.85,0.325,0.675]","","",""
"sailing-trial","223","1074565","0.0-11.0-180.0","","","","false","","","","","","","","","","185.20000004768372","","1196.3000000715256","","2","1","arrowright","1","arrowleft","[0.675,0.325,0.85,0.15]","","",""
"sailing-trial","224","1078486","0.0-11.0-181.0","","","","false","","","","","","","","","","null","","2890","","1","0","null","null","arrowup","[0.675,0.325,0.85,0.15]","","",""
"sailing-trial","225","1082317","0.0-11.0-182.0","","","","false","","","","","","","","","","457","","476.5","","1","1","arrowleft","0","arrowright","[0.675,0.325,0.85,0.15]","","",""
"sailing-trial","226","1086265","0.0-11.0-183.0","","","","false","","","","","","","","","","null","","2162.7999999523163","","2","1","null","null","arrowup","[0.675,0.325,0.85,0.15]","","",""
"sailing-trial","227","1090166","0.0-11.0-184.0","","","","false","","","","","","","","","","126.30000007152557","","458.5","","2","1","arrowright","1","arrowleft","[0.675,0.325,0.85,0.15]","","",""
"sailing-trial","228","1092933","0.0-11.0-185.0","","","","false","","","","","","","","","","null","","346.2000000476837","","1","0","null","null","arrowup","[0.675,0.325,0.85,0.15]","","",""
"sailing-trial","229","1099447","0.0-11.0-186.0","","","","false","","","","","","","","","","930.0999999046326","","2504.5999999046326","","1","0","arrowleft","0","arrowright","[0.675,0.325,0.85,0.15]","","",""
"sailing-trial","230","1100942","0.0-11.0-187.0","","","","false","","","","","","","","","","null","","16.399999976158142","","1","0","null","null","arrowup","[0.675,0.325,0.85,0.15]","","",""
"sailing-trial","231","1105399","0.0-11.0-188.0","","","","false","","","","","","","","","","1049.7000000476837","","451.39999997615814","","2","1","arrowright","1","arrowleft","[0.675,0.325,0.85,0.15]","","",""
"sailing-trial","232","1108663","0.0-11.0-189.0","","","","false","","","","","","","","","","null","","1847.8999999761581","","0","0","null","null","arrowup","[0.675,0.325,0.85,0.15]","","",""
"sailing-trial","233","1112832","0.0-11.0-190.0","","","","false","","","","","","","","","","767.5999999046326","","578.2000000476837","","2","1","arrowright","1","arrowleft","[0.675,0.325,0.85,0.15]","","",""
"sailing-trial","234","1115609","0.0-11.0-191.0","","","","false","","","","","","","","","","null","","1127.1999999284744","","3","1","null","null","arrowup","[0.675,0.325,0.85,0.15]","","",""
"sailing-trial","235","1118199","0.0-11.0-192.0","","","","false","","","","","","","","","","200.70000004768372","","283.2000000476837","","1","0","arrowleft","0","arrowright","[0.675,0.325,0.85,0.15]","","",""
"sailing-trial","236","1119519","0.0-11.0-193.0","","","","false","","","","","","","","","","null","","17.699999928474426","","3","0","null","null","arrowup","[0.675,0.325,0.85,0.15]","","",""
"sailing-trial","237","1123072","0.0-11.0-194.0","","","","false","","","","","","","","","","850.1000000238419","","164.5","","3","0","arrowright","1","arrowright","[0.675,0.325,0.85,0.15]","","",""
"sailing-trial","238","1126984","0.0-11.0-195.0","","","","false","","","","","","","","","","null","","2312.2000000476837","","0","1","null","null","arrowup","[0.675,0.325,0.85,0.15]","","",""
"sailing-trial","239","1130917","0.0-11.0-196.0","","","","false","","","","","","","","","","41.200000047683716","","657.2000000476837","","2","1","arrowright","1","arrowleft","[0.675,0.325,0.85,0.15]","","",""
"sailing-trial","240","1134817","0.0-11.0-197.0","","","","false","","","","","","","","","","null","","1899.6000000238419","","2","1","null","null","arrowup","[0.675,0.325,0.85,0.15]","","",""
"sailing-trial","241","1138232","0.0-11.0-198.0","","","","false","","","","","","","","","","647.8999999761581","","465","","2","0","arrowright","1","arrowleft","[0.85,0.15,0.675,0.325]","","",""
"sailing-trial","242","1140704","0.0-11.0-199.0","","","","false","","","","","","","","","","null","","1241.3999999761581","","2","0","null","null","arrowup","[0.85,0.15,0.675,0.325]","","",""
"sailing-trial","243","1144550","0.0-11.0-200.0","","","","false","","","","","","","","","","625.3999999761581","","284.60000002384186","","3","1","arrowright","1","arrowright","[0.85,0.15,0.675,0.325]","","",""
"sailing-trial","244","1147624","0.0-11.0-201.0","","","","false","","","","","","","","","","null","","1963.4000000953674","","1","0","null","null","arrowup","[0.85,0.15,0.675,0.325]","","",""
"sailing-trial","245","1150552","0.0-11.0-202.0","","","","false","","","","","","","","","","649.5","","176.79999995231628","","1","0","arrowleft","0","arrowright","[0.85,0.15,0.675,0.325]","","",""
"sailing-trial","246","1152704","0.0-11.0-203.0","","","","false","","","","","","","","","","null","","770.2000000476837","","1","0","null","null","arrowup","[0.85,0.15,0.675,0.325]","","",""
"sailing-trial","247","1156736","0.0-11.0-204.0","","","","false","","","","","","","","","","585.7000000476837","","1255.8999999761581","","3","0","arrowright","1","arrowright","[0.85,0.15,0.675,0.325]","","",""
"sailing-trial","248","1158770","0.0-11.0-205.0","","","","false","","","","","","","","","","null","","969.7999999523163","","1","0","null","null","arrowup","[0.85,0.15,0.675,0.325]","","",""
"sailing-trial","249","1163633","0.0-11.0-206.0","","","","false","","","","","","","","","","656.0999999046326","","2090.2999999523163","","1","0","arrowleft","0","arrowright","[0.85,0.15,0.675,0.325]","","",""
"sailing-trial","250","1166353","0.0-11.0-207.0","","","","false","","","","","","","","","","null","","770","","1","1","null","null","arrowup","[0.85,0.15,0.675,0.325]","","",""
"sailing-trial","251","1168968","0.0-11.0-208.0","","","","false","","","","","","","","","","96.79999995231628","","320.60000002384186","","1","0","arrowleft","0","arrowright","[0.85,0.15,0.675,0.325]","","",""
"sailing-trial","252","1171101","0.0-11.0-209.0","","","","false","","","","","","","","","","null","","265.5","","0","1","null","null","arrowup","[0.85,0.15,0.675,0.325]","","",""
"sailing-trial","253","1174551","0.0-11.0-210.0","","","","false","","","","","","","","","","396.7000000476837","","343.2999999523163","","2","1","arrowright","1","arrowleft","[0.85,0.15,0.675,0.325]","","",""
"sailing-trial","254","1178762","0.0-11.0-211.0","","","","false","","","","","","","","","","null","","2858.2999999523163","","1","0","null","null","arrowup","[0.85,0.15,0.675,0.325]","","",""
"sailing-trial","255","1182242","0.0-11.0-212.0","","","","false","","","","","","","","","","760.2999999523163","","477.7000000476837","","2","0","arrowright","1","arrowleft","[0.85,0.15,0.675,0.325]","","",""
"sailing-trial","256","1184770","0.0-11.0-213.0","","","","false","","","","","","","","","","null","","888.5","","0","1","null","null","arrowup","[0.85,0.15,0.675,0.325]","","",""
"sailing-trial","257","1188003","0.0-11.0-214.0","","","","false","","","","","","","","","","233","","91.10000002384186","","0","1","arrowleft","0","arrowleft","[0.85,0.15,0.675,0.325]","","",""
"sailing-trial","258","1190858","0.0-11.0-215.0","","","","false","","","","","","","","","","null","","823.5","","3","0","null","null","arrowup","[0.85,0.15,0.675,0.325]","","",""
"sailing-trial","259","1194469","0.0-11.0-216.0","","","","false","","","","","","","","","","657.4000000953674","","254.10000002384186","","0","1","arrowleft","0","arrowleft","[0.85,0.15,0.675,0.325]","","",""
"sailing-trial","260","1197568","0.0-11.0-217.0","","","","false","","","","","","","","","","null","","1558.5","","2","1","null","null","arrowup","[0.85,0.15,0.675,0.325]","","",""
"sailing-trial","261","1201098","0.0-11.0-218.0","","","","false","","","","","","","","","","666.3999999761581","","48.799999952316284","","3","0","arrowright","1","arrowright","[0.675,0.325,0.85,0.15]","","",""
"sailing-trial","262","1203298","0.0-11.0-219.0","","","","false","","","","","","","","","","null","","232.5","","3","0","null","null","arrowup","[0.675,0.325,0.85,0.15]","","",""
"sailing-trial","263","1208074","0.0-11.0-220.0","","","","false","","","","","","","","","","1681.5999999046326","","844.6999999284744","","1","0","arrowleft","0","arrowright","[0.675,0.325,0.85,0.15]","","",""
"sailing-trial","264","1210787","0.0-11.0-221.0","","","","false","","","","","","","","","","null","","1048.5","","2","1","null","null","arrowup","[0.675,0.325,0.85,0.15]","","",""
"sailing-trial","265","1214386","0.0-11.0-222.0","","","","false","","","","","","","","","","344.5","","414.40000009536743","","2","1","arrowright","1","arrowleft","[0.675,0.325,0.85,0.15]","","",""
"sailing-trial","266","1216275","0.0-11.0-223.0","","","","false","","","","","","","","","","null","","609.5","","3","0","null","null","arrowup","[0.675,0.325,0.85,0.15]","","",""
"sailing-trial","267","1220119","0.0-11.0-224.0","","","","false","","","","","","","","","","600.8999999761581","","328.09999990463257","","0","1","arrowleft","0","arrowleft","[0.675,0.325,0.85,0.15]","","",""
"sailing-trial","268","1223719","0.0-11.0-225.0","","","","false","","","","","","","","","","null","","1236.1000000238419","","2","1","null","null","arrowup","[0.675,0.325,0.85,0.15]","","",""
"sailing-trial","269","1227738","0.0-11.0-226.0","","","","false","","","","","","","","","","507.7999999523163","","162.30000007152557","","3","0","arrowright","1","arrowright","[0.675,0.325,0.85,0.15]","","",""
"sailing-trial","270","1230364","0.0-11.0-227.0","","","","false","","","","","","","","","","null","","1265.5","","0","0","null","null","arrowup","[0.675,0.325,0.85,0.15]","","",""
"sailing-trial","271","1234254","0.0-11.0-228.0","","","","false","","","","","","","","","","664.1999999284744","","417.89999997615814","","2","1","arrowright","1","arrowleft","[0.675,0.325,0.85,0.15]","","",""
"sailing-trial","272","1236504","0.0-11.0-229.0","","","","false","","","","","","","","","","null","","615","","0","1","null","null","arrowup","[0.675,0.325,0.85,0.15]","","",""
"sailing-trial","273","1240005","0.0-11.0-230.0","","","","false","","","","","","","","","","325.10000002384186","","313.5","","2","1","arrowright","1","arrowleft","[0.675,0.325,0.85,0.15]","","",""
"sailing-trial","274","1242971","0.0-11.0-231.0","","","","false","","","","","","","","","","null","","1550.8000000715256","","1","0","null","null","arrowup","[0.675,0.325,0.85,0.15]","","",""
"sailing-trial","275","1246803","0.0-11.0-232.0","","","","false","","","","","","","","","","505.60000002384186","","128","","1","1","arrowleft","0","arrowright","[0.675,0.325,0.85,0.15]","","",""
"sailing-trial","276","1248467","0.0-11.0-233.0","","","","false","","","","","","","","","","null","","426.7000000476837","","3","0","null","null","arrowup","[0.675,0.325,0.85,0.15]","","",""
"sailing-trial","277","1252627","0.0-11.0-234.0","","","","false","","","","","","","","","","536.1000000238419","","131.10000002384186","","3","0","arrowright","1","arrowright","[0.15,0.85,0.325,0.675]","","",""
"sailing-trial","278","1255937","0.0-11.0-235.0","","","","false","","","","","","","","","","null","","1881.1000000238419","","0","0","null","null","arrowup","[0.15,0.85,0.325,0.675]","","",""
"sailing-trial","279","1258987","0.0-11.0-236.0","","","","false","","","","","","","","","","451.2000000476837","","508.60000002384186","","2","0","arrowright","1","arrowleft","[0.15,0.85,0.325,0.675]","","",""
"sailing-trial","280","1261987","0.0-11.0-237.0","","","","false","","","","","","","","","","null","","1257.6999999284744","","3","1","null","null","arrowup","[0.15,0.85,0.325,0.675]","","",""
"sailing-trial","281","1265564","0.0-11.0-238.0","","","","false","","","","","","","","","","464.89999997615814","","704.9000000953674","","0","0","arrowleft","0","arrowleft","[0.15,0.85,0.325,0.675]","","",""
"sailing-trial","282","1268709","0.0-11.0-239.0","","","","false","","","","","","","","","","null","","1801.1000000238419","","0","0","null","null","arrowup","[0.15,0.85,0.325,0.675]","","",""
"sailing-trial","283","1272821","0.0-11.0-240.0","","","","false","","","","","","","","","","984","","679.6000000238419","","2","0","arrowright","1","arrowleft","[0.15,0.85,0.325,0.675]","","",""
"sailing-trial","284","1275091","0.0-11.0-241.0","","","","false","","","","","","","","","","null","","927.7999999523163","","2","0","null","null","arrowup","[0.15,0.85,0.325,0.675]","","",""
"sailing-trial","285","1278837","0.0-11.0-242.0","","","","false","","","","","","","","","","427.2999999523163","","438.5","","0","0","arrowleft","0","arrowleft","[0.15,0.85,0.325,0.675]","","",""
"sailing-trial","286","1281755","0.0-11.0-243.0","","","","false","","","","","","","","","","null","","1079.1999999284744","","1","1","null","null","arrowup","[0.15,0.85,0.325,0.675]","","",""
"sailing-trial","287","1285906","0.0-11.0-244.0","","","","false","","","","","","","","","","474.2000000476837","","216.70000004768372","","1","1","arrowleft","0","arrowright","[0.15,0.85,0.325,0.675]","","",""
"sailing-trial","288","1288106","0.0-11.0-245.0","","","","false","","","","","","","","","","null","","498.7000000476837","","3","1","null","null","arrowup","[0.15,0.85,0.325,0.675]","","",""
"sailing-trial","289","1292205","0.0-11.0-246.0","","","","false","","","","","","","","","","507.7000000476837","","690.5","","3","1","arrowright","1","arrowright","[0.15,0.85,0.325,0.675]","","",""
"sailing-trial","290","1294644","0.0-11.0-247.0","","","","false","","","","","","","","","","null","","1136.6000000238419","","1","0","null","null","arrowup","[0.15,0.85,0.325,0.675]","","",""
"sailing-trial","291","1298207","0.0-11.0-248.0","","","","false","","","","","","","","","","665.2999999523163","","439.1999999284744","","0","0","arrowleft","0","arrowleft","[0.15,0.85,0.325,0.675]","","",""
"sailing-trial","292","1301306","0.0-11.0-249.0","","","","false","","","","","","","","","","null","","1239.3000000715256","","2","1","null","null","arrowup","[0.15,0.85,0.325,0.675]","","",""
"sailing-trial","293","1304837","0.0-11.0-250.0","","","","false","","","","","","","","","","156.60000002384186","","183.89999997615814","","3","0","arrowright","1","arrowright","[0.15,0.85,0.325,0.675]","","",""
"sailing-trial","294","1307782","0.0-11.0-251.0","","","","false","","","","","","","","","","null","","1665.8999999761581","","1","0","null","null","arrowup","[0.15,0.85,0.325,0.675]","","",""
"sailing-trial","295","1312230","0.0-11.0-252.0","","","","false","","","","","","","","","","864.2999999523163","","626.4000000953674","","2","0","arrowright","1","arrowleft","[0.15,0.85,0.325,0.675]","","",""
"sailing-trial","296","1314725","0.0-11.0-253.0","","","","false","","","","","","","","","","null","","1192.7999999523163","","2","0","null","null","arrowup","[0.15,0.85,0.325,0.675]","","",""
"sailing-trial","297","1318686","0.0-11.0-254.0","","","","false","","","","","","","","","","874.2000000476837","","547.7000000476837","","2","0","arrowright","1","arrowleft","[0.325,0.675,0.15,0.85]","","",""
"sailing-trial","298","1321110","0.0-11.0-255.0","","","","false","","","","","","","","","","null","","1056.7999999523163","","2","0","null","null","arrowup","[0.325,0.675,0.15,0.85]","","",""
"sailing-trial","299","1324142","0.0-11.0-256.0","","","","false","","","","","","","","","","417.39999997615814","","62.5","","1","0","arrowleft","0","arrowright","[0.325,0.675,0.15,0.85]","","",""
"sailing-trial","300","1327358","0.0-11.0-257.0","","","","false","","","","","","","","","","null","","1281.2999999523163","","2","0","null","null","arrowup","[0.325,0.675,0.15,0.85]","","",""
"sailing-trial","301","1331023","0.0-11.0-258.0","","","","false","","","","","","","","","","778.2000000476837","","438.10000002384186","","0","0","arrowleft","0","arrowleft","[0.325,0.675,0.15,0.85]","","",""
"sailing-trial","302","1333559","0.0-11.0-259.0","","","","false","","","","","","","","","","null","","1184","","0","0","null","null","arrowup","[0.325,0.675,0.15,0.85]","","",""
"sailing-trial","303","1336840","0.0-11.0-260.0","","","","false","","","","","","","","","","248.19999992847443","","178.39999997615814","","3","1","arrowright","1","arrowright","[0.325,0.675,0.15,0.85]","","",""
"sailing-trial","304","1340007","0.0-11.0-261.0","","","","false","","","","","","","","","","null","","1327.5","","1","1","null","null","arrowup","[0.325,0.675,0.15,0.85]","","",""
"sailing-trial","305","1342723","0.0-11.0-262.0","","","","false","","","","","","","","","","40.700000047683716","","130.10000002384186","","1","1","arrowleft","0","arrowright","[0.325,0.675,0.15,0.85]","","",""
"sailing-trial","306","1345672","0.0-11.0-263.0","","","","false","","","","","","","","","","null","","1581.1999999284744","","0","0","null","null","arrowup","[0.325,0.675,0.15,0.85]","","",""
"sailing-trial","307","1349848","0.0-11.0-264.0","","","","false","","","","","","","","","","944.2000000476837","","419.2999999523163","","2","0","arrowright","1","arrowleft","[0.325,0.675,0.15,0.85]","","",""
"sailing-trial","308","1352774","0.0-11.0-265.0","","","","false","","","","","","","","","","null","","1304.2000000476837","","0","1","null","null","arrowup","[0.325,0.675,0.15,0.85]","","",""
"sailing-trial","309","1356088","0.0-11.0-266.0","","","","false","","","","","","","","","","426","","532.2000000476837","","1","0","arrowleft","0","arrowright","[0.325,0.675,0.15,0.85]","","",""
"sailing-trial","310","1359724","0.0-11.0-267.0","","","","false","","","","","","","","","","null","","1641.0999999046326","","3","1","null","null","arrowup","[0.325,0.675,0.15,0.85]","","",""
"sailing-trial","311","1362936","0.0-11.0-268.0","","","","false","","","","","","","","","","676.3999999761581","","92.29999995231628","","2","0","arrowright","1","arrowleft","[0.325,0.675,0.15,0.85]","","",""
"sailing-trial","312","1365675","0.0-11.0-269.0","","","","false","","","","","","","","","","null","","998.7999999523163","","0","1","null","null","arrowup","[0.325,0.675,0.15,0.85]","","",""
"sailing-trial","313","1369007","0.0-11.0-270.0","","","","false","","","","","","","","","","517.7000000476837","","34.60000002384186","","1","1","arrowleft","0","arrowright","[0.15,0.85,0.325,0.675]","","",""
"sailing-trial","314","1371496","0.0-11.0-271.0","","","","false","","","","","","","","","","null","","1176.6000000238419","","0","0","null","null","arrowup","[0.15,0.85,0.325,0.675]","","",""
"sailing-trial","315","1375640","0.0-11.0-272.0","","","","false","","","","","","","","","","513.3000000715256","","1315.2999999523163","","0","0","arrowleft","0","arrowleft","[0.15,0.85,0.325,0.675]","","",""
"sailing-trial","316","1377319","0.0-11.0-273.0","","","","false","","","","","","","","","","null","","481.10000002384186","","0","0","null","null","arrowup","[0.15,0.85,0.325,0.675]","","",""
"sailing-trial","317","1380127","0.0-11.0-274.0","","","","false","","","","","","","","","","424.89999997615814","","142.29999995231628","","2","0","arrowright","1","arrowleft","[0.15,0.85,0.325,0.675]","","",""
"sailing-trial","318","1383291","0.0-11.0-275.0","","","","false","","","","","","","","","","null","","1371.2000000476837","","3","1","null","null","arrowup","[0.15,0.85,0.325,0.675]","","",""
"sailing-trial","319","1386992","0.0-11.0-276.0","","","","false","","","","","","","","","","158","","769","","1","1","arrowleft","0","arrowright","[0.15,0.85,0.325,0.675]","","",""
"sailing-trial","320","1389741","0.0-11.0-277.0","","","","false","","","","","","","","","","null","","1201.7999999523163","","0","1","null","null","arrowup","[0.15,0.85,0.325,0.675]","","",""
"sailing-trial","321","1393032","0.0-11.0-278.0","","","","false","","","","","","","","","","299.90000009536743","","240.70000004768372","","2","0","arrowright","1","arrowleft","[0.15,0.85,0.325,0.675]","","",""
"sailing-trial","322","1396137","0.0-11.0-279.0","","","","false","","","","","","","","","","null","","1480.3999999761581","","1","0","null","null","arrowup","[0.15,0.85,0.325,0.675]","","",""
"sailing-trial","323","1398976","0.0-11.0-280.0","","","","false","","","","","","","","","","423.89999997615814","","261.5","","0","0","arrowleft","0","arrowleft","[0.15,0.85,0.325,0.675]","","",""
"sailing-trial","324","1402625","0.0-11.0-281.0","","","","false","","","","","","","","","","null","","2450","","1","0","null","null","arrowup","[0.15,0.85,0.325,0.675]","","",""
"sailing-trial","325","1406282","0.0-11.0-282.0","","","","false","","","","","","","","","","481.39999997615814","","839.2999999523163","","2","0","arrowright","1","arrowleft","[0.15,0.85,0.325,0.675]","","",""
"sailing-trial","326","1409177","0.0-11.0-283.0","","","","false","","","","","","","","","","null","","1207","","1","1","null","null","arrowup","[0.15,0.85,0.325,0.675]","","",""
"sailing-trial","327","1413127","0.0-11.0-284.0","","","","false","","","","","","","","","","168.69999992847443","","284.2000000476837","","3","1","arrowright","1","arrowright","[0.15,0.85,0.325,0.675]","","",""
"sailing-trial","328","1414850","0.0-11.0-285.0","","","","false","","","","","","","","","","null","","515.1999999284744","","1","0","null","null","arrowup","[0.15,0.85,0.325,0.675]","","",""
"sailing-trial","329","1419656","0.0-11.0-286.0","","","","false","","","","","","","","","","1560.8999999761581","","508","","0","0","arrowleft","0","arrowleft","[0.15,0.85,0.325,0.675]","","",""
"sailing-trial","330","1422289","0.0-11.0-287.0","","","","false","","","","","","","","","","null","","1361.3000000715256","","0","0","null","null","arrowup","[0.15,0.85,0.325,0.675]","","",""
"sailing-trial","331","1425274","0.0-11.0-288.0","","","","false","","","","","","","","","","392.5","","528.2000000476837","","3","0","arrowright","1","arrowright","[0.325,0.675,0.15,0.85]","","",""
"sailing-trial","332","1428342","0.0-11.0-289.0","","","","false","","","","","","","","","","null","","1063.6000000238419","","1","1","null","null","arrowup","[0.325,0.675,0.15,0.85]","","",""
"sailing-trial","333","1431185","0.0-11.0-290.0","","","","false","","","","","","","","","","228.29999995231628","","212.29999995231628","","2","0","arrowright","1","arrowleft","[0.325,0.675,0.15,0.85]","","",""
"sailing-trial","334","1434226","0.0-11.0-291.0","","","","false","","","","","","","","","","null","","1528.7000000476837","","3","0","null","null","arrowup","[0.325,0.675,0.15,0.85]","","",""
"sailing-trial","335","1437593","0.0-11.0-292.0","","","","false","","","","","","","","","","440.5","","344.40000009536743","","1","0","arrowleft","0","arrowright","[0.325,0.675,0.15,0.85]","","",""
"sailing-trial","336","1440909","0.0-11.0-293.0","","","","false","","","","","","","","","","null","","1809.2000000476837","","3","1","null","null","arrowup","[0.325,0.675,0.15,0.85]","","",""
"sailing-trial","337","1444242","0.0-11.0-294.0","","","","false","","","","","","","","","","221.10000002384186","","38.5","","2","0","arrowright","1","arrowleft","[0.325,0.675,0.15,0.85]","","",""
"sailing-trial","338","1446726","0.0-11.0-295.0","","","","false","","","","","","","","","","null","","641.2000000476837","","3","1","null","null","arrowup","[0.325,0.675,0.15,0.85]","","",""
"sailing-trial","339","1451395","0.0-11.0-296.0","","","","false","","","","","","","","","","628.8000000715256","","12.5","","0","0","arrowleft","0","arrowleft","[0.325,0.675,0.15,0.85]","","",""
"sailing-trial","340","1454893","0.0-11.0-297.0","","","","false","","","","","","","","","","null","","1119.4000000953674","","0","1","null","null","arrowup","[0.325,0.675,0.15,0.85]","","",""
"sailing-trial","341","1458476","0.0-11.0-298.0","","","","false","","","","","","","","","","334","","147.20000004768372","","3","1","arrowright","1","arrowright","[0.325,0.675,0.15,0.85]","","",""
"sailing-trial","342","1460578","0.0-11.0-299.0","","","","false","","","","","","","","","","null","","182.10000002384186","","0","0","null","null","arrowup","[0.325,0.675,0.15,0.85]","","",""
"sailing-trial","343","1465154","0.0-11.0-300.0","","","","false","","","","","","","","","","1273.5","","417.2999999523163","","1","0","arrowleft","0","arrowright","[0.325,0.675,0.15,0.85]","","",""
"sailing-trial","344","1467219","0.0-11.0-301.0","","","","false","","","","","","","","","","null","","760.8999999761581","","0","0","null","null","arrowup","[0.325,0.675,0.15,0.85]","","",""
"sailing-trial","345","1470555","0.0-11.0-302.0","","","","false","","","","","","","","","","632.9000000953674","","114.79999995231628","","2","0","arrowright","1","arrowleft","[0.325,0.675,0.15,0.85]","","",""
"sailing-trial","346","1475261","0.0-11.0-303.0","","","","false","","","","","","","","","","null","","2928.5","","3","1","null","null","arrowup","[0.325,0.675,0.15,0.85]","","",""
"sailing-trial","347","1481477","0.0-11.0-304.0","","","","false","","","","","","","","","","2365.399999976158","","498.89999997615814","","0","1","arrowleft","0","arrowleft","[0.325,0.675,0.15,0.85]","","",""
"sailing-trial","348","1484324","0.0-11.0-305.0","","","","false","","","","","","","","","","null","","1542.8999999761581","","3","0","null","null","arrowup","[0.325,0.675,0.15,0.85]","","",""
"sailing-trial","349","1489578","0.0-11.0-306.0","","","","false","","","","","","","","","","1696.1000000238419","","666.1000000238419","","3","1","arrowright","1","arrowright","[0.15,0.85,0.325,0.675]","","",""
"sailing-trial","350","1492062","0.0-11.0-307.0","","","","false","","","","","","","","","","null","","98.80000007152557","","2","1","null","null","arrowup","[0.15,0.85,0.325,0.675]","","",""
"sailing-trial","351","1496037","0.0-11.0-308.0","","","","false","","","","","","","","","","342.8000000715256","","1099.3000000715256","","0","0","arrowleft","0","arrowleft","[0.15,0.85,0.325,0.675]","","",""
"sailing-trial","352","1498762","0.0-11.0-309.0","","","","false","","","","","","","","","","null","","976.3999999761581","","3","1","null","null","arrowup","[0.15,0.85,0.325,0.675]","","",""
"sailing-trial","353","1501896","0.0-11.0-310.0","","","","false","","","","","","","","","","451.2999999523163","","163.70000004768372","","3","1","arrowright","1","arrowright","[0.15,0.85,0.325,0.675]","","",""
"sailing-trial","354","1505084","0.0-11.0-311.0","","","","false","","","","","","","","","","null","","1476.7999999523163","","3","1","null","null","arrowup","[0.15,0.85,0.325,0.675]","","",""
"sailing-trial","355","1511014","0.0-11.0-312.0","","","","false","","","","","","","","","","1928.4000000953674","","1379.6000000238419","","2","0","arrowright","1","arrowleft","[0.15,0.85,0.325,0.675]","","",""
"sailing-trial","356","1513324","0.0-11.0-313.0","","","","false","","","","","","","","","","null","","1072.2000000476837","","0","0","null","null","arrowup","[0.15,0.85,0.325,0.675]","","",""
"sailing-trial","357","1517113","0.0-11.0-314.0","","","","false","","","","","","","","","","570.8999999761581","","463.89999997615814","","2","1","arrowright","1","arrowleft","[0.15,0.85,0.325,0.675]","","",""
"sailing-trial","358","1522830","0.0-11.0-315.0","","","","false","","","","","","","","","","null","","4156.600000023842","","3","1","null","null","arrowup","[0.15,0.85,0.325,0.675]","","",""
"sailing-trial","359","1525989","0.0-11.0-316.0","","","","false","","","","","","","","","","224.29999995231628","","753.6000000238419","","0","0","arrowleft","0","arrowleft","[0.15,0.85,0.325,0.675]","","",""
"sailing-trial","360","1528252","0.0-11.0-317.0","","","","false","","","","","","","","","","null","","1089.7000000476837","","2","0","null","null","arrowup","[0.15,0.85,0.325,0.675]","","",""
"sailing-trial","361","1532462","0.0-11.0-318.0","","","","false","","","","","","","","","","505.7999999523163","","484.7999999523163","","2","1","arrowright","1","arrowleft","[0.15,0.85,0.325,0.675]","","",""
"sailing-trial","362","1536447","0.0-11.0-319.0","","","","false","","","","","","","","","","null","","2087.399999976158","","1","1","null","null","arrowup","[0.15,0.85,0.325,0.675]","","",""
"sailing-trial","363","1541198","0.0-11.0-320.0","","","","false","","","","","","","","","","703.2000000476837","","1206.3999999761581","","2","1","arrowright","1","arrowleft","[0.15,0.85,0.325,0.675]","","",""
"sailing-trial","364","1544681","0.0-11.0-321.0","","","","false","","","","","","","","","","null","","1721.1000000238419","","1","1","null","null","arrowup","[0.15,0.85,0.325,0.675]","","",""
"sailing-trial","365","1550030","0.0-11.0-322.0","","","","false","","","","","","","","","","534","","1731.1000000238419","","1","1","arrowleft","0","arrowright","[0.15,0.85,0.325,0.675]","","",""
"sailing-trial","366","1554047","0.0-11.0-323.0","","","","false","","","","","","","","","","null","","1297.1000000238419","","1","1","null","null","arrowup","[0.15,0.85,0.325,0.675]","","",""
"sailing-trial","367","1557997","0.0-11.0-324.0","","","","false","","","","","","","","","","1367.3999999761581","","363.1999999284744","","2","0","arrowright","1","arrowleft","[0.15,0.85,0.325,0.675]","","",""
"sailing-trial","368","1561030","0.0-11.0-325.0","","","","false","","","","","","","","","","null","","1073.8999999761581","","2","1","null","null","arrowup","[0.15,0.85,0.325,0.675]","","",""
"sailing-trial","369","1566081","0.0-11.0-326.0","","","","false","","","","","","","","","","993.2999999523163","","946","","3","1","arrowright","1","arrowright","[0.325,0.675,0.15,0.85]","","",""
"sailing-trial","370","1568830","0.0-11.0-327.0","","","","false","","","","","","","","","","null","","1238.5","","2","0","null","null","arrowup","[0.325,0.675,0.15,0.85]","","",""
"sailing-trial","371","1572814","0.0-11.0-328.0","","","","false","","","","","","","","","","762","","1060.0999999046326","","1","0","arrowleft","0","arrowright","[0.325,0.675,0.15,0.85]","","",""
"sailing-trial","372","1578598","0.0-11.0-329.0","","","","false","","","","","","","","","","null","","4114.199999928474","","1","1","null","null","arrowup","[0.325,0.675,0.15,0.85]","","",""
"sailing-trial","373","1583600","0.0-11.0-330.0","","","","false","","","","","","","","","","849.1999999284744","","994.6999999284744","","3","1","arrowright","1","arrowright","[0.325,0.675,0.15,0.85]","","",""
"sailing-trial","374","1586633","0.0-11.0-331.0","","","","false","","","","","","","","","","null","","1375.3999999761581","","3","1","null","null","arrowup","[0.325,0.675,0.15,0.85]","","",""
"sailing-trial","375","1590449","0.0-11.0-332.0","","","","false","","","","","","","","","","399.2000000476837","","547.3999999761581","","1","1","arrowleft","0","arrowright","[0.325,0.675,0.15,0.85]","","",""
"sailing-trial","376","1592855","0.0-11.0-333.0","","","","false","","","","","","","","","","null","","1039.7000000476837","","0","0","null","null","arrowup","[0.325,0.675,0.15,0.85]","","",""
"sailing-trial","377","1597376","0.0-11.0-334.0","","","","false","","","","","","","","","","1289","","669.6000000238419","","2","0","arrowright","1","arrowleft","[0.325,0.675,0.15,0.85]","","",""
"sailing-trial","378","1600414","0.0-11.0-335.0","","","","false","","","","","","","","","","null","","1329.1999999284744","","3","1","null","null","arrowup","[0.325,0.675,0.15,0.85]","","",""
"sailing-trial","379","1605681","0.0-11.0-336.0","","","","false","","","","","","","","","","1137.3999999761581","","1190.3999999761581","","2","1","arrowright","1","arrowleft","[0.325,0.675,0.15,0.85]","","",""
"sailing-trial","380","1609782","0.0-11.0-337.0","","","","false","","","","","","","","","","null","","1349.7999999523163","","0","1","null","null","arrowup","[0.325,0.675,0.15,0.85]","","",""
"sailing-trial","381","1615800","0.0-11.0-338.0","","","","false","","","","","","","","","","1562.6000000238419","","1350","","2","0","arrowright","1","arrowleft","[0.325,0.675,0.15,0.85]","","",""
"sailing-trial","382","1620367","0.0-11.0-339.0","","","","false","","","","","","","","","","null","","2944.5","","3","1","null","null","arrowup","[0.325,0.675,0.15,0.85]","","",""
"sailing-trial","383","1623966","0.0-11.0-340.0","","","","false","","","","","","","","","","321.1999999284744","","184.89999997615814","","1","1","arrowleft","0","arrowright","[0.325,0.675,0.15,0.85]","","",""
"sailing-trial","384","1626543","0.0-11.0-341.0","","","","false","","","","","","","","","","null","","1065.2999999523163","","2","0","null","null","arrowup","[0.325,0.675,0.15,0.85]","","",""
"sailing-trial","385","1630933","0.0-11.0-342.0","","","","false","","","","","","","","","","473.10000002384186","","995.5","","2","1","arrowright","1","arrowleft","[0.675,0.325,0.85,0.15]","","",""
"sailing-trial","386","1636415","0.0-11.0-343.0","","","","false","","","","","","","","","","null","","3932.600000023842","","2","1","null","null","arrowup","[0.675,0.325,0.85,0.15]","","",""
"sailing-trial","387","1641149","0.0-11.0-344.0","","","","false","","","","","","","","","","305.59999990463257","","879.2000000476837","","2","1","arrowright","1","arrowleft","[0.675,0.325,0.85,0.15]","","",""
"sailing-trial","388","1642866","0.0-11.0-345.0","","","","false","","","","","","","","","","null","","115","","0","1","null","null","arrowup","[0.675,0.325,0.85,0.15]","","",""
"sailing-trial","389","1645784","0.0-11.0-346.0","","","","false","","","","","","","","","","111.10000002384186","","228.80000007152557","","3","0","arrowright","1","arrowright","[0.675,0.325,0.85,0.15]","","",""
"sailing-trial","390","1648732","0.0-11.0-347.0","","","","false","","","","","","","","","","null","","1705.8999999761581","","3","0","null","null","arrowup","[0.675,0.325,0.85,0.15]","","",""
"sailing-trial","391","1652234","0.0-11.0-348.0","","","","false","","","","","","","","","","397","","342.5","","0","1","arrowleft","0","arrowleft","[0.675,0.325,0.85,0.15]","","",""
"sailing-trial","392","1654081","0.0-11.0-349.0","","","","false","","","","","","","","","","null","","407.10000002384186","","1","0","null","null","arrowup","[0.675,0.325,0.85,0.15]","","",""
"sailing-trial","393","1658383","0.0-11.0-350.0","","","","false","","","","","","","","","","792.4000000953674","","690.2000000476837","","2","1","arrowright","1","arrowleft","[0.675,0.325,0.85,0.15]","","",""
"sailing-trial","394","1661350","0.0-11.0-351.0","","","","false","","","","","","","","","","null","","1418.3999999761581","","0","1","null","null","arrowup","[0.675,0.325,0.85,0.15]","","",""
"sailing-trial","395","1665401","0.0-11.0-352.0","","","","false","","","","","","","","","","1315.7000000476837","","40.799999952316284","","2","1","arrowright","1","arrowleft","[0.675,0.325,0.85,0.15]","","",""
"sailing-trial","396","1668134","0.0-11.0-353.0","","","","false","","","","","","","","","","null","","1192.6000000238419","","0","1","null","null","arrowup","[0.675,0.325,0.85,0.15]","","",""
"sailing-trial","397","1670954","0.0-11.0-354.0","","","","false","","","","","","","","","","124.60000002384186","","256.60000002384186","","0","0","arrowleft","0","arrowleft","[0.675,0.325,0.85,0.15]","","",""
"sailing-trial","398","1673417","0.0-11.0-355.0","","","","false","","","","","","","","","","null","","936.8999999761581","","3","1","null","null","arrowup","[0.675,0.325,0.85,0.15]","","",""
"sailing-trial","399","1677984","0.0-11.0-356.0","","","","false","","","","","","","","","","177.70000004768372","","1309.6999999284744","","2","1","arrowright","1","arrowleft","[0.675,0.325,0.85,0.15]","","",""
"sailing-trial","400","1680067","0.0-11.0-357.0","","","","false","","","","","","","","","","null","","298.10000002384186","","2","1","null","null","arrowup","[0.675,0.325,0.85,0.15]","","",""
"sailing-trial","401","1683834","0.0-11.0-358.0","","","","false","","","","","","","","","","119.60000002384186","","635.7999999523163","","3","1","arrowright","1","arrowright","[0.675,0.325,0.85,0.15]","","",""
"sailing-trial","402","1688866","0.0-11.0-359.0","","","","false","","","","","","","","","","null","","2952.100000023842","","1","0","null","null","arrowup","[0.675,0.325,0.85,0.15]","","",""
"sailing-trial","403","1696485","0.0-11.0-360.0","","","","false","","","","","","","","","","2849.8000000715256","","2134.5","","3","1","arrowright","1","arrowright","[0.85,0.15,0.675,0.325]","","",""
"sailing-trial","404","1698469","0.0-11.0-361.0","","","","false","","","","","","","","","","null","","437.7000000476837","","0","1","null","null","arrowup","[0.85,0.15,0.675,0.325]","","",""
"sailing-trial","405","1701234","0.0-11.0-362.0","","","","false","","","","","","","","","","150.60000002384186","","523.1000000238419","","2","0","arrowright","1","arrowleft","[0.85,0.15,0.675,0.325]","","",""
"sailing-trial","406","1703955","0.0-11.0-363.0","","","","false","","","","","","","","","","null","","937.1999999284744","","1","0","null","null","arrowup","[0.85,0.15,0.675,0.325]","","",""
"sailing-trial","407","1709903","0.0-11.0-364.0","","","","false","","","","","","","","","","625.1999999284744","","2300.8000000715256","","0","1","arrowleft","0","arrowleft","[0.85,0.15,0.675,0.325]","","",""
"sailing-trial","408","1712452","0.0-11.0-365.0","","","","false","","","","","","","","","","null","","851.8999999761581","","2","1","null","null","arrowup","[0.85,0.15,0.675,0.325]","","",""
"sailing-trial","409","1717011","0.0-11.0-366.0","","","","false","","","","","","","","","","1762.1000000238419","","466.7999999523163","","2","0","arrowright","1","arrowleft","[0.85,0.15,0.675,0.325]","","",""
"sailing-trial","410","1721162","0.0-11.0-367.0","","","","false","","","","","","","","","","null","","2649.600000023842","","1","0","null","null","arrowup","[0.85,0.15,0.675,0.325]","","",""
"sailing-trial","411","1725270","0.0-11.0-368.0","","","","false","","","","","","","","","","786.7000000476837","","382","","2","1","arrowright","1","arrowleft","[0.85,0.15,0.675,0.325]","","",""
"sailing-trial","412","1729919","0.0-11.0-369.0","","","","false","","","","","","","","","","null","","2750.5","","3","1","null","null","arrowup","[0.85,0.15,0.675,0.325]","","",""
"sailing-trial","413","1734384","0.0-11.0-370.0","","","","false","","","","","","","","","","165.20000004768372","","1648.2000000476837","","0","1","arrowleft","0","arrowleft","[0.85,0.15,0.675,0.325]","","",""
"sailing-trial","414","1737685","0.0-11.0-371.0","","","","false","","","","","","","","","","null","","2004.1999999284744","","0","0","null","null","arrowup","[0.85,0.15,0.675,0.325]","","",""
"sailing-trial","415","1741103","0.0-11.0-372.0","","","","false","","","","","","","","","","504.09999990463257","","300.5","","2","1","arrowright","1","arrowleft","[0.85,0.15,0.675,0.325]","","",""
"sailing-trial","416","1742676","0.0-11.0-373.0","","","","false","","","","","","","","","","null","","213.60000002384186","","3","0","null","null","arrowup","[0.85,0.15,0.675,0.325]","","",""
"sailing-trial","417","1746316","0.0-11.0-374.0","","","","false","","","","","","","","","","561.0999999046326","","907","","1","0","arrowleft","0","arrowright","[0.85,0.15,0.675,0.325]","","",""
"sailing-trial","418","1750939","0.0-11.0-375.0","","","","false","","","","","","","","","","null","","3440.7000000476837","","1","0","null","null","arrowup","[0.85,0.15,0.675,0.325]","","",""
"sailing-trial","419","1754653","0.0-11.0-376.0","","","","false","","","","","","","","","","1042.2999999523163","","132.59999990463257","","2","1","arrowright","1","arrowleft","[0.675,0.325,0.85,0.15]","","",""
"sailing-trial","420","1756621","0.0-11.0-377.0","","","","false","","","","","","","","","","null","","510.89999997615814","","3","0","null","null","arrowup","[0.675,0.325,0.85,0.15]","","",""
"sailing-trial","421","1762003","0.0-11.0-378.0","","","","false","","","","","","","","","","873.2000000476837","","1640.5","","1","1","arrowleft","0","arrowright","[0.675,0.325,0.85,0.15]","","",""
"sailing-trial","422","1767269","0.0-11.0-379.0","","","","false","","","","","","","","","","null","","2241.899999976158","","0","0","null","null","arrowup","[0.675,0.325,0.85,0.15]","","",""
"sailing-trial","423","1776022","0.0-11.0-380.0","","","","false","","","","","","","","","","5280","","68.29999995231628","","1","1","arrowleft","0","arrowright","[0.675,0.325,0.85,0.15]","","",""
"sailing-trial","424","1779965","0.0-11.0-381.0","","","","false","","","","","","","","","","null","","2600.5","","1","0","null","null","arrowup","[0.675,0.325,0.85,0.15]","","",""
"sailing-trial","425","1784188","0.0-11.0-382.0","","","","false","","","","","","","","","","697.6000000238419","","953.7000000476837","","1","1","arrowleft","0","arrowright","[0.675,0.325,0.85,0.15]","","",""
"sailing-trial","426","1787662","0.0-11.0-383.0","","","","false","","","","","","","","","","null","","1953.5","","1","0","null","null","arrowup","[0.675,0.325,0.85,0.15]","","",""
"sailing-trial","427","1792471","0.0-11.0-384.0","","","","false","","","","","","","","","","840.6999999284744","","240.30000007152557","","2","1","arrowright","1","arrowleft","[0.675,0.325,0.85,0.15]","","",""
"sailing-trial","428","1794423","0.0-11.0-385.0","","","","false","","","","","","","","","","null","","606.6999999284744","","3","0","null","null","arrowup","[0.675,0.325,0.85,0.15]","","",""
"sailing-trial","429","1798123","0.0-11.0-386.0","","","","false","","","","","","","","","","535.5999999046326","","36.700000047683716","","1","1","arrowleft","0","arrowright","[0.675,0.325,0.85,0.15]","","",""
"sailing-trial","430","1800351","0.0-11.0-387.0","","","","false","","","","","","","","","","null","","186.69999992847443","","0","0","null","null","arrowup","[0.675,0.325,0.85,0.15]","","",""
"sailing-trial","431","1805054","0.0-11.0-388.0","","","","false","","","","","","","","","","1495.6999999284744","","721.6999999284744","","1","0","arrowleft","0","arrowright","[0.675,0.325,0.85,0.15]","","",""
"sailing-trial","432","1812598","0.0-11.0-389.0","","","","false","","","","","","","","","","null","","6114","","0","0","null","null","arrowup","[0.675,0.325,0.85,0.15]","","",""
"sailing-trial","433","1816608","0.0-11.0-390.0","","","","false","","","","","","","","","","1144.9000000953674","","174.80000007152557","","3","0","arrowright","1","arrowright","[0.675,0.325,0.85,0.15]","","",""
"sailing-trial","434","1819631","0.0-11.0-391.0","","","","false","","","","","","","","","","null","","1567.1000000238419","","1","0","null","null","arrowup","[0.675,0.325,0.85,0.15]","","",""
"sailing-trial","435","1823955","0.0-11.0-392.0","","","","false","","","","","","","","","","600.8999999761581","","459","","2","1","arrowright","1","arrowleft","[0.675,0.325,0.85,0.15]","","",""
"sailing-trial","436","1827690","0.0-11.0-393.0","","","","false","","","","","","","","","","null","","1612.2000000476837","","2","1","null","null","arrowup","[0.675,0.325,0.85,0.15]","","",""
"sailing-trial","437","1831956","0.0-11.0-394.0","","","","false","","","","","","","","","","1478.1999999284744","","19.300000071525574","","2","1","arrowright","1","arrowleft","[0.675,0.325,0.85,0.15]","","",""
"sailing-trial","438","1834640","0.0-11.0-395.0","","","","false","","","","","","","","","","null","","1148.2999999523163","","2","1","null","null","arrowup","[0.675,0.325,0.85,0.15]","","",""
"sailing-trial","439","1837590","0.0-11.0-396.0","","","","false","","","","","","","","","","103.69999992847443","","37.5","","2","1","arrowright","1","arrowleft","[0.675,0.325,0.85,0.15]","","",""
"sailing-trial","440","1840942","0.0-11.0-397.0","","","","false","","","","","","","","","","null","","2305.8000000715256","","2","0","null","null","arrowup","[0.675,0.325,0.85,0.15]","","",""
"sailing-trial","441","1844031","0.0-11.0-398.0","","","","false","","","","","","","","","","393.5","","238.10000002384186","","1","0","arrowleft","0","arrowright","[0.675,0.325,0.85,0.15]","","",""
"sailing-trial","442","1846367","0.0-11.0-399.0","","","","false","","","","","","","","","","null","","1160.8999999761581","","1","0","null","null","arrowup","[0.675,0.325,0.85,0.15]","","",""
"instructions","443","1851825","0.0-12.0","","","","","","","","","","5458","","","","","","","","","","","","","","","","[{""page_index"":0,""viewing_time"":5457.5}]"
"survey-debrief","444","1927246","0.0-13.0","","","","","","","","","","75418.30000007153","","","","","","","","","","","","","","{""difficulty"":""1"",""fun"":""1"",""clarity"":""5"",""strategy"":""i dont know"",""feedback"":""THIS IS THE MOST BORING THING IN THE WORLD!!!""}","",""
