"trial_type","trial_index","time_elapsed","internal_node_id","value","metadata","success","timeout","failed_images","failed_audio","failed_video","browser_interaction","low_quality","rt","stimulus","response","button_pressed","island_rt","island_response","boat_rt","boat_response","boat","reward","island_key","island","boat_key","reward_probabilities","responses","num_errors","view_history"
"pavlovia","0","6","0.0-0.0","","","","","","","","","","","","","","","","","","","","","","","","","",""
"call-function","1","6","0.0-1.0","","{""task_version"":""sailing_part1_v1"",""task_condition"":""good"",""boats"":[""C"",""D"",""A"",""B""],""boats_demo"":[""G"",""E"",""F"",""H""],""islands"":[""A"",""B""],""subject_id"":""14006"",""age"":""21"",""gender"":""Male""}","","","","","","","","","","","","","","","","","","","","","","","",""
"preload","2","3125","0.0-2.0","","","true","false","[]","[]","[]","[{""event"":""focus"",""trial"":0,""time"":1},{""event"":""blur"",""trial"":3,""time"":6347},{""event"":""focus"",""trial"":3,""time"":6375},{""event"":""fullscreenenter"",""trial"":3,""time"":6383}]","false","","","","","","","","","","","","","","","","",""
"fullscreen","3","7124","0.0-3.0","","","true","","","","","","","","","","","","","","","","","","","","","","",""
"audio-keyboard-response","4","9201","0.0-4.0-0.0","","","","","","","","","","1850.6666666666667","audio/beep_loop.wav"," ","","","","","","","","","","","","","",""
"audio-test","5","10655","0.0-4.0-1.0","","","","","","","","","","null","audio/turtle.mp3","","3","","","","","","","","","","","","",""
"audio-test","6","12787","0.0-4.0-2.0","","","","","","","","","","null","audio/shark.mp3","","2","","","","","","","","","","","","",""
"sailing-instructions","7","44884","0.0-5.0-0.0-0.0","","","","","","","","","","","","","","null","null","null","null","null","null","","","","","","",""
"sailing-trial","8","48961","0.0-5.0-0.0-1.0-0.0","","","","false","","","","","","","","","","2936","","null","","null","null","arrowleft","0","null","null","","",""
"sailing-trial","9","51052","0.0-5.0-0.0-1.0-1.0","","","","false","","","","","","","","","","968","","null","","null","null","arrowright","1","null","null","","",""
"sailing-trial","10","53477","0.0-5.0-0.0-1.0-2.0","","","","false","","","","","","","","","","1290","","null","","null","null","arrowleft","0","null","null","","",""
"sailing-instructions","11","95385","0.0-5.0-0.0-2.0","","","","","","","","","","","","","","null","null","null","null","0","null","","","","","","",""
"sailing-trial","12","99622","0.0-5.0-0.0-3.0-0.0","","","","false","","","","","","","","","","null","","1441","","2","1","null","null","arrowleft","[1,1,1,1]","","",""
"sailing-trial","13","102971","0.0-5.0-0.0-3.0-1.0","","","","false","","","","","","","","","","null","","474","","3","1","null","null","arrowright","[1,1,1,1]","","",""
"sailing-trial","14","107084","0.0-5.0-0.0-3.0-2.0","","","","false","","","","","","","","","","null","","702","","3","0","null","null","arrowright","[0,0,0,0]","","",""
"sailing-instructions","15","114466","0.0-5.0-0.0-4.0","","","","","","","","","","","","","","null","null","null","null","null","null","","","","","","",""
"sailing-comprehension","16","127529","0.0-5.0-0.0-5.0","","","","","","","","","","7482","","","","","","","","","","","","","","[""true"",""false"",""false"",""true""]","1",""
"sailing-instructions","17","156080","0.0-5.0-0.1-0.1","","","","","","","","","","","","","","null","null","null","null","null","null","","","","","","",""
"sailing-trial","18","158406","0.0-5.0-0.1-1.1-0.1","","","","false","","","","","","","","","","1180","","null","","null","null","arrowleft","0","null","null","","",""
"sailing-trial","19","159918","0.0-5.0-0.1-1.1-1.1","","","","false","","","","","","","","","","373","","null","","null","null","arrowright","1","null","null","","",""
"sailing-trial","20","161740","0.0-5.0-0.1-1.1-2.1","","","","false","","","","","","","","","","681","","null","","null","null","arrowleft","0","null","null","","",""
"sailing-instructions","21","247384","0.0-5.0-0.1-2.1","","","","","","","","","","","","","","null","null","null","null","0","null","","","","","","",""
"sailing-trial","22","250918","0.0-5.0-0.1-3.1-0.1","","","","false","","","","","","","","","","null","","722","","2","1","null","null","arrowleft","[1,1,1,1]","","",""
"sailing-trial","23","254675","0.0-5.0-0.1-3.1-1.1","","","","false","","","","","","","","","","null","","300","","3","1","null","null","arrowright","[1,1,1,1]","","",""
"sailing-trial","24","257284","0.0-5.0-0.1-3.1-2.1","","","","false","","","","","","","","","","null","","637","","3","0","null","null","arrowright","[0,0,0,0]","","",""
"sailing-instructions","25","265100","0.0-5.0-0.1-4.1","","","","","","","","","","","","","","null","null","null","null","null","null","","","","","","",""
"sailing-comprehension","26","276982","0.0-5.0-0.1-5.1","","","","","","","","","","6467","","","","","","","","","","","","","","[""true"",""true"",""false"",""true""]","0",""
"sailing-instructions","27","342307","0.0-6.0-0.0-0.0","","","","","","","","","","","","","","null","null","null","null","null","null","","","","","","",""
"sailing-comprehension","28","353030","0.0-6.0-0.0-1.0","","","","","","","","","","9541","","","","","","","","","","","","","","[""true"",""false"",""true""]","0",""
"sailing-instructions","29","366678","0.0-7.0-0.0-0.0","","","","","","","","","","","","","","null","null","null","null","null","null","","","","","","",""
"sailing-trial","30","370156","0.0-7.0-0.0-1.0-0.0","","","","false","","","","","","","","","","null","","1436","","0","0","null","null","arrowup","[0.2,0.8,0.2,0.8]","","",""
"sailing-trial","31","372491","0.0-7.0-0.0-1.0-1.0","","","","false","","","","","","","","","","null","","928","","1","0","null","null","arrowup","[0.2,0.8,0.2,0.8]","","",""
"sailing-trial","32","374565","0.0-7.0-0.0-1.0-2.0","","","","false","","","","","","","","","","null","","671","","2","0","null","null","arrowup","[0.2,0.8,0.2,0.8]","","",""
"sailing-trial","33","377399","0.0-7.0-0.0-1.0-3.0","","","","false","","","","","","","","","","null","","814","","3","1","null","null","arrowup","[0.2,0.8,0.2,0.8]","","",""
"sailing-comprehension","34","381981","0.0-7.0-0.0-2.0","","","","","","","","","","2902","","","","","","","","","","","","","","[""false""]","0",""
"sailing-instructions","35","392670","0.0-8.0-0.0-0.0","","","","","","","","","","","","","","null","null","null","null","null","null","","","","","","",""
"sailing-comprehension","36","395449","0.0-8.0-0.0-1.0","","","","","","","","","","2096","","","","","","","","","","","","","","[""true""]","0",""
"sailing-instructions","37","421132","0.0-9.0-0.0-0.0","","","","","","","","","","","","","","null","null","null","null","null","null","","","","","","",""
"sailing-trial","38","424809","0.0-9.0-0.0-1.0-0.0","","","","false","","","","","","","","","","837","","23","","0","0","arrowleft","0","arrowleft","[0.2,0.8,0.2,0.8]","","",""
"sailing-trial","39","429221","0.0-9.0-0.0-1.0-1.0","","","","false","","","","","","","","","","553","","1216","","2","0","arrowright","1","arrowleft","[0.2,0.8,0.2,0.8]","","",""
"sailing-trial","40","432256","0.0-9.0-0.0-1.0-2.0","","","","false","","","","","","","","","","null","","1308","","0","0","null","null","arrowup","[0.2,0.8,0.2,0.8]","","",""
"sailing-trial","41","436022","0.0-9.0-0.0-1.0-3.0","","","","false","","","","","","","","","","757","","341","","1","0","arrowleft","0","arrowright","[0.2,0.8,0.2,0.8]","","",""
"sailing-trial","42","438370","0.0-9.0-0.0-1.0-4.0","","","","false","","","","","","","","","","null","","882","","3","0","null","null","arrowup","[0.2,0.8,0.2,0.8]","","",""
"sailing-trial","43","442267","0.0-9.0-0.0-1.0-5.0","","","","false","","","","","","","","","","541","","333","","3","1","arrowright","1","arrowright","[0.2,0.8,0.2,0.8]","","",""
"sailing-instructions","44","533183","0.0-10.0","","","","","","","","","","","","","","null","null","null","null","null","null","","","","","","",""
"sailing-trial","45","539343","0.0-11.0-0.0","","","","false","","","","","","","","","","1993","","663","","0","1","arrowleft","0","arrowleft","[0.85,0.15,0.675,0.325]","","",""
"sailing-trial","46","543585","0.0-11.0-1.0","","","","false","","","","","","","","","","null","","1194","","1","0","null","null","arrowup","[0.85,0.15,0.675,0.325]","","",""
"sailing-trial","47","548032","0.0-11.0-2.0","","","","false","","","","","","","","","","610","","523","","2","1","arrowright","1","arrowleft","[0.85,0.15,0.675,0.325]","","",""
"sailing-trial","48","551180","0.0-11.0-3.0","","","","false","","","","","","","","","","null","","974","","2","1","null","null","arrowup","[0.85,0.15,0.675,0.325]","","",""
"sailing-trial","49","555814","0.0-11.0-4.0","","","","false","","","","","","","","","","610","","349","","3","1","arrowright","1","arrowright","[0.85,0.15,0.675,0.325]","","",""
"sailing-trial","50","559046","0.0-11.0-5.0","","","","false","","","","","","","","","","null","","1111","","2","1","null","null","arrowup","[0.85,0.15,0.675,0.325]","","",""
"sailing-trial","51","563278","0.0-11.0-6.0","","","","false","","","","","","","","","","990","","336","","1","0","arrowleft","0","arrowright","[0.85,0.15,0.675,0.325]","","",""
"sailing-trial","52","566267","0.0-11.0-7.0","","","","false","","","","","","","","","","null","","1116","","3","0","null","null","arrowup","[0.85,0.15,0.675,0.325]","","",""
"sailing-trial","53","570816","0.0-11.0-8.0","","","","false","","","","","","","","","","653","","381","","2","1","arrowright","1","arrowleft","[0.85,0.15,0.675,0.325]","","",""
"sailing-trial","54","575729","0.0-11.0-9.0","","","","false","","","","","","","","","","null","","2892","","2","1","null","null","arrowup","[0.85,0.15,0.675,0.325]","","",""
"sailing-trial","55","580184","0.0-11.0-10.0","","","","false","","","","","","","","","","797","","399","","2","1","arrowright","1","arrowleft","[0.85,0.15,0.675,0.325]","","",""
"sailing-trial","56","584000","0.0-11.0-11.0","","","","false","","","","","","","","","","null","","1701","","2","1","null","null","arrowup","[0.85,0.15,0.675,0.325]","","",""
"sailing-trial","57","588950","0.0-11.0-12.0","","","","false","","","","","","","","","","816","","274","","1","0","arrowleft","0","arrowright","[0.85,0.15,0.675,0.325]","","",""
"sailing-trial","58","592281","0.0-11.0-13.0","","","","false","","","","","","","","","","null","","1460","","3","0","null","null","arrowup","[0.85,0.15,0.675,0.325]","","",""
"sailing-trial","59","596849","0.0-11.0-14.0","","","","false","","","","","","","","","","562","","739","","0","1","arrowleft","0","arrowleft","[0.85,0.15,0.675,0.325]","","",""
"sailing-trial","60","600096","0.0-11.0-15.0","","","","false","","","","","","","","","","null","","1180","","2","1","null","null","arrowup","[0.85,0.15,0.675,0.325]","","",""
"sailing-trial","61","604902","0.0-11.0-16.0","","","","false","","","","","","","","","","566","","161","","2","0","arrowright","1","arrowleft","[0.85,0.15,0.675,0.325]","","",""
"sailing-trial","62","608150","0.0-11.0-17.0","","","","false","","","","","","","","","","null","","1298","","0","1","null","null","arrowup","[0.85,0.15,0.675,0.325]","","",""
"sailing-trial","63","612283","0.0-11.0-18.0","","","","false","","","","","","","","","","814","","507","","0","0","arrowleft","0","arrowleft","[0.85,0.15,0.675,0.325]","","",""
"sailing-trial","64","615325","0.0-11.0-19.0","","","","false","","","","","","","","","","null","","1341","","3","0","null","null","arrowup","[0.85,0.15,0.675,0.325]","","",""
"sailing-trial","65","619004","0.0-11.0-20.0","","","","false","","","","","","","","","","659","","6","","0","0","arrowleft","0","arrowleft","[0.85,0.15,0.675,0.325]","","",""
"sailing-trial","66","621463","0.0-11.0-21.0","","","","false","","","","","","","","","","null","","1096","","3","0","null","null","arrowup","[0.85,0.15,0.675,0.325]","","",""
"sailing-trial","67","625126","0.0-11.0-22.0","","","","false","","","","","","","","","","634","","325","","1","0","arrowleft","0","arrowright","[0.675,0.325,0.85,0.15]","","",""
"sailing-trial","68","628379","0.0-11.0-23.0","","","","false","","","","","","","","","","null","","1176","","0","1","null","null","arrowup","[0.675,0.325,0.85,0.15]","","",""
"sailing-trial","69","632881","0.0-11.0-24.0","","","","false","","","","","","","","","","545","","437","","2","1","arrowright","1","arrowleft","[0.675,0.325,0.85,0.15]","","",""
"sailing-trial","70","635979","0.0-11.0-25.0","","","","false","","","","","","","","","","null","","1102","","2","1","null","null","arrowup","[0.675,0.325,0.85,0.15]","","",""
"sailing-trial","71","640266","0.0-11.0-26.0","","","","false","","","","","","","","","","626","","534","","2","1","arrowright","1","arrowleft","[0.675,0.325,0.85,0.15]","","",""
"sailing-trial","72","643875","0.0-11.0-27.0","","","","false","","","","","","","","","","null","","1015","","1","0","null","null","arrowup","[0.675,0.325,0.85,0.15]","","",""
"sailing-trial","73","648214","0.0-11.0-28.0","","","","false","","","","","","","","","","601","","460","","3","1","arrowright","1","arrowright","[0.675,0.325,0.85,0.15]","","",""
"sailing-trial","74","651147","0.0-11.0-29.0","","","","false","","","","","","","","","","null","","904","","2","1","null","null","arrowup","[0.675,0.325,0.85,0.15]","","",""
"sailing-trial","75","655712","0.0-11.0-30.0","","","","false","","","","","","","","","","816","","508","","2","1","arrowright","1","arrowleft","[0.675,0.325,0.85,0.15]","","",""
"sailing-trial","76","658256","0.0-11.0-31.0","","","","false","","","","","","","","","","null","","964","","3","0","null","null","arrowup","[0.675,0.325,0.85,0.15]","","",""
"sailing-trial","77","663633","0.0-11.0-32.0","","","","false","","","","","","","","","","668","","625","","0","0","arrowleft","0","arrowleft","[0.675,0.325,0.85,0.15]","","",""
"sailing-trial","78","666039","0.0-11.0-33.0","","","","false","","","","","","","","","","null","","942","","3","0","null","null","arrowup","[0.675,0.325,0.85,0.15]","","",""
"sailing-trial","79","670617","0.0-11.0-34.0","","","","false","","","","","","","","","","1015","","858","","2","0","arrowright","1","arrowleft","[0.675,0.325,0.85,0.15]","","",""
"sailing-trial","80","673494","0.0-11.0-35.0","","","","false","","","","","","","","","","null","","1505","","3","0","null","null","arrowup","[0.675,0.325,0.85,0.15]","","",""
"sailing-trial","81","677403","0.0-11.0-36.0","","","","false","","","","","","","","","","634","","42","","2","1","arrowright","1","arrowleft","[0.675,0.325,0.85,0.15]","","",""
"sailing-trial","82","680483","0.0-11.0-37.0","","","","false","","","","","","","","","","null","","1122","","2","1","null","null","arrowup","[0.675,0.325,0.85,0.15]","","",""
"sailing-trial","83","685148","0.0-11.0-38.0","","","","false","","","","","","","","","","691","","456","","0","1","arrowleft","0","arrowleft","[0.85,0.15,0.675,0.325]","","",""
"sailing-trial","84","687924","0.0-11.0-39.0","","","","false","","","","","","","","","","null","","816","","0","1","null","null","arrowup","[0.85,0.15,0.675,0.325]","","",""
"sailing-trial","85","693873","0.0-11.0-40.0","","","","false","","","","","","","","","","2234","","353","","0","0","arrowleft","0","arrowleft","[0.85,0.15,0.675,0.325]","","",""
"sailing-trial","86","696614","0.0-11.0-41.0","","","","false","","","","","","","","","","null","","983","","1","0","null","null","arrowup","[0.85,0.15,0.675,0.325]","","",""
"sailing-trial","87","700800","0.0-11.0-42.0","","","","false","","","","","","","","","","632","","188","","2","0","arrowright","1","arrowleft","[0.85,0.15,0.675,0.325]","","",""
"sailing-trial","88","703618","0.0-11.0-43.0","","","","false","","","","","","","","","","null","","1392","","3","0","null","null","arrowup","[0.85,0.15,0.675,0.325]","","",""
"sailing-trial","89","707783","0.0-11.0-44.0","","","","false","","","","","","","","","","634","","344","","2","1","arrowright","1","arrowleft","[0.85,0.15,0.675,0.325]","","",""
"sailing-trial","90","711611","0.0-11.0-45.0","","","","false","","","","","","","","","","null","","1876","","2","1","null","null","arrowup","[0.85,0.15,0.675,0.325]","","",""
"sailing-trial","91","716282","0.0-11.0-46.0","","","","false","","","","","","","","","","1171","","66","","0","1","arrowleft","0","arrowleft","[0.85,0.15,0.675,0.325]","","",""
"sailing-trial","92","719829","0.0-11.0-47.0","","","","false","","","","","","","","","","null","","2128","","2","0","null","null","arrowup","[0.85,0.15,0.675,0.325]","","",""
"sailing-trial","93","724203","0.0-11.0-48.0","","","","false","","","","","","","","","","785","","329","","3","1","arrowright","1","arrowright","[0.85,0.15,0.675,0.325]","","",""
"sailing-trial","94","726849","0.0-11.0-49.0","","","","false","","","","","","","","","","null","","1114","","1","0","null","null","arrowup","[0.85,0.15,0.675,0.325]","","",""
"sailing-trial","95","731098","0.0-11.0-50.0","","","","false","","","","","","","","","","648","","311","","0","1","arrowleft","0","arrowleft","[0.85,0.15,0.675,0.325]","","",""
"sailing-trial","96","734155","0.0-11.0-51.0","","","","false","","","","","","","","","","null","","1264","","0","0","null","null","arrowup","[0.85,0.15,0.675,0.325]","","",""
"sailing-trial","97","738071","0.0-11.0-52.0","","","","false","","","","","","","","","","528","","176","","2","1","arrowright","1","arrowleft","[0.85,0.15,0.675,0.325]","","",""
"sailing-trial","98","741249","0.0-11.0-53.0","","","","false","","","","","","","","","","null","","1201","","0","1","null","null","arrowup","[0.85,0.15,0.675,0.325]","","",""
"sailing-trial","99","746246","0.0-11.0-54.0","","","","false","","","","","","","","","","1199","","66","","0","1","arrowleft","0","arrowleft","[0.15,0.85,0.325,0.675]","","",""
"sailing-trial","100","748593","0.0-11.0-55.0","","","","false","","","","","","","","","","null","","760","","0","0","null","null","arrowup","[0.15,0.85,0.325,0.675]","","",""
"sailing-trial","101","752470","0.0-11.0-56.0","","","","false","","","","","","","","","","657","","248","","2","0","arrowright","1","arrowleft","[0.15,0.85,0.325,0.675]","","",""
"sailing-trial","102","756589","0.0-11.0-57.0","","","","false","","","","","","","","","","null","","1851","","0","0","null","null","arrowup","[0.15,0.85,0.325,0.675]","","",""
"sailing-trial","103","760523","0.0-11.0-58.0","","","","false","","","","","","","","","","560","","303","","2","0","arrowright","1","arrowleft","[0.15,0.85,0.325,0.675]","","",""
"sailing-trial","104","764182","0.0-11.0-59.0","","","","false","","","","","","","","","","null","","1519","","2","0","null","null","arrowup","[0.15,0.85,0.325,0.675]","","",""
"sailing-trial","105","768981","0.0-11.0-60.0","","","","false","","","","","","","","","","560","","140","","1","1","arrowleft","0","arrowright","[0.15,0.85,0.325,0.675]","","",""
"sailing-trial","106","772888","0.0-11.0-61.0","","","","false","","","","","","","","","","null","","1353","","2","0","null","null","arrowup","[0.15,0.85,0.325,0.675]","","",""
"sailing-trial","107","776315","0.0-11.0-62.0","","","","false","","","","","","","","","","764","","48","","0","0","arrowleft","0","arrowleft","[0.15,0.85,0.325,0.675]","","",""
"sailing-trial","108","780065","0.0-11.0-63.0","","","","false","","","","","","","","","","null","","1248","","1","1","null","null","arrowup","[0.15,0.85,0.325,0.675]","","",""
"sailing-trial","109","783837","0.0-11.0-64.0","","","","false","","","","","","","","","","639","","78","","2","1","arrowright","1","arrowleft","[0.15,0.85,0.325,0.675]","","",""
"sailing-trial","110","786848","0.0-11.0-65.0","","","","false","","","","","","","","","","null","","1098","","1","1","null","null","arrowup","[0.15,0.85,0.325,0.675]","","",""
"sailing-trial","111","790874","0.0-11.0-66.0","","","","false","","","","","","","","","","559","","5","","3","1","arrowright","1","arrowright","[0.15,0.85,0.325,0.675]","","",""
"sailing-trial","112","794843","0.0-11.0-67.0","","","","false","","","","","","","","","","null","","1887","","1","1","null","null","arrowup","[0.15,0.85,0.325,0.675]","","",""
"sailing-trial","113","798789","0.0-11.0-68.0","","","","false","","","","","","","","","","633","","242","","0","0","arrowleft","0","arrowleft","[0.15,0.85,0.325,0.675]","","",""
"sailing-trial","114","801173","0.0-11.0-69.0","","","","false","","","","","","","","","","null","","923","","3","0","null","null","arrowup","[0.15,0.85,0.325,0.675]","","",""
"sailing-trial","115","805596","0.0-11.0-70.0","","","","false","","","","","","","","","","742","","270","","0","1","arrowleft","0","arrowleft","[0.675,0.325,0.85,0.15]","","",""
"sailing-trial","116","808216","0.0-11.0-71.0","","","","false","","","","","","","","","","null","","1235","","3","0","null","null","arrowup","[0.675,0.325,0.85,0.15]","","",""
"sailing-trial","117","812880","0.0-11.0-72.0","","","","false","","","","","","","","","","525","","441","","2","0","arrowright","1","arrowleft","[0.675,0.325,0.85,0.15]","","",""
"sailing-trial","118","815249","0.0-11.0-73.0","","","","false","","","","","","","","","","null","","1026","","1","0","null","null","arrowup","[0.675,0.325,0.85,0.15]","","",""
"sailing-trial","119","819291","0.0-11.0-74.0","","","","false","","","","","","","","","","582","","305","","0","0","arrowleft","0","arrowleft","[0.675,0.325,0.85,0.15]","","",""
"sailing-trial","120","822465","0.0-11.0-75.0","","","","false","","","","","","","","","","null","","1169","","0","1","null","null","arrowup","[0.675,0.325,0.85,0.15]","","",""
"sailing-trial","121","826864","0.0-11.0-76.0","","","","false","","","","","","","","","","630","","730","","2","1","arrowright","1","arrowleft","[0.675,0.325,0.85,0.15]","","",""
"sailing-trial","122","829724","0.0-11.0-77.0","","","","false","","","","","","","","","","null","","1400","","2","0","null","null","arrowup","[0.675,0.325,0.85,0.15]","","",""
"sailing-trial","123","833260","0.0-11.0-78.0","","","","false","","","","","","","","","","548","","7","","0","1","arrowleft","0","arrowleft","[0.675,0.325,0.85,0.15]","","",""
"sailing-trial","124","836313","0.0-11.0-79.0","","","","false","","","","","","","","","","null","","1193","","0","1","null","null","arrowup","[0.675,0.325,0.85,0.15]","","",""
"sailing-trial","125","839631","0.0-11.0-80.0","","","","false","","","","","","","","","","557","","96","","3","0","arrowright","1","arrowright","[0.675,0.325,0.85,0.15]","","",""
"sailing-trial","126","842697","0.0-11.0-81.0","","","","false","","","","","","","","","","null","","1181","","2","1","null","null","arrowup","[0.675,0.325,0.85,0.15]","","",""
"sailing-trial","127","846914","0.0-11.0-82.0","","","","false","","","","","","","","","","553","","248","","0","1","arrowleft","0","arrowleft","[0.675,0.325,0.85,0.15]","","",""
"sailing-trial","128","848934","0.0-11.0-83.0","","","","false","","","","","","","","","","null","","662","","2","0","null","null","arrowup","[0.675,0.325,0.85,0.15]","","",""
"sailing-trial","129","853243","0.0-11.0-84.0","","","","false","","","","","","","","","","629","","212","","2","1","arrowright","1","arrowleft","[0.675,0.325,0.85,0.15]","","",""
"sailing-trial","130","856456","0.0-11.0-85.0","","","","false","","","","","","","","","","null","","1515","","1","0","null","null","arrowup","[0.675,0.325,0.85,0.15]","","",""
"sailing-trial","131","860623","0.0-11.0-86.0","","","","false","","","","","","","","","","531","","173","","0","0","arrowleft","0","arrowleft","[0.675,0.325,0.85,0.15]","","",""
"sailing-trial","132","863894","0.0-11.0-87.0","","","","false","","","","","","","","","","null","","1329","","1","1","null","null","arrowup","[0.675,0.325,0.85,0.15]","","",""
"sailing-trial","133","868550","0.0-11.0-88.0","","","","false","","","","","","","","","","729","","80","","2","0","arrowright","1","arrowleft","[0.85,0.15,0.675,0.325]","","",""
"sailing-trial","134","871446","0.0-11.0-89.0","","","","false","","","","","","","","","","null","","869","","0","1","null","null","arrowup","[0.85,0.15,0.675,0.325]","","",""
"sailing-trial","135","876150","0.0-11.0-90.0","","","","false","","","","","","","","","","1652","","186","","1","0","arrowleft","0","arrowright","[0.85,0.15,0.675,0.325]","","",""
"sailing-trial","136","879947","0.0-11.0-91.0","","","","false","","","","","","","","","","null","","1435","","3","1","null","null","arrowup","[0.85,0.15,0.675,0.325]","","",""
"sailing-trial","137","883913","0.0-11.0-92.0","","","","false","","","","","","","","","","671","","408","","0","1","arrowleft","0","arrowleft","[0.85,0.15,0.675,0.325]","","",""
"sailing-trial","138","887347","0.0-11.0-93.0","","","","false","","","","","","","","","","null","","766","","0","1","null","null","arrowup","[0.85,0.15,0.675,0.325]","","",""
"sailing-trial","139","891064","0.0-11.0-94.0","","","","false","","","","","","","","","","534","","355","","3","1","arrowright","1","arrowright","[0.85,0.15,0.675,0.325]","","",""
"sailing-trial","140","893755","0.0-11.0-95.0","","","","false","","","","","","","","","","null","","1132","","3","0","null","null","arrowup","[0.85,0.15,0.675,0.325]","","",""
"sailing-trial","141","898609","0.0-11.0-96.0","","","","false","","","","","","","","","","527","","463","","0","1","arrowleft","0","arrowleft","[0.85,0.15,0.675,0.325]","","",""
"sailing-trial","142","901345","0.0-11.0-97.0","","","","false","","","","","","","","","","null","","866","","0","1","null","null","arrowup","[0.85,0.15,0.675,0.325]","","",""
"sailing-trial","143","905700","0.0-11.0-98.0","","","","false","","","","","","","","","","1050","","203","","1","0","arrowleft","0","arrowright","[0.85,0.15,0.675,0.325]","","",""
"sailing-trial","144","908209","0.0-11.0-99.0","","","","false","","","","","","","","","","null","","1350","","1","0","null","null","arrowup","[0.85,0.15,0.675,0.325]","","",""
"sailing-trial","145","912229","0.0-11.0-100.0","","","","false","","","","","","","","","","599","","40","","0","1","arrowleft","0","arrowleft","[0.85,0.15,0.675,0.325]","","",""
"sailing-trial","146","915115","0.0-11.0-101.0","","","","false","","","","","","","","","","null","","1241","","3","0","null","null","arrowup","[0.85,0.15,0.675,0.325]","","",""
"sailing-trial","147","919226","0.0-11.0-102.0","","","","false","","","","","","","","","","704","","398","","2","0","arrowright","1","arrowleft","[0.85,0.15,0.675,0.325]","","",""
"sailing-trial","148","921857","0.0-11.0-103.0","","","","false","","","","","","","","","","null","","1223","","1","0","null","null","arrowup","[0.85,0.15,0.675,0.325]","","",""
"sailing-trial","149","926267","0.0-11.0-104.0","","","","false","","","","","","","","","","795","","329","","1","0","arrowleft","0","arrowright","[0.675,0.325,0.85,0.15]","","",""
"sailing-trial","150","928940","0.0-11.0-105.0","","","","false","","","","","","","","","","null","","1007","","1","0","null","null","arrowup","[0.675,0.325,0.85,0.15]","","",""
"sailing-trial","151","932673","0.0-11.0-106.0","","","","false","","","","","","","","","","651","","61","","0","0","arrowleft","0","arrowleft","[0.675,0.325,0.85,0.15]","","",""
"sailing-trial","152","935411","0.0-11.0-107.0","","","","false","","","","","","","","","","null","","864","","2","1","null","null","arrowup","[0.675,0.325,0.85,0.15]","","",""
"sailing-trial","153","939542","0.0-11.0-108.0","","","","false","","","","","","","","","","512","","465","","2","1","arrowright","1","arrowleft","[0.675,0.325,0.85,0.15]","","",""
"sailing-trial","154","942329","0.0-11.0-109.0","","","","false","","","","","","","","","","null","","959","","2","1","null","null","arrowup","[0.675,0.325,0.85,0.15]","","",""
"sailing-trial","155","947429","0.0-11.0-110.0","","","","false","","","","","","","","","","861","","375","","2","1","arrowright","1","arrowleft","[0.675,0.325,0.85,0.15]","","",""
"sailing-trial","156","949798","0.0-11.0-111.0","","","","false","","","","","","","","","","null","","996","","0","0","null","null","arrowup","[0.675,0.325,0.85,0.15]","","",""
"sailing-trial","157","954726","0.0-11.0-112.0","","","","false","","","","","","","","","","826","","420","","0","1","arrowleft","0","arrowleft","[0.675,0.325,0.85,0.15]","","",""
"sailing-trial","158","957657","0.0-11.0-113.0","","","","false","","","","","","","","","","null","","1374","","1","0","null","null","arrowup","[0.675,0.325,0.85,0.15]","","",""
"sailing-trial","159","961483","0.0-11.0-114.0","","","","false","","","","","","","","","","582","","231","","1","0","arrowleft","0","arrowright","[0.675,0.325,0.85,0.15]","","",""
"sailing-trial","160","964139","0.0-11.0-115.0","","","","false","","","","","","","","","","null","","1331","","3","0","null","null","arrowup","[0.675,0.325,0.85,0.15]","","",""
"sailing-trial","161","968380","0.0-11.0-116.0","","","","false","","","","","","","","","","592","","450","","0","1","arrowleft","0","arrowleft","[0.675,0.325,0.85,0.15]","","",""
"sailing-trial","162","971660","0.0-11.0-117.0","","","","false","","","","","","","","","","null","","1139","","3","1","null","null","arrowup","[0.675,0.325,0.85,0.15]","","",""
"sailing-trial","163","975879","0.0-11.0-118.0","","","","false","","","","","","","","","","751","","319","","2","1","arrowright","1","arrowleft","[0.675,0.325,0.85,0.15]","","",""
"sailing-trial","164","979374","0.0-11.0-119.0","","","","false","","","","","","","","","","null","","1470","","1","1","null","null","arrowup","[0.675,0.325,0.85,0.15]","","",""
"sailing-trial","165","983864","0.0-11.0-120.0","","","","false","","","","","","","","","","649","","356","","2","1","arrowright","1","arrowleft","[0.675,0.325,0.85,0.15]","","",""
"sailing-trial","166","987812","0.0-11.0-121.0","","","","false","","","","","","","","","","null","","1125","","0","1","null","null","arrowup","[0.675,0.325,0.85,0.15]","","",""
"sailing-trial","167","991776","0.0-11.0-122.0","","","","false","","","","","","","","","","639","","240","","0","0","arrowleft","0","arrowleft","[0.675,0.325,0.85,0.15]","","",""
"sailing-trial","168","994945","0.0-11.0-123.0","","","","false","","","","","","","","","","null","","1215","","2","1","null","null","arrowup","[0.675,0.325,0.85,0.15]","","",""
"sailing-trial","169","999032","0.0-11.0-124.0","","","","false","","","","","","","","","","810","","59","","2","1","arrowright","1","arrowleft","[0.675,0.325,0.85,0.15]","","",""
"sailing-trial","170","1002710","0.0-11.0-125.0","","","","false","","","","","","","","","","null","","1781","","0","1","null","null","arrowup","[0.675,0.325,0.85,0.15]","","",""
"sailing-trial","171","1006727","0.0-11.0-126.0","","","","false","","","","","","","","","","539","","361","","0","1","arrowleft","0","arrowleft","[0.85,0.15,0.675,0.325]","","",""
"sailing-trial","172","1009633","0.0-11.0-127.0","","","","false","","","","","","","","","","null","","1180","","0","1","null","null","arrowup","[0.85,0.15,0.675,0.325]","","",""
"sailing-trial","173","1013276","0.0-11.0-128.0","","","","false","","","","","","","","","","503","","230","","2","0","arrowright","1","arrowleft","[0.85,0.15,0.675,0.325]","","",""
"sailing-trial","174","1015836","0.0-11.0-129.0","","","","false","","","","","","","","","","null","","1209","","1","0","null","null","arrowup","[0.85,0.15,0.675,0.325]","","",""
"sailing-trial","175","1020119","0.0-11.0-130.0","","","","false","","","","","","","","","","584","","307","","3","0","arrowright","1","arrowright","[0.85,0.15,0.675,0.325]","","",""
"sailing-trial","176","1022429","0.0-11.0-131.0","","","","false","","","","","","","","","","null","","997","","1","0","null","null","arrowup","[0.85,0.15,0.675,0.325]","","",""
"sailing-trial","177","1025661","0.0-11.0-132.0","","","","false","","","","","","","","","","518","","215","","1","0","arrowleft","0","arrowright","[0.85,0.15,0.675,0.325]","","",""
"sailing-trial","178","1027749","0.0-11.0-133.0","","","","false","","","","","","","","","","null","","930","","1","0","null","null","arrowup","[0.85,0.15,0.675,0.325]","","",""
"sailing-trial","179","1031744","0.0-11.0-134.0","","","","false","","","","","","","","","","547","","412","","0","1","arrowleft","0","arrowleft","[0.85,0.15,0.675,0.325]","","",""
"sailing-trial","180","1034578","0.0-11.0-135.0","","","","false","","","","","","","","","","null","","987","","2","1","null","null","arrowup","[0.85,0.15,0.675,0.325]","","",""
"sailing-trial","181","1039291","0.0-11.0-136.0","","","","false","","","","","","","","","","888","","208","","2","1","arrowright","1","arrowleft","[0.85,0.15,0.675,0.325]","","",""
"sailing-trial","182","1041579","0.0-11.0-137.0","","","","false","","","","","","","","","","null","","910","","3","0","null","null","arrowup","[0.85,0.15,0.675,0.325]","","",""
"sailing-trial","183","1045396","0.0-11.0-138.0","","","","false","","","","","","","","","","679","","68","","3","1","arrowright","1","arrowright","[0.85,0.15,0.675,0.325]","","",""
"sailing-trial","184","1048179","0.0-11.0-139.0","","","","false","","","","","","","","","","null","","928","","0","1","null","null","arrowup","[0.85,0.15,0.675,0.325]","","",""
"sailing-trial","185","1052295","0.0-11.0-140.0","","","","false","","","","","","","","","","486","","433","","2","1","arrowright","1","arrowleft","[0.85,0.15,0.675,0.325]","","",""
"sailing-trial","186","1054796","0.0-11.0-141.0","","","","false","","","","","","","","","","null","","1015","","1","0","null","null","arrowup","[0.85,0.15,0.675,0.325]","","",""
"sailing-trial","187","1058812","0.0-11.0-142.0","","","","false","","","","","","","","","","545","","116","","0","1","arrowleft","0","arrowleft","[0.85,0.15,0.675,0.325]","","",""
"sailing-trial","188","1061729","0.0-11.0-143.0","","","","false","","","","","","","","","","null","","943","","2","1","null","null","arrowup","[0.85,0.15,0.675,0.325]","","",""
"sailing-trial","189","1065729","0.0-11.0-144.0","","","","false","","","","","","","","","","573","","27","","0","1","arrowleft","0","arrowleft","[0.85,0.15,0.675,0.325]","","",""
"sailing-trial","190","1068443","0.0-11.0-145.0","","","","false","","","","","","","","","","null","","863","","2","1","null","null","arrowup","[0.85,0.15,0.675,0.325]","","",""
"sailing-trial","191","1072611","0.0-11.0-146.0","","","","false","","","","","","","","","","784","","49","","2","1","arrowright","1","arrowleft","[0.675,0.325,0.85,0.15]","","",""
"sailing-trial","192","1075179","0.0-11.0-147.0","","","","false","","","","","","","","","","null","","1257","","3","0","null","null","arrowup","[0.675,0.325,0.85,0.15]","","",""
"sailing-trial","193","1079819","0.0-11.0-148.0","","","","false","","","","","","","","","","676","","72","","3","0","arrowright","1","arrowright","[0.675,0.325,0.85,0.15]","","",""
"sailing-trial","194","1082811","0.0-11.0-149.0","","","","false","","","","","","","","","","null","","1108","","0","1","null","null","arrowup","[0.675,0.325,0.85,0.15]","","",""
"sailing-trial","195","1086960","0.0-11.0-150.0","","","","false","","","","","","","","","","614","","148","","0","1","arrowleft","0","arrowleft","[0.675,0.325,0.85,0.15]","","",""
"sailing-trial","196","1091290","0.0-11.0-151.0","","","","false","","","","","","","","","","null","","1976","","0","1","null","null","arrowup","[0.675,0.325,0.85,0.15]","","",""
"sailing-trial","197","1095307","0.0-11.0-152.0","","","","false","","","","","","","","","","906","","164","","0","0","arrowleft","0","arrowleft","[0.675,0.325,0.85,0.15]","","",""
"sailing-trial","198","1098786","0.0-11.0-153.0","","","","false","","","","","","","","","","null","","2061","","1","0","null","null","arrowup","[0.675,0.325,0.85,0.15]","","",""
"sailing-trial","199","1103828","0.0-11.0-154.0","","","","false","","","","","","","","","","858","","430","","2","1","arrowright","1","arrowleft","[0.675,0.325,0.85,0.15]","","",""
"sailing-trial","200","1107659","0.0-11.0-155.0","","","","false","","","","","","","","","","null","","1833","","1","1","null","null","arrowup","[0.675,0.325,0.85,0.15]","","",""
"sailing-trial","201","1112260","0.0-11.0-156.0","","","","false","","","","","","","","","","1040","","143","","0","1","arrowleft","0","arrowleft","[0.675,0.325,0.85,0.15]","","",""
"sailing-trial","202","1115574","0.0-11.0-157.0","","","","false","","","","","","","","","","null","","1271","","2","1","null","null","arrowup","[0.675,0.325,0.85,0.15]","","",""
"sailing-trial","203","1119618","0.0-11.0-158.0","","","","false","","","","","","","","","","645","","341","","3","0","arrowright","1","arrowright","[0.675,0.325,0.85,0.15]","","",""
"sailing-trial","204","1122426","0.0-11.0-159.0","","","","false","","","","","","","","","","null","","1025","","3","0","null","null","arrowup","[0.675,0.325,0.85,0.15]","","",""
"sailing-trial","205","1126944","0.0-11.0-160.0","","","","false","","","","","","","","","","639","","414","","0","1","arrowleft","0","arrowleft","[0.675,0.325,0.85,0.15]","","",""
"sailing-trial","206","1130677","0.0-11.0-161.0","","","","false","","","","","","","","","","null","","1279","","3","1","null","null","arrowup","[0.675,0.325,0.85,0.15]","","",""
"sailing-trial","207","1135425","0.0-11.0-162.0","","","","false","","","","","","","","","","1027","","205","","2","1","arrowright","1","arrowleft","[0.675,0.325,0.85,0.15]","","",""
"sailing-trial","208","1139691","0.0-11.0-163.0","","","","false","","","","","","","","","","null","","2083","","0","1","null","null","arrowup","[0.675,0.325,0.85,0.15]","","",""
"sailing-trial","209","1145675","0.0-11.0-164.0","","","","false","","","","","","","","","","1915","","491","","0","1","arrowleft","0","arrowleft","[0.85,0.15,0.675,0.325]","","",""
"sailing-trial","210","1148390","0.0-11.0-165.0","","","","false","","","","","","","","","","null","","1142","","1","0","null","null","arrowup","[0.85,0.15,0.675,0.325]","","",""
"sailing-trial","211","1152369","0.0-11.0-166.0","","","","false","","","","","","","","","","584","","2","","2","1","arrowright","1","arrowleft","[0.85,0.15,0.675,0.325]","","",""
"sailing-trial","212","1156032","0.0-11.0-167.0","","","","false","","","","","","","","","","null","","2036","","2","0","null","null","arrowup","[0.85,0.15,0.675,0.325]","","",""
"sailing-trial","213","1160310","0.0-11.0-168.0","","","","false","","","","","","","","","","547","","339","","0","1","arrowleft","0","arrowleft","[0.85,0.15,0.675,0.325]","","",""
"sailing-trial","214","1163027","0.0-11.0-169.0","","","","false","","","","","","","","","","null","","1375","","1","0","null","null","arrowup","[0.85,0.15,0.675,0.325]","","",""
"sailing-trial","215","1166763","0.0-11.0-170.0","","","","false","","","","","","","","","","668","","129","","2","0","arrowright","1","arrowleft","[0.85,0.15,0.675,0.325]","","",""
"sailing-trial","216","1169744","0.0-11.0-171.0","","","","false","","","","","","","","","","null","","997","","3","1","null","null","arrowup","[0.85,0.15,0.675,0.325]","","",""
"sailing-trial","217","1174861","0.0-11.0-172.0","","","","false","","","","","","","","","","1367","","184","","0","1","arrowleft","0","arrowleft","[0.85,0.15,0.675,0.325]","","",""
"sailing-trial","218","1178992","0.0-11.0-173.0","","","","false","","","","","","","","","","null","","843","","1","1","null","null","arrowup","[0.85,0.15,0.675,0.325]","","",""
"sailing-trial","219","1183544","0.0-11.0-174.0","","","","false","","","","","","","","","","748","","165","","2","1","arrowright","1","arrowleft","[0.85,0.15,0.675,0.325]","","",""
"sailing-trial","220","1185782","0.0-11.0-175.0","","","","false","","","","","","","","","","null","","898","","3","0","null","null","arrowup","[0.85,0.15,0.675,0.325]","","",""
"sailing-trial","221","1189432","0.0-11.0-176.0","","","","false","","","","","","","","","","614","","359","","1","0","arrowleft","0","arrowright","[0.85,0.15,0.675,0.325]","","",""
"sailing-trial","222","1192976","0.0-11.0-177.0","","","","false","","","","","","","","","","null","","965","","3","1","null","null","arrowup","[0.85,0.15,0.675,0.325]","","",""
"sailing-trial","223","1197211","0.0-11.0-178.0","","","","false","","","","","","","","","","768","","112","","0","1","arrowleft","0","arrowleft","[0.85,0.15,0.675,0.325]","","",""
"sailing-trial","224","1201377","0.0-11.0-179.0","","","","false","","","","","","","","","","null","","1716","","0","1","null","null","arrowup","[0.85,0.15,0.675,0.325]","","",""
"sailing-trial","225","1206277","0.0-11.0-180.0","","","","false","","","","","","","","","","1287","","572","","0","1","arrowleft","0","arrowleft","[0.85,0.15,0.675,0.325]","","",""
"sailing-trial","226","1208588","0.0-11.0-181.0","","","","false","","","","","","","","","","null","","841","","0","0","null","null","arrowup","[0.85,0.15,0.675,0.325]","","",""
"sailing-trial","227","1212960","0.0-11.0-182.0","","","","false","","","","","","","","","","538","","379","","2","1","arrowright","1","arrowleft","[0.675,0.325,0.85,0.15]","","",""
"sailing-trial","228","1215482","0.0-11.0-183.0","","","","false","","","","","","","","","","null","","1041","","1","0","null","null","arrowup","[0.675,0.325,0.85,0.15]","","",""
"sailing-trial","229","1220790","0.0-11.0-184.0","","","","false","","","","","","","","","","709","","903","","0","1","arrowleft","0","arrowleft","[0.675,0.325,0.85,0.15]","","",""
"sailing-trial","230","1223803","0.0-11.0-185.0","","","","false","","","","","","","","","","null","","1001","","0","0","null","null","arrowup","[0.675,0.325,0.85,0.15]","","",""
"sailing-trial","231","1229385","0.0-11.0-186.0","","","","false","","","","","","","","","","1115","","373","","3","0","arrowright","1","arrowright","[0.675,0.325,0.85,0.15]","","",""
"sailing-trial","232","1232688","0.0-11.0-187.0","","","","false","","","","","","","","","","null","","1144","","1","1","null","null","arrowup","[0.675,0.325,0.85,0.15]","","",""
"sailing-trial","233","1237193","0.0-11.0-188.0","","","","false","","","","","","","","","","670","","401","","0","1","arrowleft","0","arrowleft","[0.675,0.325,0.85,0.15]","","",""
"sailing-trial","234","1240075","0.0-11.0-189.0","","","","false","","","","","","","","","","null","","915","","2","1","null","null","arrowup","[0.675,0.325,0.85,0.15]","","",""
"sailing-trial","235","1244960","0.0-11.0-190.0","","","","false","","","","","","","","","","867","","376","","2","1","arrowright","1","arrowleft","[0.675,0.325,0.85,0.15]","","",""
"sailing-trial","236","1249159","0.0-11.0-191.0","","","","false","","","","","","","","","","null","","2248","","0","1","null","null","arrowup","[0.675,0.325,0.85,0.15]","","",""
"sailing-trial","237","1253693","0.0-11.0-192.0","","","","false","","","","","","","","","","790","","275","","0","1","arrowleft","0","arrowleft","[0.675,0.325,0.85,0.15]","","",""
"sailing-trial","238","1256830","0.0-11.0-193.0","","","","false","","","","","","","","","","null","","1055","","2","1","null","null","arrowup","[0.675,0.325,0.85,0.15]","","",""
"sailing-trial","239","1262381","0.0-11.0-194.0","","","","false","","","","","","","","","","1463","","1013","","0","0","arrowleft","0","arrowleft","[0.675,0.325,0.85,0.15]","","",""
"sailing-trial","240","1267424","0.0-11.0-195.0","","","","false","","","","","","","","","","null","","2754","","1","0","null","null","arrowup","[0.675,0.325,0.85,0.15]","","",""
"sailing-trial","241","1271876","0.0-11.0-196.0","","","","false","","","","","","","","","","630","","386","","2","1","arrowright","1","arrowleft","[0.675,0.325,0.85,0.15]","","",""
"sailing-trial","242","1275239","0.0-11.0-197.0","","","","false","","","","","","","","","","null","","1136","","2","1","null","null","arrowup","[0.675,0.325,0.85,0.15]","","",""
"sailing-trial","243","1280256","0.0-11.0-198.0","","","","false","","","","","","","","","","868","","42","","0","1","arrowleft","0","arrowleft","[0.675,0.325,0.85,0.15]","","",""
"sailing-trial","244","1283311","0.0-11.0-199.0","","","","false","","","","","","","","","","null","","1450","","0","0","null","null","arrowup","[0.675,0.325,0.85,0.15]","","",""
"sailing-trial","245","1288390","0.0-11.0-200.0","","","","false","","","","","","","","","","1314","","279","","2","1","arrowright","1","arrowleft","[0.85,0.15,0.675,0.325]","","",""
"sailing-trial","246","1291478","0.0-11.0-201.0","","","","false","","","","","","","","","","null","","1686","","0","0","null","null","arrowup","[0.85,0.15,0.675,0.325]","","",""
"sailing-trial","247","1295414","0.0-11.0-202.0","","","","false","","","","","","","","","","553","","205","","0","1","arrowleft","0","arrowleft","[0.85,0.15,0.675,0.325]","","",""
"sailing-trial","248","1297945","0.0-11.0-203.0","","","","false","","","","","","","","","","null","","911","","3","0","null","null","arrowup","[0.85,0.15,0.675,0.325]","","",""
"sailing-trial","249","1302019","0.0-11.0-204.0","","","","false","","","","","","","","","","594","","408","","2","1","arrowright","1","arrowleft","[0.85,0.15,0.675,0.325]","","",""
"sailing-trial","250","1304448","0.0-11.0-205.0","","","","false","","","","","","","","","","null","","903","","3","0","null","null","arrowup","[0.85,0.15,0.675,0.325]","","",""
"sailing-trial","251","1309576","0.0-11.0-206.0","","","","false","","","","","","","","","","527","","438","","0","1","arrowleft","0","arrowleft","[0.85,0.15,0.675,0.325]","","",""
"sailing-trial","252","1312583","0.0-11.0-207.0","","","","false","","","","","","","","","","null","","1487","","1","0","null","null","arrowup","[0.85,0.15,0.675,0.325]","","",""
"sailing-trial","253","1316425","0.0-11.0-208.0","","","","false","","","","","","","","","","614","","209","","0","1","arrowleft","0","arrowleft","[0.85,0.15,0.675,0.325]","","",""
"sailing-trial","254","1319478","0.0-11.0-209.0","","","","false","","","","","","","","","","null","","1183","","1","1","null","null","arrowup","[0.85,0.15,0.675,0.325]","","",""
"sailing-trial","255","1324091","0.0-11.0-210.0","","","","false","","","","","","","","","","860","","480","","0","1","arrowleft","0","arrowleft","[0.85,0.15,0.675,0.325]","","",""
"sailing-trial","256","1327606","0.0-11.0-211.0","","","","false","","","","","","","","","","null","","1566","","0","1","null","null","arrowup","[0.85,0.15,0.675,0.325]","","",""
"sailing-trial","257","1332340","0.0-11.0-212.0","","","","false","","","","","","","","","","966","","267","","2","1","arrowright","1","arrowleft","[0.85,0.15,0.675,0.325]","","",""
"sailing-trial","258","1335724","0.0-11.0-213.0","","","","false","","","","","","","","","","null","","1019","","2","1","null","null","arrowup","[0.85,0.15,0.675,0.325]","","",""
"sailing-trial","259","1340109","0.0-11.0-214.0","","","","false","","","","","","","","","","656","","297","","0","1","arrowleft","0","arrowleft","[0.85,0.15,0.675,0.325]","","",""
"sailing-trial","260","1342971","0.0-11.0-215.0","","","","false","","","","","","","","","","null","","1008","","0","1","null","null","arrowup","[0.85,0.15,0.675,0.325]","","",""
"sailing-trial","261","1346854","0.0-11.0-216.0","","","","false","","","","","","","","","","834","","513","","2","0","arrowright","1","arrowleft","[0.85,0.15,0.675,0.325]","","",""
"sailing-trial","262","1349606","0.0-11.0-217.0","","","","false","","","","","","","","","","null","","959","","0","1","null","null","arrowup","[0.85,0.15,0.675,0.325]","","",""
"sailing-trial","263","1354123","0.0-11.0-218.0","","","","false","","","","","","","","","","926","","317","","0","1","arrowleft","0","arrowleft","[0.85,0.15,0.675,0.325]","","",""
"sailing-trial","264","1356723","0.0-11.0-219.0","","","","false","","","","","","","","","","null","","972","","3","0","null","null","arrowup","[0.85,0.15,0.675,0.325]","","",""
"sailing-trial","265","1360809","0.0-11.0-220.0","","","","false","","","","","","","","","","744","","214","","0","1","arrowleft","0","arrowleft","[0.675,0.325,0.85,0.15]","","",""
"sailing-trial","266","1363174","0.0-11.0-221.0","","","","false","","","","","","","","","","null","","893","","0","0","null","null","arrowup","[0.675,0.325,0.85,0.15]","","",""
"sailing-trial","267","1367448","0.0-11.0-222.0","","","","false","","","","","","","","","","694","","156","","0","1","arrowleft","0","arrowleft","[0.675,0.325,0.85,0.15]","","",""
"sailing-trial","268","1370509","0.0-11.0-223.0","","","","false","","","","","","","","","","null","","1112","","0","1","null","null","arrowup","[0.675,0.325,0.85,0.15]","","",""
"sailing-trial","269","1375351","0.0-11.0-224.0","","","","false","","","","","","","","","","718","","423","","0","0","arrowleft","0","arrowleft","[0.675,0.325,0.85,0.15]","","",""
"sailing-trial","270","1377603","0.0-11.0-225.0","","","","false","","","","","","","","","","null","","807","","3","0","null","null","arrowup","[0.675,0.325,0.85,0.15]","","",""
"sailing-trial","271","1381457","0.0-11.0-226.0","","","","false","","","","","","","","","","739","","28","","2","1","arrowright","1","arrowleft","[0.675,0.325,0.85,0.15]","","",""
"sailing-trial","272","1384302","0.0-11.0-227.0","","","","false","","","","","","","","","","null","","927","","2","1","null","null","arrowup","[0.675,0.325,0.85,0.15]","","",""
"sailing-trial","273","1388355","0.0-11.0-228.0","","","","false","","","","","","","","","","635","","499","","0","0","arrowleft","0","arrowleft","[0.675,0.325,0.85,0.15]","","",""
"sailing-trial","274","1390961","0.0-11.0-229.0","","","","false","","","","","","","","","","null","","1149","","1","0","null","null","arrowup","[0.675,0.325,0.85,0.15]","","",""
"sailing-trial","275","1394904","0.0-11.0-230.0","","","","false","","","","","","","","","","554","","57","","0","1","arrowleft","0","arrowleft","[0.675,0.325,0.85,0.15]","","",""
"sailing-trial","276","1398888","0.0-11.0-231.0","","","","false","","","","","","","","","","null","","913","","2","1","null","null","arrowup","[0.675,0.325,0.85,0.15]","","",""
"sailing-trial","277","1403205","0.0-11.0-232.0","","","","false","","","","","","","","","","559","","587","","2","1","arrowright","1","arrowleft","[0.675,0.325,0.85,0.15]","","",""
"sailing-trial","278","1406038","0.0-11.0-233.0","","","","false","","","","","","","","","","null","","819","","0","1","null","null","arrowup","[0.675,0.325,0.85,0.15]","","",""
"sailing-trial","279","1410397","0.0-11.0-234.0","","","","false","","","","","","","","","","976","","393","","0","0","arrowleft","0","arrowleft","[0.675,0.325,0.85,0.15]","","",""
"sailing-trial","280","1413697","0.0-11.0-235.0","","","","false","","","","","","","","","","null","","1349","","3","0","null","null","arrowup","[0.675,0.325,0.85,0.15]","","",""
"sailing-trial","281","1418121","0.0-11.0-236.0","","","","false","","","","","","","","","","593","","511","","2","1","arrowright","1","arrowleft","[0.15,0.85,0.325,0.675]","","",""
"sailing-trial","282","1420479","0.0-11.0-237.0","","","","false","","","","","","","","","","null","","901","","2","0","null","null","arrowup","[0.15,0.85,0.325,0.675]","","",""
"sailing-trial","283","1424277","0.0-11.0-238.0","","","","false","","","","","","","","","","639","","378","","0","0","arrowleft","0","arrowleft","[0.15,0.85,0.325,0.675]","","",""
"sailing-trial","284","1426545","0.0-11.0-239.0","","","","false","","","","","","","","","","null","","782","","2","0","null","null","arrowup","[0.15,0.85,0.325,0.675]","","",""
"sailing-trial","285","1429959","0.0-11.0-240.0","","","","false","","","","","","","","","","650","","218","","0","0","arrowleft","0","arrowleft","[0.15,0.85,0.325,0.675]","","",""
"sailing-trial","286","1433203","0.0-11.0-241.0","","","","false","","","","","","","","","","null","","1366","","1","1","null","null","arrowup","[0.15,0.85,0.325,0.675]","","",""
"sailing-trial","287","1436515","0.0-11.0-242.0","","","","false","","","","","","","","","","686","","15","","2","0","arrowright","1","arrowleft","[0.15,0.85,0.325,0.675]","","",""
"sailing-trial","288","1439236","0.0-11.0-243.0","","","","false","","","","","","","","","","null","","835","","2","1","null","null","arrowup","[0.15,0.85,0.325,0.675]","","",""
"sailing-trial","289","1442775","0.0-11.0-244.0","","","","false","","","","","","","","","","680","","359","","0","0","arrowleft","0","arrowleft","[0.15,0.85,0.325,0.675]","","",""
"sailing-trial","290","1445133","0.0-11.0-245.0","","","","false","","","","","","","","","","null","","863","","0","0","null","null","arrowup","[0.15,0.85,0.325,0.675]","","",""
"sailing-trial","291","1449636","0.0-11.0-246.0","","","","false","","","","","","","","","","1005","","485","","1","1","arrowleft","0","arrowright","[0.15,0.85,0.325,0.675]","","",""
"sailing-trial","292","1452304","0.0-11.0-247.0","","","","false","","","","","","","","","","null","","793","","3","1","null","null","arrowup","[0.15,0.85,0.325,0.675]","","",""
"sailing-trial","293","1456018","0.0-11.0-248.0","","","","false","","","","","","","","","","505","","102","","3","1","arrowright","1","arrowright","[0.15,0.85,0.325,0.675]","","",""
"sailing-trial","294","1460153","0.0-11.0-249.0","","","","false","","","","","","","","","","null","","1860","","1","1","null","null","arrowup","[0.15,0.85,0.325,0.675]","","",""
"sailing-trial","295","1464093","0.0-11.0-250.0","","","","false","","","","","","","","","","513","","437","","2","0","arrowright","1","arrowleft","[0.15,0.85,0.325,0.675]","","",""
"sailing-trial","296","1467336","0.0-11.0-251.0","","","","false","","","","","","","","","","null","","1374","","1","1","null","null","arrowup","[0.15,0.85,0.325,0.675]","","",""
"sailing-trial","297","1470629","0.0-11.0-252.0","","","","false","","","","","","","","","","519","","360","","0","0","arrowleft","0","arrowleft","[0.325,0.675,0.15,0.85]","","",""
"sailing-trial","298","1473435","0.0-11.0-253.0","","","","false","","","","","","","","","","null","","940","","1","1","null","null","arrowup","[0.325,0.675,0.15,0.85]","","",""
"sailing-trial","299","1477670","0.0-11.0-254.0","","","","false","","","","","","","","","","994","","131","","1","1","arrowleft","0","arrowright","[0.325,0.675,0.15,0.85]","","",""
"sailing-trial","300","1480354","0.0-11.0-255.0","","","","false","","","","","","","","","","null","","808","","0","0","null","null","arrowup","[0.325,0.675,0.15,0.85]","","",""
"sailing-trial","301","1484970","0.0-11.0-256.0","","","","false","","","","","","","","","","504","","471","","3","1","arrowright","1","arrowright","[0.325,0.675,0.15,0.85]","","",""
"sailing-trial","302","1487156","0.0-11.0-257.0","","","","false","","","","","","","","","","null","","849","","2","0","null","null","arrowup","[0.325,0.675,0.15,0.85]","","",""
"sailing-trial","303","1491586","0.0-11.0-258.0","","","","false","","","","","","","","","","628","","335","","1","1","arrowleft","0","arrowright","[0.325,0.675,0.15,0.85]","","",""
"sailing-trial","304","1493816","0.0-11.0-259.0","","","","false","","","","","","","","","","null","","873","","0","0","null","null","arrowup","[0.325,0.675,0.15,0.85]","","",""
"sailing-trial","305","1497238","0.0-11.0-260.0","","","","false","","","","","","","","","","585","","354","","2","0","arrowright","1","arrowleft","[0.325,0.675,0.15,0.85]","","",""
"sailing-trial","306","1499976","0.0-11.0-261.0","","","","false","","","","","","","","","","null","","836","","1","1","null","null","arrowup","[0.325,0.675,0.15,0.85]","","",""
"sailing-trial","307","1504402","0.0-11.0-262.0","","","","false","","","","","","","","","","591","","595","","3","1","arrowright","1","arrowright","[0.325,0.675,0.15,0.85]","","",""
"sailing-trial","308","1507286","0.0-11.0-263.0","","","","false","","","","","","","","","","null","","1005","","3","1","null","null","arrowup","[0.325,0.675,0.15,0.85]","","",""
"sailing-trial","309","1511021","0.0-11.0-264.0","","","","false","","","","","","","","","","742","","441","","2","0","arrowright","1","arrowleft","[0.325,0.675,0.15,0.85]","","",""
"sailing-trial","310","1513190","0.0-11.0-265.0","","","","false","","","","","","","","","","null","","837","","2","0","null","null","arrowup","[0.325,0.675,0.15,0.85]","","",""
"sailing-trial","311","1517653","0.0-11.0-266.0","","","","false","","","","","","","","","","539","","476","","3","1","arrowright","1","arrowright","[0.325,0.675,0.15,0.85]","","",""
"sailing-trial","312","1521436","0.0-11.0-267.0","","","","false","","","","","","","","","","null","","1400","","1","1","null","null","arrowup","[0.325,0.675,0.15,0.85]","","",""
"sailing-trial","313","1525524","0.0-11.0-268.0","","","","false","","","","","","","","","","985","","324","","2","0","arrowright","1","arrowleft","[0.325,0.675,0.15,0.85]","","",""
"sailing-trial","314","1528002","0.0-11.0-269.0","","","","false","","","","","","","","","","null","","754","","0","0","null","null","arrowup","[0.325,0.675,0.15,0.85]","","",""
"sailing-trial","315","1532619","0.0-11.0-270.0","","","","false","","","","","","","","","","879","","363","","3","1","arrowright","1","arrowright","[0.325,0.675,0.15,0.85]","","",""
"sailing-trial","316","1535419","0.0-11.0-271.0","","","","false","","","","","","","","","","null","","909","","1","1","null","null","arrowup","[0.325,0.675,0.15,0.85]","","",""
"sailing-trial","317","1539036","0.0-11.0-272.0","","","","false","","","","","","","","","","780","","28","","2","0","arrowright","1","arrowleft","[0.325,0.675,0.15,0.85]","","",""
"sailing-trial","318","1541786","0.0-11.0-273.0","","","","false","","","","","","","","","","null","","898","","3","1","null","null","arrowup","[0.325,0.675,0.15,0.85]","","",""
"sailing-trial","319","1545660","0.0-11.0-274.0","","","","false","","","","","","","","","","608","","454","","0","0","arrowleft","0","arrowleft","[0.325,0.675,0.15,0.85]","","",""
"sailing-trial","320","1548075","0.0-11.0-275.0","","","","false","","","","","","","","","","null","","892","","0","0","null","null","arrowup","[0.325,0.675,0.15,0.85]","","",""
"sailing-trial","321","1552253","0.0-11.0-276.0","","","","false","","","","","","","","","","721","","512","","1","1","arrowleft","0","arrowright","[0.15,0.85,0.325,0.675]","","",""
"sailing-trial","322","1554680","0.0-11.0-277.0","","","","false","","","","","","","","","","null","","1085","","3","0","null","null","arrowup","[0.15,0.85,0.325,0.675]","","",""
"sailing-trial","323","1558535","0.0-11.0-278.0","","","","false","","","","","","","","","","553","","380","","2","0","arrowright","1","arrowleft","[0.15,0.85,0.325,0.675]","","",""
"sailing-trial","324","1560716","0.0-11.0-279.0","","","","false","","","","","","","","","","null","","804","","0","0","null","null","arrowup","[0.15,0.85,0.325,0.675]","","",""
"sailing-trial","325","1565318","0.0-11.0-280.0","","","","false","","","","","","","","","","860","","345","","3","1","arrowright","1","arrowright","[0.15,0.85,0.325,0.675]","","",""
"sailing-trial","326","1568376","0.0-11.0-281.0","","","","false","","","","","","","","","","null","","1152","","1","1","null","null","arrowup","[0.15,0.85,0.325,0.675]","","",""
"sailing-trial","327","1572802","0.0-11.0-282.0","","","","false","","","","","","","","","","741","","437","","2","1","arrowright","1","arrowleft","[0.15,0.85,0.325,0.675]","","",""
"sailing-trial","328","1575569","0.0-11.0-283.0","","","","false","","","","","","","","","","null","","902","","1","1","null","null","arrowup","[0.15,0.85,0.325,0.675]","","",""
"sailing-trial","329","1578891","0.0-11.0-284.0","","","","false","","","","","","","","","","721","","38","","2","0","arrowright","1","arrowleft","[0.15,0.85,0.325,0.675]","","",""
"sailing-trial","330","1581633","0.0-11.0-285.0","","","","false","","","","","","","","","","null","","871","","1","1","null","null","arrowup","[0.15,0.85,0.325,0.675]","","",""
"sailing-trial","331","1586380","0.0-11.0-286.0","","","","false","","","","","","","","","","561","","20","","1","1","arrowleft","0","arrowright","[0.15,0.85,0.325,0.675]","","",""
"sailing-trial","332","1589052","0.0-11.0-287.0","","","","false","","","","","","","","","","null","","795","","2","1","null","null","arrowup","[0.15,0.85,0.325,0.675]","","",""
"sailing-trial","333","1593951","0.0-11.0-288.0","","","","false","","","","","","","","","","487","","359","","1","1","arrowleft","0","arrowright","[0.15,0.85,0.325,0.675]","","",""
"sailing-trial","334","1596983","0.0-11.0-289.0","","","","false","","","","","","","","","","null","","1088","","1","1","null","null","arrowup","[0.15,0.85,0.325,0.675]","","",""
"sailing-trial","335","1601048","0.0-11.0-290.0","","","","false","","","","","","","","","","524","","445","","1","1","arrowleft","0","arrowright","[0.15,0.85,0.325,0.675]","","",""
"sailing-trial","336","1603261","0.0-11.0-291.0","","","","false","","","","","","","","","","null","","831","","2","0","null","null","arrowup","[0.15,0.85,0.325,0.675]","","",""
"sailing-trial","337","1607185","0.0-11.0-292.0","","","","false","","","","","","","","","","751","","78","","1","1","arrowleft","0","arrowright","[0.325,0.675,0.15,0.85]","","",""
"sailing-trial","338","1611440","0.0-11.0-293.0","","","","false","","","","","","","","","","null","","1694","","2","0","null","null","arrowup","[0.325,0.675,0.15,0.85]","","",""
"sailing-trial","339","1616184","0.0-11.0-294.0","","","","false","","","","","","","","","","1620","","2","","1","1","arrowleft","0","arrowright","[0.325,0.675,0.15,0.85]","","",""
"sailing-trial","340","1619135","0.0-11.0-295.0","","","","false","","","","","","","","","","null","","1027","","3","1","null","null","arrowup","[0.325,0.675,0.15,0.85]","","",""
"sailing-trial","341","1622458","0.0-11.0-296.0","","","","false","","","","","","","","","","606","","83","","2","0","arrowright","1","arrowleft","[0.325,0.675,0.15,0.85]","","",""
"sailing-trial","342","1624644","0.0-11.0-297.0","","","","false","","","","","","","","","","null","","853","","0","0","null","null","arrowup","[0.325,0.675,0.15,0.85]","","",""
"sailing-trial","343","1629102","0.0-11.0-298.0","","","","false","","","","","","","","","","584","","495","","3","1","arrowright","1","arrowright","[0.325,0.675,0.15,0.85]","","",""
"sailing-trial","344","1631812","0.0-11.0-299.0","","","","false","","","","","","","","","","null","","1111","","0","0","null","null","arrowup","[0.325,0.675,0.15,0.85]","","",""
"sailing-trial","345","1635892","0.0-11.0-300.0","","","","false","","","","","","","","","","853","","508","","0","0","arrowleft","0","arrowleft","[0.325,0.675,0.15,0.85]","","",""
"sailing-trial","346","1638205","0.0-11.0-301.0","","","","false","","","","","","","","","","null","","1090","","2","0","null","null","arrowup","[0.325,0.675,0.15,0.85]","","",""
"sailing-trial","347","1642467","0.0-11.0-302.0","","","","false","","","","","","","","","","441","","335","","3","1","arrowright","1","arrowright","[0.325,0.675,0.15,0.85]","","",""
"sailing-trial","348","1645201","0.0-11.0-303.0","","","","false","","","","","","","","","","null","","725","","0","1","null","null","arrowup","[0.325,0.675,0.15,0.85]","","",""
"sailing-trial","349","1649568","0.0-11.0-304.0","","","","false","","","","","","","","","","566","","468","","1","1","arrowleft","0","arrowright","[0.325,0.675,0.15,0.85]","","",""
"sailing-trial","350","1652689","0.0-11.0-305.0","","","","false","","","","","","","","","","null","","1824","","2","0","null","null","arrowup","[0.325,0.675,0.15,0.85]","","",""
"sailing-trial","351","1658501","0.0-11.0-306.0","","","","false","","","","","","","","","","988","","954","","3","1","arrowright","1","arrowright","[0.325,0.675,0.15,0.85]","","",""
"sailing-trial","352","1660971","0.0-11.0-307.0","","","","false","","","","","","","","","","null","","1105","","3","0","null","null","arrowup","[0.325,0.675,0.15,0.85]","","",""
"sailing-trial","353","1665042","0.0-11.0-308.0","","","","false","","","","","","","","","","910","","380","","1","0","arrowleft","0","arrowright","[0.675,0.325,0.85,0.15]","","",""
"sailing-trial","354","1668770","0.0-11.0-309.0","","","","false","","","","","","","","","","null","","1134","","0","0","null","null","arrowup","[0.675,0.325,0.85,0.15]","","",""
"sailing-trial","355","1673463","0.0-11.0-310.0","","","","false","","","","","","","","","","787","","655","","3","0","arrowright","1","arrowright","[0.675,0.325,0.85,0.15]","","",""
"sailing-trial","356","1677168","0.0-11.0-311.0","","","","false","","","","","","","","","","null","","1731","","2","1","null","null","arrowup","[0.675,0.325,0.85,0.15]","","",""
"sailing-trial","357","1681144","0.0-11.0-312.0","","","","false","","","","","","","","","","1288","","93","","1","0","arrowleft","0","arrowright","[0.675,0.325,0.85,0.15]","","",""
"sailing-trial","358","1683519","0.0-11.0-313.0","","","","false","","","","","","","","","","null","","912","","3","0","null","null","arrowup","[0.675,0.325,0.85,0.15]","","",""
"sailing-trial","359","1688247","0.0-11.0-314.0","","","","false","","","","","","","","","","904","","72","","2","1","arrowright","1","arrowleft","[0.675,0.325,0.85,0.15]","","",""
"sailing-trial","360","1691927","0.0-11.0-315.0","","","","false","","","","","","","","","","null","","998","","3","0","null","null","arrowup","[0.675,0.325,0.85,0.15]","","",""
"sailing-trial","361","1699365","0.0-11.0-316.0","","","","false","","","","","","","","","","1922","","2085","","0","1","arrowleft","0","arrowleft","[0.675,0.325,0.85,0.15]","","",""
"sailing-trial","362","1702596","0.0-11.0-317.0","","","","false","","","","","","","","","","null","","1149","","0","1","null","null","arrowup","[0.675,0.325,0.85,0.15]","","",""
"sailing-trial","363","1707410","0.0-11.0-318.0","","","","false","","","","","","","","","","1143","","211","","1","0","arrowleft","0","arrowright","[0.675,0.325,0.85,0.15]","","",""
"sailing-trial","364","1710317","0.0-11.0-319.0","","","","false","","","","","","","","","","null","","1008","","2","1","null","null","arrowup","[0.675,0.325,0.85,0.15]","","",""
"sailing-trial","365","1714530","0.0-11.0-320.0","","","","false","","","","","","","","","","592","","502","","2","1","arrowright","1","arrowleft","[0.675,0.325,0.85,0.15]","","",""
"sailing-trial","366","1718167","0.0-11.0-321.0","","","","false","","","","","","","","","","null","","874","","2","1","null","null","arrowup","[0.675,0.325,0.85,0.15]","","",""
"sailing-trial","367","1724866","0.0-11.0-322.0","","","","false","","","","","","","","","","1803","","1521","","0","1","arrowleft","0","arrowleft","[0.675,0.325,0.85,0.15]","","",""
"sailing-trial","368","1728685","0.0-11.0-323.0","","","","false","","","","","","","","","","null","","1839","","3","0","null","null","arrowup","[0.675,0.325,0.85,0.15]","","",""
"sailing-trial","369","1735464","0.0-11.0-324.0","","","","false","","","","","","","","","","2780","","472","","2","1","arrowright","1","arrowleft","[0.675,0.325,0.85,0.15]","","",""
"sailing-trial","370","1738332","0.0-11.0-325.0","","","","false","","","","","","","","","","null","","989","","2","1","null","null","arrowup","[0.675,0.325,0.85,0.15]","","",""
"sailing-trial","371","1742786","0.0-11.0-326.0","","","","false","","","","","","","","","","798","","141","","2","0","arrowright","1","arrowleft","[0.325,0.675,0.15,0.85]","","",""
"sailing-trial","372","1746615","0.0-11.0-327.0","","","","false","","","","","","","","","","null","","1512","","1","1","null","null","arrowup","[0.325,0.675,0.15,0.85]","","",""
"sailing-trial","373","1751234","0.0-11.0-328.0","","","","false","","","","","","","","","","640","","386","","1","1","arrowleft","0","arrowright","[0.325,0.675,0.15,0.85]","","",""
"sailing-trial","374","1755082","0.0-11.0-329.0","","","","false","","","","","","","","","","null","","1763","","2","0","null","null","arrowup","[0.325,0.675,0.15,0.85]","","",""
"sailing-trial","375","1759077","0.0-11.0-330.0","","","","false","","","","","","","","","","610","","521","","2","0","arrowright","1","arrowleft","[0.325,0.675,0.15,0.85]","","",""
"sailing-trial","376","1762300","0.0-11.0-331.0","","","","false","","","","","","","","","","null","","1209","","2","1","null","null","arrowup","[0.325,0.675,0.15,0.85]","","",""
"sailing-trial","377","1766914","0.0-11.0-332.0","","","","false","","","","","","","","","","849","","229","","0","1","arrowleft","0","arrowleft","[0.325,0.675,0.15,0.85]","","",""
"sailing-trial","378","1769951","0.0-11.0-333.0","","","","false","","","","","","","","","","null","","1091","","3","1","null","null","arrowup","[0.325,0.675,0.15,0.85]","","",""
"sailing-trial","379","1774453","0.0-11.0-334.0","","","","false","","","","","","","","","","834","","281","","3","1","arrowright","1","arrowright","[0.325,0.675,0.15,0.85]","","",""
"sailing-trial","380","1777031","0.0-11.0-335.0","","","","false","","","","","","","","","","null","","903","","2","0","null","null","arrowup","[0.325,0.675,0.15,0.85]","","",""
"sailing-trial","381","1781273","0.0-11.0-336.0","","","","false","","","","","","","","","","596","","351","","1","1","arrowleft","0","arrowright","[0.325,0.675,0.15,0.85]","","",""
"sailing-trial","382","1784466","0.0-11.0-337.0","","","","false","","","","","","","","","","null","","973","","3","1","null","null","arrowup","[0.325,0.675,0.15,0.85]","","",""
"sailing-trial","383","1787949","0.0-11.0-338.0","","","","false","","","","","","","","","","786","","48","","2","0","arrowright","1","arrowleft","[0.325,0.675,0.15,0.85]","","",""
"sailing-trial","384","1791783","0.0-11.0-339.0","","","","false","","","","","","","","","","null","","874","","1","1","null","null","arrowup","[0.325,0.675,0.15,0.85]","","",""
"sailing-trial","385","1795550","0.0-11.0-340.0","","","","false","","","","","","","","","","677","","4","","0","0","arrowleft","0","arrowleft","[0.325,0.675,0.15,0.85]","","",""
"sailing-trial","386","1799079","0.0-11.0-341.0","","","","false","","","","","","","","","","null","","1485","","3","1","null","null","arrowup","[0.325,0.675,0.15,0.85]","","",""
"sailing-trial","387","1804503","0.0-11.0-342.0","","","","false","","","","","","","","","","1611","","462","","0","0","arrowleft","0","arrowleft","[0.325,0.675,0.15,0.85]","","",""
"sailing-trial","388","1808337","0.0-11.0-343.0","","","","false","","","","","","","","","","null","","1132","","3","1","null","null","arrowup","[0.325,0.675,0.15,0.85]","","",""
"sailing-trial","389","1813330","0.0-11.0-344.0","","","","false","","","","","","","","","","1359","","155","","1","1","arrowleft","0","arrowright","[0.325,0.675,0.15,0.85]","","",""
"sailing-trial","390","1816940","0.0-11.0-345.0","","","","false","","","","","","","","","","null","","1761","","3","0","null","null","arrowup","[0.325,0.675,0.15,0.85]","","",""
"sailing-trial","391","1821346","0.0-11.0-346.0","","","","false","","","","","","","","","","742","","365","","0","0","arrowleft","0","arrowleft","[0.15,0.85,0.325,0.675]","","",""
"sailing-trial","392","1824149","0.0-11.0-347.0","","","","false","","","","","","","","","","null","","934","","1","1","null","null","arrowup","[0.15,0.85,0.325,0.675]","","",""
"sailing-trial","393","1828503","0.0-11.0-348.0","","","","false","","","","","","","","","","904","","221","","2","0","arrowright","1","arrowleft","[0.15,0.85,0.325,0.675]","","",""
"sailing-trial","394","1832262","0.0-11.0-349.0","","","","false","","","","","","","","","","null","","1891","","1","1","null","null","arrowup","[0.15,0.85,0.325,0.675]","","",""
"sailing-trial","395","1835842","0.0-11.0-350.0","","","","false","","","","","","","","","","631","","264","","0","0","arrowleft","0","arrowleft","[0.15,0.85,0.325,0.675]","","",""
"sailing-trial","396","1838780","0.0-11.0-351.0","","","","false","","","","","","","","","","null","","1060","","0","1","null","null","arrowup","[0.15,0.85,0.325,0.675]","","",""
"sailing-trial","397","1843316","0.0-11.0-352.0","","","","false","","","","","","","","","","786","","386","","2","1","arrowright","1","arrowleft","[0.15,0.85,0.325,0.675]","","",""
"sailing-trial","398","1845709","0.0-11.0-353.0","","","","false","","","","","","","","","","null","","719","","2","0","null","null","arrowup","[0.15,0.85,0.325,0.675]","","",""
"sailing-trial","399","1850199","0.0-11.0-354.0","","","","false","","","","","","","","","","1020","","444","","0","1","arrowleft","0","arrowleft","[0.15,0.85,0.325,0.675]","","",""
"sailing-trial","400","1852628","0.0-11.0-355.0","","","","false","","","","","","","","","","null","","997","","1","0","null","null","arrowup","[0.15,0.85,0.325,0.675]","","",""
"sailing-trial","401","1856015","0.0-11.0-356.0","","","","false","","","","","","","","","","721","","88","","0","0","arrowleft","0","arrowleft","[0.15,0.85,0.325,0.675]","","",""
"sailing-trial","402","1858519","0.0-11.0-357.0","","","","false","","","","","","","","","","null","","1138","","3","0","null","null","arrowup","[0.15,0.85,0.325,0.675]","","",""
"sailing-trial","403","1863031","0.0-11.0-358.0","","","","false","","","","","","","","","","658","","642","","0","0","arrowleft","0","arrowleft","[0.15,0.85,0.325,0.675]","","",""
"sailing-trial","404","1866396","0.0-11.0-359.0","","","","false","","","","","","","","","","null","","1307","","3","1","null","null","arrowup","[0.15,0.85,0.325,0.675]","","",""
"sailing-trial","405","1870819","0.0-11.0-360.0","","","","false","","","","","","","","","","1375","","150","","0","0","arrowleft","0","arrowleft","[0.15,0.85,0.325,0.675]","","",""
"sailing-trial","406","1874045","0.0-11.0-361.0","","","","false","","","","","","","","","","null","","1669","","0","0","null","null","arrowup","[0.15,0.85,0.325,0.675]","","",""
"sailing-trial","407","1878711","0.0-11.0-362.0","","","","false","","","","","","","","","","622","","382","","2","1","arrowright","1","arrowleft","[0.15,0.85,0.325,0.675]","","",""
"sailing-trial","408","1882332","0.0-11.0-363.0","","","","false","","","","","","","","","","null","","1584","","0","1","null","null","arrowup","[0.15,0.85,0.325,0.675]","","",""
"sailing-trial","409","1886905","0.0-11.0-364.0","","","","false","","","","","","","","","","774","","850","","2","0","arrowright","1","arrowleft","[0.675,0.325,0.85,0.15]","","",""
"sailing-trial","410","1889547","0.0-11.0-365.0","","","","false","","","","","","","","","","null","","1335","","3","0","null","null","arrowup","[0.675,0.325,0.85,0.15]","","",""
"sailing-trial","411","1892989","0.0-11.0-366.0","","","","false","","","","","","","","","","676","","71","","3","0","arrowright","1","arrowright","[0.675,0.325,0.85,0.15]","","",""
"sailing-trial","412","1896924","0.0-11.0-367.0","","","","false","","","","","","","","","","null","","2358","","3","0","null","null","arrowup","[0.675,0.325,0.85,0.15]","","",""
"sailing-trial","413","1901249","0.0-11.0-368.0","","","","false","","","","","","","","","","723","","182","","0","1","arrowleft","0","arrowleft","[0.675,0.325,0.85,0.15]","","",""
"sailing-trial","414","1905367","0.0-11.0-369.0","","","","false","","","","","","","","","","null","","1925","","3","0","null","null","arrowup","[0.675,0.325,0.85,0.15]","","",""
"sailing-trial","415","1909891","0.0-11.0-370.0","","","","false","","","","","","","","","","749","","153","","0","1","arrowleft","0","arrowleft","[0.675,0.325,0.85,0.15]","","",""
"sailing-trial","416","1913765","0.0-11.0-371.0","","","","false","","","","","","","","","","null","","1806","","0","0","null","null","arrowup","[0.675,0.325,0.85,0.15]","","",""
"sailing-trial","417","1918447","0.0-11.0-372.0","","","","false","","","","","","","","","","670","","488","","2","1","arrowright","1","arrowleft","[0.675,0.325,0.85,0.15]","","",""
"sailing-trial","418","1921228","0.0-11.0-373.0","","","","false","","","","","","","","","","null","","852","","0","1","null","null","arrowup","[0.675,0.325,0.85,0.15]","","",""
"sailing-trial","419","1924740","0.0-11.0-374.0","","","","false","","","","","","","","","","596","","436","","2","0","arrowright","1","arrowleft","[0.675,0.325,0.85,0.15]","","",""
"sailing-trial","420","1927068","0.0-11.0-375.0","","","","false","","","","","","","","","","null","","847","","0","0","null","null","arrowup","[0.675,0.325,0.85,0.15]","","",""
"sailing-trial","421","1931458","0.0-11.0-376.0","","","","false","","","","","","","","","","1546","","50","","1","0","arrowleft","0","arrowright","[0.675,0.325,0.85,0.15]","","",""
"sailing-trial","422","1933963","0.0-11.0-377.0","","","","false","","","","","","","","","","null","","1022","","3","0","null","null","arrowup","[0.675,0.325,0.85,0.15]","","",""
"sailing-trial","423","1937884","0.0-11.0-378.0","","","","false","","","","","","","","","","856","","357","","3","0","arrowright","1","arrowright","[0.675,0.325,0.85,0.15]","","",""
"sailing-trial","424","1940388","0.0-11.0-379.0","","","","false","","","","","","","","","","null","","1174","","1","0","null","null","arrowup","[0.675,0.325,0.85,0.15]","","",""
"sailing-trial","425","1943785","0.0-11.0-380.0","","","","false","","","","","","","","","","606","","240","","1","0","arrowleft","0","arrowright","[0.675,0.325,0.85,0.15]","","",""
"sailing-trial","426","1945870","0.0-11.0-381.0","","","","false","","","","","","","","","","null","","866","","3","0","null","null","arrowup","[0.675,0.325,0.85,0.15]","","",""
"sailing-trial","427","1950096","0.0-11.0-382.0","","","","false","","","","","","","","","","514","","347","","2","1","arrowright","1","arrowleft","[0.675,0.325,0.85,0.15]","","",""
"sailing-trial","428","1953281","0.0-11.0-383.0","","","","false","","","","","","","","","","null","","906","","1","0","null","null","arrowup","[0.675,0.325,0.85,0.15]","","",""
"sailing-trial","429","1957397","0.0-11.0-384.0","","","","false","","","","","","","","","","626","","364","","0","1","arrowleft","0","arrowleft","[0.85,0.15,0.675,0.325]","","",""
"sailing-trial","430","1959644","0.0-11.0-385.0","","","","false","","","","","","","","","","null","","905","","1","0","null","null","arrowup","[0.85,0.15,0.675,0.325]","","",""
"sailing-trial","431","1964481","0.0-11.0-386.0","","","","false","","","","","","","","","","1287","","541","","2","1","arrowright","1","arrowleft","[0.85,0.15,0.675,0.325]","","",""
"sailing-trial","432","1968730","0.0-11.0-387.0","","","","false","","","","","","","","","","null","","2071","","3","0","null","null","arrowup","[0.85,0.15,0.675,0.325]","","",""
"sailing-trial","433","1974996","0.0-11.0-388.0","","","","false","","","","","","","","","","668","","555","","0","1","arrowleft","0","arrowleft","[0.85,0.15,0.675,0.325]","","",""
"sailing-trial","434","1978447","0.0-11.0-389.0","","","","false","","","","","","","","","","null","","1469","","2","1","null","null","arrowup","[0.85,0.15,0.675,0.325]","","",""
"sailing-trial","435","1982365","0.0-11.0-390.0","","","","false","","","","","","","","","","602","","280","","2","1","arrowright","1","arrowleft","[0.85,0.15,0.675,0.325]","","",""
"sailing-trial","436","1985310","0.0-11.0-391.0","","","","false","","","","","","","","","","null","","955","","0","1","null","null","arrowup","[0.85,0.15,0.675,0.325]","","",""
"sailing-trial","437","1988494","0.0-11.0-392.0","","","","false","","","","","","","","","","696","","13","","3","0","arrowright","1","arrowright","[0.85,0.15,0.675,0.325]","","",""
"sailing-trial","438","1991372","0.0-11.0-393.0","","","","false","","","","","","","","","","null","","1497","","1","0","null","null","arrowup","[0.85,0.15,0.675,0.325]","","",""
"sailing-trial","439","1996364","0.0-11.0-394.0","","","","false","","","","","","","","","","593","","537","","0","1","arrowleft","0","arrowleft","[0.85,0.15,0.675,0.325]","","",""
"sailing-trial","440","1999249","0.0-11.0-395.0","","","","false","","","","","","","","","","null","","912","","2","1","null","null","arrowup","[0.85,0.15,0.675,0.325]","","",""
"sailing-trial","441","2003781","0.0-11.0-396.0","","","","false","","","","","","","","","","1052","","515","","3","0","arrowright","1","arrowright","[0.85,0.15,0.675,0.325]","","",""
"sailing-trial","442","2006454","0.0-11.0-397.0","","","","false","","","","","","","","","","null","","911","","3","0","null","null","arrowup","[0.85,0.15,0.675,0.325]","","",""
"sailing-trial","443","2010444","0.0-11.0-398.0","","","","false","","","","","","","","","","645","","429","","0","1","arrowleft","0","arrowleft","[0.85,0.15,0.675,0.325]","","",""
"sailing-trial","444","2013347","0.0-11.0-399.0","","","","false","","","","","","","","","","null","","1036","","2","1","null","null","arrowup","[0.85,0.15,0.675,0.325]","","",""
"instructions","445","2016234","0.0-12.0","","","","","","","","","","2887","","","","","","","","","","","","","","","","[{""page_index"":0,""viewing_time"":2887}]"
"survey-debrief","446","2025429","0.0-13.0","","","","","","","","","","9191","","","","","","","","","","","","","","{""difficulty"":""4"",""fun"":""1"",""clarity"":""5"",""strategy"":"""",""feedback"":""""}","",""
