"trial_type","trial_index","time_elapsed","internal_node_id","value","metadata","success","timeout","failed_images","failed_audio","failed_video","browser_interaction","low_quality","rt","stimulus","response","button_pressed","island_rt","island_response","boat_rt","boat_response","boat","reward","island_key","island","boat_key","reward_probabilities","responses","num_errors","view_history"
"pavlovia","0","3","0.0-0.0","","","","","","","","","","","","","","","","","","","","","","","","","",""
"call-function","1","4","0.0-1.0","","{""task_version"":""sailing_part1_v1"",""task_condition"":""good"",""boats"":[""A"",""B"",""D"",""C""],""boats_demo"":[""E"",""G"",""H"",""F""],""islands"":[""B"",""A""],""subject_id"":""14537"",""age"":""10"",""gender"":""Female""}","","","","","","","","","","","","","","","","","","","","","","","",""
"preload","2","955","0.0-2.0","","","true","false","[]","[]","[]","[{""event"":""fullscreenenter"",""trial"":3,""time"":15063}]","false","","","","","","","","","","","","","","","","",""
"fullscreen","3","16058","0.0-3.0","","","true","","","","","","","","","","","","","","","","","","","","","","",""
"audio-keyboard-response","4","18554","0.0-4.0-0.0","","","","","","","","","","2362.630385487528","audio/beep_loop.wav"," ","","","","","","","","","","","","","",""
"audio-test","5","25071","0.0-4.0-1.0","","","","","","","","[{""event"":""fullscreenenter"",""trial"":3,""time"":15063},{""event"":""blur"",""trial"":6,""time"":35433},{""event"":""focus"",""trial"":6,""time"":38004},{""event"":""fullscreenexit"",""trial"":6,""time"":38231},{""event"":""blur"",""trial"":6,""time"":39549},{""event"":""focus"",""trial"":6,""time"":52295}]","false","null","audio/turtle.mp3","","3","","","","","","","","","","","","",""
"audio-test","6","57132","0.0-4.0-2.0","","","","","","","","","","null","audio/shark.mp3","","2","","","","","","","","","","","","",""
"sailing-instructions","7","93157","0.0-5.0-0.0-0.0","","","","","","","","","","","","","","null","null","null","null","null","null","","","","","","",""
"sailing-trial","8","96932","0.0-5.0-0.0-1.0-0.0","","","","false","","","","","","","","","","2675.2999999821186","","null","","null","null","arrowleft","0","null","null","","",""
"sailing-trial","9","98984","0.0-5.0-0.0-1.0-1.0","","","","false","","","","","","","","","","915.4000000059605","","null","","null","null","arrowright","1","null","null","","",""
"sailing-trial","10","102827","0.0-5.0-0.0-1.0-2.0","","","","false","","","","","","","","","","2726.7999999821186","","null","","null","null","arrowleft","0","null","null","","",""
"sailing-instructions","11","161698","0.0-5.0-0.0-2.0","","","","","","","","","","","","","","null","null","null","null","0","null","","","","","","",""
"sailing-trial","12","167275","0.0-5.0-0.0-3.0-0.0","","","","false","","","","","","","","","","null","","2343.7000000178814","","2","1","null","null","arrowleft","[1,1,1,1]","","",""
"sailing-trial","13","171046","0.0-5.0-0.0-3.0-1.0","","","","false","","","","","","","","","","null","","904.5","","3","1","null","null","arrowright","[1,1,1,1]","","",""
"sailing-trial","14","175864","0.0-5.0-0.0-3.0-2.0","","","","false","","","","","","","","","","null","","2082.300000011921","","2","0","null","null","arrowleft","[0,0,0,0]","","",""
"sailing-instructions","15","187170","0.0-5.0-0.0-4.0","","","","","","","","","","","","","","null","null","null","null","null","null","","","","","","",""
"sailing-comprehension","16","204154","0.0-5.0-0.0-5.0","","","","","","","","","","11859.5","","","","","","","","","","","","","","[""true"",""false"",""false"",""true""]","1",""
"sailing-instructions","17","233026","0.0-5.0-0.1-0.1","","","","","","","","","","","","","","null","null","null","null","null","null","","","","","","",""
"sailing-trial","18","235561","0.0-5.0-0.1-1.1-0.1","","","","false","","","","","","","","","","1430.5","","null","","null","null","arrowleft","0","null","null","","",""
"sailing-trial","19","237644","0.0-5.0-0.1-1.1-1.1","","","","false","","","","","","","","","","947.8000000119209","","null","","null","null","arrowright","1","null","null","","",""
"sailing-trial","20","239557","0.0-5.0-0.1-1.1-2.1","","","","false","","","","","","","","","","808.2000000178814","","null","","null","null","arrowleft","0","null","null","","",""
"sailing-instructions","21","281712","0.0-5.0-0.1-2.1","","","","","","","","","","","","","","null","null","null","null","0","null","","","","","","",""
"sailing-trial","22","285465","0.0-5.0-0.1-3.1-0.1","","","","false","","","","","","","","","","null","","986.2000000178814","","2","1","null","null","arrowleft","[1,1,1,1]","","",""
"sailing-trial","23","287871","0.0-5.0-0.1-3.1-1.1","","","","false","","","","","","","","","","null","","30.700000017881393","","3","1","null","null","arrowright","[1,1,1,1]","","",""
"sailing-trial","24","289905","0.0-5.0-0.1-3.1-2.1","","","","false","","","","","","","","","","null","","465.30000001192093","","2","0","null","null","arrowleft","[0,0,0,0]","","",""
"sailing-instructions","25","297488","0.0-5.0-0.1-4.1","","","","","","","","","","","","","","null","null","null","null","null","null","","","","","","",""
"sailing-comprehension","26","307287","0.0-5.0-0.1-5.1","","","","","","","","","","7791.0999999940395","","","","","","","","","","","","","","[""true"",""true"",""false"",""true""]","0",""
"sailing-instructions","27","373461","0.0-6.0-0.0-0.0","","","","","","","","","","","","","","null","null","null","null","null","null","","","","","","",""
"sailing-comprehension","28","383860","0.0-6.0-0.0-1.0","","","","","","","","","","8967.40000000596","","","","","","","","","","","","","","[""true"",""false"",""true""]","0",""
"sailing-instructions","29","397340","0.0-7.0-0.0-0.0","","","","","","","","","","","","","","null","null","null","null","null","null","","","","","","",""
"sailing-trial","30","401912","0.0-7.0-0.0-1.0-0.0","","","","false","","","","","","","","","","null","","1645.4000000059605","","0","1","null","null","arrowup","[0.2,0.8,0.2,0.8]","","",""
"sailing-trial","31","404912","0.0-7.0-0.0-1.0-1.0","","","","false","","","","","","","","","","null","","1056.5999999940395","","1","1","null","null","arrowup","[0.2,0.8,0.2,0.8]","","",""
"sailing-trial","32","406865","0.0-7.0-0.0-1.0-2.0","","","","false","","","","","","","","","","null","","658.5","","2","0","null","null","arrowup","[0.2,0.8,0.2,0.8]","","",""
"sailing-trial","33","409884","0.0-7.0-0.0-1.0-3.0","","","","false","","","","","","","","","","null","","951.2999999821186","","3","1","null","null","arrowup","[0.2,0.8,0.2,0.8]","","",""
"sailing-comprehension","34","418723","0.0-7.0-0.0-2.0","","","","","","","","","","7288","","","","","","","","","","","","","","[""false""]","0",""
"sailing-instructions","35","429091","0.0-8.0-0.0-0.0","","","","","","","","","","","","","","null","null","null","null","null","null","","","","","","",""
"sailing-comprehension","36","433923","0.0-8.0-0.0-1.0","","","","","","","","","","3372.0999999940395","","","","","","","","","","","","","","[""true""]","0",""
"sailing-instructions","37","464136","0.0-9.0-0.0-0.0","","","","","","","","[{""event"":""fullscreenenter"",""trial"":3,""time"":15063},{""event"":""blur"",""trial"":6,""time"":35433},{""event"":""focus"",""trial"":6,""time"":38004},{""event"":""fullscreenexit"",""trial"":6,""time"":38231},{""event"":""blur"",""trial"":6,""time"":39549},{""event"":""focus"",""trial"":6,""time"":52295},{""event"":""blur"",""trial"":38,""time"":467819},{""event"":""focus"",""trial"":38,""time"":467912}]","false","","","","","null","null","null","null","null","null","","","","","","",""
"sailing-trial","38","472019","0.0-9.0-0.0-1.0-0.0","","","","false","","","","","","","","","","2245.300000011921","","1023.0999999940395","","2","0","arrowright","1","arrowleft","[0.2,0.8,0.2,0.8]","","",""
"sailing-trial","39","477152","0.0-9.0-0.0-1.0-1.0","","","","false","","","","","","","","","","1561.9000000059605","","113.90000000596046","","3","1","arrowright","1","arrowright","[0.2,0.8,0.2,0.8]","","",""
"sailing-trial","40","480386","0.0-9.0-0.0-1.0-2.0","","","","false","","","","","","","","","","null","","1253.6000000238419","","0","0","null","null","arrowup","[0.2,0.8,0.2,0.8]","","",""
"sailing-trial","41","484072","0.0-9.0-0.0-1.0-3.0","","","","false","","","","","","","","","","691.7000000178814","","19","","3","1","arrowright","1","arrowright","[0.2,0.8,0.2,0.8]","","",""
"sailing-trial","42","487639","0.0-9.0-0.0-1.0-4.0","","","","false","","","","","","","","","","null","","1341.9000000059605","","3","1","null","null","arrowup","[0.2,0.8,0.2,0.8]","","",""
"sailing-trial","43","491912","0.0-9.0-0.0-1.0-5.0","","","","false","","","","","","","","","","542","","35.10000002384186","","3","0","arrowright","1","arrowright","[0.2,0.8,0.2,0.8]","","",""
"sailing-instructions","44","516955","0.0-10.0","","","","","","","","","","","","","","null","null","null","null","null","null","","","","","","",""
"sailing-trial","45","522669","0.0-11.0-0.0","","","","false","","","","","","","","","","1570.5","","810.2000000178814","","2","1","arrowright","1","arrowleft","[0.325,0.675,0.15,0.85]","","",""
"sailing-trial","46","526368","0.0-11.0-1.0","","","","false","","","","","","","","","","null","","1181.7000000178814","","1","1","null","null","arrowup","[0.325,0.675,0.15,0.85]","","",""
"sailing-trial","47","530607","0.0-11.0-2.0","","","","false","","","","","","","","","","804.4000000059605","","353","","1","1","arrowleft","0","arrowright","[0.325,0.675,0.15,0.85]","","",""
"sailing-trial","48","533970","0.0-11.0-3.0","","","","false","","","","","","","","","","null","","1067.5","","0","1","null","null","arrowup","[0.325,0.675,0.15,0.85]","","",""
"sailing-trial","49","538093","0.0-11.0-4.0","","","","false","","","","","","","","","","831.8000000119209","","235.69999998807907","","0","1","arrowleft","0","arrowleft","[0.325,0.675,0.15,0.85]","","",""
"sailing-trial","50","541673","0.0-11.0-5.0","","","","false","","","","","","","","","","null","","1173.699999988079","","3","1","null","null","arrowup","[0.325,0.675,0.15,0.85]","","",""
"sailing-trial","51","547203","0.0-11.0-6.0","","","","false","","","","","","","","","","2086","","375.7999999821186","","2","0","arrowright","1","arrowleft","[0.325,0.675,0.15,0.85]","","",""
"sailing-trial","52","550113","0.0-11.0-7.0","","","","false","","","","","","","","","","null","","1140.5999999940395","","3","0","null","null","arrowup","[0.325,0.675,0.15,0.85]","","",""
"sailing-trial","53","553699","0.0-11.0-8.0","","","","false","","","","","","","","","","694.6999999880791","","105.7000000178814","","3","0","arrowright","1","arrowright","[0.325,0.675,0.15,0.85]","","",""
"sailing-trial","54","557847","0.0-11.0-9.0","","","","false","","","","","","","","","","null","","1121.5999999940395","","1","0","null","null","arrowup","[0.325,0.675,0.15,0.85]","","",""
"sailing-trial","55","561453","0.0-11.0-10.0","","","","false","","","","","","","","","","942","","46.79999998211861","","1","0","arrowleft","0","arrowright","[0.325,0.675,0.15,0.85]","","",""
"sailing-trial","56","564058","0.0-11.0-11.0","","","","false","","","","","","","","","","null","","1081.199999988079","","2","0","null","null","arrowup","[0.325,0.675,0.15,0.85]","","",""
"sailing-trial","57","568588","0.0-11.0-12.0","","","","false","","","","","","","","","","519.3000000119209","","891.4000000059605","","0","1","arrowleft","0","arrowleft","[0.325,0.675,0.15,0.85]","","",""
"sailing-trial","58","571488","0.0-11.0-13.0","","","","false","","","","","","","","","","null","","957.1999999880791","","0","1","null","null","arrowup","[0.325,0.675,0.15,0.85]","","",""
"sailing-trial","59","574274","0.0-11.0-14.0","","","","false","","","","","","","","","","416.7999999821186","","8.699999988079071","","0","0","arrowleft","0","arrowleft","[0.325,0.675,0.15,0.85]","","",""
"sailing-trial","60","577068","0.0-11.0-15.0","","","","false","","","","","","","","","","null","","1197.300000011921","","0","0","null","null","arrowup","[0.325,0.675,0.15,0.85]","","",""
"sailing-trial","61","580513","0.0-11.0-16.0","","","","false","","","","","","","","","","621.8999999761581","","186.59999999403954","","0","0","arrowleft","0","arrowleft","[0.15,0.85,0.325,0.675]","","",""
"sailing-trial","62","582978","0.0-11.0-17.0","","","","false","","","","","","","","","","null","","982.4000000059605","","1","0","null","null","arrowup","[0.15,0.85,0.325,0.675]","","",""
"sailing-trial","63","586522","0.0-11.0-18.0","","","","false","","","","","","","","","","823.0999999940395","","162.40000000596046","","2","0","arrowright","1","arrowleft","[0.15,0.85,0.325,0.675]","","",""
"sailing-trial","64","589042","0.0-11.0-19.0","","","","false","","","","","","","","","","null","","975.5999999940395","","0","0","null","null","arrowup","[0.15,0.85,0.325,0.675]","","",""
"sailing-trial","65","593497","0.0-11.0-20.0","","","","false","","","","","","","","","","608.0999999940395","","788","","3","1","arrowright","1","arrowright","[0.15,0.85,0.325,0.675]","","",""
"sailing-trial","66","596639","0.0-11.0-21.0","","","","false","","","","","","","","","","null","","925","","1","1","null","null","arrowup","[0.15,0.85,0.325,0.675]","","",""
"sailing-trial","67","600920","0.0-11.0-22.0","","","","false","","","","","","","","","","617.7000000178814","","639.2999999821186","","3","1","arrowright","1","arrowright","[0.15,0.85,0.325,0.675]","","",""
"sailing-trial","68","603345","0.0-11.0-23.0","","","","false","","","","","","","","","","null","","887.3000000119209","","0","0","null","null","arrowup","[0.15,0.85,0.325,0.675]","","",""
"sailing-trial","69","607577","0.0-11.0-24.0","","","","false","","","","","","","","","","631.5","","552","","3","0","arrowright","1","arrowright","[0.15,0.85,0.325,0.675]","","",""
"sailing-trial","70","609953","0.0-11.0-25.0","","","","false","","","","","","","","","","null","","926.7999999821186","","0","0","null","null","arrowup","[0.15,0.85,0.325,0.675]","","",""
"sailing-trial","71","613448","0.0-11.0-26.0","","","","false","","","","","","","","","","647.4000000059605","","85.09999999403954","","3","0","arrowright","1","arrowright","[0.15,0.85,0.325,0.675]","","",""
"sailing-trial","72","616178","0.0-11.0-27.0","","","","false","","","","","","","","","","null","","1041.4000000059605","","1","0","null","null","arrowup","[0.15,0.85,0.325,0.675]","","",""
"sailing-trial","73","619945","0.0-11.0-28.0","","","","false","","","","","","","","","","517.5999999940395","","777","","1","0","arrowleft","0","arrowright","[0.15,0.85,0.325,0.675]","","",""
"sailing-trial","74","623675","0.0-11.0-29.0","","","","false","","","","","","","","","","null","","979.5999999940395","","0","0","null","null","arrowup","[0.15,0.85,0.325,0.675]","","",""
"sailing-trial","75","626913","0.0-11.0-30.0","","","","false","","","","","","","","","","644.1999999880791","","36.79999998211861","","1","0","arrowleft","0","arrowright","[0.15,0.85,0.325,0.675]","","",""
"sailing-trial","76","631411","0.0-11.0-31.0","","","","false","","","","","","","","","","null","","991.3000000119209","","3","1","null","null","arrowup","[0.15,0.85,0.325,0.675]","","",""
"sailing-trial","77","635056","0.0-11.0-32.0","","","","false","","","","","","","","","","557.5","","160","","3","1","arrowright","1","arrowright","[0.15,0.85,0.325,0.675]","","",""
"sailing-trial","78","638996","0.0-11.0-33.0","","","","false","","","","","","","","","","null","","918.5999999940395","","0","0","null","null","arrowup","[0.15,0.85,0.325,0.675]","","",""
"sailing-trial","79","643409","0.0-11.0-34.0","","","","false","","","","","","","","","","1249.4000000059605","","108.09999999403954","","3","1","arrowright","1","arrowright","[0.15,0.85,0.325,0.675]","","",""
"sailing-trial","80","646904","0.0-11.0-35.0","","","","false","","","","","","","","","","null","","1463.2999999821186","","2","0","null","null","arrowup","[0.15,0.85,0.325,0.675]","","",""
"sailing-trial","81","650537","0.0-11.0-36.0","","","","false","","","","","","","","","","638.6999999880791","","52.20000001788139","","3","1","arrowright","1","arrowright","[0.15,0.85,0.325,0.675]","","",""
"sailing-trial","82","654237","0.0-11.0-37.0","","","","false","","","","","","","","","","null","","1493.7999999821186","","1","1","null","null","arrowup","[0.15,0.85,0.325,0.675]","","",""
"sailing-trial","83","657770","0.0-11.0-38.0","","","","false","","","","","","","","","","560.8000000119209","","148.5","","3","0","arrowright","1","arrowright","[0.85,0.15,0.675,0.325]","","",""
"sailing-trial","84","660286","0.0-11.0-39.0","","","","false","","","","","","","","","","null","","1075.4000000059605","","3","0","null","null","arrowup","[0.85,0.15,0.675,0.325]","","",""
"sailing-trial","85","664441","0.0-11.0-40.0","","","","false","","","","","","","","","","584.6999999880791","","969.5999999940395","","3","0","arrowright","1","arrowright","[0.85,0.15,0.675,0.325]","","",""
"sailing-trial","86","667703","0.0-11.0-41.0","","","","false","","","","","","","","","","null","","1779.5","","0","0","null","null","arrowup","[0.85,0.15,0.675,0.325]","","",""
"sailing-trial","87","670710","0.0-11.0-42.0","","","","false","","","","","","","","","","533.3000000119209","","62.5","","1","0","arrowleft","0","arrowright","[0.85,0.15,0.675,0.325]","","",""
"sailing-trial","88","673991","0.0-11.0-43.0","","","","false","","","","","","","","","","null","","918.5999999940395","","0","1","null","null","arrowup","[0.85,0.15,0.675,0.325]","","",""
"sailing-trial","89","678407","0.0-11.0-44.0","","","","false","","","","","","","","","","717.5","","127","","0","1","arrowleft","0","arrowleft","[0.85,0.15,0.675,0.325]","","",""
"sailing-trial","90","681113","0.0-11.0-45.0","","","","false","","","","","","","","","","null","","1046.2000000178814","","1","0","null","null","arrowup","[0.85,0.15,0.675,0.325]","","",""
"sailing-trial","91","684582","0.0-11.0-46.0","","","","false","","","","","","","","","","460","","28.80000001192093","","0","1","arrowleft","0","arrowleft","[0.85,0.15,0.675,0.325]","","",""
"sailing-trial","92","687070","0.0-11.0-47.0","","","","false","","","","","","","","","","null","","853","","0","0","null","null","arrowup","[0.85,0.15,0.675,0.325]","","",""
"sailing-trial","93","691820","0.0-11.0-48.0","","","","false","","","","","","","","","","774.8999999761581","","914.7999999821186","","0","1","arrowleft","0","arrowleft","[0.85,0.15,0.675,0.325]","","",""
"sailing-trial","94","694891","0.0-11.0-49.0","","","","false","","","","","","","","","","null","","1057","","2","1","null","null","arrowup","[0.85,0.15,0.675,0.325]","","",""
"sailing-trial","95","699075","0.0-11.0-50.0","","","","false","","","","","","","","","","642.5999999940395","","609.5","","2","1","arrowright","1","arrowleft","[0.85,0.15,0.675,0.325]","","",""
"sailing-trial","96","701994","0.0-11.0-51.0","","","","false","","","","","","","","","","null","","929.1000000238419","","0","1","null","null","arrowup","[0.85,0.15,0.675,0.325]","","",""
"sailing-trial","97","706147","0.0-11.0-52.0","","","","false","","","","","","","","","","858.3999999761581","","274.7000000178814","","0","1","arrowleft","0","arrowleft","[0.85,0.15,0.675,0.325]","","",""
"sailing-trial","98","708674","0.0-11.0-53.0","","","","false","","","","","","","","","","null","","906.6999999880791","","3","0","null","null","arrowup","[0.85,0.15,0.675,0.325]","","",""
"sailing-trial","99","713413","0.0-11.0-54.0","","","","false","","","","","","","","","","606.3999999761581","","492.5","","2","1","arrowright","1","arrowleft","[0.85,0.15,0.675,0.325]","","",""
"sailing-trial","100","716126","0.0-11.0-55.0","","","","false","","","","","","","","","","null","","1110.699999988079","","3","0","null","null","arrowup","[0.85,0.15,0.675,0.325]","","",""
"sailing-trial","101","719406","0.0-11.0-56.0","","","","false","","","","","","","","","","597.5999999940395","","90","","0","0","arrowleft","0","arrowleft","[0.85,0.15,0.675,0.325]","","",""
"sailing-trial","102","721996","0.0-11.0-57.0","","","","false","","","","","","","","","","null","","1098.300000011921","","1","0","null","null","arrowup","[0.85,0.15,0.675,0.325]","","",""
"sailing-trial","103","725811","0.0-11.0-58.0","","","","false","","","","","","","","","","1150.0999999940395","","49.69999998807907","","2","0","arrowright","1","arrowleft","[0.85,0.15,0.675,0.325]","","",""
"sailing-trial","104","728451","0.0-11.0-59.0","","","","false","","","","","","","","","","null","","1130.3999999761581","","2","0","null","null","arrowup","[0.85,0.15,0.675,0.325]","","",""
"sailing-trial","105","732069","0.0-11.0-60.0","","","","false","","","","","","","","","","959.3000000119209","","160.10000002384186","","3","0","arrowright","1","arrowright","[0.85,0.15,0.675,0.325]","","",""
"sailing-trial","106","735688","0.0-11.0-61.0","","","","false","","","","","","","","","","null","","1333.1000000238419","","3","1","null","null","arrowup","[0.85,0.15,0.675,0.325]","","",""
"sailing-trial","107","739724","0.0-11.0-62.0","","","","false","","","","","","","","","","922.5","","71","","3","1","arrowright","1","arrowright","[0.675,0.325,0.85,0.15]","","",""
"sailing-trial","108","742564","0.0-11.0-63.0","","","","false","","","","","","","","","","null","","1046.0999999940395","","1","0","null","null","arrowup","[0.675,0.325,0.85,0.15]","","",""
"sailing-trial","109","746936","0.0-11.0-64.0","","","","false","","","","","","","","","","688.5999999940395","","1084.9000000059605","","3","0","arrowright","1","arrowright","[0.675,0.325,0.85,0.15]","","",""
"sailing-trial","110","749933","0.0-11.0-65.0","","","","false","","","","","","","","","","null","","893.3999999761581","","0","1","null","null","arrowup","[0.675,0.325,0.85,0.15]","","",""
"sailing-trial","111","754912","0.0-11.0-66.0","","","","false","","","","","","","","","","647","","1436.0999999940395","","0","1","arrowleft","0","arrowleft","[0.675,0.325,0.85,0.15]","","",""
"sailing-trial","112","758262","0.0-11.0-67.0","","","","false","","","","","","","","","","null","","1363","","3","1","null","null","arrowup","[0.675,0.325,0.85,0.15]","","",""
"sailing-trial","113","761549","0.0-11.0-68.0","","","","false","","","","","","","","","","677.5","","36.39999997615814","","3","0","arrowright","1","arrowright","[0.675,0.325,0.85,0.15]","","",""
"sailing-trial","114","765013","0.0-11.0-69.0","","","","false","","","","","","","","","","null","","1381.4000000059605","","0","1","null","null","arrowup","[0.675,0.325,0.85,0.15]","","",""
"sailing-trial","115","769800","0.0-11.0-70.0","","","","false","","","","","","","","","","509.19999998807907","","1348.2999999821186","","0","1","arrowleft","0","arrowleft","[0.675,0.325,0.85,0.15]","","",""
"sailing-trial","116","773033","0.0-11.0-71.0","","","","false","","","","","","","","","","null","","1283.800000011921","","0","1","null","null","arrowup","[0.675,0.325,0.85,0.15]","","",""
"sailing-trial","117","777103","0.0-11.0-72.0","","","","false","","","","","","","","","","1097.5999999940395","","27","","0","1","arrowleft","0","arrowleft","[0.675,0.325,0.85,0.15]","","",""
"sailing-trial","118","780319","0.0-11.0-73.0","","","","false","","","","","","","","","","null","","1068.0999999940395","","2","1","null","null","arrowup","[0.675,0.325,0.85,0.15]","","",""
"sailing-trial","119","784019","0.0-11.0-74.0","","","","false","","","","","","","","","","522.5999999940395","","222.09999999403954","","0","1","arrowleft","0","arrowleft","[0.675,0.325,0.85,0.15]","","",""
"sailing-trial","120","786291","0.0-11.0-75.0","","","","false","","","","","","","","","","null","","894.9000000059605","","1","0","null","null","arrowup","[0.675,0.325,0.85,0.15]","","",""
"sailing-trial","121","790622","0.0-11.0-76.0","","","","false","","","","","","","","","","487.40000000596046","","812.5","","0","1","arrowleft","0","arrowleft","[0.675,0.325,0.85,0.15]","","",""
"sailing-trial","122","794533","0.0-11.0-77.0","","","","false","","","","","","","","","","null","","1020.1999999880791","","1","0","null","null","arrowup","[0.675,0.325,0.85,0.15]","","",""
"sailing-trial","123","798551","0.0-11.0-78.0","","","","false","","","","","","","","","","995.0999999940395","","51.19999998807907","","0","1","arrowleft","0","arrowleft","[0.675,0.325,0.85,0.15]","","",""
"sailing-trial","124","801659","0.0-11.0-79.0","","","","false","","","","","","","","","","null","","1186","","0","0","null","null","arrowup","[0.675,0.325,0.85,0.15]","","",""
"sailing-trial","125","806291","0.0-11.0-80.0","","","","false","","","","","","","","","","702.3000000119209","","891.1000000238419","","0","1","arrowleft","0","arrowleft","[0.85,0.15,0.675,0.325]","","",""
"sailing-trial","126","808731","0.0-11.0-81.0","","","","false","","","","","","","","","","null","","1014","","0","0","null","null","arrowup","[0.85,0.15,0.675,0.325]","","",""
"sailing-trial","127","812559","0.0-11.0-82.0","","","","false","","","","","","","","","","727.0999999940395","","36.400000005960464","","0","1","arrowleft","0","arrowleft","[0.85,0.15,0.675,0.325]","","",""
"sailing-trial","128","815389","0.0-11.0-83.0","","","","false","","","","","","","","","","null","","1154.800000011921","","1","0","null","null","arrowup","[0.85,0.15,0.675,0.325]","","",""
"sailing-trial","129","819615","0.0-11.0-84.0","","","","false","","","","","","","","","","753.0999999940395","","34.80000001192093","","0","1","arrowleft","0","arrowleft","[0.85,0.15,0.675,0.325]","","",""
"sailing-trial","130","822642","0.0-11.0-85.0","","","","false","","","","","","","","","","null","","849.5999999940395","","1","0","null","null","arrowup","[0.85,0.15,0.675,0.325]","","",""
"sailing-trial","131","826115","0.0-11.0-86.0","","","","false","","","","","","","","","","567","","10.199999988079071","","0","1","arrowleft","0","arrowleft","[0.85,0.15,0.675,0.325]","","",""
"sailing-trial","132","829400","0.0-11.0-87.0","","","","false","","","","","","","","","","null","","1373.3999999761581","","2","1","null","null","arrowup","[0.85,0.15,0.675,0.325]","","",""
"sailing-trial","133","834037","0.0-11.0-88.0","","","","false","","","","","","","","","","665.0999999940395","","890.9000000059605","","0","1","arrowleft","0","arrowleft","[0.85,0.15,0.675,0.325]","","",""
"sailing-trial","134","836634","0.0-11.0-89.0","","","","false","","","","","","","","","","null","","925.0999999940395","","3","0","null","null","arrowup","[0.85,0.15,0.675,0.325]","","",""
"sailing-trial","135","842771","0.0-11.0-90.0","","","","false","","","","","","","","","","1502.7999999821186","","1212.800000011921","","0","1","arrowleft","0","arrowleft","[0.85,0.15,0.675,0.325]","","",""
"sailing-trial","136","845685","0.0-11.0-91.0","","","","false","","","","","","","","","","null","","997.5","","2","1","null","null","arrowup","[0.85,0.15,0.675,0.325]","","",""
"sailing-trial","137","849278","0.0-11.0-92.0","","","","false","","","","","","","","","","643.3000000119209","","678.0999999940395","","0","0","arrowleft","0","arrowleft","[0.85,0.15,0.675,0.325]","","",""
"sailing-trial","138","852599","0.0-11.0-93.0","","","","false","","","","","","","","","","null","","1403.1000000238419","","2","1","null","null","arrowup","[0.85,0.15,0.675,0.325]","","",""
"sailing-trial","139","856757","0.0-11.0-94.0","","","","false","","","","","","","","","","643.2000000178814","","308.90000000596046","","0","1","arrowleft","0","arrowleft","[0.85,0.15,0.675,0.325]","","",""
"sailing-trial","140","860294","0.0-11.0-95.0","","","","false","","","","","","","","","","null","","1640.9000000059605","","1","1","null","null","arrowup","[0.85,0.15,0.675,0.325]","","",""
"sailing-trial","141","863825","0.0-11.0-96.0","","","","false","","","","","","","","","","697.5999999940395","","84.89999997615814","","2","0","arrowright","1","arrowleft","[0.325,0.675,0.15,0.85]","","",""
"sailing-trial","142","868976","0.0-11.0-97.0","","","","false","","","","","","","","","","null","","3324.9000000059605","","0","0","null","null","arrowup","[0.325,0.675,0.15,0.85]","","",""
"sailing-trial","143","874134","0.0-11.0-98.0","","","","false","","","","","","","","","","1343.6000000238419","","879.8999999761581","","1","1","arrowleft","0","arrowright","[0.325,0.675,0.15,0.85]","","",""
"sailing-trial","144","877954","0.0-11.0-99.0","","","","false","","","","","","","","","","null","","1608.7999999821186","","3","1","null","null","arrowup","[0.325,0.675,0.15,0.85]","","",""
"sailing-trial","145","882313","0.0-11.0-100.0","","","","false","","","","","","","","","","1006.9000000059605","","334.30000001192093","","0","0","arrowleft","0","arrowleft","[0.325,0.675,0.15,0.85]","","",""
"sailing-trial","146","885908","0.0-11.0-101.0","","","","false","","","","","","","","","","null","","1318.4000000059605","","1","1","null","null","arrowup","[0.325,0.675,0.15,0.85]","","",""
"sailing-trial","147","890722","0.0-11.0-102.0","","","","false","","","","","","","","","","1820.199999988079","","347","","2","0","arrowright","1","arrowleft","[0.325,0.675,0.15,0.85]","","",""
"sailing-trial","148","893170","0.0-11.0-103.0","","","","false","","","","","","","","","","null","","925.0999999940395","","0","0","null","null","arrowup","[0.325,0.675,0.15,0.85]","","",""
"sailing-trial","149","898009","0.0-11.0-104.0","","","","false","","","","","","","","","","733.4000000059605","","1086.8999999761581","","1","1","arrowleft","0","arrowright","[0.325,0.675,0.15,0.85]","","",""
"sailing-trial","150","900825","0.0-11.0-105.0","","","","false","","","","","","","","","","null","","1351.300000011921","","1","0","null","null","arrowup","[0.325,0.675,0.15,0.85]","","",""
"sailing-trial","151","904927","0.0-11.0-106.0","","","","false","","","","","","","","","","852.6999999880791","","33.80000001192093","","1","1","arrowleft","0","arrowright","[0.325,0.675,0.15,0.85]","","",""
"sailing-trial","152","908167","0.0-11.0-107.0","","","","false","","","","","","","","","","null","","1526","","2","0","null","null","arrowup","[0.325,0.675,0.15,0.85]","","",""
"sailing-trial","153","911907","0.0-11.0-108.0","","","","false","","","","","","","","","","927.9000000059605","","343.89999997615814","","0","0","arrowleft","0","arrowleft","[0.325,0.675,0.15,0.85]","","",""
"sailing-trial","154","914735","0.0-11.0-109.0","","","","false","","","","","","","","","","null","","912.9000000059605","","1","1","null","null","arrowup","[0.325,0.675,0.15,0.85]","","",""
"sailing-trial","155","918401","0.0-11.0-110.0","","","","false","","","","","","","","","","665.5","","112.5","","1","1","arrowleft","0","arrowright","[0.325,0.675,0.15,0.85]","","",""
"sailing-trial","156","921453","0.0-11.0-111.0","","","","false","","","","","","","","","","null","","982","","1","1","null","null","arrowup","[0.325,0.675,0.15,0.85]","","",""
"sailing-trial","157","926235","0.0-11.0-112.0","","","","false","","","","","","","","","","882.5999999940395","","511.69999998807907","","1","1","arrowleft","0","arrowright","[0.325,0.675,0.15,0.85]","","",""
"sailing-trial","158","929935","0.0-11.0-113.0","","","","false","","","","","","","","","","null","","1418.9000000059605","","3","1","null","null","arrowup","[0.325,0.675,0.15,0.85]","","",""
"sailing-trial","159","934032","0.0-11.0-114.0","","","","false","","","","","","","","","","903","","583.5999999940395","","1","0","arrowleft","0","arrowright","[0.325,0.675,0.15,0.85]","","",""
"sailing-trial","160","937044","0.0-11.0-115.0","","","","false","","","","","","","","","","null","","967.6000000238419","","2","1","null","null","arrowup","[0.325,0.675,0.15,0.85]","","",""
"sailing-trial","161","940159","0.0-11.0-116.0","","","","false","","","","","","","","","","627.3000000119209","","6.5","","2","0","arrowright","1","arrowleft","[0.15,0.85,0.325,0.675]","","",""
"sailing-trial","162","942680","0.0-11.0-117.0","","","","false","","","","","","","","","","null","","892.4000000059605","","3","0","null","null","arrowup","[0.15,0.85,0.325,0.675]","","",""
"sailing-trial","163","945926","0.0-11.0-118.0","","","","false","","","","","","","","","","678.5999999940395","","95.89999997615814","","3","0","arrowright","1","arrowright","[0.15,0.85,0.325,0.675]","","",""
"sailing-trial","164","949194","0.0-11.0-119.0","","","","false","","","","","","","","","","null","","1150.3999999761581","","3","1","null","null","arrowup","[0.15,0.85,0.325,0.675]","","",""
"sailing-trial","165","952832","0.0-11.0-120.0","","","","false","","","","","","","","","","1050.9000000059605","","215","","0","0","arrowleft","0","arrowleft","[0.15,0.85,0.325,0.675]","","",""
"sailing-trial","166","955207","0.0-11.0-121.0","","","","false","","","","","","","","","","null","","940.6999999880791","","3","0","null","null","arrowup","[0.15,0.85,0.325,0.675]","","",""
"sailing-trial","167","959319","0.0-11.0-122.0","","","","false","","","","","","","","","","1068","","144.7999999821186","","1","1","arrowleft","0","arrowright","[0.15,0.85,0.325,0.675]","","",""
"sailing-trial","168","961765","0.0-11.0-123.0","","","","false","","","","","","","","","","null","","782.5","","0","0","null","null","arrowup","[0.15,0.85,0.325,0.675]","","",""
"sailing-trial","169","965989","0.0-11.0-124.0","","","","false","","","","","","","","","","887.8999999761581","","70.5","","1","1","arrowleft","0","arrowright","[0.15,0.85,0.325,0.675]","","",""
"sailing-trial","170","969573","0.0-11.0-125.0","","","","false","","","","","","","","","","null","","1232.7000000178814","","1","1","null","null","arrowup","[0.15,0.85,0.325,0.675]","","",""
"sailing-trial","171","973922","0.0-11.0-126.0","","","","false","","","","","","","","","","932.6999999880791","","61.400000005960464","","1","1","arrowleft","0","arrowright","[0.15,0.85,0.325,0.675]","","",""
"sailing-trial","172","976549","0.0-11.0-127.0","","","","false","","","","","","","","","","null","","739.2999999821186","","1","0","null","null","arrowup","[0.15,0.85,0.325,0.675]","","",""
"sailing-trial","173","982858","0.0-11.0-128.0","","","","false","","","","","","","","","","2465.7000000178814","","521.9000000059605","","1","1","arrowleft","0","arrowright","[0.15,0.85,0.325,0.675]","","",""
"sailing-trial","174","986976","0.0-11.0-129.0","","","","false","","","","","","","","","","null","","2587.7000000178814","","3","0","null","null","arrowup","[0.15,0.85,0.325,0.675]","","",""
"sailing-trial","175","991193","0.0-11.0-130.0","","","","false","","","","","","","","","","660.2000000178814","","412.5","","1","1","arrowleft","0","arrowright","[0.15,0.85,0.325,0.675]","","",""
"sailing-trial","176","995292","0.0-11.0-131.0","","","","false","","","","","","","","","","null","","2241.600000023842","","3","0","null","null","arrowup","[0.15,0.85,0.325,0.675]","","",""
"sailing-trial","177","1002247","0.0-11.0-132.0","","","","false","","","","","","","","","","3577.5","","470.5","","1","1","arrowleft","0","arrowright","[0.15,0.85,0.325,0.675]","","",""
"sailing-trial","178","1005494","0.0-11.0-133.0","","","","false","","","","","","","","","","null","","1805.5999999940395","","2","0","null","null","arrowup","[0.15,0.85,0.325,0.675]","","",""
"sailing-trial","179","1009965","0.0-11.0-134.0","","","","false","","","","","","","","","","950.5999999940395","","567.8000000119209","","1","0","arrowleft","0","arrowright","[0.675,0.325,0.85,0.15]","","",""
"sailing-trial","180","1012944","0.0-11.0-135.0","","","","false","","","","","","","","","","null","","1030.7000000178814","","0","1","null","null","arrowup","[0.675,0.325,0.85,0.15]","","",""
"sailing-trial","181","1016212","0.0-11.0-136.0","","","","false","","","","","","","","","","731.6000000238419","","47.19999998807907","","0","0","arrowleft","0","arrowleft","[0.675,0.325,0.85,0.15]","","",""
"sailing-trial","182","1018682","0.0-11.0-137.0","","","","false","","","","","","","","","","null","","1070.4000000059605","","1","0","null","null","arrowup","[0.675,0.325,0.85,0.15]","","",""
"sailing-trial","183","1021864","0.0-11.0-138.0","","","","false","","","","","","","","","","569.0999999940395","","41.20000001788139","","1","0","arrowleft","0","arrowright","[0.675,0.325,0.85,0.15]","","",""
"sailing-trial","184","1024953","0.0-11.0-139.0","","","","false","","","","","","","","","","null","","1074.699999988079","","0","1","null","null","arrowup","[0.675,0.325,0.85,0.15]","","",""
"sailing-trial","185","1029901","0.0-11.0-140.0","","","","false","","","","","","","","","","874.8000000119209","","1343.3999999761581","","0","0","arrowleft","0","arrowleft","[0.675,0.325,0.85,0.15]","","",""
"sailing-trial","186","1033403","0.0-11.0-141.0","","","","false","","","","","","","","","","null","","2077.800000011921","","3","0","null","null","arrowup","[0.675,0.325,0.85,0.15]","","",""
"sailing-trial","187","1037469","0.0-11.0-142.0","","","","false","","","","","","","","","","649.7999999821186","","147.59999999403954","","1","0","arrowleft","0","arrowright","[0.675,0.325,0.85,0.15]","","",""
"sailing-trial","188","1041235","0.0-11.0-143.0","","","","false","","","","","","","","","","null","","1733.9000000059605","","3","0","null","null","arrowup","[0.675,0.325,0.85,0.15]","","",""
"sailing-trial","189","1044484","0.0-11.0-144.0","","","","false","","","","","","","","","","553.1999999880791","","239.80000001192093","","0","0","arrowleft","0","arrowleft","[0.675,0.325,0.85,0.15]","","",""
"sailing-trial","190","1047717","0.0-11.0-145.0","","","","false","","","","","","","","","","null","","1342.3999999761581","","2","1","null","null","arrowup","[0.675,0.325,0.85,0.15]","","",""
"sailing-trial","191","1052071","0.0-11.0-146.0","","","","false","","","","","","","","","","701.3999999761581","","663","","2","1","arrowright","1","arrowleft","[0.675,0.325,0.85,0.15]","","",""
"sailing-trial","192","1054762","0.0-11.0-147.0","","","","false","","","","","","","","","","null","","1020.1999999880791","","1","0","null","null","arrowup","[0.675,0.325,0.85,0.15]","","",""
"sailing-trial","193","1058427","0.0-11.0-148.0","","","","false","","","","","","","","","","601.3000000119209","","597.1999999880791","","2","0","arrowright","1","arrowleft","[0.675,0.325,0.85,0.15]","","",""
"sailing-trial","194","1061705","0.0-11.0-149.0","","","","false","","","","","","","","","","null","","1129.0999999940395","","3","1","null","null","arrowup","[0.675,0.325,0.85,0.15]","","",""
"sailing-trial","195","1065624","0.0-11.0-150.0","","","","false","","","","","","","","","","751.6000000238419","","129.30000001192093","","3","1","arrowright","1","arrowright","[0.15,0.85,0.325,0.675]","","",""
"sailing-trial","196","1068195","0.0-11.0-151.0","","","","false","","","","","","","","","","null","","1057.0999999940395","","2","0","null","null","arrowup","[0.15,0.85,0.325,0.675]","","",""
"sailing-trial","197","1072613","0.0-11.0-152.0","","","","false","","","","","","","","","","686","","1244.699999988079","","3","0","arrowright","1","arrowright","[0.15,0.85,0.325,0.675]","","",""
"sailing-trial","198","1075697","0.0-11.0-153.0","","","","false","","","","","","","","","","null","","1116.4000000059605","","3","1","null","null","arrowup","[0.15,0.85,0.325,0.675]","","",""
"sailing-trial","199","1079315","0.0-11.0-154.0","","","","false","","","","","","","","","","729.5","","36.80000001192093","","3","1","arrowright","1","arrowright","[0.15,0.85,0.325,0.675]","","",""
"sailing-trial","200","1081538","0.0-11.0-155.0","","","","false","","","","","","","","","","null","","831.5999999940395","","2","0","null","null","arrowup","[0.15,0.85,0.325,0.675]","","",""
"sailing-trial","201","1085331","0.0-11.0-156.0","","","","false","","","","","","","","","","641","","52.60000002384186","","3","1","arrowright","1","arrowright","[0.15,0.85,0.325,0.675]","","",""
"sailing-trial","202","1087482","0.0-11.0-157.0","","","","false","","","","","","","","","","null","","764","","0","0","null","null","arrowup","[0.15,0.85,0.325,0.675]","","",""
"sailing-trial","203","1092134","0.0-11.0-158.0","","","","false","","","","","","","","","","549.6999999880791","","955.2999999821186","","3","1","arrowright","1","arrowright","[0.15,0.85,0.325,0.675]","","",""
"sailing-trial","204","1094732","0.0-11.0-159.0","","","","false","","","","","","","","","","null","","930.5999999940395","","0","0","null","null","arrowup","[0.15,0.85,0.325,0.675]","","",""
"sailing-trial","205","1098389","0.0-11.0-160.0","","","","false","","","","","","","","","","668.6999999880791","","27.900000005960464","","3","1","arrowright","1","arrowright","[0.15,0.85,0.325,0.675]","","",""
"sailing-trial","206","1102026","0.0-11.0-161.0","","","","false","","","","","","","","","","null","","1692.5999999940395","","2","1","null","null","arrowup","[0.15,0.85,0.325,0.675]","","",""
"sailing-trial","207","1106749","0.0-11.0-162.0","","","","false","","","","","","","","","","1017.5999999940395","","603","","2","1","arrowright","1","arrowleft","[0.15,0.85,0.325,0.675]","","",""
"sailing-trial","208","1109228","0.0-11.0-163.0","","","","false","","","","","","","","","","null","","1082.199999988079","","2","0","null","null","arrowup","[0.15,0.85,0.325,0.675]","","",""
"sailing-trial","209","1113464","0.0-11.0-164.0","","","","false","","","","","","","","","","667.7000000178814","","676.0999999940395","","3","1","arrowright","1","arrowright","[0.15,0.85,0.325,0.675]","","",""
"sailing-trial","210","1116281","0.0-11.0-165.0","","","","false","","","","","","","","","","null","","825.3000000119209","","3","1","null","null","arrowup","[0.15,0.85,0.325,0.675]","","",""
"sailing-trial","211","1119492","0.0-11.0-166.0","","","","false","","","","","","","","","","695.8999999761581","","23.5","","3","0","arrowright","1","arrowright","[0.15,0.85,0.325,0.675]","","",""
"sailing-trial","212","1122316","0.0-11.0-167.0","","","","false","","","","","","","","","","null","","842.7999999821186","","2","1","null","null","arrowup","[0.15,0.85,0.325,0.675]","","",""
"sailing-trial","213","1126050","0.0-11.0-168.0","","","","false","","","","","","","","","","1186.9000000059605","","59.19999998807907","","2","0","arrowright","1","arrowleft","[0.15,0.85,0.325,0.675]","","",""
"sailing-trial","214","1128968","0.0-11.0-169.0","","","","false","","","","","","","","","","null","","1069.5","","3","1","null","null","arrowup","[0.15,0.85,0.325,0.675]","","",""
"sailing-trial","215","1134004","0.0-11.0-170.0","","","","false","","","","","","","","","","1079.800000011921","","908","","3","1","arrowright","1","arrowright","[0.325,0.675,0.15,0.85]","","",""
"sailing-trial","216","1139291","0.0-11.0-171.0","","","","false","","","","","","","","","","null","","2553.5","","3","0","null","null","arrowup","[0.325,0.675,0.15,0.85]","","",""
"sailing-trial","217","1143031","0.0-11.0-172.0","","","","false","","","","","","","","","","645.5","","49.900000005960464","","3","1","arrowright","1","arrowright","[0.325,0.675,0.15,0.85]","","",""
"sailing-trial","218","1145648","0.0-11.0-173.0","","","","false","","","","","","","","","","null","","1161.800000011921","","2","0","null","null","arrowup","[0.325,0.675,0.15,0.85]","","",""
"sailing-trial","219","1150395","0.0-11.0-174.0","","","","false","","","","","","","","","","615.9000000059605","","1191.5","","3","1","arrowright","1","arrowright","[0.325,0.675,0.15,0.85]","","",""
"sailing-trial","220","1152994","0.0-11.0-175.0","","","","false","","","","","","","","","","null","","1140.2000000178814","","2","0","null","null","arrowup","[0.325,0.675,0.15,0.85]","","",""
"sailing-trial","221","1157031","0.0-11.0-176.0","","","","false","","","","","","","","","","636.1999999880791","","459.90000000596046","","3","1","arrowright","1","arrowright","[0.325,0.675,0.15,0.85]","","",""
"sailing-trial","222","1159881","0.0-11.0-177.0","","","","false","","","","","","","","","","null","","918.5","","2","1","null","null","arrowup","[0.325,0.675,0.15,0.85]","","",""
"sailing-trial","223","1163482","0.0-11.0-178.0","","","","false","","","","","","","","","","589","","13.5","","3","1","arrowright","1","arrowright","[0.325,0.675,0.15,0.85]","","",""
"sailing-trial","224","1166007","0.0-11.0-179.0","","","","false","","","","","","","","","","null","","1124.2000000178814","","2","0","null","null","arrowup","[0.325,0.675,0.15,0.85]","","",""
"sailing-trial","225","1170153","0.0-11.0-180.0","","","","false","","","","","","","","","","498","","567.0999999940395","","3","1","arrowright","1","arrowright","[0.325,0.675,0.15,0.85]","","",""
"sailing-trial","226","1172987","0.0-11.0-181.0","","","","false","","","","","","","","","","null","","1061.4000000059605","","1","0","null","null","arrowup","[0.325,0.675,0.15,0.85]","","",""
"sailing-trial","227","1176975","0.0-11.0-182.0","","","","false","","","","","","","","","","692.1999999880791","","261","","3","1","arrowright","1","arrowright","[0.325,0.675,0.15,0.85]","","",""
"sailing-trial","228","1179607","0.0-11.0-183.0","","","","false","","","","","","","","","","null","","1271.199999988079","","2","0","null","null","arrowup","[0.325,0.675,0.15,0.85]","","",""
"sailing-trial","229","1183375","0.0-11.0-184.0","","","","false","","","","","","","","","","575","","12.400000005960464","","3","1","arrowright","1","arrowright","[0.325,0.675,0.15,0.85]","","",""
"sailing-trial","230","1186922","0.0-11.0-185.0","","","","false","","","","","","","","","","null","","1782.9000000059605","","2","0","null","null","arrowup","[0.325,0.675,0.15,0.85]","","",""
"sailing-trial","231","1190747","0.0-11.0-186.0","","","","false","","","","","","","","","","543.7999999821186","","106.30000001192093","","3","1","arrowright","1","arrowright","[0.15,0.85,0.325,0.675]","","",""
"sailing-trial","232","1193546","0.0-11.0-187.0","","","","false","","","","","","","","","","null","","956.5999999940395","","2","1","null","null","arrowup","[0.15,0.85,0.325,0.675]","","",""
"sailing-trial","233","1197515","0.0-11.0-188.0","","","","false","","","","","","","","","","484.7000000178814","","560.8000000119209","","3","1","arrowright","1","arrowright","[0.15,0.85,0.325,0.675]","","",""
"sailing-trial","234","1200331","0.0-11.0-189.0","","","","false","","","","","","","","","","null","","988","","1","1","null","null","arrowup","[0.15,0.85,0.325,0.675]","","",""
"sailing-trial","235","1203728","0.0-11.0-190.0","","","","false","","","","","","","","","","678.5999999940395","","61","","3","0","arrowright","1","arrowright","[0.15,0.85,0.325,0.675]","","",""
"sailing-trial","236","1206617","0.0-11.0-191.0","","","","false","","","","","","","","","","null","","997.0999999940395","","1","1","null","null","arrowup","[0.15,0.85,0.325,0.675]","","",""
"sailing-trial","237","1210522","0.0-11.0-192.0","","","","false","","","","","","","","","","622.7999999821186","","137.09999999403954","","3","1","arrowright","1","arrowright","[0.15,0.85,0.325,0.675]","","",""
"sailing-trial","238","1212975","0.0-11.0-193.0","","","","false","","","","","","","","","","null","","1076.4000000059605","","2","0","null","null","arrowup","[0.15,0.85,0.325,0.675]","","",""
"sailing-trial","239","1216170","0.0-11.0-194.0","","","","false","","","","","","","","","","502.2999999821186","","117.40000000596046","","3","0","arrowright","1","arrowright","[0.15,0.85,0.325,0.675]","","",""
"sailing-trial","240","1218992","0.0-11.0-195.0","","","","false","","","","","","","","","","null","","977.8000000119209","","0","0","null","null","arrowup","[0.15,0.85,0.325,0.675]","","",""
"sailing-trial","241","1223578","0.0-11.0-196.0","","","","false","","","","","","","","","","900.7000000178814","","787.1000000238419","","1","1","arrowleft","0","arrowright","[0.15,0.85,0.325,0.675]","","",""
"sailing-trial","242","1226192","0.0-11.0-197.0","","","","false","","","","","","","","","","null","","1195.699999988079","","2","0","null","null","arrowup","[0.15,0.85,0.325,0.675]","","",""
"sailing-trial","243","1231395","0.0-11.0-198.0","","","","false","","","","","","","","","","549.6999999880791","","13.199999988079071","","1","1","arrowleft","0","arrowright","[0.15,0.85,0.325,0.675]","","",""
"sailing-trial","244","1234363","0.0-11.0-199.0","","","","false","","","","","","","","","","null","","995.5999999940395","","3","1","null","null","arrowup","[0.15,0.85,0.325,0.675]","","",""
"sailing-trial","245","1239188","0.0-11.0-200.0","","","","false","","","","","","","","","","730.9000000059605","","938.2000000178814","","1","1","arrowleft","0","arrowright","[0.15,0.85,0.325,0.675]","","",""
"sailing-trial","246","1241542","0.0-11.0-201.0","","","","false","","","","","","","","","","null","","919.9000000059605","","2","0","null","null","arrowup","[0.15,0.85,0.325,0.675]","","",""
"sailing-trial","247","1245794","0.0-11.0-202.0","","","","false","","","","","","","","","","535.3000000119209","","641.4000000059605","","1","1","arrowleft","0","arrowright","[0.15,0.85,0.325,0.675]","","",""
"sailing-trial","248","1248590","0.0-11.0-203.0","","","","false","","","","","","","","","","null","","979.3000000119209","","0","0","null","null","arrowup","[0.15,0.85,0.325,0.675]","","",""
"sailing-trial","249","1253281","0.0-11.0-204.0","","","","false","","","","","","","","","","807.1999999880791","","62.900000005960464","","1","1","arrowleft","0","arrowright","[0.325,0.675,0.15,0.85]","","",""
"sailing-trial","250","1257279","0.0-11.0-205.0","","","","false","","","","","","","","","","null","","1917.2999999821186","","1","1","null","null","arrowup","[0.325,0.675,0.15,0.85]","","",""
"sailing-trial","251","1262669","0.0-11.0-206.0","","","","false","","","","","","","","","","1709.5","","401","","1","0","arrowleft","0","arrowright","[0.325,0.675,0.15,0.85]","","",""
"sailing-trial","252","1264997","0.0-11.0-207.0","","","","false","","","","","","","","","","null","","857.3999999761581","","3","0","null","null","arrowup","[0.325,0.675,0.15,0.85]","","",""
"sailing-trial","253","1268213","0.0-11.0-208.0","","","","false","","","","","","","","","","633.3000000119209","","66.5","","1","0","arrowleft","0","arrowright","[0.325,0.675,0.15,0.85]","","",""
"sailing-trial","254","1270669","0.0-11.0-209.0","","","","false","","","","","","","","","","null","","1011.3000000119209","","0","0","null","null","arrowup","[0.325,0.675,0.15,0.85]","","",""
"sailing-trial","255","1274854","0.0-11.0-210.0","","","","false","","","","","","","","","","1467","","31.100000023841858","","1","0","arrowleft","0","arrowright","[0.325,0.675,0.15,0.85]","","",""
"sailing-trial","256","1277974","0.0-11.0-211.0","","","","false","","","","","","","","","","null","","1118.9000000059605","","0","1","null","null","arrowup","[0.325,0.675,0.15,0.85]","","",""
"sailing-trial","257","1281900","0.0-11.0-212.0","","","","false","","","","","","","","","","622.4000000059605","","110.40000000596046","","0","1","arrowleft","0","arrowleft","[0.325,0.675,0.15,0.85]","","",""
"sailing-trial","258","1284864","0.0-11.0-213.0","","","","false","","","","","","","","","","null","","1063.699999988079","","0","1","null","null","arrowup","[0.325,0.675,0.15,0.85]","","",""
"sailing-trial","259","1288734","0.0-11.0-214.0","","","","false","","","","","","","","","","755.4000000059605","","682.4000000059605","","0","0","arrowleft","0","arrowleft","[0.325,0.675,0.15,0.85]","","",""
"sailing-trial","260","1291645","0.0-11.0-215.0","","","","false","","","","","","","","","","null","","1299.699999988079","","1","0","null","null","arrowup","[0.325,0.675,0.15,0.85]","","",""
"sailing-trial","261","1295476","0.0-11.0-216.0","","","","false","","","","","","","","","","761.0999999940395","","447.90000000596046","","0","0","arrowleft","0","arrowleft","[0.325,0.675,0.15,0.85]","","",""
"sailing-trial","262","1298182","0.0-11.0-217.0","","","","false","","","","","","","","","","null","","1043","","1","0","null","null","arrowup","[0.325,0.675,0.15,0.85]","","",""
"sailing-trial","263","1301566","0.0-11.0-218.0","","","","false","","","","","","","","","","630.4000000059605","","98.5","","0","0","arrowleft","0","arrowleft","[0.325,0.675,0.15,0.85]","","",""
"sailing-trial","264","1303893","0.0-11.0-219.0","","","","false","","","","","","","","","","null","","835.6999999880791","","1","0","null","null","arrowup","[0.325,0.675,0.15,0.85]","","",""
"sailing-trial","265","1308045","0.0-11.0-220.0","","","","false","","","","","","","","","","629.6999999880791","","292","","3","1","arrowright","1","arrowright","[0.325,0.675,0.15,0.85]","","",""
"sailing-trial","266","1311028","0.0-11.0-221.0","","","","false","","","","","","","","","","null","","1101.7000000178814","","3","1","null","null","arrowup","[0.325,0.675,0.15,0.85]","","",""
"sailing-trial","267","1314848","0.0-11.0-222.0","","","","false","","","","","","","","","","623.3000000119209","","273.7000000178814","","3","1","arrowright","1","arrowright","[0.325,0.675,0.15,0.85]","","",""
"sailing-trial","268","1318294","0.0-11.0-223.0","","","","false","","","","","","","","","","null","","1908","","2","0","null","null","arrowup","[0.325,0.675,0.15,0.85]","","",""
"sailing-trial","269","1321620","0.0-11.0-224.0","","","","false","","","","","","","","","","571.5","","279.69999998807907","","3","0","arrowright","1","arrowright","[0.325,0.675,0.15,0.85]","","",""
"sailing-trial","270","1324356","0.0-11.0-225.0","","","","false","","","","","","","","","","null","","1086.300000011921","","3","0","null","null","arrowup","[0.325,0.675,0.15,0.85]","","",""
"sailing-trial","271","1327662","0.0-11.0-226.0","","","","false","","","","","","","","","","733.9000000059605","","26.599999994039536","","3","0","arrowright","1","arrowright","[0.15,0.85,0.325,0.675]","","",""
"sailing-trial","272","1330543","0.0-11.0-227.0","","","","false","","","","","","","","","","null","","957","","3","1","null","null","arrowup","[0.15,0.85,0.325,0.675]","","",""
"sailing-trial","273","1335459","0.0-11.0-228.0","","","","false","","","","","","","","","","644.6999999880791","","1491.2000000178814","","3","0","arrowright","1","arrowright","[0.15,0.85,0.325,0.675]","","",""
"sailing-trial","274","1339216","0.0-11.0-229.0","","","","false","","","","","","","","","","null","","1881.3999999761581","","2","1","null","null","arrowup","[0.15,0.85,0.325,0.675]","","",""
"sailing-trial","275","1343501","0.0-11.0-230.0","","","","false","","","","","","","","","","569.9000000059605","","687.5999999940395","","1","1","arrowleft","0","arrowright","[0.15,0.85,0.325,0.675]","","",""
"sailing-trial","276","1346452","0.0-11.0-231.0","","","","false","","","","","","","","","","null","","1092","","1","1","null","null","arrowup","[0.15,0.85,0.325,0.675]","","",""
"sailing-trial","277","1350706","0.0-11.0-232.0","","","","false","","","","","","","","","","614.4000000059605","","679.3999999761581","","1","1","arrowleft","0","arrowright","[0.15,0.85,0.325,0.675]","","",""
"sailing-trial","278","1354155","0.0-11.0-233.0","","","","false","","","","","","","","","","null","","1705","","2","0","null","null","arrowup","[0.15,0.85,0.325,0.675]","","",""
"sailing-trial","279","1357726","0.0-11.0-234.0","","","","false","","","","","","","","","","582.2999999821186","","67.09999999403954","","1","1","arrowleft","0","arrowright","[0.15,0.85,0.325,0.675]","","",""
"sailing-trial","280","1360363","0.0-11.0-235.0","","","","false","","","","","","","","","","null","","1123.9000000059605","","0","0","null","null","arrowup","[0.15,0.85,0.325,0.675]","","",""
"sailing-trial","281","1365124","0.0-11.0-236.0","","","","false","","","","","","","","","","797.1999999880791","","537.1000000238419","","1","1","arrowleft","0","arrowright","[0.15,0.85,0.325,0.675]","","",""
"sailing-trial","282","1367770","0.0-11.0-237.0","","","","false","","","","","","","","","","null","","1083.300000011921","","3","0","null","null","arrowup","[0.15,0.85,0.325,0.675]","","",""
"sailing-trial","283","1372447","0.0-11.0-238.0","","","","false","","","","","","","","","","985.5","","84.2999999821186","","1","1","arrowleft","0","arrowright","[0.15,0.85,0.325,0.675]","","",""
"sailing-trial","284","1375517","0.0-11.0-239.0","","","","false","","","","","","","","","","null","","1074.2000000178814","","3","1","null","null","arrowup","[0.15,0.85,0.325,0.675]","","",""
"sailing-trial","285","1379119","0.0-11.0-240.0","","","","false","","","","","","","","","","668.5","","63.80000001192093","","1","1","arrowleft","0","arrowright","[0.15,0.85,0.325,0.675]","","",""
"sailing-trial","286","1381919","0.0-11.0-241.0","","","","false","","","","","","","","","","null","","882.3000000119209","","1","1","null","null","arrowup","[0.15,0.85,0.325,0.675]","","",""
"sailing-trial","287","1386271","0.0-11.0-242.0","","","","false","","","","","","","","","","553.8999999761581","","289","","1","1","arrowleft","0","arrowright","[0.325,0.675,0.15,0.85]","","",""
"sailing-trial","288","1389624","0.0-11.0-243.0","","","","false","","","","","","","","","","null","","1225.9000000059605","","3","1","null","null","arrowup","[0.325,0.675,0.15,0.85]","","",""
"sailing-trial","289","1393589","0.0-11.0-244.0","","","","false","","","","","","","","","","737.4000000059605","","232.5","","1","1","arrowleft","0","arrowright","[0.325,0.675,0.15,0.85]","","",""
"sailing-trial","290","1396492","0.0-11.0-245.0","","","","false","","","","","","","","","","null","","827.7999999821186","","3","1","null","null","arrowup","[0.325,0.675,0.15,0.85]","","",""
"sailing-trial","291","1400825","0.0-11.0-246.0","","","","false","","","","","","","","","","1492.0999999940395","","64.30000001192093","","1","0","arrowleft","0","arrowright","[0.325,0.675,0.15,0.85]","","",""
"sailing-trial","292","1403666","0.0-11.0-247.0","","","","false","","","","","","","","","","null","","1245","","0","0","null","null","arrowup","[0.325,0.675,0.15,0.85]","","",""
"sailing-trial","293","1407450","0.0-11.0-248.0","","","","false","","","","","","","","","","1127.4000000059605","","156.90000000596046","","1","0","arrowleft","0","arrowright","[0.325,0.675,0.15,0.85]","","",""
"sailing-trial","294","1410528","0.0-11.0-249.0","","","","false","","","","","","","","","","null","","1512","","3","0","null","null","arrowup","[0.325,0.675,0.15,0.85]","","",""
"sailing-trial","295","1415664","0.0-11.0-250.0","","","","false","","","","","","","","","","1143.3999999761581","","1045.699999988079","","1","1","arrowleft","0","arrowright","[0.325,0.675,0.15,0.85]","","",""
"sailing-trial","296","1418584","0.0-11.0-251.0","","","","false","","","","","","","","","","null","","1503.2999999821186","","2","0","null","null","arrowup","[0.325,0.675,0.15,0.85]","","",""
"sailing-trial","297","1422854","0.0-11.0-252.0","","","","false","","","","","","","","","","501.69999998807907","","668.1999999880791","","1","1","arrowleft","0","arrowright","[0.325,0.675,0.15,0.85]","","",""
"sailing-trial","298","1425202","0.0-11.0-253.0","","","","false","","","","","","","","","","null","","929.0999999940395","","2","0","null","null","arrowup","[0.325,0.675,0.15,0.85]","","",""
"sailing-trial","299","1430277","0.0-11.0-254.0","","","","false","","","","","","","","","","661.3000000119209","","303","","1","1","arrowleft","0","arrowright","[0.325,0.675,0.15,0.85]","","",""
"sailing-trial","300","1433884","0.0-11.0-255.0","","","","false","","","","","","","","","","null","","1599.1000000238419","","0","1","null","null","arrowup","[0.325,0.675,0.15,0.85]","","",""
"sailing-trial","301","1437297","0.0-11.0-256.0","","","","false","","","","","","","","","","646.2999999821186","","21.599999994039536","","1","0","arrowleft","0","arrowright","[0.325,0.675,0.15,0.85]","","",""
"sailing-trial","302","1439820","0.0-11.0-257.0","","","","false","","","","","","","","","","null","","911.5999999940395","","1","0","null","null","arrowup","[0.325,0.675,0.15,0.85]","","",""
"sailing-trial","303","1443716","0.0-11.0-258.0","","","","false","","","","","","","","","","616.3000000119209","","50.30000001192093","","1","1","arrowleft","0","arrowright","[0.15,0.85,0.325,0.675]","","",""
"sailing-trial","304","1447204","0.0-11.0-259.0","","","","false","","","","","","","","","","null","","1604.6000000238419","","0","1","null","null","arrowup","[0.15,0.85,0.325,0.675]","","",""
"sailing-trial","305","1451840","0.0-11.0-260.0","","","","false","","","","","","","","","","1015.1000000238419","","677.5","","1","1","arrowleft","0","arrowright","[0.15,0.85,0.325,0.675]","","",""
"sailing-trial","306","1454960","0.0-11.0-261.0","","","","false","","","","","","","","","","null","","1237.5999999940395","","3","1","null","null","arrowup","[0.15,0.85,0.325,0.675]","","",""
"sailing-trial","307","1458762","0.0-11.0-262.0","","","","false","","","","","","","","","","591.8000000119209","","620.6999999880791","","0","0","arrowleft","0","arrowleft","[0.15,0.85,0.325,0.675]","","",""
"sailing-trial","308","1461555","0.0-11.0-263.0","","","","false","","","","","","","","","","null","","1366.8999999761581","","0","0","null","null","arrowup","[0.15,0.85,0.325,0.675]","","",""
"sailing-trial","309","1465091","0.0-11.0-264.0","","","","false","","","","","","","","","","649.0999999940395","","509.90000000596046","","0","0","arrowleft","0","arrowleft","[0.15,0.85,0.325,0.675]","","",""
"sailing-trial","310","1467870","0.0-11.0-265.0","","","","false","","","","","","","","","","null","","890.3000000119209","","3","1","null","null","arrowup","[0.15,0.85,0.325,0.675]","","",""
"sailing-trial","311","1473358","0.0-11.0-266.0","","","","false","","","","","","","","","","732.5999999940395","","1781","","3","1","arrowright","1","arrowright","[0.15,0.85,0.325,0.675]","","",""
"sailing-trial","312","1476076","0.0-11.0-267.0","","","","false","","","","","","","","","","null","","783.8999999761581","","1","1","null","null","arrowup","[0.15,0.85,0.325,0.675]","","",""
"sailing-trial","313","1480141","0.0-11.0-268.0","","","","false","","","","","","","","","","730.5999999940395","","473.2000000178814","","3","1","arrowright","1","arrowright","[0.15,0.85,0.325,0.675]","","",""
"sailing-trial","314","1483033","0.0-11.0-269.0","","","","false","","","","","","","","","","null","","993.7000000178814","","3","0","null","null","arrowup","[0.15,0.85,0.325,0.675]","","",""
"sailing-trial","315","1487628","0.0-11.0-270.0","","","","false","","","","","","","","","","534.1999999880791","","934.7999999821186","","1","1","arrowleft","0","arrowright","[0.15,0.85,0.325,0.675]","","",""
"sailing-trial","316","1490543","0.0-11.0-271.0","","","","false","","","","","","","","","","null","","969.2000000178814","","2","1","null","null","arrowup","[0.15,0.85,0.325,0.675]","","",""
"sailing-trial","317","1493975","0.0-11.0-272.0","","","","false","","","","","","","","","","693.9000000059605","","171.80000001192093","","3","0","arrowright","1","arrowright","[0.15,0.85,0.325,0.675]","","",""
"sailing-trial","318","1496519","0.0-11.0-273.0","","","","false","","","","","","","","","","null","","1095.1000000238419","","0","0","null","null","arrowup","[0.15,0.85,0.325,0.675]","","",""
"sailing-trial","319","1501600","0.0-11.0-274.0","","","","false","","","","","","","","","","545","","845.5","","1","0","arrowleft","0","arrowright","[0.85,0.15,0.675,0.325]","","",""
"sailing-trial","320","1504600","0.0-11.0-275.0","","","","false","","","","","","","","","","null","","896","","3","1","null","null","arrowup","[0.85,0.15,0.675,0.325]","","",""
"sailing-trial","321","1509232","0.0-11.0-276.0","","","","false","","","","","","","","","","895.9000000059605","","1204.300000011921","","3","0","arrowright","1","arrowright","[0.85,0.15,0.675,0.325]","","",""
"sailing-trial","322","1512451","0.0-11.0-277.0","","","","false","","","","","","","","","","null","","1546.1000000238419","","1","0","null","null","arrowup","[0.85,0.15,0.675,0.325]","","",""
"sailing-trial","323","1520657","0.0-11.0-278.0","","","","false","","","","","","","","","","1936.300000011921","","2252.100000023842","","3","0","arrowright","1","arrowright","[0.85,0.15,0.675,0.325]","","",""
"sailing-trial","324","1524705","0.0-11.0-279.0","","","","false","","","","","","","","","","null","","2509.399999976158","","1","0","null","null","arrowup","[0.85,0.15,0.675,0.325]","","",""
"sailing-trial","325","1528386","0.0-11.0-280.0","","","","false","","","","","","","","","","1094.300000011921","","13.799999982118607","","1","0","arrowleft","0","arrowright","[0.85,0.15,0.675,0.325]","","",""
"sailing-trial","326","1531591","0.0-11.0-281.0","","","","false","","","","","","","","","","null","","1270.2999999821186","","2","1","null","null","arrowup","[0.85,0.15,0.675,0.325]","","",""
"sailing-trial","327","1534577","0.0-11.0-282.0","","","","false","","","","","","","","","","519.7000000178814","","36.099999994039536","","2","0","arrowright","1","arrowleft","[0.85,0.15,0.675,0.325]","","",""
"sailing-trial","328","1537580","0.0-11.0-283.0","","","","false","","","","","","","","","","null","","1013.5","","2","1","null","null","arrowup","[0.85,0.15,0.675,0.325]","","",""
"sailing-trial","329","1541663","0.0-11.0-284.0","","","","false","","","","","","","","","","883.8999999761581","","253.40000000596046","","2","1","arrowright","1","arrowleft","[0.85,0.15,0.675,0.325]","","",""
"sailing-trial","330","1544617","0.0-11.0-285.0","","","","false","","","","","","","","","","null","","1057.0999999940395","","2","1","null","null","arrowup","[0.85,0.15,0.675,0.325]","","",""
"sailing-trial","331","1548282","0.0-11.0-286.0","","","","false","","","","","","","","","","678.9000000059605","","36.39999997615814","","2","1","arrowright","1","arrowleft","[0.85,0.15,0.675,0.325]","","",""
"sailing-trial","332","1551334","0.0-11.0-287.0","","","","false","","","","","","","","","","null","","1005.8000000119209","","0","1","null","null","arrowup","[0.85,0.15,0.675,0.325]","","",""
"sailing-trial","333","1555822","0.0-11.0-288.0","","","","false","","","","","","","","","","1153.9000000059605","","400.90000000596046","","0","1","arrowleft","0","arrowleft","[0.85,0.15,0.675,0.325]","","",""
"sailing-trial","334","1558773","0.0-11.0-289.0","","","","false","","","","","","","","","","null","","1025.0999999940395","","0","1","null","null","arrowup","[0.85,0.15,0.675,0.325]","","",""
"sailing-trial","335","1562305","0.0-11.0-290.0","","","","false","","","","","","","","","","610.5","","175.7000000178814","","2","0","arrowright","1","arrowleft","[0.85,0.15,0.675,0.325]","","",""
"sailing-trial","336","1564788","0.0-11.0-291.0","","","","false","","","","","","","","","","null","","933.1000000238419","","3","0","null","null","arrowup","[0.85,0.15,0.675,0.325]","","",""
"sailing-trial","337","1567970","0.0-11.0-292.0","","","","false","","","","","","","","","","857.7000000178814","","23.30000001192093","","0","0","arrowleft","0","arrowleft","[0.675,0.325,0.85,0.15]","","",""
"sailing-trial","338","1570299","0.0-11.0-293.0","","","","false","","","","","","","","","","null","","914.0999999940395","","1","0","null","null","arrowup","[0.675,0.325,0.85,0.15]","","",""
"sailing-trial","339","1573546","0.0-11.0-294.0","","","","false","","","","","","","","","","543.5","","327.7999999821186","","0","0","arrowleft","0","arrowleft","[0.675,0.325,0.85,0.15]","","",""
"sailing-trial","340","1575818","0.0-11.0-295.0","","","","false","","","","","","","","","","null","","932","","3","0","null","null","arrowup","[0.675,0.325,0.85,0.15]","","",""
"sailing-trial","341","1581593","0.0-11.0-296.0","","","","false","","","","","","","","","","549.5999999940395","","1754.699999988079","","3","0","arrowright","1","arrowright","[0.675,0.325,0.85,0.15]","","",""
"sailing-trial","342","1584011","0.0-11.0-297.0","","","","false","","","","","","","","","","null","","951.1999999880791","","3","0","null","null","arrowup","[0.675,0.325,0.85,0.15]","","",""
"sailing-trial","343","1587886","0.0-11.0-298.0","","","","false","","","","","","","","","","949.5999999940395","","6.800000011920929","","2","1","arrowright","1","arrowleft","[0.675,0.325,0.85,0.15]","","",""
"sailing-trial","344","1590250","0.0-11.0-299.0","","","","false","","","","","","","","","","null","","955.9000000059605","","3","0","null","null","arrowup","[0.675,0.325,0.85,0.15]","","",""
"sailing-trial","345","1593879","0.0-11.0-300.0","","","","false","","","","","","","","","","527.6000000238419","","147.5","","2","1","arrowright","1","arrowleft","[0.675,0.325,0.85,0.15]","","",""
"sailing-trial","346","1597265","0.0-11.0-301.0","","","","false","","","","","","","","","","null","","895.5999999940395","","0","1","null","null","arrowup","[0.675,0.325,0.85,0.15]","","",""
"sailing-trial","347","1601252","0.0-11.0-302.0","","","","false","","","","","","","","","","608.2999999821186","","350.5","","2","1","arrowright","1","arrowleft","[0.675,0.325,0.85,0.15]","","",""
"sailing-trial","348","1603555","0.0-11.0-303.0","","","","false","","","","","","","","","","null","","868.9000000059605","","3","0","null","null","arrowup","[0.675,0.325,0.85,0.15]","","",""
"sailing-trial","349","1607521","0.0-11.0-304.0","","","","false","","","","","","","","","","590.8000000119209","","64.5","","2","1","arrowright","1","arrowleft","[0.675,0.325,0.85,0.15]","","",""
"sailing-trial","350","1610405","0.0-11.0-305.0","","","","false","","","","","","","","","","null","","927.8000000119209","","0","1","null","null","arrowup","[0.675,0.325,0.85,0.15]","","",""
"sailing-trial","351","1614688","0.0-11.0-306.0","","","","false","","","","","","","","","","1347.300000011921","","12.599999994039536","","2","1","arrowright","1","arrowleft","[0.675,0.325,0.85,0.15]","","",""
"sailing-trial","352","1616976","0.0-11.0-307.0","","","","false","","","","","","","","","","null","","879.0999999940395","","1","0","null","null","arrowup","[0.675,0.325,0.85,0.15]","","",""
"sailing-trial","353","1620994","0.0-11.0-308.0","","","","false","","","","","","","","","","543","","346.30000001192093","","0","1","arrowleft","0","arrowleft","[0.675,0.325,0.85,0.15]","","",""
"sailing-trial","354","1623098","0.0-11.0-309.0","","","","false","","","","","","","","","","null","","735.1999999880791","","1","0","null","null","arrowup","[0.675,0.325,0.85,0.15]","","",""
"sailing-trial","355","1626370","0.0-11.0-310.0","","","","false","","","","","","","","","","599.7999999821186","","144.90000000596046","","2","0","arrowright","1","arrowleft","[0.85,0.15,0.675,0.325]","","",""
"sailing-trial","356","1628745","0.0-11.0-311.0","","","","false","","","","","","","","","","null","","860.7999999821186","","0","0","null","null","arrowup","[0.85,0.15,0.675,0.325]","","",""
"sailing-trial","357","1635015","0.0-11.0-312.0","","","","false","","","","","","","","","","1582.5999999940395","","1803.0999999940395","","2","1","arrowright","1","arrowleft","[0.85,0.15,0.675,0.325]","","",""
"sailing-trial","358","1637138","0.0-11.0-313.0","","","","false","","","","","","","","","","null","","722.8000000119209","","1","0","null","null","arrowup","[0.85,0.15,0.675,0.325]","","",""
"sailing-trial","359","1640310","0.0-11.0-314.0","","","","false","","","","","","","","","","567.5999999940395","","39.20000001788139","","0","0","arrowleft","0","arrowleft","[0.85,0.15,0.675,0.325]","","",""
"sailing-trial","360","1643494","0.0-11.0-315.0","","","","false","","","","","","","","","","null","","1046.7000000178814","","2","1","null","null","arrowup","[0.85,0.15,0.675,0.325]","","",""
"sailing-trial","361","1647467","0.0-11.0-316.0","","","","false","","","","","","","","","","553.7000000178814","","457.90000000596046","","2","1","arrowright","1","arrowleft","[0.85,0.15,0.675,0.325]","","",""
"sailing-trial","362","1651352","0.0-11.0-317.0","","","","false","","","","","","","","","","null","","1606.199999988079","","2","1","null","null","arrowup","[0.85,0.15,0.675,0.325]","","",""
"sailing-trial","363","1659877","0.0-11.0-318.0","","","","false","","","","","","","","","","6129.0999999940395","","27.30000001192093","","2","0","arrowright","1","arrowleft","[0.85,0.15,0.675,0.325]","","",""
"sailing-trial","364","1662653","0.0-11.0-319.0","","","","false","","","","","","","","","","null","","889.4000000059605","","0","1","null","null","arrowup","[0.85,0.15,0.675,0.325]","","",""
"sailing-trial","365","1665794","0.0-11.0-320.0","","","","false","","","","","","","","","","581.5999999940395","","81.10000002384186","","2","0","arrowright","1","arrowleft","[0.85,0.15,0.675,0.325]","","",""
"sailing-trial","366","1668615","0.0-11.0-321.0","","","","false","","","","","","","","","","null","","773.8999999761581","","1","1","null","null","arrowup","[0.85,0.15,0.675,0.325]","","",""
"sailing-trial","367","1672403","0.0-11.0-322.0","","","","false","","","","","","","","","","560.9000000059605","","294.7999999821186","","0","1","arrowleft","0","arrowleft","[0.85,0.15,0.675,0.325]","","",""
"sailing-trial","368","1674997","0.0-11.0-323.0","","","","false","","","","","","","","","","null","","887.7999999821186","","1","0","null","null","arrowup","[0.85,0.15,0.675,0.325]","","",""
"sailing-trial","369","1679174","0.0-11.0-324.0","","","","false","","","","","","","","","","533.7000000178814","","612.5","","0","1","arrowleft","0","arrowleft","[0.85,0.15,0.675,0.325]","","",""
"sailing-trial","370","1682074","0.0-11.0-325.0","","","","false","","","","","","","","","","null","","1011.1999999880791","","2","1","null","null","arrowup","[0.85,0.15,0.675,0.325]","","",""
"sailing-trial","371","1685563","0.0-11.0-326.0","","","","false","","","","","","","","","","862.3000000119209","","58.39999997615814","","2","0","arrowright","1","arrowleft","[0.85,0.15,0.675,0.325]","","",""
"sailing-trial","372","1687947","0.0-11.0-327.0","","","","false","","","","","","","","","","null","","888.1000000238419","","1","0","null","null","arrowup","[0.85,0.15,0.675,0.325]","","",""
"sailing-trial","373","1691426","0.0-11.0-328.0","","","","false","","","","","","","","","","630.5","","414.10000002384186","","0","0","arrowleft","0","arrowleft","[0.85,0.15,0.675,0.325]","","",""
"sailing-trial","374","1693651","0.0-11.0-329.0","","","","false","","","","","","","","","","null","","806.0999999940395","","3","0","null","null","arrowup","[0.85,0.15,0.675,0.325]","","",""
"sailing-trial","375","1697448","0.0-11.0-330.0","","","","false","","","","","","","","","","575.6999999880791","","196.5","","0","1","arrowleft","0","arrowleft","[0.675,0.325,0.85,0.15]","","",""
"sailing-trial","376","1700630","0.0-11.0-331.0","","","","false","","","","","","","","","","null","","1273.7999999821186","","2","1","null","null","arrowup","[0.675,0.325,0.85,0.15]","","",""
"sailing-trial","377","1704434","0.0-11.0-332.0","","","","false","","","","","","","","","","578.5999999940395","","39.5","","0","1","arrowleft","0","arrowleft","[0.675,0.325,0.85,0.15]","","",""
"sailing-trial","378","1709937","0.0-11.0-333.0","","","","false","","","","","","","","","","null","","3199","","2","1","null","null","arrowup","[0.675,0.325,0.85,0.15]","","",""
"sailing-trial","379","1713693","0.0-11.0-334.0","","","","false","","","","","","","","","","657.3000000119209","","68.10000002384186","","0","1","arrowleft","0","arrowleft","[0.675,0.325,0.85,0.15]","","",""
"sailing-trial","380","1716444","0.0-11.0-335.0","","","","false","","","","","","","","","","null","","844.4000000059605","","0","1","null","null","arrowup","[0.675,0.325,0.85,0.15]","","",""
"sailing-trial","381","1720584","0.0-11.0-336.0","","","","false","","","","","","","","","","765.3999999761581","","512.6000000238419","","0","0","arrowleft","0","arrowleft","[0.675,0.325,0.85,0.15]","","",""
"sailing-trial","382","1723042","0.0-11.0-337.0","","","","false","","","","","","","","","","null","","916.4000000059605","","0","0","null","null","arrowup","[0.675,0.325,0.85,0.15]","","",""
"sailing-trial","383","1726260","0.0-11.0-338.0","","","","false","","","","","","","","","","680.5","","49.10000002384186","","2","0","arrowright","1","arrowleft","[0.675,0.325,0.85,0.15]","","",""
"sailing-trial","384","1729514","0.0-11.0-339.0","","","","false","","","","","","","","","","null","","1092.9000000059605","","1","1","null","null","arrowup","[0.675,0.325,0.85,0.15]","","",""
"sailing-trial","385","1732570","0.0-11.0-340.0","","","","false","","","","","","","","","","503.59999999403954","","72.30000001192093","","1","0","arrowleft","0","arrowright","[0.675,0.325,0.85,0.15]","","",""
"sailing-trial","386","1735452","0.0-11.0-341.0","","","","false","","","","","","","","","","null","","1003.2000000178814","","2","1","null","null","arrowup","[0.675,0.325,0.85,0.15]","","",""
"sailing-trial","387","1738667","0.0-11.0-342.0","","","","false","","","","","","","","","","660.6999999880791","","42","","1","0","arrowleft","0","arrowright","[0.675,0.325,0.85,0.15]","","",""
"sailing-trial","388","1741752","0.0-11.0-343.0","","","","false","","","","","","","","","","null","","1173.4000000059605","","1","1","null","null","arrowup","[0.675,0.325,0.85,0.15]","","",""
"sailing-trial","389","1744788","0.0-11.0-344.0","","","","false","","","","","","","","","","583.3999999761581","","28.900000005960464","","2","0","arrowright","1","arrowleft","[0.675,0.325,0.85,0.15]","","",""
"sailing-trial","390","1746980","0.0-11.0-345.0","","","","false","","","","","","","","","","null","","781.1999999880791","","0","0","null","null","arrowup","[0.675,0.325,0.85,0.15]","","",""
"sailing-trial","391","1751375","0.0-11.0-346.0","","","","false","","","","","","","","","","719.1000000238419","","790.9000000059605","","1","1","arrowleft","0","arrowright","[0.325,0.675,0.15,0.85]","","",""
"sailing-trial","392","1753459","0.0-11.0-347.0","","","","false","","","","","","","","","","null","","697.5999999940395","","0","0","null","null","arrowup","[0.325,0.675,0.15,0.85]","","",""
"sailing-trial","393","1757593","0.0-11.0-348.0","","","","false","","","","","","","","","","598.8999999761581","","373.80000001192093","","3","1","arrowright","1","arrowright","[0.325,0.675,0.15,0.85]","","",""
"sailing-trial","394","1760315","0.0-11.0-349.0","","","","false","","","","","","","","","","null","","816.3000000119209","","1","1","null","null","arrowup","[0.325,0.675,0.15,0.85]","","",""
"sailing-trial","395","1764367","0.0-11.0-350.0","","","","false","","","","","","","","","","648.1000000238419","","244.30000001192093","","3","1","arrowright","1","arrowright","[0.325,0.675,0.15,0.85]","","",""
"sailing-trial","396","1766555","0.0-11.0-351.0","","","","false","","","","","","","","","","null","","851.7000000178814","","2","0","null","null","arrowup","[0.325,0.675,0.15,0.85]","","",""
"sailing-trial","397","1770131","0.0-11.0-352.0","","","","false","","","","","","","","","","480.30000001192093","","64.7000000178814","","1","1","arrowleft","0","arrowright","[0.325,0.675,0.15,0.85]","","",""
"sailing-trial","398","1771931","0.0-11.0-353.0","","","","false","","","","","","","","","","null","","662.8000000119209","","2","0","null","null","arrowup","[0.325,0.675,0.15,0.85]","","",""
"sailing-trial","399","1775923","0.0-11.0-354.0","","","","false","","","","","","","","","","488.30000001192093","","607.0999999940395","","3","1","arrowright","1","arrowright","[0.325,0.675,0.15,0.85]","","",""
"sailing-trial","400","1778259","0.0-11.0-355.0","","","","false","","","","","","","","","","null","","943.5","","0","0","null","null","arrowup","[0.325,0.675,0.15,0.85]","","",""
"sailing-trial","401","1782341","0.0-11.0-356.0","","","","false","","","","","","","","","","552.5","","571.9000000059605","","1","1","arrowleft","0","arrowright","[0.325,0.675,0.15,0.85]","","",""
"sailing-trial","402","1785424","0.0-11.0-357.0","","","","false","","","","","","","","","","null","","1223","","1","1","null","null","arrowup","[0.325,0.675,0.15,0.85]","","",""
"sailing-trial","403","1789282","0.0-11.0-358.0","","","","false","","","","","","","","","","633.2999999821186","","303.40000000596046","","3","1","arrowright","1","arrowright","[0.325,0.675,0.15,0.85]","","",""
"sailing-trial","404","1792647","0.0-11.0-359.0","","","","false","","","","","","","","","","null","","1522.0999999940395","","3","1","null","null","arrowup","[0.325,0.675,0.15,0.85]","","",""
"sailing-trial","405","1796414","0.0-11.0-360.0","","","","false","","","","","","","","","","660.7000000178814","","80.5","","1","1","arrowleft","0","arrowright","[0.325,0.675,0.15,0.85]","","",""
"sailing-trial","406","1800349","0.0-11.0-361.0","","","","false","","","","","","","","","","null","","1884.300000011921","","1","1","null","null","arrowup","[0.325,0.675,0.15,0.85]","","",""
"sailing-trial","407","1805365","0.0-11.0-362.0","","","","false","","","","","","","","","","1782.300000011921","","118.09999999403954","","3","1","arrowright","1","arrowright","[0.325,0.675,0.15,0.85]","","",""
"sailing-trial","408","1808132","0.0-11.0-363.0","","","","false","","","","","","","","","","null","","822.0999999940395","","1","1","null","null","arrowup","[0.325,0.675,0.15,0.85]","","",""
"sailing-trial","409","1812651","0.0-11.0-364.0","","","","false","","","","","","","","","","1455.2000000178814","","201.7000000178814","","3","1","arrowright","1","arrowright","[0.15,0.85,0.325,0.675]","","",""
"sailing-trial","410","1815869","0.0-11.0-365.0","","","","false","","","","","","","","","","null","","1032.199999988079","","3","1","null","null","arrowup","[0.15,0.85,0.325,0.675]","","",""
"sailing-trial","411","1819308","0.0-11.0-366.0","","","","false","","","","","","","","","","582.7999999821186","","262.30000001192093","","1","0","arrowleft","0","arrowright","[0.15,0.85,0.325,0.675]","","",""
"sailing-trial","412","1821740","0.0-11.0-367.0","","","","false","","","","","","","","","","null","","869.7999999821186","","3","0","null","null","arrowup","[0.15,0.85,0.325,0.675]","","",""
"sailing-trial","413","1826068","0.0-11.0-368.0","","","","false","","","","","","","","","","549.6999999880791","","690.3999999761581","","1","1","arrowleft","0","arrowright","[0.15,0.85,0.325,0.675]","","",""
"sailing-trial","414","1829739","0.0-11.0-369.0","","","","false","","","","","","","","","","null","","1710.9000000059605","","2","1","null","null","arrowup","[0.15,0.85,0.325,0.675]","","",""
"sailing-trial","415","1833925","0.0-11.0-370.0","","","","false","","","","","","","","","","1607.6000000238419","","139.60000002384186","","3","0","arrowright","1","arrowright","[0.15,0.85,0.325,0.675]","","",""
"sailing-trial","416","1836490","0.0-11.0-371.0","","","","false","","","","","","","","","","null","","887.0999999940395","","0","0","null","null","arrowup","[0.15,0.85,0.325,0.675]","","",""
"sailing-trial","417","1840374","0.0-11.0-372.0","","","","false","","","","","","","","","","735.5","","559.8000000119209","","2","0","arrowright","1","arrowleft","[0.15,0.85,0.325,0.675]","","",""
"sailing-trial","418","1843205","0.0-11.0-373.0","","","","false","","","","","","","","","","null","","1372.7999999821186","","2","0","null","null","arrowup","[0.15,0.85,0.325,0.675]","","",""
"sailing-trial","419","1847427","0.0-11.0-374.0","","","","false","","","","","","","","","","1154.7000000178814","","151.09999999403954","","3","1","arrowright","1","arrowright","[0.15,0.85,0.325,0.675]","","",""
"sailing-trial","420","1850165","0.0-11.0-375.0","","","","false","","","","","","","","","","null","","1144.0999999940395","","0","0","null","null","arrowup","[0.15,0.85,0.325,0.675]","","",""
"sailing-trial","421","1854168","0.0-11.0-376.0","","","","false","","","","","","","","","","549.7000000178814","","117.59999999403954","","3","1","arrowright","1","arrowright","[0.15,0.85,0.325,0.675]","","",""
"sailing-trial","422","1858166","0.0-11.0-377.0","","","","false","","","","","","","","","","null","","1828","","3","1","null","null","arrowup","[0.15,0.85,0.325,0.675]","","",""
"sailing-trial","423","1862185","0.0-11.0-378.0","","","","false","","","","","","","","","","636.5","","441","","3","1","arrowright","1","arrowright","[0.15,0.85,0.325,0.675]","","",""
"sailing-trial","424","1864950","0.0-11.0-379.0","","","","false","","","","","","","","","","null","","1235.1000000238419","","2","0","null","null","arrowup","[0.15,0.85,0.325,0.675]","","",""
"sailing-trial","425","1868771","0.0-11.0-380.0","","","","false","","","","","","","","","","492.5","","168.2999999821186","","3","1","arrowright","1","arrowright","[0.325,0.675,0.15,0.85]","","",""
"sailing-trial","426","1872023","0.0-11.0-381.0","","","","false","","","","","","","","","","null","","1344.0999999940395","","3","1","null","null","arrowup","[0.325,0.675,0.15,0.85]","","",""
"sailing-trial","427","1876207","0.0-11.0-382.0","","","","false","","","","","","","","","","709.5","","221","","3","1","arrowright","1","arrowright","[0.325,0.675,0.15,0.85]","","",""
"sailing-trial","428","1878804","0.0-11.0-383.0","","","","false","","","","","","","","","","null","","1245.2000000178814","","2","0","null","null","arrowup","[0.325,0.675,0.15,0.85]","","",""
"sailing-trial","429","1882006","0.0-11.0-384.0","","","","false","","","","","","","","","","503.40000000596046","","33.599999994039536","","3","0","arrowright","1","arrowright","[0.325,0.675,0.15,0.85]","","",""
"sailing-trial","430","1884871","0.0-11.0-385.0","","","","false","","","","","","","","","","null","","1100.800000011921","","0","0","null","null","arrowup","[0.325,0.675,0.15,0.85]","","",""
"sailing-trial","431","1890460","0.0-11.0-386.0","","","","false","","","","","","","","","","1099.0999999940395","","1439.5999999940395","","3","0","arrowright","1","arrowright","[0.325,0.675,0.15,0.85]","","",""
"sailing-trial","432","1894377","0.0-11.0-387.0","","","","false","","","","","","","","","","null","","1927","","3","1","null","null","arrowup","[0.325,0.675,0.15,0.85]","","",""
"sailing-trial","433","1898431","0.0-11.0-388.0","","","","false","","","","","","","","","","674.1999999880791","","233.30000001192093","","3","1","arrowright","1","arrowright","[0.325,0.675,0.15,0.85]","","",""
"sailing-trial","434","1902774","0.0-11.0-389.0","","","","false","","","","","","","","","","null","","1437.5999999940395","","3","0","null","null","arrowup","[0.325,0.675,0.15,0.85]","","",""
"sailing-trial","435","1906330","0.0-11.0-390.0","","","","false","","","","","","","","","","613.5","","21.5","","3","1","arrowright","1","arrowright","[0.325,0.675,0.15,0.85]","","",""
"sailing-trial","436","1908847","0.0-11.0-391.0","","","","false","","","","","","","","","","null","","1099.699999988079","","0","0","null","null","arrowup","[0.325,0.675,0.15,0.85]","","",""
"sailing-trial","437","1912659","0.0-11.0-392.0","","","","false","","","","","","","","","","606.3000000119209","","150.80000001192093","","3","1","arrowright","1","arrowright","[0.325,0.675,0.15,0.85]","","",""
"sailing-trial","438","1915557","0.0-11.0-393.0","","","","false","","","","","","","","","","null","","1336.5","","2","0","null","null","arrowup","[0.325,0.675,0.15,0.85]","","",""
"sailing-trial","439","1919479","0.0-11.0-394.0","","","","false","","","","","","","","","","632.2999999821186","","288.09999999403954","","3","1","arrowright","1","arrowright","[0.325,0.675,0.15,0.85]","","",""
"sailing-trial","440","1922733","0.0-11.0-395.0","","","","false","","","","","","","","","","null","","1364.199999988079","","1","1","null","null","arrowup","[0.325,0.675,0.15,0.85]","","",""
"sailing-trial","441","1927286","0.0-11.0-396.0","","","","false","","","","","","","","","","822.9000000059605","","650","","3","1","arrowright","1","arrowright","[0.325,0.675,0.15,0.85]","","",""
"sailing-trial","442","1930322","0.0-11.0-397.0","","","","false","","","","","","","","","","null","","1046.5","","1","1","null","null","arrowup","[0.325,0.675,0.15,0.85]","","",""
"sailing-trial","443","1934790","0.0-11.0-398.0","","","","false","","","","","","","","","","587.0999999940395","","651","","3","1","arrowright","1","arrowright","[0.325,0.675,0.15,0.85]","","",""
"sailing-trial","444","1937890","0.0-11.0-399.0","","","","false","","","","","","","","","","null","","934.5999999940395","","2","1","null","null","arrowup","[0.325,0.675,0.15,0.85]","","",""
"instructions","445","1942050","0.0-12.0","","","","","","","","","","4157.199999988079","","","","","","","","","","","","","","","","[{""page_index"":0,""viewing_time"":4157}]"
"survey-debrief","446","2030611","0.0-13.0","","","","","","","","","","88557.40000000596","","","","","","","","","","","","","","{""difficulty"":""4"",""fun"":""3"",""clarity"":""5"",""strategy"":""remember which shops were most recently sucsessful"",""feedback"":""no""}","",""
