"trial_type","trial_index","time_elapsed","internal_node_id","value","metadata","success","timeout","failed_images","failed_audio","failed_video","browser_interaction","low_quality","rt","stimulus","response","button_pressed","island_rt","island_response","boat_rt","boat_response","boat","reward","island_key","island","boat_key","reward_probabilities","responses","num_errors","view_history"
"pavlovia","0","7","0.0-0.0","","","","","","","","","","","","","","","","","","","","","","","","","",""
"call-function","1","8","0.0-1.0","","{""task_version"":""sailing_part1_v1"",""task_condition"":""good"",""boats"":[""C"",""D"",""A"",""B""],""boats_demo"":[""G"",""F"",""H"",""E""],""islands"":[""A"",""B""],""subject_id"":""14961"",""age"":""14"",""gender"":""Female""}","","","","","","","","","","","","","","","","","","","","","","","",""
"preload","2","1311","0.0-2.0","","","true","false","[]","[]","[]","[{""event"":""fullscreenenter"",""trial"":3,""time"":3952}]","false","","","","","","","","","","","","","","","","",""
"fullscreen","3","4923","0.0-3.0","","","true","","","","","","","","","","","","","","","","","","","","","","",""
"audio-keyboard-response","4","11869","0.0-4.0-0.0","","","","","","","","","","6613.333333333333","audio/beep_loop.wav"," ","","","","","","","","","","","","","",""
"audio-test","5","13658","0.0-4.0-1.0","","","","","","","","","","null","audio/turtle.mp3","","3","","","","","","","","","","","","",""
"audio-test","6","16007","0.0-4.0-2.0","","","","","","","","","","null","audio/shark.mp3","","2","","","","","","","","","","","","",""
"sailing-instructions","7","66353","0.0-5.0-0.0-0.0","","","","","","","","","","","","","","null","null","null","null","null","null","","","","","","",""
"sailing-trial","8","75870","0.0-5.0-0.0-1.0-0.0","","","","false","","","","","","","","","","8220.29999999702","","null","","null","null","arrowleft","0","null","null","","",""
"sailing-trial","9","85019","0.0-5.0-0.0-1.0-1.0","","","","false","","","","","","","","","","7892.29999999702","","null","","null","null","arrowright","1","null","null","","",""
"sailing-trial","10","88933","0.0-5.0-0.0-1.0-2.0","","","","false","","","","","","","","","","2808.5","","null","","null","null","arrowright","1","null","null","","",""
"sailing-instructions","11","138915","0.0-5.0-0.0-2.0","","","","","","","","","","","","","","null","null","null","null","0","null","","","","","","",""
"sailing-trial","12","149815","0.0-5.0-0.0-3.0-0.0","","","","false","","","","","","","","","","null","","6220","","2","1","null","null","arrowleft","[1,1,1,1]","","",""
"sailing-trial","13","163347","0.0-5.0-0.0-3.0-1.0","","","","false","","","","","","","","","","null","","9980.40000000596","","3","1","null","null","arrowright","[1,1,1,1]","","",""
"sailing-trial","14","178464","0.0-5.0-0.0-3.0-2.0","","","","false","","","","","","","","","","null","","10981.09999999404","","3","0","null","null","arrowright","[0,0,0,0]","","",""
"sailing-instructions","15","187940","0.0-5.0-0.0-4.0","","","","","","","","","","","","","","null","null","null","null","null","null","","","","","","",""
"sailing-comprehension","16","262606","0.0-5.0-0.0-5.0","","","","","","","","","","64827.19999998808","","","","","","","","","","","","","","[""true"",""true"",""false"",""true""]","0",""
"sailing-instructions","17","384840","0.0-6.0-0.0-0.0","","","","","","","","","","","","","","null","null","null","null","null","null","","","","","","",""
"sailing-comprehension","18","421027","0.0-6.0-0.0-1.0","","","","","","","","","","32998.39999999106","","","","","","","","","","","","","","[""true"",""false"",""true""]","0",""
"sailing-instructions","19","436396","0.0-7.0-0.0-0.0","","","","","","","","","","","","","","null","null","null","null","null","null","","","","","","",""
"sailing-trial","20","442715","0.0-7.0-0.0-1.0-0.0","","","","false","","","","","","","","","","null","","3314.199999988079","","0","1","null","null","arrowup","[0.2,0.8,0.2,0.8]","","",""
"sailing-trial","21","447848","0.0-7.0-0.0-1.0-1.0","","","","false","","","","","","","","","","null","","3154.1000000089407","","1","1","null","null","arrowup","[0.2,0.8,0.2,0.8]","","",""
"sailing-trial","22","451398","0.0-7.0-0.0-1.0-2.0","","","","false","","","","","","","","","","null","","1483.4000000059605","","2","1","null","null","arrowup","[0.2,0.8,0.2,0.8]","","",""
"sailing-trial","23","456115","0.0-7.0-0.0-1.0-3.0","","","","false","","","","","","","","","","null","","1694.4000000059605","","3","0","null","null","arrowup","[0.2,0.8,0.2,0.8]","","",""
"sailing-comprehension","24","474652","0.0-7.0-0.0-2.0","","","","","","","","","","16643.40000000596","","","","","","","","","","","","","","[""false""]","0",""
"sailing-instructions","25","486318","0.0-8.0-0.0-0.0","","","","","","","","","","","","","","null","null","null","null","null","null","","","","","","",""
"sailing-comprehension","26","492820","0.0-8.0-0.0-1.0","","","","","","","","","","5585.5","","","","","","","","","","","","","","[""true""]","0",""
"sailing-instructions","27","522764","0.0-9.0-0.0-0.0","","","","","","","","","","","","","","null","null","null","null","null","null","","","","","","",""
"sailing-trial","28","531777","0.0-9.0-0.0-1.0-0.0","","","","false","","","","","","","","","","3446.1000000089407","","418.19999998807907","","1","1","arrowleft","0","arrowright","[0.2,0.8,0.2,0.8]","","",""
"sailing-trial","29","536551","0.0-9.0-0.0-1.0-1.0","","","","false","","","","","","","","","","591.4000000059605","","498.3999999910593","","3","0","arrowright","1","arrowright","[0.2,0.8,0.2,0.8]","","",""
"sailing-trial","30","540911","0.0-9.0-0.0-1.0-2.0","","","","false","","","","","","","","","","null","","1311.9000000059605","","0","1","null","null","arrowup","[0.2,0.8,0.2,0.8]","","",""
"sailing-trial","31","544877","0.0-9.0-0.0-1.0-3.0","","","","false","","","","","","","","","","878.6000000089407","","41.69999998807907","","0","0","arrowleft","0","arrowleft","[0.2,0.8,0.2,0.8]","","",""
"sailing-trial","32","547497","0.0-9.0-0.0-1.0-4.0","","","","false","","","","","","","","","","null","","1158.7000000029802","","3","0","null","null","arrowup","[0.2,0.8,0.2,0.8]","","",""
"sailing-trial","33","552293","0.0-9.0-0.0-1.0-5.0","","","","false","","","","","","","","","","818.6000000089407","","659.5","","1","1","arrowleft","0","arrowright","[0.2,0.8,0.2,0.8]","","",""
"sailing-instructions","34","751558","0.0-10.0","","","","","","","","","","","","","","null","null","null","null","null","null","","","","","","",""
"sailing-trial","35","759915","0.0-11.0-0.0","","","","false","","","","","","","","","","2072.5999999940395","","190.59999999403954","","2","1","arrowright","1","arrowleft","[0.15,0.85,0.325,0.675]","","",""
"sailing-trial","36","763931","0.0-11.0-1.0","","","","false","","","","","","","","","","null","","1343.0999999940395","","1","1","null","null","arrowup","[0.15,0.85,0.325,0.675]","","",""
"sailing-trial","37","771464","0.0-11.0-2.0","","","","false","","","","","","","","","","986.4000000059605","","2097.6000000089407","","0","0","arrowleft","0","arrowleft","[0.15,0.85,0.325,0.675]","","",""
"sailing-trial","38","775246","0.0-11.0-3.0","","","","false","","","","","","","","","","null","","941","","0","1","null","null","arrowup","[0.15,0.85,0.325,0.675]","","",""
"sailing-trial","39","781013","0.0-11.0-4.0","","","","false","","","","","","","","","","1028.7000000029802","","1332.2000000029802","","3","1","arrowright","1","arrowright","[0.15,0.85,0.325,0.675]","","",""
"sailing-trial","40","785280","0.0-11.0-5.0","","","","false","","","","","","","","","","null","","1440.8999999910593","","1","1","null","null","arrowup","[0.15,0.85,0.325,0.675]","","",""
"sailing-trial","41","789531","0.0-11.0-6.0","","","","false","","","","","","","","","","626.5999999940395","","249.69999998807907","","1","1","arrowleft","0","arrowright","[0.15,0.85,0.325,0.675]","","",""
"sailing-trial","42","795014","0.0-11.0-7.0","","","","false","","","","","","","","","","null","","2583.5999999940395","","1","1","null","null","arrowup","[0.15,0.85,0.325,0.675]","","",""
"sailing-trial","43","800512","0.0-11.0-8.0","","","","false","","","","","","","","","","921.8000000119209","","804","","1","1","arrowleft","0","arrowright","[0.15,0.85,0.325,0.675]","","",""
"sailing-trial","44","804812","0.0-11.0-9.0","","","","false","","","","","","","","","","null","","1322.0999999940395","","1","1","null","null","arrowup","[0.15,0.85,0.325,0.675]","","",""
"sailing-trial","45","810112","0.0-11.0-10.0","","","","false","","","","","","","","","","1027.7999999970198","","619.7999999970198","","1","1","arrowleft","0","arrowright","[0.15,0.85,0.325,0.675]","","",""
"sailing-trial","46","813744","0.0-11.0-11.0","","","","false","","","","","","","","","","null","","898.7000000029802","","1","1","null","null","arrowup","[0.15,0.85,0.325,0.675]","","",""
"sailing-trial","47","820278","0.0-11.0-12.0","","","","false","","","","","","","","","","1270","","772.9000000059605","","2","0","arrowright","1","arrowleft","[0.15,0.85,0.325,0.675]","","",""
"sailing-trial","48","824478","0.0-11.0-13.0","","","","false","","","","","","","","","","null","","1174.3999999910593","","3","0","null","null","arrowup","[0.15,0.85,0.325,0.675]","","",""
"sailing-trial","49","830962","0.0-11.0-14.0","","","","false","","","","","","","","","","1528.2000000029802","","37.29999999701977","","1","1","arrowleft","0","arrowright","[0.15,0.85,0.325,0.675]","","",""
"sailing-trial","50","835076","0.0-11.0-15.0","","","","false","","","","","","","","","","null","","1367.2000000029802","","1","1","null","null","arrowup","[0.15,0.85,0.325,0.675]","","",""
"sailing-trial","51","841443","0.0-11.0-16.0","","","","false","","","","","","","","","","1163.9000000059605","","966.7999999970198","","0","0","arrowleft","0","arrowleft","[0.85,0.15,0.675,0.325]","","",""
"sailing-trial","52","845626","0.0-11.0-17.0","","","","false","","","","","","","","","","null","","1284.7999999970198","","3","1","null","null","arrowup","[0.85,0.15,0.675,0.325]","","",""
"sailing-trial","53","852493","0.0-11.0-18.0","","","","false","","","","","","","","","","1128.0999999940395","","1466.9000000059605","","1","0","arrowleft","0","arrowright","[0.85,0.15,0.675,0.325]","","",""
"sailing-trial","54","857142","0.0-11.0-19.0","","","","false","","","","","","","","","","null","","1623.0999999940395","","0","0","null","null","arrowup","[0.85,0.15,0.675,0.325]","","",""
"sailing-trial","55","863444","0.0-11.0-20.0","","","","false","","","","","","","","","","1554.699999988079","","637.4000000059605","","2","1","arrowright","1","arrowleft","[0.85,0.15,0.675,0.325]","","",""
"sailing-trial","56","868592","0.0-11.0-21.0","","","","false","","","","","","","","","","null","","1636.4000000059605","","2","1","null","null","arrowup","[0.85,0.15,0.675,0.325]","","",""
"sailing-trial","57","874360","0.0-11.0-22.0","","","","false","","","","","","","","","","1373.9000000059605","","267.19999998807907","","0","0","arrowleft","0","arrowleft","[0.85,0.15,0.675,0.325]","","",""
"sailing-trial","58","878490","0.0-11.0-23.0","","","","false","","","","","","","","","","null","","1108.0999999940395","","1","0","null","null","arrowup","[0.85,0.15,0.675,0.325]","","",""
"sailing-trial","59","882858","0.0-11.0-24.0","","","","false","","","","","","","","","","622.9000000059605","","111.29999999701977","","0","1","arrowleft","0","arrowleft","[0.85,0.15,0.675,0.325]","","",""
"sailing-trial","60","885866","0.0-11.0-25.0","","","","false","","","","","","","","","","null","","1155.699999988079","","1","0","null","null","arrowup","[0.85,0.15,0.675,0.325]","","",""
"sailing-trial","61","890157","0.0-11.0-26.0","","","","false","","","","","","","","","","756.5","","537.9000000059605","","2","0","arrowright","1","arrowleft","[0.85,0.15,0.675,0.325]","","",""
"sailing-trial","62","894891","0.0-11.0-27.0","","","","false","","","","","","","","","","null","","2031.7000000029802","","2","1","null","null","arrowup","[0.85,0.15,0.675,0.325]","","",""
"sailing-trial","63","900074","0.0-11.0-28.0","","","","false","","","","","","","","","","1783.5999999940395","","44.599999994039536","","2","1","arrowright","1","arrowleft","[0.85,0.15,0.675,0.325]","","",""
"sailing-trial","64","903299","0.0-11.0-29.0","","","","false","","","","","","","","","","null","","863.5","","2","0","null","null","arrowup","[0.85,0.15,0.675,0.325]","","",""
"sailing-trial","65","908773","0.0-11.0-30.0","","","","false","","","","","","","","","","898.2999999970198","","116.5","","2","0","arrowright","1","arrowleft","[0.85,0.15,0.675,0.325]","","",""
"sailing-trial","66","914240","0.0-11.0-31.0","","","","false","","","","","","","","","","null","","1056.3999999910593","","0","1","null","null","arrowup","[0.85,0.15,0.675,0.325]","","",""
"sailing-trial","67","919655","0.0-11.0-32.0","","","","false","","","","","","","","","","1023.7000000029802","","385.20000000298023","","0","1","arrowleft","0","arrowleft","[0.325,0.675,0.15,0.85]","","",""
"sailing-trial","68","925239","0.0-11.0-33.0","","","","false","","","","","","","","","","null","","2577.5","","1","0","null","null","arrowup","[0.325,0.675,0.15,0.85]","","",""
"sailing-trial","69","931288","0.0-11.0-34.0","","","","false","","","","","","","","","","1345.7999999970198","","257.90000000596046","","0","0","arrowleft","0","arrowleft","[0.325,0.675,0.15,0.85]","","",""
"sailing-trial","70","935222","0.0-11.0-35.0","","","","false","","","","","","","","","","null","","914.7000000029802","","2","0","null","null","arrowup","[0.325,0.675,0.15,0.85]","","",""
"sailing-trial","71","940338","0.0-11.0-36.0","","","","false","","","","","","","","","","984.2000000029802","","411.70000000298023","","1","1","arrowleft","0","arrowright","[0.325,0.675,0.15,0.85]","","",""
"sailing-trial","72","944404","0.0-11.0-37.0","","","","false","","","","","","","","","","null","","1041.6000000089407","","2","0","null","null","arrowup","[0.325,0.675,0.15,0.85]","","",""
"sailing-trial","73","949437","0.0-11.0-38.0","","","","false","","","","","","","","","","774.2999999970198","","71.59999999403954","","3","1","arrowright","1","arrowright","[0.325,0.675,0.15,0.85]","","",""
"sailing-trial","74","952870","0.0-11.0-39.0","","","","false","","","","","","","","","","null","","1014.7000000029802","","1","1","null","null","arrowup","[0.325,0.675,0.15,0.85]","","",""
"sailing-trial","75","957120","0.0-11.0-40.0","","","","false","","","","","","","","","","722","","85.5","","1","1","arrowleft","0","arrowright","[0.325,0.675,0.15,0.85]","","",""
"sailing-trial","76","961053","0.0-11.0-41.0","","","","false","","","","","","","","","","null","","1487.5","","0","1","null","null","arrowup","[0.325,0.675,0.15,0.85]","","",""
"sailing-trial","77","965435","0.0-11.0-42.0","","","","false","","","","","","","","","","846.2000000029802","","21.799999997019768","","3","1","arrowright","1","arrowright","[0.325,0.675,0.15,0.85]","","",""
"sailing-trial","78","969003","0.0-11.0-43.0","","","","false","","","","","","","","","","null","","1471.1000000089407","","3","1","null","null","arrowup","[0.325,0.675,0.15,0.85]","","",""
"sailing-trial","79","974552","0.0-11.0-44.0","","","","false","","","","","","","","","","691.5","","531.5","","1","0","arrowleft","0","arrowright","[0.325,0.675,0.15,0.85]","","",""
"sailing-trial","80","980219","0.0-11.0-45.0","","","","false","","","","","","","","","","null","","2067.2999999970198","","3","1","null","null","arrowup","[0.325,0.675,0.15,0.85]","","",""
"sailing-trial","81","986303","0.0-11.0-46.0","","","","false","","","","","","","","","","1798.4000000059605","","352.1000000089407","","3","1","arrowright","1","arrowright","[0.325,0.675,0.15,0.85]","","",""
"sailing-trial","82","990548","0.0-11.0-47.0","","","","false","","","","","","","","","","null","","2294.8999999910593","","1","0","null","null","arrowup","[0.325,0.675,0.15,0.85]","","",""
"sailing-trial","83","995751","0.0-11.0-48.0","","","","false","","","","","","","","","","1432.7999999970198","","124.70000000298023","","1","1","arrowleft","0","arrowright","[0.325,0.675,0.15,0.85]","","",""
"sailing-trial","84","1000636","0.0-11.0-49.0","","","","false","","","","","","","","","","null","","2784.2999999970198","","3","1","null","null","arrowup","[0.325,0.675,0.15,0.85]","","",""
"sailing-trial","85","1006184","0.0-11.0-50.0","","","","false","","","","","","","","","","623.8000000119209","","689.2999999970198","","3","0","arrowright","1","arrowright","[0.325,0.675,0.15,0.85]","","",""
"sailing-trial","86","1010766","0.0-11.0-51.0","","","","false","","","","","","","","","","null","","1550.7000000029802","","2","0","null","null","arrowup","[0.325,0.675,0.15,0.85]","","",""
"sailing-trial","87","1016084","0.0-11.0-52.0","","","","false","","","","","","","","","","484.30000001192093","","415.90000000596046","","1","1","arrowleft","0","arrowright","[0.15,0.85,0.325,0.675]","","",""
"sailing-trial","88","1019882","0.0-11.0-53.0","","","","false","","","","","","","","","","null","","1773.2999999970198","","3","1","null","null","arrowup","[0.15,0.85,0.325,0.675]","","",""
"sailing-trial","89","1024567","0.0-11.0-54.0","","","","false","","","","","","","","","","1147.3999999910593","","38.6000000089407","","1","1","arrowleft","0","arrowright","[0.15,0.85,0.325,0.675]","","",""
"sailing-trial","90","1028216","0.0-11.0-55.0","","","","false","","","","","","","","","","null","","1241.2000000029802","","1","1","null","null","arrowup","[0.15,0.85,0.325,0.675]","","",""
"sailing-trial","91","1032800","0.0-11.0-56.0","","","","false","","","","","","","","","","807","","260.3999999910593","","1","1","arrowleft","0","arrowright","[0.15,0.85,0.325,0.675]","","",""
"sailing-trial","92","1035556","0.0-11.0-57.0","","","","false","","","","","","","","","","null","","1020.5","","0","0","null","null","arrowup","[0.15,0.85,0.325,0.675]","","",""
"sailing-trial","93","1040149","0.0-11.0-58.0","","","","false","","","","","","","","","","861.6000000089407","","236.29999999701977","","3","1","arrowright","1","arrowright","[0.15,0.85,0.325,0.675]","","",""
"sailing-trial","94","1044848","0.0-11.0-59.0","","","","false","","","","","","","","","","null","","1694.800000011921","","2","0","null","null","arrowup","[0.15,0.85,0.325,0.675]","","",""
"sailing-trial","95","1050698","0.0-11.0-60.0","","","","false","","","","","","","","","","638.8999999910593","","498.6000000089407","","1","0","arrowleft","0","arrowright","[0.15,0.85,0.325,0.675]","","",""
"sailing-trial","96","1054448","0.0-11.0-61.0","","","","false","","","","","","","","","","null","","1188.1000000089407","","1","1","null","null","arrowup","[0.15,0.85,0.325,0.675]","","",""
"sailing-trial","97","1059616","0.0-11.0-62.0","","","","false","","","","","","","","","","661.4000000059605","","466.69999998807907","","3","1","arrowright","1","arrowright","[0.15,0.85,0.325,0.675]","","",""
"sailing-trial","98","1065114","0.0-11.0-63.0","","","","false","","","","","","","","","","null","","2487.2999999970198","","1","0","null","null","arrowup","[0.15,0.85,0.325,0.675]","","",""
"sailing-trial","99","1072447","0.0-11.0-64.0","","","","false","","","","","","","","","","803","","858.0999999940395","","1","1","arrowleft","0","arrowright","[0.15,0.85,0.325,0.675]","","",""
"sailing-trial","100","1075711","0.0-11.0-65.0","","","","false","","","","","","","","","","null","","1569.7000000029802","","0","0","null","null","arrowup","[0.15,0.85,0.325,0.675]","","",""
"sailing-trial","101","1081813","0.0-11.0-66.0","","","","false","","","","","","","","","","2466.8999999910593","","73.79999999701977","","3","1","arrowright","1","arrowright","[0.15,0.85,0.325,0.675]","","",""
"sailing-trial","102","1087263","0.0-11.0-67.0","","","","false","","","","","","","","","","null","","3405.2000000029802","","3","1","null","null","arrowup","[0.15,0.85,0.325,0.675]","","",""
"sailing-trial","103","1092015","0.0-11.0-68.0","","","","false","","","","","","","","","","903.8000000119209","","295.40000000596046","","1","1","arrowleft","0","arrowright","[0.325,0.675,0.15,0.85]","","",""
"sailing-trial","104","1094438","0.0-11.0-69.0","","","","false","","","","","","","","","","null","","1128.9000000059605","","0","0","null","null","arrowup","[0.325,0.675,0.15,0.85]","","",""
"sailing-trial","105","1098046","0.0-11.0-70.0","","","","false","","","","","","","","","","552.5999999940395","","114.19999998807907","","3","1","arrowright","1","arrowright","[0.325,0.675,0.15,0.85]","","",""
"sailing-trial","106","1100946","0.0-11.0-71.0","","","","false","","","","","","","","","","null","","1232.7999999970198","","2","1","null","null","arrowup","[0.325,0.675,0.15,0.85]","","",""
"sailing-trial","107","1104479","0.0-11.0-72.0","","","","false","","","","","","","","","","224.3999999910593","","316.6000000089407","","3","1","arrowright","1","arrowright","[0.325,0.675,0.15,0.85]","","",""
"sailing-trial","108","1107761","0.0-11.0-73.0","","","","false","","","","","","","","","","null","","1004.7000000029802","","3","0","null","null","arrowup","[0.325,0.675,0.15,0.85]","","",""
"sailing-trial","109","1112562","0.0-11.0-74.0","","","","false","","","","","","","","","","1141.4000000059605","","383.5","","3","1","arrowright","1","arrowright","[0.325,0.675,0.15,0.85]","","",""
"sailing-trial","110","1115728","0.0-11.0-75.0","","","","false","","","","","","","","","","null","","1145.2000000029802","","2","1","null","null","arrowup","[0.325,0.675,0.15,0.85]","","",""
"sailing-trial","111","1120778","0.0-11.0-76.0","","","","false","","","","","","","","","","122.09999999403954","","318.19999998807907","","1","0","arrowleft","0","arrowright","[0.325,0.675,0.15,0.85]","","",""
"sailing-trial","112","1123877","0.0-11.0-77.0","","","","false","","","","","","","","","","null","","1214","","3","1","null","null","arrowup","[0.325,0.675,0.15,0.85]","","",""
"sailing-trial","113","1129463","0.0-11.0-78.0","","","","false","","","","","","","","","","1060.2999999970198","","254","","3","0","arrowright","1","arrowright","[0.325,0.675,0.15,0.85]","","",""
"sailing-trial","114","1132610","0.0-11.0-79.0","","","","false","","","","","","","","","","null","","1177.5","","3","1","null","null","arrowup","[0.325,0.675,0.15,0.85]","","",""
"sailing-trial","115","1138177","0.0-11.0-80.0","","","","false","","","","","","","","","","979","","60.1000000089407","","1","1","arrowleft","0","arrowright","[0.325,0.675,0.15,0.85]","","",""
"sailing-trial","116","1141415","0.0-11.0-81.0","","","","false","","","","","","","","","","null","","1321.5","","0","0","null","null","arrowup","[0.325,0.675,0.15,0.85]","","",""
"sailing-trial","117","1147359","0.0-11.0-82.0","","","","false","","","","","","","","","","2373.2000000029802","","5.600000008940697","","1","1","arrowleft","0","arrowright","[0.325,0.675,0.15,0.85]","","",""
"sailing-trial","118","1151270","0.0-11.0-83.0","","","","false","","","","","","","","","","null","","1466.8999999910593","","2","0","null","null","arrowup","[0.325,0.675,0.15,0.85]","","",""
"sailing-trial","119","1156192","0.0-11.0-84.0","","","","false","","","","","","","","","","611.2999999970198","","219.90000000596046","","3","1","arrowright","1","arrowright","[0.325,0.675,0.15,0.85]","","",""
"sailing-trial","120","1160525","0.0-11.0-85.0","","","","false","","","","","","","","","","null","","2258.2000000029802","","1","1","null","null","arrowup","[0.325,0.675,0.15,0.85]","","",""
"sailing-trial","121","1165028","0.0-11.0-86.0","","","","false","","","","","","","","","","643.4000000059605","","181.6000000089407","","3","1","arrowright","1","arrowright","[0.325,0.675,0.15,0.85]","","",""
"sailing-trial","122","1170410","0.0-11.0-87.0","","","","false","","","","","","","","","","null","","2375.7999999970198","","2","0","null","null","arrowup","[0.325,0.675,0.15,0.85]","","",""
"sailing-trial","123","1175092","0.0-11.0-88.0","","","","false","","","","","","","","","","814.6999999880791","","375.3999999910593","","3","1","arrowright","1","arrowright","[0.325,0.675,0.15,0.85]","","",""
"sailing-trial","124","1178296","0.0-11.0-89.0","","","","false","","","","","","","","","","null","","1907","","0","0","null","null","arrowup","[0.325,0.675,0.15,0.85]","","",""
"sailing-trial","125","1182660","0.0-11.0-90.0","","","","false","","","","","","","","","","783.5","","401.79999999701977","","1","0","arrowleft","0","arrowright","[0.675,0.325,0.85,0.15]","","",""
"sailing-trial","126","1186074","0.0-11.0-91.0","","","","false","","","","","","","","","","null","","1013.2999999970198","","0","1","null","null","arrowup","[0.675,0.325,0.85,0.15]","","",""
"sailing-trial","127","1191758","0.0-11.0-92.0","","","","false","","","","","","","","","","1097","","186.20000000298023","","3","0","arrowright","1","arrowright","[0.675,0.325,0.85,0.15]","","",""
"sailing-trial","128","1194986","0.0-11.0-93.0","","","","false","","","","","","","","","","null","","897.3999999910593","","3","0","null","null","arrowup","[0.675,0.325,0.85,0.15]","","",""
"sailing-trial","129","1200071","0.0-11.0-94.0","","","","false","","","","","","","","","","746.9000000059605","","447.80000001192093","","0","0","arrowleft","0","arrowleft","[0.675,0.325,0.85,0.15]","","",""
"sailing-trial","130","1202939","0.0-11.0-95.0","","","","false","","","","","","","","","","null","","1542.4000000059605","","1","0","null","null","arrowup","[0.675,0.325,0.85,0.15]","","",""
"sailing-trial","131","1208356","0.0-11.0-96.0","","","","false","","","","","","","","","","1127.9000000059605","","150.90000000596046","","2","0","arrowright","1","arrowleft","[0.675,0.325,0.85,0.15]","","",""
"sailing-trial","132","1211362","0.0-11.0-97.0","","","","false","","","","","","","","","","null","","1565.4000000059605","","1","0","null","null","arrowup","[0.675,0.325,0.85,0.15]","","",""
"sailing-trial","133","1215253","0.0-11.0-98.0","","","","false","","","","","","","","","","935.4000000059605","","59.8999999910593","","3","0","arrowright","1","arrowright","[0.675,0.325,0.85,0.15]","","",""
"sailing-trial","134","1219755","0.0-11.0-99.0","","","","false","","","","","","","","","","null","","1950.5","","2","1","null","null","arrowup","[0.675,0.325,0.85,0.15]","","",""
"sailing-trial","135","1225307","0.0-11.0-100.0","","","","false","","","","","","","","","","1028.2000000029802","","594.7000000029802","","0","1","arrowleft","0","arrowleft","[0.675,0.325,0.85,0.15]","","",""
"sailing-trial","136","1229122","0.0-11.0-101.0","","","","false","","","","","","","","","","null","","888.7000000029802","","2","1","null","null","arrowup","[0.675,0.325,0.85,0.15]","","",""
"sailing-trial","137","1234405","0.0-11.0-102.0","","","","false","","","","","","","","","","656.6000000089407","","374.69999998807907","","0","1","arrowleft","0","arrowleft","[0.675,0.325,0.85,0.15]","","",""
"sailing-trial","138","1239170","0.0-11.0-103.0","","","","false","","","","","","","","","","null","","2760.199999988079","","1","0","null","null","arrowup","[0.675,0.325,0.85,0.15]","","",""
"sailing-trial","139","1245718","0.0-11.0-104.0","","","","false","","","","","","","","","","1148.699999988079","","1400","","0","0","arrowleft","0","arrowleft","[0.675,0.325,0.85,0.15]","","",""
"sailing-trial","140","1251804","0.0-11.0-105.0","","","","false","","","","","","","","","","null","","2972.7999999970198","","1","1","null","null","arrowup","[0.675,0.325,0.85,0.15]","","",""
"sailing-trial","141","1258671","0.0-11.0-106.0","","","","false","","","","","","","","","","1156.8999999910593","","1075.300000011921","","0","1","arrowleft","0","arrowleft","[0.85,0.15,0.675,0.325]","","",""
"sailing-trial","142","1262465","0.0-11.0-107.0","","","","false","","","","","","","","","","null","","1916","","2","0","null","null","arrowup","[0.85,0.15,0.675,0.325]","","",""
"sailing-trial","143","1269904","0.0-11.0-108.0","","","","false","","","","","","","","","","1761.7000000029802","","289.90000000596046","","0","1","arrowleft","0","arrowleft","[0.85,0.15,0.675,0.325]","","",""
"sailing-trial","144","1274028","0.0-11.0-109.0","","","","false","","","","","","","","","","null","","2288.199999988079","","3","0","null","null","arrowup","[0.85,0.15,0.675,0.325]","","",""
"sailing-trial","145","1281643","0.0-11.0-110.0","","","","false","","","","","","","","","","3029.0999999940395","","374.90000000596046","","3","0","arrowright","1","arrowright","[0.85,0.15,0.675,0.325]","","",""
"sailing-trial","146","1286564","0.0-11.0-111.0","","","","false","","","","","","","","","","null","","2693.7999999970198","","1","0","null","null","arrowup","[0.85,0.15,0.675,0.325]","","",""
"sailing-trial","147","1292519","0.0-11.0-112.0","","","","false","","","","","","","","","","1426.7999999970198","","314.5","","1","1","arrowleft","0","arrowright","[0.85,0.15,0.675,0.325]","","",""
"sailing-trial","148","1296204","0.0-11.0-113.0","","","","false","","","","","","","","","","null","","1823.2999999970198","","3","1","null","null","arrowup","[0.85,0.15,0.675,0.325]","","",""
"sailing-trial","149","1303034","0.0-11.0-114.0","","","","false","","","","","","","","","","3389.3999999910593","","33.400000005960464","","3","1","arrowright","1","arrowright","[0.85,0.15,0.675,0.325]","","",""
"sailing-trial","150","1305825","0.0-11.0-115.0","","","","false","","","","","","","","","","null","","940.7000000029802","","3","0","null","null","arrowup","[0.85,0.15,0.675,0.325]","","",""
"sailing-trial","151","1310248","0.0-11.0-116.0","","","","false","","","","","","","","","","600.3999999910593","","132.29999999701977","","3","0","arrowright","1","arrowright","[0.85,0.15,0.675,0.325]","","",""
"sailing-trial","152","1314135","0.0-11.0-117.0","","","","false","","","","","","","","","","null","","1720.4000000059605","","0","1","null","null","arrowup","[0.85,0.15,0.675,0.325]","","",""
"sailing-trial","153","1317435","0.0-11.0-118.0","","","","false","","","","","","","","","","629.7000000029802","","35.5","","3","0","arrowright","1","arrowright","[0.85,0.15,0.675,0.325]","","",""
"sailing-trial","154","1319933","0.0-11.0-119.0","","","","false","","","","","","","","","","null","","1110","","3","0","null","null","arrowup","[0.85,0.15,0.675,0.325]","","",""
"sailing-trial","155","1324650","0.0-11.0-120.0","","","","false","","","","","","","","","","1313.5","","42.70000000298023","","0","1","arrowleft","0","arrowleft","[0.85,0.15,0.675,0.325]","","",""
"sailing-trial","156","1327429","0.0-11.0-121.0","","","","false","","","","","","","","","","null","","1154.5","","3","0","null","null","arrowup","[0.85,0.15,0.675,0.325]","","",""
"sailing-trial","157","1332282","0.0-11.0-122.0","","","","false","","","","","","","","","","1675.8999999910593","","154.70000000298023","","0","0","arrowleft","0","arrowleft","[0.675,0.325,0.85,0.15]","","",""
"sailing-trial","158","1335733","0.0-11.0-123.0","","","","false","","","","","","","","","","null","","751.0999999940395","","0","1","null","null","arrowup","[0.675,0.325,0.85,0.15]","","",""
"sailing-trial","159","1341632","0.0-11.0-124.0","","","","false","","","","","","","","","","1247.4000000059605","","526.5","","0","1","arrowleft","0","arrowleft","[0.675,0.325,0.85,0.15]","","",""
"sailing-trial","160","1345449","0.0-11.0-125.0","","","","false","","","","","","","","","","null","","1957","","0","1","null","null","arrowup","[0.675,0.325,0.85,0.15]","","",""
"sailing-trial","161","1350495","0.0-11.0-126.0","","","","false","","","","","","","","","","894.9000000059605","","190.1000000089407","","0","0","arrowleft","0","arrowleft","[0.675,0.325,0.85,0.15]","","",""
"sailing-trial","162","1353631","0.0-11.0-127.0","","","","false","","","","","","","","","","null","","857.3999999910593","","2","1","null","null","arrowup","[0.675,0.325,0.85,0.15]","","",""
"sailing-trial","163","1358199","0.0-11.0-128.0","","","","false","","","","","","","","","","1544.7000000029802","","93.40000000596046","","2","0","arrowright","1","arrowleft","[0.675,0.325,0.85,0.15]","","",""
"sailing-trial","164","1361364","0.0-11.0-129.0","","","","false","","","","","","","","","","null","","652.4000000059605","","0","1","null","null","arrowup","[0.675,0.325,0.85,0.15]","","",""
"sailing-trial","165","1365597","0.0-11.0-130.0","","","","false","","","","","","","","","","557.8999999910593","","466.90000000596046","","3","1","arrowright","1","arrowright","[0.675,0.325,0.85,0.15]","","",""
"sailing-trial","166","1369114","0.0-11.0-131.0","","","","false","","","","","","","","","","null","","836.7000000029802","","2","1","null","null","arrowup","[0.675,0.325,0.85,0.15]","","",""
"sailing-trial","167","1372981","0.0-11.0-132.0","","","","false","","","","","","","","","","640","","5","","3","1","arrowright","1","arrowright","[0.675,0.325,0.85,0.15]","","",""
"sailing-trial","168","1376315","0.0-11.0-133.0","","","","false","","","","","","","","","","null","","973.0999999940395","","1","1","null","null","arrowup","[0.675,0.325,0.85,0.15]","","",""
"sailing-trial","169","1382214","0.0-11.0-134.0","","","","false","","","","","","","","","","939.1999999880791","","525.4000000059605","","3","0","arrowright","1","arrowright","[0.675,0.325,0.85,0.15]","","",""
"sailing-trial","170","1385513","0.0-11.0-135.0","","","","false","","","","","","","","","","null","","1230.5999999940395","","1","1","null","null","arrowup","[0.675,0.325,0.85,0.15]","","",""
"sailing-trial","171","1390696","0.0-11.0-136.0","","","","false","","","","","","","","","","963.9000000059605","","315.1000000089407","","0","1","arrowleft","0","arrowleft","[0.675,0.325,0.85,0.15]","","",""
"sailing-trial","172","1393379","0.0-11.0-137.0","","","","false","","","","","","","","","","null","","1134.0999999940395","","3","0","null","null","arrowup","[0.675,0.325,0.85,0.15]","","",""
"sailing-trial","173","1396890","0.0-11.0-138.0","","","","false","","","","","","","","","","700.2000000029802","","201.79999999701977","","1","0","arrowleft","0","arrowright","[0.85,0.15,0.675,0.325]","","",""
"sailing-trial","174","1402429","0.0-11.0-139.0","","","","false","","","","","","","","","","null","","3482.5","","1","1","null","null","arrowup","[0.85,0.15,0.675,0.325]","","",""
"sailing-trial","175","1413381","0.0-11.0-140.0","","","","false","","","","","","","","","","5803.70000000298","","447.59999999403954","","1","0","arrowleft","0","arrowright","[0.85,0.15,0.675,0.325]","","",""
"sailing-trial","176","1416772","0.0-11.0-141.0","","","","false","","","","","","","","","","null","","1009","","3","0","null","null","arrowup","[0.85,0.15,0.675,0.325]","","",""
"sailing-trial","177","1423461","0.0-11.0-142.0","","","","false","","","","","","","","","","1296","","616.7000000029802","","3","1","arrowright","1","arrowright","[0.85,0.15,0.675,0.325]","","",""
"sailing-trial","178","1426712","0.0-11.0-143.0","","","","false","","","","","","","","","","null","","1654.9000000059605","","3","0","null","null","arrowup","[0.85,0.15,0.675,0.325]","","",""
"sailing-trial","179","1431511","0.0-11.0-144.0","","","","false","","","","","","","","","","862.7000000029802","","89.59999999403954","","0","1","arrowleft","0","arrowleft","[0.85,0.15,0.675,0.325]","","",""
"sailing-trial","180","1435494","0.0-11.0-145.0","","","","false","","","","","","","","","","null","","971.2999999970198","","3","0","null","null","arrowup","[0.85,0.15,0.675,0.325]","","",""
"sailing-trial","181","1441194","0.0-11.0-146.0","","","","false","","","","","","","","","","837","","148.19999998807907","","3","0","arrowright","1","arrowright","[0.85,0.15,0.675,0.325]","","",""
"sailing-trial","182","1447544","0.0-11.0-147.0","","","","false","","","","","","","","","","null","","3339.2999999970198","","3","0","null","null","arrowup","[0.85,0.15,0.675,0.325]","","",""
"sailing-trial","183","1454878","0.0-11.0-148.0","","","","false","","","","","","","","","","2035.6000000089407","","336.79999999701977","","2","1","arrowright","1","arrowleft","[0.85,0.15,0.675,0.325]","","",""
"sailing-trial","184","1459143","0.0-11.0-149.0","","","","false","","","","","","","","","","null","","1478.3999999910593","","3","1","null","null","arrowup","[0.85,0.15,0.675,0.325]","","",""
"sailing-trial","185","1463538","0.0-11.0-150.0","","","","false","","","","","","","","","","857.8000000119209","","461.5","","1","0","arrowleft","0","arrowright","[0.85,0.15,0.675,0.325]","","",""
"sailing-trial","186","1467082","0.0-11.0-151.0","","","","false","","","","","","","","","","null","","1830.5","","0","1","null","null","arrowup","[0.85,0.15,0.675,0.325]","","",""
"sailing-trial","187","1477108","0.0-11.0-152.0","","","","false","","","","","","","","","","6276.79999999702","","87.5","","3","1","arrowright","1","arrowright","[0.85,0.15,0.675,0.325]","","",""
"sailing-trial","188","1481625","0.0-11.0-153.0","","","","false","","","","","","","","","","null","","1808.4000000059605","","0","1","null","null","arrowup","[0.85,0.15,0.675,0.325]","","",""
"sailing-trial","189","1486325","0.0-11.0-154.0","","","","false","","","","","","","","","","775.2999999970198","","218.09999999403954","","3","1","arrowright","1","arrowright","[0.85,0.15,0.675,0.325]","","",""
"sailing-trial","190","1491024","0.0-11.0-155.0","","","","false","","","","","","","","","","null","","1458.800000011921","","1","0","null","null","arrowup","[0.85,0.15,0.675,0.325]","","",""
"sailing-trial","191","1497723","0.0-11.0-156.0","","","","false","","","","","","","","","","1648.4000000059605","","1132.5999999940395","","2","1","arrowright","1","arrowleft","[0.15,0.85,0.325,0.675]","","",""
"sailing-trial","192","1501556","0.0-11.0-157.0","","","","false","","","","","","","","","","null","","1401.2000000029802","","3","1","null","null","arrowup","[0.15,0.85,0.325,0.675]","","",""
"sailing-trial","193","1506408","0.0-11.0-158.0","","","","false","","","","","","","","","","1166.800000011921","","262.8999999910593","","3","1","arrowright","1","arrowright","[0.15,0.85,0.325,0.675]","","",""
"sailing-trial","194","1510023","0.0-11.0-159.0","","","","false","","","","","","","","","","null","","1636.2000000029802","","1","1","null","null","arrowup","[0.15,0.85,0.325,0.675]","","",""
"sailing-trial","195","1515040","0.0-11.0-160.0","","","","false","","","","","","","","","","459.09999999403954","","279.70000000298023","","3","0","arrowright","1","arrowright","[0.15,0.85,0.325,0.675]","","",""
"sailing-trial","196","1517878","0.0-11.0-161.0","","","","false","","","","","","","","","","null","","856.1000000089407","","0","0","null","null","arrowup","[0.15,0.85,0.325,0.675]","","",""
"sailing-trial","197","1523022","0.0-11.0-162.0","","","","false","","","","","","","","","","927.2999999970198","","328.30000001192093","","1","1","arrowleft","0","arrowright","[0.15,0.85,0.325,0.675]","","",""
"sailing-trial","198","1526906","0.0-11.0-163.0","","","","false","","","","","","","","","","null","","858.6000000089407","","2","0","null","null","arrowup","[0.15,0.85,0.325,0.675]","","",""
"sailing-trial","199","1531922","0.0-11.0-164.0","","","","false","","","","","","","","","","818.7999999970198","","88.70000000298023","","1","1","arrowleft","0","arrowright","[0.15,0.85,0.325,0.675]","","",""
"sailing-trial","200","1538671","0.0-11.0-165.0","","","","false","","","","","","","","","","null","","3739.9000000059605","","3","0","null","null","arrowup","[0.15,0.85,0.325,0.675]","","",""
"sailing-trial","201","1544773","0.0-11.0-166.0","","","","false","","","","","","","","","","854.2000000029802","","225.1000000089407","","3","1","arrowright","1","arrowright","[0.15,0.85,0.325,0.675]","","",""
"sailing-trial","202","1550304","0.0-11.0-167.0","","","","false","","","","","","","","","","null","","2254.300000011921","","0","0","null","null","arrowup","[0.15,0.85,0.325,0.675]","","",""
"sailing-trial","203","1555687","0.0-11.0-168.0","","","","false","","","","","","","","","","925","","207","","3","0","arrowright","1","arrowright","[0.15,0.85,0.325,0.675]","","",""
"sailing-trial","204","1559754","0.0-11.0-169.0","","","","false","","","","","","","","","","null","","816.2999999970198","","2","1","null","null","arrowup","[0.15,0.85,0.325,0.675]","","",""
"sailing-trial","205","1565970","0.0-11.0-170.0","","","","false","","","","","","","","","","968.5","","769.0999999940395","","0","0","arrowleft","0","arrowleft","[0.15,0.85,0.325,0.675]","","",""
"sailing-trial","206","1569870","0.0-11.0-171.0","","","","false","","","","","","","","","","null","","632.4000000059605","","3","0","null","null","arrowup","[0.15,0.85,0.325,0.675]","","",""
"sailing-trial","207","1575420","0.0-11.0-172.0","","","","false","","","","","","","","","","841.8999999910593","","416.1000000089407","","0","0","arrowleft","0","arrowleft","[0.325,0.675,0.15,0.85]","","",""
"sailing-trial","208","1579302","0.0-11.0-173.0","","","","false","","","","","","","","","","null","","1978.5","","0","0","null","null","arrowup","[0.325,0.675,0.15,0.85]","","",""
"sailing-trial","209","1584469","0.0-11.0-174.0","","","","false","","","","","","","","","","529.9000000059605","","350","","3","0","arrowright","1","arrowright","[0.325,0.675,0.15,0.85]","","",""
"sailing-trial","210","1588202","0.0-11.0-175.0","","","","false","","","","","","","","","","null","","1560.3999999910593","","1","1","null","null","arrowup","[0.325,0.675,0.15,0.85]","","",""
"sailing-trial","211","1594203","0.0-11.0-176.0","","","","false","","","","","","","","","","1395","","450.59999999403954","","2","0","arrowright","1","arrowleft","[0.325,0.675,0.15,0.85]","","",""
"sailing-trial","212","1600518","0.0-11.0-177.0","","","","false","","","","","","","","","","null","","4113.4000000059605","","0","1","null","null","arrowup","[0.325,0.675,0.15,0.85]","","",""
"sailing-trial","213","1606501","0.0-11.0-178.0","","","","false","","","","","","","","","","1896.2999999970198","","501.70000000298023","","1","1","arrowleft","0","arrowright","[0.325,0.675,0.15,0.85]","","",""
"sailing-trial","214","1610592","0.0-11.0-179.0","","","","false","","","","","","","","","","null","","2317.9000000059605","","2","0","null","null","arrowup","[0.325,0.675,0.15,0.85]","","",""
"sailing-trial","215","1615984","0.0-11.0-180.0","","","","false","","","","","","","","","","1290.2000000029802","","52.20000000298023","","1","1","arrowleft","0","arrowright","[0.325,0.675,0.15,0.85]","","",""
"sailing-trial","216","1619696","0.0-11.0-181.0","","","","false","","","","","","","","","","null","","1893.8999999910593","","0","0","null","null","arrowup","[0.325,0.675,0.15,0.85]","","",""
"sailing-trial","217","1628217","0.0-11.0-182.0","","","","false","","","","","","","","","","4202.29999999702","","323.59999999403954","","1","1","arrowleft","0","arrowright","[0.325,0.675,0.15,0.85]","","",""
"sailing-trial","218","1636082","0.0-11.0-183.0","","","","false","","","","","","","","","","null","","5792.300000011921","","1","1","null","null","arrowup","[0.325,0.675,0.15,0.85]","","",""
"sailing-trial","219","1642949","0.0-11.0-184.0","","","","false","","","","","","","","","","878.7999999970198","","1234.5999999940395","","2","0","arrowright","1","arrowleft","[0.325,0.675,0.15,0.85]","","",""
"sailing-trial","220","1648682","0.0-11.0-185.0","","","","false","","","","","","","","","","null","","3366.2999999970198","","0","1","null","null","arrowup","[0.325,0.675,0.15,0.85]","","",""
"sailing-trial","221","1653615","0.0-11.0-186.0","","","","false","","","","","","","","","","1038.5999999940395","","379.69999998807907","","1","1","arrowleft","0","arrowright","[0.325,0.675,0.15,0.85]","","",""
"sailing-trial","222","1657549","0.0-11.0-187.0","","","","false","","","","","","","","","","null","","2096","","1","1","null","null","arrowup","[0.325,0.675,0.15,0.85]","","",""
"sailing-trial","223","1662364","0.0-11.0-188.0","","","","false","","","","","","","","","","937.2000000029802","","318","","1","1","arrowleft","0","arrowright","[0.15,0.85,0.325,0.675]","","",""
"sailing-trial","224","1665414","0.0-11.0-189.0","","","","false","","","","","","","","","","null","","800.1000000089407","","3","1","null","null","arrowup","[0.15,0.85,0.325,0.675]","","",""
"sailing-trial","225","1669532","0.0-11.0-190.0","","","","false","","","","","","","","","","680.2999999970198","","177.30000001192093","","1","1","arrowleft","0","arrowright","[0.15,0.85,0.325,0.675]","","",""
"sailing-trial","226","1673464","0.0-11.0-191.0","","","","false","","","","","","","","","","null","","1758.5999999940395","","3","1","null","null","arrowup","[0.15,0.85,0.325,0.675]","","",""
"sailing-trial","227","1678031","0.0-11.0-192.0","","","","false","","","","","","","","","","935.6999999880791","","392.3999999910593","","1","1","arrowleft","0","arrowright","[0.15,0.85,0.325,0.675]","","",""
"sailing-trial","228","1682716","0.0-11.0-193.0","","","","false","","","","","","","","","","null","","1679.4000000059605","","0","0","null","null","arrowup","[0.15,0.85,0.325,0.675]","","",""
"sailing-trial","229","1686616","0.0-11.0-194.0","","","","false","","","","","","","","","","713.5","","121.3999999910593","","1","1","arrowleft","0","arrowright","[0.15,0.85,0.325,0.675]","","",""
"sailing-trial","230","1691220","0.0-11.0-195.0","","","","false","","","","","","","","","","null","","2887.7000000029802","","2","0","null","null","arrowup","[0.15,0.85,0.325,0.675]","","",""
"sailing-trial","231","1696013","0.0-11.0-196.0","","","","false","","","","","","","","","","895.7000000029802","","570.2999999970198","","1","1","arrowleft","0","arrowright","[0.15,0.85,0.325,0.675]","","",""
"sailing-trial","232","1699772","0.0-11.0-197.0","","","","false","","","","","","","","","","null","","1033","","2","0","null","null","arrowup","[0.15,0.85,0.325,0.675]","","",""
"sailing-trial","233","1705796","0.0-11.0-198.0","","","","false","","","","","","","","","","1742.7000000029802","","931.8999999910593","","1","1","arrowleft","0","arrowright","[0.15,0.85,0.325,0.675]","","",""
"sailing-trial","234","1709879","0.0-11.0-199.0","","","","false","","","","","","","","","","null","","1054.7999999970198","","0","0","null","null","arrowup","[0.15,0.85,0.325,0.675]","","",""
"sailing-trial","235","1716096","0.0-11.0-200.0","","","","false","","","","","","","","","","1370.800000011921","","773.8000000119209","","1","1","arrowleft","0","arrowright","[0.15,0.85,0.325,0.675]","","",""
"sailing-trial","236","1720678","0.0-11.0-201.0","","","","false","","","","","","","","","","null","","1368.5999999940395","","1","0","null","null","arrowup","[0.15,0.85,0.325,0.675]","","",""
"sailing-trial","237","1729761","0.0-11.0-202.0","","","","false","","","","","","","","","","4615.899999991059","","136.5","","3","0","arrowright","1","arrowright","[0.15,0.85,0.325,0.675]","","",""
"sailing-trial","238","1734027","0.0-11.0-203.0","","","","false","","","","","","","","","","null","","1251.7000000029802","","2","0","null","null","arrowup","[0.15,0.85,0.325,0.675]","","",""
"sailing-trial","239","1738495","0.0-11.0-204.0","","","","false","","","","","","","","","","23.299999997019768","","166.79999999701977","","0","0","arrowleft","0","arrowleft","[0.15,0.85,0.325,0.675]","","",""
"sailing-trial","240","1748776","0.0-11.0-205.0","","","","false","","","","","","","","","","null","","7268.0999999940395","","3","0","null","null","arrowup","[0.15,0.85,0.325,0.675]","","",""
"sailing-trial","241","1754410","0.0-11.0-206.0","","","","false","","","","","","","","","","1082.7000000029802","","107","","3","0","arrowright","1","arrowright","[0.15,0.85,0.325,0.675]","","",""
"sailing-trial","242","1759493","0.0-11.0-207.0","","","","false","","","","","","","","","","null","","1108.300000011921","","3","1","null","null","arrowup","[0.15,0.85,0.325,0.675]","","",""
"sailing-trial","243","1766025","0.0-11.0-208.0","","","","false","","","","","","","","","","1915.9000000059605","","174.6000000089407","","3","0","arrowright","1","arrowright","[0.325,0.675,0.15,0.85]","","",""
"sailing-trial","244","1774426","0.0-11.0-209.0","","","","false","","","","","","","","","","null","","5069.79999999702","","2","0","null","null","arrowup","[0.325,0.675,0.15,0.85]","","",""
"sailing-trial","245","1783374","0.0-11.0-210.0","","","","false","","","","","","","","","","1605.4000000059605","","2710.4000000059605","","1","0","arrowleft","0","arrowright","[0.325,0.675,0.15,0.85]","","",""
"sailing-trial","246","1791625","0.0-11.0-211.0","","","","false","","","","","","","","","","null","","2984.1000000089407","","3","1","null","null","arrowup","[0.325,0.675,0.15,0.85]","","",""
"sailing-trial","247","1800957","0.0-11.0-212.0","","","","false","","","","","","","","","","3900.4000000059605","","726","","2","0","arrowright","1","arrowleft","[0.325,0.675,0.15,0.85]","","",""
"sailing-trial","248","1804824","0.0-11.0-213.0","","","","false","","","","","","","","","","null","","1878.800000011921","","3","1","null","null","arrowup","[0.325,0.675,0.15,0.85]","","",""
"sailing-trial","249","1810006","0.0-11.0-214.0","","","","false","","","","","","","","","","769.8000000119209","","343.59999999403954","","3","1","arrowright","1","arrowright","[0.325,0.675,0.15,0.85]","","",""
"sailing-trial","250","1813629","0.0-11.0-215.0","","","","false","","","","","","","","","","null","","1824.9000000059605","","2","0","null","null","arrowup","[0.325,0.675,0.15,0.85]","","",""
"sailing-trial","251","1818339","0.0-11.0-216.0","","","","false","","","","","","","","","","554.7999999970198","","410.79999999701977","","1","1","arrowleft","0","arrowright","[0.325,0.675,0.15,0.85]","","",""
"sailing-trial","252","1821345","0.0-11.0-217.0","","","","false","","","","","","","","","","null","","1327.1000000089407","","2","0","null","null","arrowup","[0.325,0.675,0.15,0.85]","","",""
"sailing-trial","253","1825275","0.0-11.0-218.0","","","","false","","","","","","","","","","524.7000000029802","","377.09999999403954","","1","1","arrowleft","0","arrowright","[0.325,0.675,0.15,0.85]","","",""
"sailing-trial","254","1829240","0.0-11.0-219.0","","","","false","","","","","","","","","","null","","1394.4000000059605","","3","1","null","null","arrowup","[0.325,0.675,0.15,0.85]","","",""
"sailing-trial","255","1835239","0.0-11.0-220.0","","","","false","","","","","","","","","","1147.5","","444.70000000298023","","1","1","arrowleft","0","arrowright","[0.325,0.675,0.15,0.85]","","",""
"sailing-trial","256","1839879","0.0-11.0-221.0","","","","false","","","","","","","","","","null","","2797.699999988079","","0","0","null","null","arrowup","[0.325,0.675,0.15,0.85]","","",""
"sailing-trial","257","1843354","0.0-11.0-222.0","","","","false","","","","","","","","","","495.5","","221.79999999701977","","3","0","arrowright","1","arrowright","[0.325,0.675,0.15,0.85]","","",""
"sailing-trial","258","1847188","0.0-11.0-223.0","","","","false","","","","","","","","","","null","","1452.2000000029802","","2","1","null","null","arrowup","[0.325,0.675,0.15,0.85]","","",""
"sailing-trial","259","1852239","0.0-11.0-224.0","","","","false","","","","","","","","","","1111.7999999970198","","578.3000000119209","","1","1","arrowleft","0","arrowright","[0.325,0.675,0.15,0.85]","","",""
"sailing-trial","260","1856291","0.0-11.0-225.0","","","","false","","","","","","","","","","null","","1026.4000000059605","","0","0","null","null","arrowup","[0.325,0.675,0.15,0.85]","","",""
"sailing-trial","261","1863521","0.0-11.0-226.0","","","","false","","","","","","","","","","1594","","501.09999999403954","","1","1","arrowleft","0","arrowright","[0.15,0.85,0.325,0.675]","","",""
"sailing-trial","262","1868306","0.0-11.0-227.0","","","","false","","","","","","","","","","null","","2752","","0","1","null","null","arrowup","[0.15,0.85,0.325,0.675]","","",""
"sailing-trial","263","1874090","0.0-11.0-228.0","","","","false","","","","","","","","","","1041.5","","272.29999999701977","","2","0","arrowright","1","arrowleft","[0.15,0.85,0.325,0.675]","","",""
"sailing-trial","264","1879220","0.0-11.0-229.0","","","","false","","","","","","","","","","null","","2568.2999999970198","","1","1","null","null","arrowup","[0.15,0.85,0.325,0.675]","","",""
"sailing-trial","265","1886419","0.0-11.0-230.0","","","","false","","","","","","","","","","2101.2999999970198","","616","","3","0","arrowright","1","arrowright","[0.15,0.85,0.325,0.675]","","",""
"sailing-trial","266","1892301","0.0-11.0-231.0","","","","false","","","","","","","","","","null","","2073.5999999940395","","1","1","null","null","arrowup","[0.15,0.85,0.325,0.675]","","",""
"sailing-trial","267","1897026","0.0-11.0-232.0","","","","false","","","","","","","","","","887.6000000089407","","402.79999999701977","","1","0","arrowleft","0","arrowright","[0.15,0.85,0.325,0.675]","","",""
"sailing-trial","268","1902918","0.0-11.0-233.0","","","","false","","","","","","","","","","null","","3512.5999999940395","","1","1","null","null","arrowup","[0.15,0.85,0.325,0.675]","","",""
"sailing-trial","269","1907379","0.0-11.0-234.0","","","","false","","","","","","","","","","1056.2999999970198","","27.19999998807907","","1","0","arrowleft","0","arrowright","[0.15,0.85,0.325,0.675]","","",""
"sailing-trial","270","1911069","0.0-11.0-235.0","","","","false","","","","","","","","","","null","","1562.300000011921","","1","1","null","null","arrowup","[0.15,0.85,0.325,0.675]","","",""
"sailing-trial","271","1918735","0.0-11.0-236.0","","","","false","","","","","","","","","","2173","","579.2999999970198","","1","1","arrowleft","0","arrowright","[0.15,0.85,0.325,0.675]","","",""
"sailing-trial","272","1924352","0.0-11.0-237.0","","","","false","","","","","","","","","","null","","2905.2999999970198","","2","1","null","null","arrowup","[0.15,0.85,0.325,0.675]","","",""
"sailing-trial","273","1933767","0.0-11.0-238.0","","","","false","","","","","","","","","","2338.2999999970198","","3813.5","","3","1","arrowright","1","arrowright","[0.15,0.85,0.325,0.675]","","",""
"sailing-trial","274","1936303","0.0-11.0-239.0","","","","false","","","","","","","","","","null","","1102.3999999910593","","3","0","null","null","arrowup","[0.15,0.85,0.325,0.675]","","",""
"sailing-trial","275","1940938","0.0-11.0-240.0","","","","false","","","","","","","","","","628.1999999880791","","488.20000000298023","","3","1","arrowright","1","arrowright","[0.15,0.85,0.325,0.675]","","",""
"sailing-trial","276","1944769","0.0-11.0-241.0","","","","false","","","","","","","","","","null","","1699.7000000029802","","0","0","null","null","arrowup","[0.15,0.85,0.325,0.675]","","",""
"sailing-trial","277","1949866","0.0-11.0-242.0","","","","false","","","","","","","","","","999.1000000089407","","573","","1","1","arrowleft","0","arrowright","[0.15,0.85,0.325,0.675]","","",""
"sailing-trial","278","1955383","0.0-11.0-243.0","","","","false","","","","","","","","","","null","","3636.1000000089407","","3","1","null","null","arrowup","[0.15,0.85,0.325,0.675]","","",""
"sailing-trial","279","1961350","0.0-11.0-244.0","","","","false","","","","","","","","","","421.8999999910593","","1235.0999999940395","","3","1","arrowright","1","arrowright","[0.15,0.85,0.325,0.675]","","",""
"sailing-trial","280","1967013","0.0-11.0-245.0","","","","false","","","","","","","","","","null","","4450.300000011921","","0","0","null","null","arrowup","[0.15,0.85,0.325,0.675]","","",""
"sailing-trial","281","1972482","0.0-11.0-246.0","","","","false","","","","","","","","","","743.2000000029802","","372.79999999701977","","3","1","arrowright","1","arrowright","[0.15,0.85,0.325,0.675]","","",""
"sailing-trial","282","1977532","0.0-11.0-247.0","","","","false","","","","","","","","","","null","","3317.0999999940395","","0","0","null","null","arrowup","[0.15,0.85,0.325,0.675]","","",""
"sailing-trial","283","1984814","0.0-11.0-248.0","","","","false","","","","","","","","","","1474.5","","454.20000000298023","","3","1","arrowright","1","arrowright","[0.15,0.85,0.325,0.675]","","",""
"sailing-trial","284","1991396","0.0-11.0-249.0","","","","false","","","","","","","","","","null","","4211.70000000298","","3","1","null","null","arrowup","[0.15,0.85,0.325,0.675]","","",""
"sailing-trial","285","1995165","0.0-11.0-250.0","","","","false","","","","","","","","","","640.8999999910593","","84.19999998807907","","3","0","arrowright","1","arrowright","[0.325,0.675,0.15,0.85]","","",""
"sailing-trial","286","2003196","0.0-11.0-251.0","","","","false","","","","","","","","","","null","","2071","","0","1","null","null","arrowup","[0.325,0.675,0.15,0.85]","","",""
"sailing-trial","287","2007747","0.0-11.0-252.0","","","","false","","","","","","","","","","1041.2000000029802","","39.099999994039536","","1","0","arrowleft","0","arrowright","[0.325,0.675,0.15,0.85]","","",""
"sailing-trial","288","2010116","0.0-11.0-253.0","","","","false","","","","","","","","","","null","","1312.1000000089407","","2","0","null","null","arrowup","[0.325,0.675,0.15,0.85]","","",""
"sailing-trial","289","2014379","0.0-11.0-254.0","","","","false","","","","","","","","","","1168.9000000059605","","118.90000000596046","","0","1","arrowleft","0","arrowleft","[0.325,0.675,0.15,0.85]","","",""
"sailing-trial","290","2016667","0.0-11.0-255.0","","","","false","","","","","","","","","","null","","877","","2","0","null","null","arrowup","[0.325,0.675,0.15,0.85]","","",""
"sailing-trial","291","2020825","0.0-11.0-256.0","","","","false","","","","","","","","","","817.1999999880791","","68","","0","0","arrowleft","0","arrowleft","[0.325,0.675,0.15,0.85]","","",""
"sailing-trial","292","2023504","0.0-11.0-257.0","","","","false","","","","","","","","","","null","","1530.800000011921","","0","0","null","null","arrowup","[0.325,0.675,0.15,0.85]","","",""
"sailing-trial","293","2026554","0.0-11.0-258.0","","","","false","","","","","","","","","","901.6000000089407","","18.100000008940697","","3","0","arrowright","1","arrowright","[0.325,0.675,0.15,0.85]","","",""
"sailing-trial","294","2029412","0.0-11.0-259.0","","","","false","","","","","","","","","","null","","1146.0999999940395","","0","1","null","null","arrowup","[0.325,0.675,0.15,0.85]","","",""
"sailing-trial","295","2032213","0.0-11.0-260.0","","","","false","","","","","","","","","","203.90000000596046","","74.30000001192093","","2","0","arrowright","1","arrowleft","[0.325,0.675,0.15,0.85]","","",""
"sailing-trial","296","2036677","0.0-11.0-261.0","","","","false","","","","","","","","","","null","","1445.7999999970198","","1","1","null","null","arrowup","[0.325,0.675,0.15,0.85]","","",""
"sailing-trial","297","2039811","0.0-11.0-262.0","","","","false","","","","","","","","","","307.8999999910593","","38.3999999910593","","1","0","arrowleft","0","arrowright","[0.325,0.675,0.15,0.85]","","",""
"sailing-trial","298","2042376","0.0-11.0-263.0","","","","false","","","","","","","","","","null","","1224","","2","0","null","null","arrowup","[0.325,0.675,0.15,0.85]","","",""
"sailing-trial","299","2045985","0.0-11.0-264.0","","","","false","","","","","","","","","","739.2999999970198","","192.6000000089407","","0","0","arrowleft","0","arrowleft","[0.325,0.675,0.15,0.85]","","",""
"sailing-trial","300","2051228","0.0-11.0-265.0","","","","false","","","","","","","","","","null","","1810.2000000029802","","0","1","null","null","arrowup","[0.325,0.675,0.15,0.85]","","",""
"sailing-trial","301","2059360","0.0-11.0-266.0","","","","false","","","","","","","","","","1903.7000000029802","","1934.3999999910593","","0","0","arrowleft","0","arrowleft","[0.325,0.675,0.15,0.85]","","",""
"sailing-trial","302","2064343","0.0-11.0-267.0","","","","false","","","","","","","","","","null","","2512.3999999910593","","1","1","null","null","arrowup","[0.325,0.675,0.15,0.85]","","",""
"sailing-trial","303","2073958","0.0-11.0-268.0","","","","false","","","","","","","","","","3577.7000000029802","","1376.4000000059605","","3","1","arrowright","1","arrowright","[0.15,0.85,0.325,0.675]","","",""
"sailing-trial","304","2079759","0.0-11.0-269.0","","","","false","","","","","","","","","","null","","2793.7000000029802","","0","0","null","null","arrowup","[0.15,0.85,0.325,0.675]","","",""
"sailing-trial","305","2089191","0.0-11.0-270.0","","","","false","","","","","","","","","","3241.9000000059605","","1714.4000000059605","","0","0","arrowleft","0","arrowleft","[0.15,0.85,0.325,0.675]","","",""
"sailing-trial","306","2093841","0.0-11.0-271.0","","","","false","","","","","","","","","","null","","1649.1000000089407","","2","0","null","null","arrowup","[0.15,0.85,0.325,0.675]","","",""
"sailing-trial","307","2099091","0.0-11.0-272.0","","","","false","","","","","","","","","","847.4000000059605","","335.70000000298023","","3","1","arrowright","1","arrowright","[0.15,0.85,0.325,0.675]","","",""
"sailing-trial","308","2103224","0.0-11.0-273.0","","","","false","","","","","","","","","","null","","1825.7999999970198","","3","1","null","null","arrowup","[0.15,0.85,0.325,0.675]","","",""
"sailing-trial","309","2108540","0.0-11.0-274.0","","","","false","","","","","","","","","","702.7999999970198","","352","","3","0","arrowright","1","arrowright","[0.15,0.85,0.325,0.675]","","",""
"sailing-trial","310","2114357","0.0-11.0-275.0","","","","false","","","","","","","","","","null","","3670.5999999940395","","0","1","null","null","arrowup","[0.15,0.85,0.325,0.675]","","",""
"sailing-trial","311","2123758","0.0-11.0-276.0","","","","false","","","","","","","","","","4180.399999991059","","1076.5","","1","1","arrowleft","0","arrowright","[0.15,0.85,0.325,0.675]","","",""
"sailing-trial","312","2130589","0.0-11.0-277.0","","","","false","","","","","","","","","","null","","3827.199999988079","","0","0","null","null","arrowup","[0.15,0.85,0.325,0.675]","","",""
"sailing-trial","313","2139272","0.0-11.0-278.0","","","","false","","","","","","","","","","4172","","327.79999999701977","","1","1","arrowleft","0","arrowright","[0.15,0.85,0.325,0.675]","","",""
"sailing-trial","314","2146724","0.0-11.0-279.0","","","","false","","","","","","","","","","null","","4440.899999991059","","1","0","null","null","arrowup","[0.15,0.85,0.325,0.675]","","",""
"sailing-trial","315","2155470","0.0-11.0-280.0","","","","false","","","","","","","","","","768.1000000089407","","411.20000000298023","","3","1","arrowright","1","arrowright","[0.15,0.85,0.325,0.675]","","",""
"sailing-trial","316","2158449","0.0-11.0-281.0","","","","false","","","","","","","","","","null","","1412.6000000089407","","2","0","null","null","arrowup","[0.15,0.85,0.325,0.675]","","",""
"sailing-trial","317","2163220","0.0-11.0-282.0","","","","false","","","","","","","","","","911.7000000029802","","699","","1","1","arrowleft","0","arrowright","[0.15,0.85,0.325,0.675]","","",""
"sailing-trial","318","2167554","0.0-11.0-283.0","","","","false","","","","","","","","","","null","","2262.5","","1","1","null","null","arrowup","[0.15,0.85,0.325,0.675]","","",""
"sailing-trial","319","2172787","0.0-11.0-284.0","","","","false","","","","","","","","","","1075.2999999970198","","144","","3","1","arrowright","1","arrowright","[0.15,0.85,0.325,0.675]","","",""
"sailing-trial","320","2176037","0.0-11.0-285.0","","","","false","","","","","","","","","","null","","1354.6000000089407","","1","1","null","null","arrowup","[0.15,0.85,0.325,0.675]","","",""
"sailing-trial","321","2181472","0.0-11.0-286.0","","","","false","","","","","","","","","","817.4000000059605","","307.70000000298023","","1","0","arrowleft","0","arrowright","[0.675,0.325,0.85,0.15]","","",""
"sailing-trial","322","2184203","0.0-11.0-287.0","","","","false","","","","","","","","","","null","","968.5999999940395","","2","1","null","null","arrowup","[0.675,0.325,0.85,0.15]","","",""
"sailing-trial","323","2187485","0.0-11.0-288.0","","","","false","","","","","","","","","","518.3000000119209","","242.79999999701977","","3","0","arrowright","1","arrowright","[0.675,0.325,0.85,0.15]","","",""
"sailing-trial","324","2190969","0.0-11.0-289.0","","","","false","","","","","","","","","","null","","1106.5999999940395","","0","1","null","null","arrowup","[0.675,0.325,0.85,0.15]","","",""
"sailing-trial","325","2195010","0.0-11.0-290.0","","","","false","","","","","","","","","","502.30000001192093","","860.9000000059605","","0","0","arrowleft","0","arrowleft","[0.675,0.325,0.85,0.15]","","",""
"sailing-trial","326","2197068","0.0-11.0-291.0","","","","false","","","","","","","","","","null","","907.3999999910593","","1","0","null","null","arrowup","[0.675,0.325,0.85,0.15]","","",""
"sailing-trial","327","2201152","0.0-11.0-292.0","","","","false","","","","","","","","","","469.5","","114.20000000298023","","2","1","arrowright","1","arrowleft","[0.675,0.325,0.85,0.15]","","",""
"sailing-trial","328","2205082","0.0-11.0-293.0","","","","false","","","","","","","","","","null","","916.7000000029802","","1","0","null","null","arrowup","[0.675,0.325,0.85,0.15]","","",""
"sailing-trial","329","2210869","0.0-11.0-294.0","","","","false","","","","","","","","","","1341.5999999940395","","739.5","","0","1","arrowleft","0","arrowleft","[0.675,0.325,0.85,0.15]","","",""
"sailing-trial","330","2215451","0.0-11.0-295.0","","","","false","","","","","","","","","","null","","2772.1000000089407","","1","1","null","null","arrowup","[0.675,0.325,0.85,0.15]","","",""
"sailing-trial","331","2220467","0.0-11.0-296.0","","","","false","","","","","","","","","","543.3999999910593","","187.79999999701977","","2","0","arrowright","1","arrowleft","[0.675,0.325,0.85,0.15]","","",""
"sailing-trial","332","2226400","0.0-11.0-297.0","","","","false","","","","","","","","","","null","","2926.7999999970198","","0","0","null","null","arrowup","[0.675,0.325,0.85,0.15]","","",""
"sailing-trial","333","2237900","0.0-11.0-298.0","","","","false","","","","","","","","","","3043.1000000089407","","3785.8999999910593","","0","0","arrowleft","0","arrowleft","[0.675,0.325,0.85,0.15]","","",""
"sailing-trial","334","2241683","0.0-11.0-299.0","","","","false","","","","","","","","","","null","","471.19999998807907","","3","0","null","null","arrowup","[0.675,0.325,0.85,0.15]","","",""
"sailing-trial","335","2247516","0.0-11.0-300.0","","","","false","","","","","","","","","","1187.5","","184.6000000089407","","0","0","arrowleft","0","arrowleft","[0.675,0.325,0.85,0.15]","","",""
"sailing-trial","336","2250799","0.0-11.0-301.0","","","","false","","","","","","","","","","null","","1124","","2","1","null","null","arrowup","[0.675,0.325,0.85,0.15]","","",""
"sailing-trial","337","2258255","0.0-11.0-302.0","","","","false","","","","","","","","","","1328.7000000029802","","2273.199999988079","","1","0","arrowleft","0","arrowright","[0.675,0.325,0.85,0.15]","","",""
"sailing-trial","338","2263131","0.0-11.0-303.0","","","","false","","","","","","","","","","null","","1862.3999999910593","","2","0","null","null","arrowup","[0.675,0.325,0.85,0.15]","","",""
"sailing-trial","339","2268997","0.0-11.0-304.0","","","","false","","","","","","","","","","1504.2000000029802","","94.5","","1","0","arrowleft","0","arrowright","[0.15,0.85,0.325,0.675]","","",""
"sailing-trial","340","2273132","0.0-11.0-305.0","","","","false","","","","","","","","","","null","","1765.199999988079","","0","1","null","null","arrowup","[0.15,0.85,0.325,0.675]","","",""
"sailing-trial","341","2280798","0.0-11.0-306.0","","","","false","","","","","","","","","","2694.3999999910593","","730.8000000119209","","0","0","arrowleft","0","arrowleft","[0.15,0.85,0.325,0.675]","","",""
"sailing-trial","342","2285617","0.0-11.0-307.0","","","","false","","","","","","","","","","null","","1803.0999999940395","","3","0","null","null","arrowup","[0.15,0.85,0.325,0.675]","","",""
"sailing-trial","343","2292314","0.0-11.0-308.0","","","","false","","","","","","","","","","1591.9000000059605","","488.5","","1","1","arrowleft","0","arrowright","[0.15,0.85,0.325,0.675]","","",""
"sailing-trial","344","2295300","0.0-11.0-309.0","","","","false","","","","","","","","","","null","","1359.7999999970198","","0","0","null","null","arrowup","[0.15,0.85,0.325,0.675]","","",""
"sailing-trial","345","2300262","0.0-11.0-310.0","","","","false","","","","","","","","","","883.0999999940395","","96.40000000596046","","1","0","arrowleft","0","arrowright","[0.15,0.85,0.325,0.675]","","",""
"sailing-trial","346","2304523","0.0-11.0-311.0","","","","false","","","","","","","","","","null","","1466.3999999910593","","2","0","null","null","arrowup","[0.15,0.85,0.325,0.675]","","",""
"sailing-trial","347","2310979","0.0-11.0-312.0","","","","false","","","","","","","","","","1599.5","","598.3000000119209","","3","0","arrowright","1","arrowright","[0.15,0.85,0.325,0.675]","","",""
"sailing-trial","348","2316163","0.0-11.0-313.0","","","","false","","","","","","","","","","null","","2175.1000000089407","","0","0","null","null","arrowup","[0.15,0.85,0.325,0.675]","","",""
"sailing-trial","349","2321114","0.0-11.0-314.0","","","","false","","","","","","","","","","786.2999999970198","","462.30000001192093","","1","1","arrowleft","0","arrowright","[0.15,0.85,0.325,0.675]","","",""
"sailing-trial","350","2325460","0.0-11.0-315.0","","","","false","","","","","","","","","","null","","1966.2000000029802","","2","0","null","null","arrowup","[0.15,0.85,0.325,0.675]","","",""
"sailing-trial","351","2330978","0.0-11.0-316.0","","","","false","","","","","","","","","","694.7999999970198","","552.2999999970198","","1","0","arrowleft","0","arrowright","[0.15,0.85,0.325,0.675]","","",""
"sailing-trial","352","2336907","0.0-11.0-317.0","","","","false","","","","","","","","","","null","","3469.199999988079","","3","0","null","null","arrowup","[0.15,0.85,0.325,0.675]","","",""
"sailing-trial","353","2341094","0.0-11.0-318.0","","","","false","","","","","","","","","","563","","255.69999998807907","","3","1","arrowright","1","arrowright","[0.15,0.85,0.325,0.675]","","",""
"sailing-trial","354","2344777","0.0-11.0-319.0","","","","false","","","","","","","","","","null","","1134.5999999940395","","3","1","null","null","arrowup","[0.15,0.85,0.325,0.675]","","",""
"sailing-trial","355","2352194","0.0-11.0-320.0","","","","false","","","","","","","","","","2477.2000000029802","","392.59999999403954","","1","0","arrowleft","0","arrowright","[0.15,0.85,0.325,0.675]","","",""
"sailing-trial","356","2357327","0.0-11.0-321.0","","","","false","","","","","","","","","","null","","2121.6000000089407","","0","0","null","null","arrowup","[0.15,0.85,0.325,0.675]","","",""
"sailing-trial","357","2363177","0.0-11.0-322.0","","","","false","","","","","","","","","","1193.6000000089407","","388.5","","1","1","arrowleft","0","arrowright","[0.15,0.85,0.325,0.675]","","",""
"sailing-trial","358","2366745","0.0-11.0-323.0","","","","false","","","","","","","","","","null","","1933.2999999970198","","0","0","null","null","arrowup","[0.15,0.85,0.325,0.675]","","",""
"sailing-trial","359","2370948","0.0-11.0-324.0","","","","false","","","","","","","","","","1295.2000000029802","","83.70000000298023","","1","0","arrowleft","0","arrowright","[0.15,0.85,0.325,0.675]","","",""
"sailing-trial","360","2372941","0.0-11.0-325.0","","","","false","","","","","","","","","","null","","905.2000000029802","","2","0","null","null","arrowup","[0.15,0.85,0.325,0.675]","","",""
"sailing-trial","361","2376143","0.0-11.0-326.0","","","","false","","","","","","","","","","247.09999999403954","","106.30000001192093","","3","1","arrowright","1","arrowright","[0.325,0.675,0.15,0.85]","","",""
"sailing-trial","362","2378259","0.0-11.0-327.0","","","","false","","","","","","","","","","null","","244.8999999910593","","1","1","null","null","arrowup","[0.325,0.675,0.15,0.85]","","",""
"sailing-trial","363","2382010","0.0-11.0-328.0","","","","false","","","","","","","","","","199.29999999701977","","56.20000000298023","","1","1","arrowleft","0","arrowright","[0.325,0.675,0.15,0.85]","","",""
"sailing-trial","364","2383319","0.0-11.0-329.0","","","","false","","","","","","","","","","null","","157.29999999701977","","0","0","null","null","arrowup","[0.325,0.675,0.15,0.85]","","",""
"sailing-trial","365","2385725","0.0-11.0-330.0","","","","false","","","","","","","","","","159","","5.5","","3","0","arrowright","1","arrowright","[0.325,0.675,0.15,0.85]","","",""
"sailing-trial","366","2388592","0.0-11.0-331.0","","","","false","","","","","","","","","","null","","239.79999999701977","","3","1","null","null","arrowup","[0.325,0.675,0.15,0.85]","","",""
"sailing-trial","367","2394491","0.0-11.0-332.0","","","","false","","","","","","","","","","2772.5999999940395","","12.399999991059303","","1","1","arrowleft","0","arrowright","[0.325,0.675,0.15,0.85]","","",""
"sailing-trial","368","2397008","0.0-11.0-333.0","","","","false","","","","","","","","","","null","","291.20000000298023","","3","1","null","null","arrowup","[0.325,0.675,0.15,0.85]","","",""
"sailing-trial","369","2401341","0.0-11.0-334.0","","","","false","","","","","","","","","","641.1000000089407","","183.5","","3","1","arrowright","1","arrowright","[0.325,0.675,0.15,0.85]","","",""
"sailing-trial","370","2404174","0.0-11.0-335.0","","","","false","","","","","","","","","","null","","1293.1000000089407","","3","1","null","null","arrowup","[0.325,0.675,0.15,0.85]","","",""
"sailing-trial","371","2407557","0.0-11.0-336.0","","","","false","","","","","","","","","","308.70000000298023","","199.09999999403954","","1","1","arrowleft","0","arrowright","[0.325,0.675,0.15,0.85]","","",""
"sailing-trial","372","2410941","0.0-11.0-337.0","","","","false","","","","","","","","","","null","","1342","","2","1","null","null","arrowup","[0.325,0.675,0.15,0.85]","","",""
"sailing-trial","373","2414240","0.0-11.0-338.0","","","","false","","","","","","","","","","122.29999999701977","","304.59999999403954","","1","1","arrowleft","0","arrowright","[0.325,0.675,0.15,0.85]","","",""
"sailing-trial","374","2417149","0.0-11.0-339.0","","","","false","","","","","","","","","","null","","540.8000000119209","","2","0","null","null","arrowup","[0.325,0.675,0.15,0.85]","","",""
"sailing-trial","375","2421206","0.0-11.0-340.0","","","","false","","","","","","","","","","651.3999999910593","","9.700000002980232","","3","1","arrowright","1","arrowright","[0.325,0.675,0.15,0.85]","","",""
"sailing-trial","376","2423649","0.0-11.0-341.0","","","","false","","","","","","","","","","null","","1413.2000000029802","","2","0","null","null","arrowup","[0.325,0.675,0.15,0.85]","","",""
"sailing-trial","377","2427289","0.0-11.0-342.0","","","","false","","","","","","","","","","424.90000000596046","","224.29999999701977","","3","1","arrowright","1","arrowright","[0.325,0.675,0.15,0.85]","","",""
"sailing-trial","378","2432489","0.0-11.0-343.0","","","","false","","","","","","","","","","null","","2873","","1","1","null","null","arrowup","[0.325,0.675,0.15,0.85]","","",""
"sailing-trial","379","2436256","0.0-11.0-344.0","","","","false","","","","","","","","","","751.3999999910593","","172.30000001192093","","3","1","arrowright","1","arrowright","[0.325,0.675,0.15,0.85]","","",""
"sailing-trial","380","2440498","0.0-11.0-345.0","","","","false","","","","","","","","","","null","","2699.1000000089407","","3","0","null","null","arrowup","[0.325,0.675,0.15,0.85]","","",""
"sailing-trial","381","2444889","0.0-11.0-346.0","","","","false","","","","","","","","","","454.90000000596046","","127.5","","3","1","arrowright","1","arrowright","[0.15,0.85,0.325,0.675]","","",""
"sailing-trial","382","2448838","0.0-11.0-347.0","","","","false","","","","","","","","","","null","","1963.300000011921","","1","1","null","null","arrowup","[0.15,0.85,0.325,0.675]","","",""
"sailing-trial","383","2457339","0.0-11.0-348.0","","","","false","","","","","","","","","","1277.7999999970198","","260.5","","3","1","arrowright","1","arrowright","[0.15,0.85,0.325,0.675]","","",""
"sailing-trial","384","2460171","0.0-11.0-349.0","","","","false","","","","","","","","","","null","","1005","","3","1","null","null","arrowup","[0.15,0.85,0.325,0.675]","","",""
"sailing-trial","385","2465838","0.0-11.0-350.0","","","","false","","","","","","","","","","900.7999999970198","","341.19999998807907","","3","0","arrowright","1","arrowright","[0.15,0.85,0.325,0.675]","","",""
"sailing-trial","386","2468597","0.0-11.0-351.0","","","","false","","","","","","","","","","null","","1364.8999999910593","","0","0","null","null","arrowup","[0.15,0.85,0.325,0.675]","","",""
"sailing-trial","387","2472154","0.0-11.0-352.0","","","","false","","","","","","","","","","280.09999999403954","","110.1000000089407","","1","1","arrowleft","0","arrowright","[0.15,0.85,0.325,0.675]","","",""
"sailing-trial","388","2474670","0.0-11.0-353.0","","","","false","","","","","","","","","","null","","73.5","","2","1","null","null","arrowup","[0.15,0.85,0.325,0.675]","","",""
"sailing-trial","389","2479986","0.0-11.0-354.0","","","","false","","","","","","","","","","1011.3999999910593","","216.20000000298023","","3","0","arrowright","1","arrowright","[0.15,0.85,0.325,0.675]","","",""
"sailing-trial","390","2484670","0.0-11.0-355.0","","","","false","","","","","","","","","","null","","1791.3999999910593","","3","1","null","null","arrowup","[0.15,0.85,0.325,0.675]","","",""
"sailing-trial","391","2489619","0.0-11.0-356.0","","","","false","","","","","","","","","","1149.5","","808.0999999940395","","1","1","arrowleft","0","arrowright","[0.15,0.85,0.325,0.675]","","",""
"sailing-trial","392","2492969","0.0-11.0-357.0","","","","false","","","","","","","","","","null","","1423.3999999910593","","3","1","null","null","arrowup","[0.15,0.85,0.325,0.675]","","",""
"sailing-trial","393","2496869","0.0-11.0-358.0","","","","false","","","","","","","","","","927.0999999940395","","138.29999999701977","","1","1","arrowleft","0","arrowright","[0.15,0.85,0.325,0.675]","","",""
"sailing-trial","394","2498752","0.0-11.0-359.0","","","","false","","","","","","","","","","null","","155.90000000596046","","3","1","null","null","arrowup","[0.15,0.85,0.325,0.675]","","",""
"sailing-trial","395","2502450","0.0-11.0-360.0","","","","false","","","","","","","","","","127.20000000298023","","559.2999999970198","","2","0","arrowright","1","arrowleft","[0.15,0.85,0.325,0.675]","","",""
"sailing-trial","396","2504568","0.0-11.0-361.0","","","","false","","","","","","","","","","null","","482.59999999403954","","2","1","null","null","arrowup","[0.15,0.85,0.325,0.675]","","",""
"sailing-trial","397","2509901","0.0-11.0-362.0","","","","false","","","","","","","","","","260.5","","937","","0","0","arrowleft","0","arrowleft","[0.325,0.675,0.15,0.85]","","",""
"sailing-trial","398","2513570","0.0-11.0-363.0","","","","false","","","","","","","","","","null","","1306.9000000059605","","2","0","null","null","arrowup","[0.325,0.675,0.15,0.85]","","",""
"sailing-trial","399","2517468","0.0-11.0-364.0","","","","false","","","","","","","","","","649.4000000059605","","203.40000000596046","","1","1","arrowleft","0","arrowright","[0.325,0.675,0.15,0.85]","","",""
"sailing-trial","400","2520501","0.0-11.0-365.0","","","","false","","","","","","","","","","null","","630.5","","3","1","null","null","arrowup","[0.325,0.675,0.15,0.85]","","",""
"sailing-trial","401","2525051","0.0-11.0-366.0","","","","false","","","","","","","","","","893.1999999880791","","278.20000000298023","","1","1","arrowleft","0","arrowright","[0.325,0.675,0.15,0.85]","","",""
"sailing-trial","402","2529390","0.0-11.0-367.0","","","","false","","","","","","","","","","null","","1563.1000000089407","","2","0","null","null","arrowup","[0.325,0.675,0.15,0.85]","","",""
"sailing-trial","403","2538951","0.0-11.0-368.0","","","","false","","","","","","","","","","1467.5","","166.79999999701977","","1","1","arrowleft","0","arrowright","[0.325,0.675,0.15,0.85]","","",""
"sailing-trial","404","2551100","0.0-11.0-369.0","","","","false","","","","","","","","","","null","","6498.4000000059605","","1","1","null","null","arrowup","[0.325,0.675,0.15,0.85]","","",""
"sailing-trial","405","2556950","0.0-11.0-370.0","","","","false","","","","","","","","","","1392.7000000029802","","866.2999999970198","","3","1","arrowright","1","arrowright","[0.325,0.675,0.15,0.85]","","",""
"sailing-trial","406","2561218","0.0-11.0-371.0","","","","false","","","","","","","","","","null","","786.1000000089407","","1","1","null","null","arrowup","[0.325,0.675,0.15,0.85]","","",""
"sailing-trial","407","2567032","0.0-11.0-372.0","","","","false","","","","","","","","","","1052.0999999940395","","455.09999999403954","","1","1","arrowleft","0","arrowright","[0.325,0.675,0.15,0.85]","","",""
"sailing-trial","408","2572598","0.0-11.0-373.0","","","","false","","","","","","","","","","null","","3000.5","","1","1","null","null","arrowup","[0.325,0.675,0.15,0.85]","","",""
"sailing-trial","409","2587607","0.0-11.0-374.0","","","","true","","","","","","","","","","null","","null","","null","null","null","null","null","[0.325,0.675,0.15,0.85]","","",""
"sailing-trial","410","2592780","0.0-11.0-375.0","","","","false","","","","","","","","","","null","","1864.1000000089407","","1","1","null","null","arrowup","[0.325,0.675,0.15,0.85]","","",""
"sailing-trial","411","2597847","0.0-11.0-376.0","","","","false","","","","","","","","","","1492.2999999970198","","344.70000000298023","","1","1","arrowleft","0","arrowright","[0.325,0.675,0.15,0.85]","","",""
"sailing-trial","412","2601746","0.0-11.0-377.0","","","","false","","","","","","","","","","null","","884.2999999970198","","0","0","null","null","arrowup","[0.325,0.675,0.15,0.85]","","",""
"sailing-trial","413","2607148","0.0-11.0-378.0","","","","false","","","","","","","","","","1260.300000011921","","209.79999999701977","","1","1","arrowleft","0","arrowright","[0.325,0.675,0.15,0.85]","","",""
"sailing-trial","414","2611246","0.0-11.0-379.0","","","","false","","","","","","","","","","null","","1076.3999999910593","","2","0","null","null","arrowup","[0.325,0.675,0.15,0.85]","","",""
"sailing-trial","415","2616445","0.0-11.0-380.0","","","","false","","","","","","","","","","1299","","475.40000000596046","","1","1","arrowleft","0","arrowright","[0.325,0.675,0.15,0.85]","","",""
"sailing-trial","416","2618602","0.0-11.0-381.0","","","","false","","","","","","","","","","null","","579.2000000029802","","0","0","null","null","arrowup","[0.325,0.675,0.15,0.85]","","",""
"sailing-trial","417","2622895","0.0-11.0-382.0","","","","false","","","","","","","","","","470.09999999403954","","91.79999999701977","","1","1","arrowleft","0","arrowright","[0.15,0.85,0.325,0.675]","","",""
"sailing-trial","418","2626479","0.0-11.0-383.0","","","","false","","","","","","","","","","null","","541.3000000119209","","0","0","null","null","arrowup","[0.15,0.85,0.325,0.675]","","",""
"sailing-trial","419","2631445","0.0-11.0-384.0","","","","false","","","","","","","","","","1407.2000000029802","","164.1000000089407","","1","1","arrowleft","0","arrowright","[0.15,0.85,0.325,0.675]","","",""
"sailing-trial","420","2636328","0.0-11.0-385.0","","","","false","","","","","","","","","","null","","1867.7999999970198","","3","0","null","null","arrowup","[0.15,0.85,0.325,0.675]","","",""
"sailing-trial","421","2644411","0.0-11.0-386.0","","","","false","","","","","","","","","","3176.0999999940395","","168.40000000596046","","3","0","arrowright","1","arrowright","[0.15,0.85,0.325,0.675]","","",""
"sailing-trial","422","2648611","0.0-11.0-387.0","","","","false","","","","","","","","","","null","","1170.7999999970198","","2","0","null","null","arrowup","[0.15,0.85,0.325,0.675]","","",""
"sailing-trial","423","2657276","0.0-11.0-388.0","","","","false","","","","","","","","","","2125.1000000089407","","1861.0999999940395","","1","0","arrowleft","0","arrowright","[0.15,0.85,0.325,0.675]","","",""
"sailing-trial","424","2663010","0.0-11.0-389.0","","","","false","","","","","","","","","","null","","2405.3999999910593","","1","1","null","null","arrowup","[0.15,0.85,0.325,0.675]","","",""
"sailing-trial","425","2669810","0.0-11.0-390.0","","","","false","","","","","","","","","","2282.2000000029802","","230.1000000089407","","1","0","arrowleft","0","arrowright","[0.15,0.85,0.325,0.675]","","",""
"sailing-trial","426","2673971","0.0-11.0-391.0","","","","false","","","","","","","","","","null","","1604.7000000029802","","0","0","null","null","arrowup","[0.15,0.85,0.325,0.675]","","",""
"sailing-trial","427","2677510","0.0-11.0-392.0","","","","false","","","","","","","","","","481.29999999701977","","63.599999994039536","","1","1","arrowleft","0","arrowright","[0.15,0.85,0.325,0.675]","","",""
"sailing-trial","428","2681192","0.0-11.0-393.0","","","","false","","","","","","","","","","null","","677.2000000029802","","2","0","null","null","arrowup","[0.15,0.85,0.325,0.675]","","",""
"sailing-trial","429","2686476","0.0-11.0-394.0","","","","false","","","","","","","","","","1202.4000000059605","","149.3999999910593","","1","1","arrowleft","0","arrowright","[0.15,0.85,0.325,0.675]","","",""
"sailing-trial","430","2691339","0.0-11.0-395.0","","","","false","","","","","","","","","","null","","2071.1000000089407","","2","0","null","null","arrowup","[0.15,0.85,0.325,0.675]","","",""
"sailing-trial","431","2696542","0.0-11.0-396.0","","","","false","","","","","","","","","","1654.699999988079","","365.20000000298023","","1","1","arrowleft","0","arrowright","[0.15,0.85,0.325,0.675]","","",""
"sailing-trial","432","2698765","0.0-11.0-397.0","","","","false","","","","","","","","","","null","","706","","2","0","null","null","arrowup","[0.15,0.85,0.325,0.675]","","",""
"sailing-trial","433","2703174","0.0-11.0-398.0","","","","false","","","","","","","","","","453.70000000298023","","462.70000000298023","","1","1","arrowleft","0","arrowright","[0.15,0.85,0.325,0.675]","","",""
"sailing-trial","434","2712559","0.0-11.0-399.0","","","","false","","","","","","","","","","null","","5537.5","","1","1","null","null","arrowup","[0.15,0.85,0.325,0.675]","","",""
"instructions","435","2725225","0.0-12.0","","","","","","","","","","12664.10000000894","","","","","","","","","","","","","","","","[{""page_index"":0,""viewing_time"":12661.90000000596}]"
"survey-debrief","436","2835411","0.0-13.0","","","","","","","","","","110178.5","","","","","","","","","","","","","","{""difficulty"":""4"",""fun"":""4"",""clarity"":""5"",""strategy"":""I made sure to do all the markets first and then figured out what were most likely to give their fortune, and then that would switch throughout the game. "",""feedback"":""""}","",""
