"trial_type","trial_index","time_elapsed","internal_node_id","value","metadata","success","timeout","failed_images","failed_audio","failed_video","browser_interaction","low_quality","rt","stimulus","response","button_pressed","island_rt","island_response","boat_rt","boat_response","boat","reward","island_key","island","boat_key","reward_probabilities","responses","num_errors","view_history"
"pavlovia","0","4","0.0-0.0","","","","","","","","","","","","","","","","","","","","","","","","","",""
"call-function","1","4","0.0-1.0","","{""task_version"":""sailing_part1_v1"",""task_condition"":""good"",""boats"":[""A"",""D"",""C"",""B""],""boats_demo"":[""H"",""E"",""G"",""F""],""islands"":[""B"",""A""],""subject_id"":""14748"",""age"":""17"",""gender"":""Female""}","","","","","","","","","","","","","","","","","","","","","","","",""
"preload","2","3468","0.0-2.0","","","true","false","[]","[]","[]","[{""event"":""fullscreenenter"",""trial"":3,""time"":7502}]","false","","","","","","","","","","","","","","","","",""
"fullscreen","3","8483","0.0-3.0","","","true","","","","","","","","","","","","","","","","","","","","","","",""
"audio-keyboard-response","4","9818","0.0-4.0-0.0","","","","","","","","","","1162.6666666666667","audio/beep_loop.wav"," ","","","","","","","","","","","","","",""
"audio-test","5","23110","0.0-4.0-1.0","","","","","","","","","","null","audio/turtle.mp3","","3","","","","","","","","","","","","",""
"audio-test","6","25766","0.0-4.0-2.0","","","","","","","","","","null","audio/shark.mp3","","2","","","","","","","","","","","","",""
"sailing-instructions","7","60799","0.0-5.0-0.0-0.0","","","","","","","","","","","","","","null","null","null","null","null","null","","","","","","",""
"sailing-trial","8","65080","0.0-5.0-0.0-1.0-0.0","","","","false","","","","","","","","","","3159.5999999046326","","null","","null","null","arrowleft","0","null","null","","",""
"sailing-trial","9","67346","0.0-5.0-0.0-1.0-1.0","","","","false","","","","","","","","","","1141.0999999046326","","null","","null","null","arrowright","1","null","null","","",""
"sailing-trial","10","71008","0.0-5.0-0.0-1.0-2.0","","","","false","","","","","","","","","","2536.2999999523163","","null","","null","null","arrowleft","0","null","null","","",""
"sailing-instructions","11","115759","0.0-5.0-0.0-2.0","","","","","","","","","","","","","","null","null","null","null","0","null","","","","","","",""
"sailing-trial","12","130863","0.0-5.0-0.0-3.0-0.0","","","","false","","","","","","","","","","null","","10442","","2","1","null","null","arrowleft","[1,1,1,1]","","",""
"sailing-trial","13","143551","0.0-5.0-0.0-3.0-1.0","","","","false","","","","","","","","","","null","","9625","","3","1","null","null","arrowright","[1,1,1,1]","","",""
"sailing-trial","14","146989","0.0-5.0-0.0-3.0-2.0","","","","false","","","","","","","","","","null","","1659.6000001430511","","2","0","null","null","arrowleft","[0,0,0,0]","","",""
"sailing-instructions","15","154623","0.0-5.0-0.0-4.0","","","","","","","","","","","","","","null","null","null","null","null","null","","","","","","",""
"sailing-comprehension","16","171934","0.0-5.0-0.0-5.0","","","","","","","","","","14814.299999952316","","","","","","","","","","","","","","[""true"",""true"",""false"",""true""]","0",""
"sailing-instructions","17","239839","0.0-6.0-0.0-0.0","","","","","","","","","","","","","","null","null","null","null","null","null","","","","","","",""
"sailing-comprehension","18","255066","0.0-6.0-0.0-1.0","","","","","","","","","","12550.5","","","","","","","","","","","","","","[""true"",""false"",""true""]","0",""
"sailing-instructions","19","272031","0.0-7.0-0.0-0.0","","","","","","","","","","","","","","null","null","null","null","null","null","","","","","","",""
"sailing-trial","20","277301","0.0-7.0-0.0-1.0-0.0","","","","false","","","","","","","","","","null","","2478.7000000476837","","0","0","null","null","arrowup","[0.2,0.8,0.2,0.8]","","",""
"sailing-trial","21","281375","0.0-7.0-0.0-1.0-1.0","","","","false","","","","","","","","","","null","","2538.199999809265","","1","0","null","null","arrowup","[0.2,0.8,0.2,0.8]","","",""
"sailing-trial","22","284410","0.0-7.0-0.0-1.0-2.0","","","","false","","","","","","","","","","null","","1111","","2","0","null","null","arrowup","[0.2,0.8,0.2,0.8]","","",""
"sailing-trial","23","287591","0.0-7.0-0.0-1.0-3.0","","","","false","","","","","","","","","","null","","893.7999999523163","","3","1","null","null","arrowup","[0.2,0.8,0.2,0.8]","","",""
"sailing-comprehension","24","302398","0.0-7.0-0.0-2.0","","","","","","","","","","11462.199999809265","","","","","","","","","","","","","","[""true""]","1",""
"sailing-instructions","25","315639","0.0-7.0-0.1-0.1","","","","","","","","","","","","","","null","null","null","null","null","null","","","","","","",""
"sailing-trial","26","319088","0.0-7.0-0.1-1.1-0.1","","","","false","","","","","","","","","","null","","1353.8999998569489","","0","0","null","null","arrowup","[0.2,0.8,0.2,0.8]","","",""
"sailing-trial","27","321504","0.0-7.0-0.1-1.1-1.1","","","","false","","","","","","","","","","null","","443.7000000476837","","1","1","null","null","arrowup","[0.2,0.8,0.2,0.8]","","",""
"sailing-trial","28","323392","0.0-7.0-0.1-1.1-2.1","","","","false","","","","","","","","","","null","","430.2999999523163","","2","0","null","null","arrowup","[0.2,0.8,0.2,0.8]","","",""
"sailing-trial","29","325689","0.0-7.0-0.1-1.1-3.1","","","","false","","","","","","","","","","null","","321.2999999523163","","3","1","null","null","arrowup","[0.2,0.8,0.2,0.8]","","",""
"sailing-comprehension","30","330582","0.0-7.0-0.1-2.1","","","","","","","","","","3220.7000000476837","","","","","","","","","","","","","","[""false""]","0",""
"sailing-instructions","31","343663","0.0-8.0-0.0-0.0","","","","","","","","","","","","","","null","null","null","null","null","null","","","","","","",""
"sailing-comprehension","32","350397","0.0-8.0-0.0-1.0","","","","","","","","","","3799","","","","","","","","","","","","","","[""true""]","0",""
"sailing-instructions","33","372815","0.0-9.0-0.0-0.0","","","","","","","","","","","","","","null","null","null","null","null","null","","","","","","",""
"sailing-trial","34","377178","0.0-9.0-0.0-1.0-0.0","","","","false","","","","","","","","","","1276.7000000476837","","365.19999980926514","","0","0","arrowleft","0","arrowleft","[0.2,0.8,0.2,0.8]","","",""
"sailing-trial","35","381713","0.0-9.0-0.0-1.0-1.0","","","","false","","","","","","","","","","1362.6000001430511","","148.10000014305115","","3","0","arrowright","1","arrowright","[0.2,0.8,0.2,0.8]","","",""
"sailing-trial","36","384941","0.0-9.0-0.0-1.0-2.0","","","","false","","","","","","","","","","null","","1373.7000000476837","","0","1","null","null","arrowup","[0.2,0.8,0.2,0.8]","","",""
"sailing-trial","37","389330","0.0-9.0-0.0-1.0-3.0","","","","false","","","","","","","","","","1051.7000000476837","","82.79999995231628","","2","0","arrowright","1","arrowleft","[0.2,0.8,0.2,0.8]","","",""
"sailing-trial","38","392710","0.0-9.0-0.0-1.0-4.0","","","","false","","","","","","","","","","null","","1121.8999998569489","","3","1","null","null","arrowup","[0.2,0.8,0.2,0.8]","","",""
"sailing-trial","39","396571","0.0-9.0-0.0-1.0-5.0","","","","false","","","","","","","","","","704.7000000476837","","169.39999985694885","","3","1","arrowright","1","arrowright","[0.2,0.8,0.2,0.8]","","",""
"sailing-instructions","40","423103","0.0-10.0","","","","","","","","","","","","","","null","null","null","null","null","null","","","","","","",""
"sailing-trial","41","428847","0.0-11.0-0.0","","","","false","","","","","","","","","","1682.5","","834.9000000953674","","0","1","arrowleft","0","arrowleft","[0.675,0.325,0.85,0.15]","","",""
"sailing-trial","42","431141","0.0-11.0-1.0","","","","false","","","","","","","","","","null","","1158.2999999523163","","3","0","null","null","arrowup","[0.675,0.325,0.85,0.15]","","",""
"sailing-trial","43","436116","0.0-11.0-2.0","","","","false","","","","","","","","","","833.8000001907349","","783.4000000953674","","1","0","arrowleft","0","arrowright","[0.675,0.325,0.85,0.15]","","",""
"sailing-trial","44","439070","0.0-11.0-3.0","","","","false","","","","","","","","","","null","","1157.3000001907349","","2","1","null","null","arrowup","[0.675,0.325,0.85,0.15]","","",""
"sailing-trial","45","442373","0.0-11.0-4.0","","","","false","","","","","","","","","","651.8999998569489","","85.29999995231628","","2","1","arrowright","1","arrowleft","[0.675,0.325,0.85,0.15]","","",""
"sailing-trial","46","444921","0.0-11.0-5.0","","","","false","","","","","","","","","","null","","1402.0999999046326","","1","0","null","null","arrowup","[0.675,0.325,0.85,0.15]","","",""
"sailing-trial","47","449414","0.0-11.0-6.0","","","","false","","","","","","","","","","537.0999999046326","","842.3999998569489","","3","0","arrowright","1","arrowright","[0.675,0.325,0.85,0.15]","","",""
"sailing-trial","48","452647","0.0-11.0-7.0","","","","false","","","","","","","","","","null","","1077.1000001430511","","0","1","null","null","arrowup","[0.675,0.325,0.85,0.15]","","",""
"sailing-trial","49","457065","0.0-11.0-8.0","","","","false","","","","","","","","","","497.60000014305115","","700.2000000476837","","0","1","arrowleft","0","arrowleft","[0.675,0.325,0.85,0.15]","","",""
"sailing-trial","50","460074","0.0-11.0-9.0","","","","false","","","","","","","","","","null","","933.2000000476837","","1","1","null","null","arrowup","[0.675,0.325,0.85,0.15]","","",""
"sailing-trial","51","464373","0.0-11.0-10.0","","","","false","","","","","","","","","","628.4000000953674","","593.7000000476837","","0","0","arrowleft","0","arrowleft","[0.675,0.325,0.85,0.15]","","",""
"sailing-trial","52","467068","0.0-11.0-11.0","","","","false","","","","","","","","","","null","","887","","2","1","null","null","arrowup","[0.675,0.325,0.85,0.15]","","",""
"sailing-trial","53","470753","0.0-11.0-12.0","","","","false","","","","","","","","","","469.7000000476837","","389.89999985694885","","2","0","arrowright","1","arrowleft","[0.675,0.325,0.85,0.15]","","",""
"sailing-trial","54","473572","0.0-11.0-13.0","","","","false","","","","","","","","","","null","","1019.5999999046326","","0","1","null","null","arrowup","[0.675,0.325,0.85,0.15]","","",""
"sailing-trial","55","477442","0.0-11.0-14.0","","","","false","","","","","","","","","","544.5","","391.5","","0","0","arrowleft","0","arrowleft","[0.675,0.325,0.85,0.15]","","",""
"sailing-trial","56","480324","0.0-11.0-15.0","","","","false","","","","","","","","","","null","","905","","2","1","null","null","arrowup","[0.675,0.325,0.85,0.15]","","",""
"sailing-trial","57","484251","0.0-11.0-16.0","","","","false","","","","","","","","","","715.3000001907349","","331.2999999523163","","1","0","arrowleft","0","arrowright","[0.85,0.15,0.675,0.325]","","",""
"sailing-trial","58","486382","0.0-11.0-17.0","","","","false","","","","","","","","","","null","","971.9000000953674","","1","0","null","null","arrowup","[0.85,0.15,0.675,0.325]","","",""
"sailing-trial","59","491358","0.0-11.0-18.0","","","","false","","","","","","","","","","461.5","","1401.7000000476837","","2","1","arrowright","1","arrowleft","[0.85,0.15,0.675,0.325]","","",""
"sailing-trial","60","494023","0.0-11.0-19.0","","","","false","","","","","","","","","","null","","781.4000000953674","","0","1","null","null","arrowup","[0.85,0.15,0.675,0.325]","","",""
"sailing-trial","61","498148","0.0-11.0-20.0","","","","false","","","","","","","","","","714.8000001907349","","675.2999999523163","","0","1","arrowleft","0","arrowleft","[0.85,0.15,0.675,0.325]","","",""
"sailing-trial","62","500378","0.0-11.0-21.0","","","","false","","","","","","","","","","null","","770.2999999523163","","1","0","null","null","arrowup","[0.85,0.15,0.675,0.325]","","",""
"sailing-trial","63","504075","0.0-11.0-22.0","","","","false","","","","","","","","","","461.90000009536743","","769.7000000476837","","0","0","arrowleft","0","arrowleft","[0.85,0.15,0.675,0.325]","","",""
"sailing-trial","64","506209","0.0-11.0-23.0","","","","false","","","","","","","","","","null","","878.3999998569489","","2","0","null","null","arrowup","[0.85,0.15,0.675,0.325]","","",""
"sailing-trial","65","510096","0.0-11.0-24.0","","","","false","","","","","","","","","","585.2000000476837","","303.2999999523163","","0","1","arrowleft","0","arrowleft","[0.85,0.15,0.675,0.325]","","",""
"sailing-trial","66","513354","0.0-11.0-25.0","","","","false","","","","","","","","","","null","","1247.5999999046326","","0","1","null","null","arrowup","[0.85,0.15,0.675,0.325]","","",""
"sailing-trial","67","517299","0.0-11.0-26.0","","","","false","","","","","","","","","","528.5999999046326","","429.5","","3","1","arrowright","1","arrowright","[0.85,0.15,0.675,0.325]","","",""
"sailing-trial","68","519783","0.0-11.0-27.0","","","","false","","","","","","","","","","null","","851","","2","1","null","null","arrowup","[0.85,0.15,0.675,0.325]","","",""
"sailing-trial","69","523313","0.0-11.0-28.0","","","","false","","","","","","","","","","438.2000000476837","","458.90000009536743","","2","1","arrowright","1","arrowleft","[0.85,0.15,0.675,0.325]","","",""
"sailing-trial","70","526373","0.0-11.0-29.0","","","","false","","","","","","","","","","null","","735.7000000476837","","2","0","null","null","arrowup","[0.85,0.15,0.675,0.325]","","",""
"sailing-trial","71","530455","0.0-11.0-30.0","","","","false","","","","","","","","","","544.7999999523163","","394","","2","1","arrowright","1","arrowleft","[0.85,0.15,0.675,0.325]","","",""
"sailing-trial","72","532277","0.0-11.0-31.0","","","","false","","","","","","","","","","null","","669.6000001430511","","0","0","null","null","arrowup","[0.85,0.15,0.675,0.325]","","",""
"sailing-trial","73","536192","0.0-11.0-32.0","","","","false","","","","","","","","","","509.7999999523163","","488.90000009536743","","2","1","arrowright","1","arrowleft","[0.675,0.325,0.85,0.15]","","",""
"sailing-trial","74","538761","0.0-11.0-33.0","","","","false","","","","","","","","","","null","","788.7000000476837","","2","1","null","null","arrowup","[0.675,0.325,0.85,0.15]","","",""
"sailing-trial","75","542414","0.0-11.0-34.0","","","","false","","","","","","","","","","349.60000014305115","","287.7999999523163","","2","1","arrowright","1","arrowleft","[0.675,0.325,0.85,0.15]","","",""
"sailing-trial","76","544741","0.0-11.0-35.0","","","","false","","","","","","","","","","null","","721.9000000953674","","2","0","null","null","arrowup","[0.675,0.325,0.85,0.15]","","",""
"sailing-trial","77","547668","0.0-11.0-36.0","","","","false","","","","","","","","","","418.5","","371.30000019073486","","3","0","arrowright","1","arrowright","[0.675,0.325,0.85,0.15]","","",""
"sailing-trial","78","550138","0.0-11.0-37.0","","","","false","","","","","","","","","","null","","898.0999999046326","","3","1","null","null","arrowup","[0.675,0.325,0.85,0.15]","","",""
"sailing-trial","79","553116","0.0-11.0-38.0","","","","false","","","","","","","","","","496.10000014305115","","361","","3","0","arrowright","1","arrowright","[0.675,0.325,0.85,0.15]","","",""
"sailing-trial","80","555823","0.0-11.0-39.0","","","","false","","","","","","","","","","null","","877.4000000953674","","2","1","null","null","arrowup","[0.675,0.325,0.85,0.15]","","",""
"sailing-trial","81","559709","0.0-11.0-40.0","","","","false","","","","","","","","","","850.6999998092651","","398.2000000476837","","2","1","arrowright","1","arrowleft","[0.675,0.325,0.85,0.15]","","",""
"sailing-trial","82","563417","0.0-11.0-41.0","","","","false","","","","","","","","","","null","","750.5","","0","0","null","null","arrowup","[0.675,0.325,0.85,0.15]","","",""
"sailing-trial","83","567810","0.0-11.0-42.0","","","","false","","","","","","","","","","576.5","","275","","1","0","arrowleft","0","arrowright","[0.675,0.325,0.85,0.15]","","",""
"sailing-trial","84","569890","0.0-11.0-43.0","","","","false","","","","","","","","","","null","","818.0999999046326","","3","0","null","null","arrowup","[0.675,0.325,0.85,0.15]","","",""
"sailing-trial","85","573707","0.0-11.0-44.0","","","","false","","","","","","","","","","474.69999980926514","","378.5","","2","1","arrowright","1","arrowleft","[0.675,0.325,0.85,0.15]","","",""
"sailing-trial","86","575606","0.0-11.0-45.0","","","","false","","","","","","","","","","null","","869","","0","0","null","null","arrowup","[0.675,0.325,0.85,0.15]","","",""
"sailing-trial","87","578795","0.0-11.0-46.0","","","","false","","","","","","","","","","551.4000000953674","","373.39999985694885","","2","0","arrowright","1","arrowleft","[0.675,0.325,0.85,0.15]","","",""
"sailing-trial","88","581950","0.0-11.0-47.0","","","","false","","","","","","","","","","null","","810.7999999523163","","2","1","null","null","arrowup","[0.675,0.325,0.85,0.15]","","",""
"sailing-trial","89","585491","0.0-11.0-48.0","","","","false","","","","","","","","","","396.60000014305115","","420.90000009536743","","2","1","arrowright","1","arrowleft","[0.675,0.325,0.85,0.15]","","",""
"sailing-trial","90","587627","0.0-11.0-49.0","","","","false","","","","","","","","","","null","","885.9000000953674","","3","0","null","null","arrowup","[0.675,0.325,0.85,0.15]","","",""
"sailing-trial","91","591270","0.0-11.0-50.0","","","","false","","","","","","","","","","471.7999999523163","","399","","2","1","arrowright","1","arrowleft","[0.85,0.15,0.675,0.325]","","",""
"sailing-trial","92","593925","0.0-11.0-51.0","","","","false","","","","","","","","","","null","","944.1000001430511","","3","1","null","null","arrowup","[0.85,0.15,0.675,0.325]","","",""
"sailing-trial","93","596698","0.0-11.0-52.0","","","","false","","","","","","","","","","376.89999985694885","","341.59999990463257","","3","0","arrowright","1","arrowright","[0.85,0.15,0.675,0.325]","","",""
"sailing-trial","94","599005","0.0-11.0-53.0","","","","false","","","","","","","","","","null","","765.6999998092651","","3","0","null","null","arrowup","[0.85,0.15,0.675,0.325]","","",""
"sailing-trial","95","602507","0.0-11.0-54.0","","","","false","","","","","","","","","","641.5","","304.60000014305115","","2","1","arrowright","1","arrowleft","[0.85,0.15,0.675,0.325]","","",""
"sailing-trial","96","604964","0.0-11.0-55.0","","","","false","","","","","","","","","","null","","728.7999999523163","","2","0","null","null","arrowup","[0.85,0.15,0.675,0.325]","","",""
"sailing-trial","97","608583","0.0-11.0-56.0","","","","false","","","","","","","","","","437","","415","","2","1","arrowright","1","arrowleft","[0.85,0.15,0.675,0.325]","","",""
"sailing-trial","98","610461","0.0-11.0-57.0","","","","false","","","","","","","","","","null","","762.0999999046326","","2","0","null","null","arrowup","[0.85,0.15,0.675,0.325]","","",""
"sailing-trial","99","613985","0.0-11.0-58.0","","","","false","","","","","","","","","","457.19999980926514","","451.89999985694885","","2","1","arrowright","1","arrowleft","[0.85,0.15,0.675,0.325]","","",""
"sailing-trial","100","615977","0.0-11.0-59.0","","","","false","","","","","","","","","","null","","809.5","","1","0","null","null","arrowup","[0.85,0.15,0.675,0.325]","","",""
"sailing-trial","101","619738","0.0-11.0-60.0","","","","false","","","","","","","","","","658.1999998092651","","434.5","","2","1","arrowright","1","arrowleft","[0.85,0.15,0.675,0.325]","","",""
"sailing-trial","102","621719","0.0-11.0-61.0","","","","false","","","","","","","","","","null","","734.9000000953674","","3","0","null","null","arrowup","[0.85,0.15,0.675,0.325]","","",""
"sailing-trial","103","625095","0.0-11.0-62.0","","","","false","","","","","","","","","","394.40000009536743","","405.7999999523163","","2","1","arrowright","1","arrowleft","[0.85,0.15,0.675,0.325]","","",""
"sailing-trial","104","627121","0.0-11.0-63.0","","","","false","","","","","","","","","","null","","911.1000001430511","","3","0","null","null","arrowup","[0.85,0.15,0.675,0.325]","","",""
"sailing-trial","105","630824","0.0-11.0-64.0","","","","false","","","","","","","","","","582.0999999046326","","301.7000000476837","","0","1","arrowleft","0","arrowleft","[0.85,0.15,0.675,0.325]","","",""
"sailing-trial","106","633546","0.0-11.0-65.0","","","","false","","","","","","","","","","null","","1026.4000000953674","","0","1","null","null","arrowup","[0.85,0.15,0.675,0.325]","","",""
"sailing-trial","107","637366","0.0-11.0-66.0","","","","false","","","","","","","","","","453.2999999523163","","360.7000000476837","","0","1","arrowleft","0","arrowleft","[0.675,0.325,0.85,0.15]","","",""
"sailing-trial","108","639511","0.0-11.0-67.0","","","","false","","","","","","","","","","null","","585.3999998569489","","0","1","null","null","arrowup","[0.675,0.325,0.85,0.15]","","",""
"sailing-trial","109","644178","0.0-11.0-68.0","","","","false","","","","","","","","","","459","","353.7000000476837","","0","0","arrowleft","0","arrowleft","[0.675,0.325,0.85,0.15]","","",""
"sailing-trial","110","647650","0.0-11.0-69.0","","","","false","","","","","","","","","","null","","1786.4000000953674","","0","1","null","null","arrowup","[0.675,0.325,0.85,0.15]","","",""
"sailing-trial","111","652396","0.0-11.0-70.0","","","","false","","","","","","","","","","476.2000000476837","","1069.9000000953674","","0","0","arrowleft","0","arrowleft","[0.675,0.325,0.85,0.15]","","",""
"sailing-trial","112","654934","0.0-11.0-71.0","","","","false","","","","","","","","","","null","","828.9000000953674","","0","1","null","null","arrowup","[0.675,0.325,0.85,0.15]","","",""
"sailing-trial","113","659178","0.0-11.0-72.0","","","","false","","","","","","","","","","378.5","","976.7999999523163","","0","0","arrowleft","0","arrowleft","[0.675,0.325,0.85,0.15]","","",""
"sailing-trial","114","662109","0.0-11.0-73.0","","","","false","","","","","","","","","","null","","796.1000001430511","","0","1","null","null","arrowup","[0.675,0.325,0.85,0.15]","","",""
"sailing-trial","115","665569","0.0-11.0-74.0","","","","false","","","","","","","","","","386.7000000476837","","422","","2","1","arrowright","1","arrowleft","[0.675,0.325,0.85,0.15]","","",""
"sailing-trial","116","668113","0.0-11.0-75.0","","","","false","","","","","","","","","","null","","739.5","","0","0","null","null","arrowup","[0.675,0.325,0.85,0.15]","","",""
"sailing-trial","117","672569","0.0-11.0-76.0","","","","false","","","","","","","","","","528.8999998569489","","1003.5","","2","1","arrowright","1","arrowleft","[0.675,0.325,0.85,0.15]","","",""
"sailing-trial","118","675425","0.0-11.0-77.0","","","","false","","","","","","","","","","null","","1049.5","","2","1","null","null","arrowup","[0.675,0.325,0.85,0.15]","","",""
"sailing-trial","119","679278","0.0-11.0-78.0","","","","false","","","","","","","","","","641.2999999523163","","563.6000001430511","","2","1","arrowright","1","arrowleft","[0.675,0.325,0.85,0.15]","","",""
"sailing-trial","120","681810","0.0-11.0-79.0","","","","false","","","","","","","","","","null","","806","","1","1","null","null","arrowup","[0.675,0.325,0.85,0.15]","","",""
"sailing-trial","121","685402","0.0-11.0-80.0","","","","false","","","","","","","","","","617.5999999046326","","400.2999999523163","","1","0","arrowleft","0","arrowright","[0.675,0.325,0.85,0.15]","","",""
"sailing-trial","122","687791","0.0-11.0-81.0","","","","false","","","","","","","","","","null","","793.1000001430511","","0","1","null","null","arrowup","[0.675,0.325,0.85,0.15]","","",""
"sailing-trial","123","691674","0.0-11.0-82.0","","","","false","","","","","","","","","","632.7999999523163","","690.4000000953674","","0","1","arrowleft","0","arrowleft","[0.675,0.325,0.85,0.15]","","",""
"sailing-trial","124","693960","0.0-11.0-83.0","","","","false","","","","","","","","","","null","","1051.1000001430511","","3","0","null","null","arrowup","[0.675,0.325,0.85,0.15]","","",""
"sailing-trial","125","698068","0.0-11.0-84.0","","","","false","","","","","","","","","","466.7000000476837","","1511.7999999523163","","0","0","arrowleft","0","arrowleft","[0.85,0.15,0.675,0.325]","","",""
"sailing-trial","126","700700","0.0-11.0-85.0","","","","false","","","","","","","","","","null","","881.2999999523163","","0","1","null","null","arrowup","[0.85,0.15,0.675,0.325]","","",""
"sailing-trial","127","704055","0.0-11.0-86.0","","","","false","","","","","","","","","","346.09999990463257","","444.7999999523163","","0","1","arrowleft","0","arrowleft","[0.85,0.15,0.675,0.325]","","",""
"sailing-trial","128","707601","0.0-11.0-87.0","","","","false","","","","","","","","","","null","","1020.2000000476837","","3","1","null","null","arrowup","[0.85,0.15,0.675,0.325]","","",""
"sailing-trial","129","711015","0.0-11.0-88.0","","","","false","","","","","","","","","","567.5","","81.59999990463257","","0","1","arrowleft","0","arrowleft","[0.85,0.15,0.675,0.325]","","",""
"sailing-trial","130","713506","0.0-11.0-89.0","","","","false","","","","","","","","","","null","","905.5","","3","1","null","null","arrowup","[0.85,0.15,0.675,0.325]","","",""
"sailing-trial","131","717884","0.0-11.0-90.0","","","","false","","","","","","","","","","478.59999990463257","","629.6000001430511","","3","1","arrowright","1","arrowright","[0.85,0.15,0.675,0.325]","","",""
"sailing-trial","132","720850","0.0-11.0-91.0","","","","false","","","","","","","","","","null","","803.2000000476837","","1","0","null","null","arrowup","[0.85,0.15,0.675,0.325]","","",""
"sailing-trial","133","724129","0.0-11.0-92.0","","","","false","","","","","","","","","","452.60000014305115","","748.6000001430511","","3","0","arrowright","1","arrowright","[0.85,0.15,0.675,0.325]","","",""
"sailing-trial","134","726663","0.0-11.0-93.0","","","","false","","","","","","","","","","null","","845.7999999523163","","0","1","null","null","arrowup","[0.85,0.15,0.675,0.325]","","",""
"sailing-trial","135","731024","0.0-11.0-94.0","","","","false","","","","","","","","","","422.60000014305115","","827.0999999046326","","0","1","arrowleft","0","arrowleft","[0.85,0.15,0.675,0.325]","","",""
"sailing-trial","136","732857","0.0-11.0-95.0","","","","false","","","","","","","","","","null","","819.1000001430511","","3","0","null","null","arrowup","[0.85,0.15,0.675,0.325]","","",""
"sailing-trial","137","736639","0.0-11.0-96.0","","","","false","","","","","","","","","","485.5","","687.7000000476837","","0","1","arrowleft","0","arrowleft","[0.85,0.15,0.675,0.325]","","",""
"sailing-trial","138","740063","0.0-11.0-97.0","","","","false","","","","","","","","","","null","","862.1000001430511","","0","1","null","null","arrowup","[0.85,0.15,0.675,0.325]","","",""
"sailing-trial","139","744397","0.0-11.0-98.0","","","","false","","","","","","","","","","596.2000000476837","","391","","0","1","arrowleft","0","arrowleft","[0.85,0.15,0.675,0.325]","","",""
"sailing-trial","140","747829","0.0-11.0-99.0","","","","false","","","","","","","","","","null","","890.2000000476837","","3","0","null","null","arrowup","[0.85,0.15,0.675,0.325]","","",""
"sailing-trial","141","751202","0.0-11.0-100.0","","","","false","","","","","","","","","","465.90000009536743","","354.7999999523163","","0","1","arrowleft","0","arrowleft","[0.85,0.15,0.675,0.325]","","",""
"sailing-trial","142","754167","0.0-11.0-101.0","","","","false","","","","","","","","","","null","","884.2999999523163","","3","1","null","null","arrowup","[0.85,0.15,0.675,0.325]","","",""
"sailing-trial","143","757288","0.0-11.0-102.0","","","","false","","","","","","","","","","418.2000000476837","","45.60000014305115","","3","1","arrowright","1","arrowright","[0.85,0.15,0.675,0.325]","","",""
"sailing-trial","144","760269","0.0-11.0-103.0","","","","false","","","","","","","","","","null","","940.1000001430511","","0","1","null","null","arrowup","[0.85,0.15,0.675,0.325]","","",""
"sailing-trial","145","763622","0.0-11.0-104.0","","","","false","","","","","","","","","","592.8000001907349","","61.200000047683716","","0","1","arrowleft","0","arrowleft","[0.675,0.325,0.85,0.15]","","",""
"sailing-trial","146","765916","0.0-11.0-105.0","","","","false","","","","","","","","","","null","","789.8999998569489","","2","0","null","null","arrowup","[0.675,0.325,0.85,0.15]","","",""
"sailing-trial","147","770389","0.0-11.0-106.0","","","","false","","","","","","","","","","515","","1051.7999999523163","","0","1","arrowleft","0","arrowleft","[0.675,0.325,0.85,0.15]","","",""
"sailing-trial","148","772455","0.0-11.0-107.0","","","","false","","","","","","","","","","null","","974.8000001907349","","3","0","null","null","arrowup","[0.675,0.325,0.85,0.15]","","",""
"sailing-trial","149","776093","0.0-11.0-108.0","","","","false","","","","","","","","","","500.39999985694885","","499.2000000476837","","0","1","arrowleft","0","arrowleft","[0.675,0.325,0.85,0.15]","","",""
"sailing-trial","150","779584","0.0-11.0-109.0","","","","false","","","","","","","","","","null","","729.2000000476837","","2","1","null","null","arrowup","[0.675,0.325,0.85,0.15]","","",""
"sailing-trial","151","783802","0.0-11.0-110.0","","","","false","","","","","","","","","","468","","1140.4000000953674","","2","1","arrowright","1","arrowleft","[0.675,0.325,0.85,0.15]","","",""
"sailing-trial","152","787150","0.0-11.0-111.0","","","","false","","","","","","","","","","null","","897","","0","1","null","null","arrowup","[0.675,0.325,0.85,0.15]","","",""
"sailing-trial","153","792083","0.0-11.0-112.0","","","","false","","","","","","","","","","511.2999999523163","","386.60000014305115","","0","0","arrowleft","0","arrowleft","[0.675,0.325,0.85,0.15]","","",""
"sailing-trial","154","794516","0.0-11.0-113.0","","","","false","","","","","","","","","","null","","1189.5","","3","0","null","null","arrowup","[0.675,0.325,0.85,0.15]","","",""
"sailing-trial","155","798543","0.0-11.0-114.0","","","","false","","","","","","","","","","466.90000009536743","","526.2999999523163","","2","1","arrowright","1","arrowleft","[0.675,0.325,0.85,0.15]","","",""
"sailing-trial","156","800486","0.0-11.0-115.0","","","","false","","","","","","","","","","null","","891.9000000953674","","1","0","null","null","arrowup","[0.675,0.325,0.85,0.15]","","",""
"sailing-trial","157","804112","0.0-11.0-116.0","","","","false","","","","","","","","","","780.5999999046326","","191.90000009536743","","2","1","arrowright","1","arrowleft","[0.675,0.325,0.85,0.15]","","",""
"sailing-trial","158","807331","0.0-11.0-117.0","","","","false","","","","","","","","","","null","","891.1000001430511","","2","1","null","null","arrowup","[0.675,0.325,0.85,0.15]","","",""
"sailing-trial","159","810650","0.0-11.0-118.0","","","","false","","","","","","","","","","493.89999985694885","","80.90000009536743","","2","1","arrowright","1","arrowleft","[0.675,0.325,0.85,0.15]","","",""
"sailing-trial","160","812517","0.0-11.0-119.0","","","","false","","","","","","","","","","null","","842.1000001430511","","0","0","null","null","arrowup","[0.675,0.325,0.85,0.15]","","",""
"sailing-trial","161","816467","0.0-11.0-120.0","","","","false","","","","","","","","","","617","","754.2999999523163","","2","1","arrowright","1","arrowleft","[0.15,0.85,0.325,0.675]","","",""
"sailing-trial","162","818983","0.0-11.0-121.0","","","","false","","","","","","","","","","null","","935.2999999523163","","3","1","null","null","arrowup","[0.15,0.85,0.325,0.675]","","",""
"sailing-trial","163","824227","0.0-11.0-122.0","","","","false","","","","","","","","","","575.3000001907349","","648.5","","2","0","arrowright","1","arrowleft","[0.15,0.85,0.325,0.675]","","",""
"sailing-trial","164","827754","0.0-11.0-123.0","","","","false","","","","","","","","","","null","","958.9000000953674","","3","0","null","null","arrowup","[0.15,0.85,0.325,0.675]","","",""
"sailing-trial","165","831733","0.0-11.0-124.0","","","","false","","","","","","","","","","548.7000000476837","","417.7999999523163","","2","1","arrowright","1","arrowleft","[0.15,0.85,0.325,0.675]","","",""
"sailing-trial","166","834646","0.0-11.0-125.0","","","","false","","","","","","","","","","null","","767.2999999523163","","3","0","null","null","arrowup","[0.15,0.85,0.325,0.675]","","",""
"sailing-trial","167","838102","0.0-11.0-126.0","","","","false","","","","","","","","","","500.89999985694885","","716.5","","2","0","arrowright","1","arrowleft","[0.15,0.85,0.325,0.675]","","",""
"sailing-trial","168","840522","0.0-11.0-127.0","","","","false","","","","","","","","","","null","","865.2000000476837","","2","1","null","null","arrowup","[0.15,0.85,0.325,0.675]","","",""
"sailing-trial","169","844492","0.0-11.0-128.0","","","","false","","","","","","","","","","450.10000014305115","","492.90000009536743","","2","1","arrowright","1","arrowleft","[0.15,0.85,0.325,0.675]","","",""
"sailing-trial","170","846319","0.0-11.0-129.0","","","","false","","","","","","","","","","null","","708","","0","0","null","null","arrowup","[0.15,0.85,0.325,0.675]","","",""
"sailing-trial","171","850778","0.0-11.0-130.0","","","","false","","","","","","","","","","521.5","","422.60000014305115","","2","1","arrowright","1","arrowleft","[0.15,0.85,0.325,0.675]","","",""
"sailing-trial","172","853339","0.0-11.0-131.0","","","","false","","","","","","","","","","null","","851.7999999523163","","3","1","null","null","arrowup","[0.15,0.85,0.325,0.675]","","",""
"sailing-trial","173","857733","0.0-11.0-132.0","","","","false","","","","","","","","","","504.40000009536743","","465.2999999523163","","2","0","arrowright","1","arrowleft","[0.15,0.85,0.325,0.675]","","",""
"sailing-trial","174","860211","0.0-11.0-133.0","","","","false","","","","","","","","","","null","","845.5","","3","1","null","null","arrowup","[0.15,0.85,0.325,0.675]","","",""
"sailing-trial","175","864110","0.0-11.0-134.0","","","","false","","","","","","","","","","956.2999999523163","","66.09999990463257","","2","0","arrowright","1","arrowleft","[0.15,0.85,0.325,0.675]","","",""
"sailing-trial","176","866150","0.0-11.0-135.0","","","","false","","","","","","","","","","null","","830","","3","0","null","null","arrowup","[0.15,0.85,0.325,0.675]","","",""
"sailing-trial","177","871014","0.0-11.0-136.0","","","","false","","","","","","","","","","864.9000000953674","","169.79999995231628","","0","0","arrowleft","0","arrowleft","[0.15,0.85,0.325,0.675]","","",""
"sailing-trial","178","873537","0.0-11.0-137.0","","","","false","","","","","","","","","","null","","888.5","","1","1","null","null","arrowup","[0.15,0.85,0.325,0.675]","","",""
"sailing-trial","179","877170","0.0-11.0-138.0","","","","false","","","","","","","","","","509.2000000476837","","478.2999999523163","","1","1","arrowleft","0","arrowright","[0.15,0.85,0.325,0.675]","","",""
"sailing-trial","180","880724","0.0-11.0-139.0","","","","false","","","","","","","","","","null","","889.2999999523163","","1","1","null","null","arrowup","[0.15,0.85,0.325,0.675]","","",""
"sailing-trial","181","884686","0.0-11.0-140.0","","","","false","","","","","","","","","","1116.6999998092651","","188.59999990463257","","1","1","arrowleft","0","arrowright","[0.325,0.675,0.15,0.85]","","",""
"sailing-trial","182","887759","0.0-11.0-141.0","","","","false","","","","","","","","","","null","","1524.8999998569489","","3","1","null","null","arrowup","[0.325,0.675,0.15,0.85]","","",""
"sailing-trial","183","891542","0.0-11.0-142.0","","","","false","","","","","","","","","","574.4000000953674","","488.10000014305115","","1","1","arrowleft","0","arrowright","[0.325,0.675,0.15,0.85]","","",""
"sailing-trial","184","893924","0.0-11.0-143.0","","","","false","","","","","","","","","","null","","774","","0","1","null","null","arrowup","[0.325,0.675,0.15,0.85]","","",""
"sailing-trial","185","897380","0.0-11.0-144.0","","","","false","","","","","","","","","","464.7000000476837","","414.2000000476837","","1","1","arrowleft","0","arrowright","[0.325,0.675,0.15,0.85]","","",""
"sailing-trial","186","899909","0.0-11.0-145.0","","","","false","","","","","","","","","","null","","960.3999998569489","","3","1","null","null","arrowup","[0.325,0.675,0.15,0.85]","","",""
"sailing-trial","187","902974","0.0-11.0-146.0","","","","false","","","","","","","","","","564.2999999523163","","342.39999985694885","","1","0","arrowleft","0","arrowright","[0.325,0.675,0.15,0.85]","","",""
"sailing-trial","188","905810","0.0-11.0-147.0","","","","false","","","","","","","","","","null","","1177.7000000476837","","1","1","null","null","arrowup","[0.325,0.675,0.15,0.85]","","",""
"sailing-trial","189","910168","0.0-11.0-148.0","","","","false","","","","","","","","","","1077.7000000476837","","671.8999998569489","","1","1","arrowleft","0","arrowright","[0.325,0.675,0.15,0.85]","","",""
"sailing-trial","190","912548","0.0-11.0-149.0","","","","false","","","","","","","","","","null","","802","","1","1","null","null","arrowup","[0.325,0.675,0.15,0.85]","","",""
"sailing-trial","191","917766","0.0-11.0-150.0","","","","false","","","","","","","","","","486.7000000476837","","722","","1","1","arrowleft","0","arrowright","[0.325,0.675,0.15,0.85]","","",""
"sailing-trial","192","919888","0.0-11.0-151.0","","","","false","","","","","","","","","","null","","1058.2000000476837","","2","0","null","null","arrowup","[0.325,0.675,0.15,0.85]","","",""
"sailing-trial","193","923604","0.0-11.0-152.0","","","","false","","","","","","","","","","655.3999998569489","","349.5","","1","1","arrowleft","0","arrowright","[0.325,0.675,0.15,0.85]","","",""
"sailing-trial","194","925519","0.0-11.0-153.0","","","","false","","","","","","","","","","null","","849.6000001430511","","2","0","null","null","arrowup","[0.325,0.675,0.15,0.85]","","",""
"sailing-trial","195","928886","0.0-11.0-154.0","","","","false","","","","","","","","","","718","","103.09999990463257","","1","1","arrowleft","0","arrowright","[0.325,0.675,0.15,0.85]","","",""
"sailing-trial","196","932310","0.0-11.0-155.0","","","","false","","","","","","","","","","null","","803.1000001430511","","3","1","null","null","arrowup","[0.325,0.675,0.15,0.85]","","",""
"sailing-trial","197","934867","0.0-11.0-156.0","","","","false","","","","","","","","","","471.5","","3","","3","0","arrowright","1","arrowright","[0.325,0.675,0.15,0.85]","","",""
"sailing-trial","198","938095","0.0-11.0-157.0","","","","false","","","","","","","","","","null","","959.6000001430511","","2","1","null","null","arrowup","[0.325,0.675,0.15,0.85]","","",""
"sailing-trial","199","942343","0.0-11.0-158.0","","","","false","","","","","","","","","","418.39999985694885","","471.2000000476837","","2","1","arrowright","1","arrowleft","[0.675,0.325,0.85,0.15]","","",""
"sailing-trial","200","945768","0.0-11.0-159.0","","","","false","","","","","","","","","","null","","902.2000000476837","","1","0","null","null","arrowup","[0.675,0.325,0.85,0.15]","","",""
"sailing-trial","201","949210","0.0-11.0-160.0","","","","false","","","","","","","","","","507.2999999523163","","363","","2","1","arrowright","1","arrowleft","[0.675,0.325,0.85,0.15]","","",""
"sailing-trial","202","952006","0.0-11.0-161.0","","","","false","","","","","","","","","","null","","824.9000000953674","","1","0","null","null","arrowup","[0.675,0.325,0.85,0.15]","","",""
"sailing-trial","203","956396","0.0-11.0-162.0","","","","false","","","","","","","","","","569.7999999523163","","476.40000009536743","","2","1","arrowright","1","arrowleft","[0.675,0.325,0.85,0.15]","","",""
"sailing-trial","204","958429","0.0-11.0-163.0","","","","false","","","","","","","","","","null","","847.1999998092651","","2","0","null","null","arrowup","[0.675,0.325,0.85,0.15]","","",""
"sailing-trial","205","961639","0.0-11.0-164.0","","","","false","","","","","","","","","","479.7000000476837","","37.700000047683716","","2","1","arrowright","1","arrowleft","[0.675,0.325,0.85,0.15]","","",""
"sailing-trial","206","963696","0.0-11.0-165.0","","","","false","","","","","","","","","","null","","913.5999999046326","","2","0","null","null","arrowup","[0.675,0.325,0.85,0.15]","","",""
"sailing-trial","207","967552","0.0-11.0-166.0","","","","false","","","","","","","","","","391.40000009536743","","340.59999990463257","","2","1","arrowright","1","arrowleft","[0.675,0.325,0.85,0.15]","","",""
"sailing-trial","208","971740","0.0-11.0-167.0","","","","false","","","","","","","","","","null","","1370.0999999046326","","1","0","null","null","arrowup","[0.675,0.325,0.85,0.15]","","",""
"sailing-trial","209","974301","0.0-11.0-168.0","","","","false","","","","","","","","","","441.5","","85.5","","3","0","arrowright","1","arrowright","[0.675,0.325,0.85,0.15]","","",""
"sailing-trial","210","976228","0.0-11.0-169.0","","","","false","","","","","","","","","","null","","876","","1","0","null","null","arrowup","[0.675,0.325,0.85,0.15]","","",""
"sailing-trial","211","980538","0.0-11.0-170.0","","","","false","","","","","","","","","","678.4000000953674","","414.19999980926514","","0","1","arrowleft","0","arrowleft","[0.675,0.325,0.85,0.15]","","",""
"sailing-trial","212","982416","0.0-11.0-171.0","","","","false","","","","","","","","","","null","","853.5999999046326","","3","0","null","null","arrowup","[0.675,0.325,0.85,0.15]","","",""
"sailing-trial","213","985807","0.0-11.0-172.0","","","","false","","","","","","","","","","461.90000009536743","","424.60000014305115","","0","1","arrowleft","0","arrowleft","[0.675,0.325,0.85,0.15]","","",""
"sailing-trial","214","988149","0.0-11.0-173.0","","","","false","","","","","","","","","","null","","781","","1","1","null","null","arrowup","[0.675,0.325,0.85,0.15]","","",""
"sailing-trial","215","991007","0.0-11.0-174.0","","","","false","","","","","","","","","","85.5","","509.60000014305115","","0","0","arrowleft","0","arrowleft","[0.675,0.325,0.85,0.15]","","",""
"sailing-trial","216","992870","0.0-11.0-175.0","","","","false","","","","","","","","","","null","","819.2000000476837","","1","0","null","null","arrowup","[0.675,0.325,0.85,0.15]","","",""
"sailing-trial","217","996901","0.0-11.0-176.0","","","","false","","","","","","","","","","474.5","","448.09999990463257","","0","1","arrowleft","0","arrowleft","[0.85,0.15,0.675,0.325]","","",""
"sailing-trial","218","998772","0.0-11.0-177.0","","","","false","","","","","","","","","","null","","845.8999998569489","","2","0","null","null","arrowup","[0.85,0.15,0.675,0.325]","","",""
"sailing-trial","219","1003201","0.0-11.0-178.0","","","","false","","","","","","","","","","740.6000001430511","","439.5","","0","1","arrowleft","0","arrowleft","[0.85,0.15,0.675,0.325]","","",""
"sailing-trial","220","1006026","0.0-11.0-179.0","","","","false","","","","","","","","","","null","","916.4000000953674","","1","0","null","null","arrowup","[0.85,0.15,0.675,0.325]","","",""
"sailing-trial","221","1009216","0.0-11.0-180.0","","","","false","","","","","","","","","","734.9000000953674","","422.5","","2","0","arrowright","1","arrowleft","[0.85,0.15,0.675,0.325]","","",""
"sailing-trial","222","1011915","0.0-11.0-181.0","","","","false","","","","","","","","","","null","","866.7999999523163","","3","0","null","null","arrowup","[0.85,0.15,0.675,0.325]","","",""
"sailing-trial","223","1015157","0.0-11.0-182.0","","","","false","","","","","","","","","","404.2000000476837","","168.59999990463257","","0","1","arrowleft","0","arrowleft","[0.85,0.15,0.675,0.325]","","",""
"sailing-trial","224","1020290","0.0-11.0-183.0","","","","false","","","","","","","","","","null","","3573.5999999046326","","0","1","null","null","arrowup","[0.85,0.15,0.675,0.325]","","",""
"sailing-trial","225","1023591","0.0-11.0-184.0","","","","false","","","","","","","","","","511.2999999523163","","104.70000004768372","","0","1","arrowleft","0","arrowleft","[0.85,0.15,0.675,0.325]","","",""
"sailing-trial","226","1025402","0.0-11.0-185.0","","","","false","","","","","","","","","","null","","762.0999999046326","","1","0","null","null","arrowup","[0.85,0.15,0.675,0.325]","","",""
"sailing-trial","227","1028933","0.0-11.0-186.0","","","","false","","","","","","","","","","454.5","","457.90000009536743","","0","1","arrowleft","0","arrowleft","[0.85,0.15,0.675,0.325]","","",""
"sailing-trial","228","1031915","0.0-11.0-187.0","","","","false","","","","","","","","","","null","","808.5","","2","0","null","null","arrowup","[0.85,0.15,0.675,0.325]","","",""
"sailing-trial","229","1035454","0.0-11.0-188.0","","","","false","","","","","","","","","","498.7000000476837","","459.2999999523163","","0","1","arrowleft","0","arrowleft","[0.85,0.15,0.675,0.325]","","",""
"sailing-trial","230","1038985","0.0-11.0-189.0","","","","false","","","","","","","","","","null","","844.5","","1","0","null","null","arrowup","[0.85,0.15,0.675,0.325]","","",""
"sailing-trial","231","1042482","0.0-11.0-190.0","","","","false","","","","","","","","","","558.2000000476837","","316.40000009536743","","0","1","arrowleft","0","arrowleft","[0.85,0.15,0.675,0.325]","","",""
"sailing-trial","232","1044731","0.0-11.0-191.0","","","","false","","","","","","","","","","null","","1133.3999998569489","","0","0","null","null","arrowup","[0.85,0.15,0.675,0.325]","","",""
"sailing-trial","233","1048177","0.0-11.0-192.0","","","","false","","","","","","","","","","584","","272.10000014305115","","0","1","arrowleft","0","arrowleft","[0.85,0.15,0.675,0.325]","","",""
"sailing-trial","234","1050606","0.0-11.0-193.0","","","","false","","","","","","","","","","null","","783","","1","0","null","null","arrowup","[0.85,0.15,0.675,0.325]","","",""
"sailing-trial","235","1053917","0.0-11.0-194.0","","","","false","","","","","","","","","","506.90000009536743","","255.29999995231628","","0","1","arrowleft","0","arrowleft","[0.85,0.15,0.675,0.325]","","",""
"sailing-trial","236","1055722","0.0-11.0-195.0","","","","false","","","","","","","","","","null","","756","","1","0","null","null","arrowup","[0.85,0.15,0.675,0.325]","","",""
"sailing-trial","237","1059118","0.0-11.0-196.0","","","","false","","","","","","","","","","518.5","","343.7000000476837","","0","1","arrowleft","0","arrowleft","[0.675,0.325,0.85,0.15]","","",""
"sailing-trial","238","1063112","0.0-11.0-197.0","","","","false","","","","","","","","","","null","","2369.7999999523163","","0","1","null","null","arrowup","[0.675,0.325,0.85,0.15]","","",""
"sailing-trial","239","1067066","0.0-11.0-198.0","","","","false","","","","","","","","","","709.5","","273","","0","1","arrowleft","0","arrowleft","[0.675,0.325,0.85,0.15]","","",""
"sailing-trial","240","1069630","0.0-11.0-199.0","","","","false","","","","","","","","","","null","","1460.2999999523163","","3","0","null","null","arrowup","[0.675,0.325,0.85,0.15]","","",""
"sailing-trial","241","1073051","0.0-11.0-200.0","","","","false","","","","","","","","","","596.2999999523163","","202.79999995231628","","0","1","arrowleft","0","arrowleft","[0.675,0.325,0.85,0.15]","","",""
"sailing-trial","242","1077289","0.0-11.0-201.0","","","","false","","","","","","","","","","null","","2554","","0","1","null","null","arrowup","[0.675,0.325,0.85,0.15]","","",""
"sailing-trial","243","1081290","0.0-11.0-202.0","","","","false","","","","","","","","","","600.1999998092651","","106.70000004768372","","0","1","arrowleft","0","arrowleft","[0.675,0.325,0.85,0.15]","","",""
"sailing-trial","244","1083654","0.0-11.0-203.0","","","","false","","","","","","","","","","null","","848.5","","0","1","null","null","arrowup","[0.675,0.325,0.85,0.15]","","",""
"sailing-trial","245","1087048","0.0-11.0-204.0","","","","false","","","","","","","","","","567.2999999523163","","295.60000014305115","","0","1","arrowleft","0","arrowleft","[0.675,0.325,0.85,0.15]","","",""
"sailing-trial","246","1090003","0.0-11.0-205.0","","","","false","","","","","","","","","","null","","1314.5999999046326","","2","1","null","null","arrowup","[0.675,0.325,0.85,0.15]","","",""
"sailing-trial","247","1093551","0.0-11.0-206.0","","","","false","","","","","","","","","","485.09999990463257","","500.59999990463257","","0","1","arrowleft","0","arrowleft","[0.675,0.325,0.85,0.15]","","",""
"sailing-trial","248","1096071","0.0-11.0-207.0","","","","false","","","","","","","","","","null","","958.0999999046326","","0","1","null","null","arrowup","[0.675,0.325,0.85,0.15]","","",""
"sailing-trial","249","1098737","0.0-11.0-208.0","","","","false","","","","","","","","","","566.7000000476837","","45.5","","0","0","arrowleft","0","arrowleft","[0.675,0.325,0.85,0.15]","","",""
"sailing-trial","250","1101640","0.0-11.0-209.0","","","","false","","","","","","","","","","null","","1338.7000000476837","","0","1","null","null","arrowup","[0.675,0.325,0.85,0.15]","","",""
"sailing-trial","251","1104877","0.0-11.0-210.0","","","","false","","","","","","","","","","360.59999990463257","","839.4000000953674","","0","0","arrowleft","0","arrowleft","[0.675,0.325,0.85,0.15]","","",""
"sailing-trial","252","1107987","0.0-11.0-211.0","","","","false","","","","","","","","","","null","","1171.7000000476837","","0","0","null","null","arrowup","[0.675,0.325,0.85,0.15]","","",""
"sailing-trial","253","1112901","0.0-11.0-212.0","","","","false","","","","","","","","","","1197.2999999523163","","511.2999999523163","","1","1","arrowleft","0","arrowright","[0.675,0.325,0.85,0.15]","","",""
"sailing-trial","254","1115943","0.0-11.0-213.0","","","","false","","","","","","","","","","null","","818.6000001430511","","0","1","null","null","arrowup","[0.675,0.325,0.85,0.15]","","",""
"sailing-trial","255","1119509","0.0-11.0-214.0","","","","false","","","","","","","","","","135.40000009536743","","223.79999995231628","","0","1","arrowleft","0","arrowleft","[0.85,0.15,0.675,0.325]","","",""
"sailing-trial","256","1121791","0.0-11.0-215.0","","","","false","","","","","","","","","","null","","787.5","","0","1","null","null","arrowup","[0.85,0.15,0.675,0.325]","","",""
"sailing-trial","257","1124884","0.0-11.0-216.0","","","","false","","","","","","","","","","333.09999990463257","","97.09999990463257","","0","1","arrowleft","0","arrowleft","[0.85,0.15,0.675,0.325]","","",""
"sailing-trial","258","1127411","0.0-11.0-217.0","","","","false","","","","","","","","","","null","","934","","0","1","null","null","arrowup","[0.85,0.15,0.675,0.325]","","",""
"sailing-trial","259","1130845","0.0-11.0-218.0","","","","false","","","","","","","","","","439.40000009536743","","457","","0","1","arrowleft","0","arrowleft","[0.85,0.15,0.675,0.325]","","",""
"sailing-trial","260","1133629","0.0-11.0-219.0","","","","false","","","","","","","","","","null","","942","","3","1","null","null","arrowup","[0.85,0.15,0.675,0.325]","","",""
"sailing-trial","261","1136461","0.0-11.0-220.0","","","","false","","","","","","","","","","544.3000001907349","","160.5","","3","0","arrowright","1","arrowright","[0.85,0.15,0.675,0.325]","","",""
"sailing-trial","262","1139423","0.0-11.0-221.0","","","","false","","","","","","","","","","null","","834.0999999046326","","2","1","null","null","arrowup","[0.85,0.15,0.675,0.325]","","",""
"sailing-trial","263","1142216","0.0-11.0-222.0","","","","false","","","","","","","","","","463.5","","286.30000019073486","","2","0","arrowright","1","arrowleft","[0.85,0.15,0.675,0.325]","","",""
"sailing-trial","264","1144109","0.0-11.0-223.0","","","","false","","","","","","","","","","null","","773.7999999523163","","2","0","null","null","arrowup","[0.85,0.15,0.675,0.325]","","",""
"sailing-trial","265","1147635","0.0-11.0-224.0","","","","false","","","","","","","","","","441.7999999523163","","541.2000000476837","","0","1","arrowleft","0","arrowleft","[0.85,0.15,0.675,0.325]","","",""
"sailing-trial","266","1149749","0.0-11.0-225.0","","","","false","","","","","","","","","","null","","719.5999999046326","","1","0","null","null","arrowup","[0.85,0.15,0.675,0.325]","","",""
"sailing-trial","267","1153808","0.0-11.0-226.0","","","","false","","","","","","","","","","502.90000009536743","","576.7999999523163","","0","1","arrowleft","0","arrowleft","[0.85,0.15,0.675,0.325]","","",""
"sailing-trial","268","1156102","0.0-11.0-227.0","","","","false","","","","","","","","","","null","","711.7000000476837","","2","1","null","null","arrowup","[0.85,0.15,0.675,0.325]","","",""
"sailing-trial","269","1160124","0.0-11.0-228.0","","","","false","","","","","","","","","","462.09999990463257","","518.6000001430511","","0","1","arrowleft","0","arrowleft","[0.85,0.15,0.675,0.325]","","",""
"sailing-trial","270","1161979","0.0-11.0-229.0","","","","false","","","","","","","","","","null","","778.8999998569489","","3","0","null","null","arrowup","[0.85,0.15,0.675,0.325]","","",""
"sailing-trial","271","1166215","0.0-11.0-230.0","","","","false","","","","","","","","","","617.8999998569489","","484.69999980926514","","0","1","arrowleft","0","arrowleft","[0.675,0.325,0.85,0.15]","","",""
"sailing-trial","272","1169240","0.0-11.0-231.0","","","","false","","","","","","","","","","null","","909.2000000476837","","1","0","null","null","arrowup","[0.675,0.325,0.85,0.15]","","",""
"sailing-trial","273","1172794","0.0-11.0-232.0","","","","false","","","","","","","","","","536.6000001430511","","211.79999995231628","","0","1","arrowleft","0","arrowleft","[0.675,0.325,0.85,0.15]","","",""
"sailing-trial","274","1175364","0.0-11.0-233.0","","","","false","","","","","","","","","","null","","839.8999998569489","","2","1","null","null","arrowup","[0.675,0.325,0.85,0.15]","","",""
"sailing-trial","275","1180830","0.0-11.0-234.0","","","","false","","","","","","","","","","1109.8999998569489","","311.09999990463257","","0","1","arrowleft","0","arrowleft","[0.675,0.325,0.85,0.15]","","",""
"sailing-trial","276","1182828","0.0-11.0-235.0","","","","false","","","","","","","","","","null","","845","","3","0","null","null","arrowup","[0.675,0.325,0.85,0.15]","","",""
"sailing-trial","277","1186943","0.0-11.0-236.0","","","","false","","","","","","","","","","1901.6999998092651","","35.5","","0","0","arrowleft","0","arrowleft","[0.675,0.325,0.85,0.15]","","",""
"sailing-trial","278","1189037","0.0-11.0-237.0","","","","false","","","","","","","","","","null","","971.7000000476837","","3","0","null","null","arrowup","[0.675,0.325,0.85,0.15]","","",""
"sailing-trial","279","1192390","0.0-11.0-238.0","","","","false","","","","","","","","","","600.5","","32.700000047683716","","0","1","arrowleft","0","arrowleft","[0.675,0.325,0.85,0.15]","","",""
"sailing-trial","280","1194983","0.0-11.0-239.0","","","","false","","","","","","","","","","null","","977.5999999046326","","2","1","null","null","arrowup","[0.675,0.325,0.85,0.15]","","",""
"sailing-trial","281","1199026","0.0-11.0-240.0","","","","false","","","","","","","","","","1199.2999999523163","","490.10000014305115","","0","0","arrowleft","0","arrowleft","[0.675,0.325,0.85,0.15]","","",""
"sailing-trial","282","1201399","0.0-11.0-241.0","","","","false","","","","","","","","","","null","","796.1000001430511","","2","1","null","null","arrowup","[0.675,0.325,0.85,0.15]","","",""
"sailing-trial","283","1206447","0.0-11.0-242.0","","","","false","","","","","","","","","","1140","","281.2000000476837","","1","1","arrowleft","0","arrowright","[0.675,0.325,0.85,0.15]","","",""
"sailing-trial","284","1208429","0.0-11.0-243.0","","","","false","","","","","","","","","","null","","746","","3","0","null","null","arrowup","[0.675,0.325,0.85,0.15]","","",""
"sailing-trial","285","1211403","0.0-11.0-244.0","","","","false","","","","","","","","","","459.89999985694885","","405.5","","1","0","arrowleft","0","arrowright","[0.675,0.325,0.85,0.15]","","",""
"sailing-trial","286","1214583","0.0-11.0-245.0","","","","false","","","","","","","","","","null","","827.3999998569489","","3","1","null","null","arrowup","[0.675,0.325,0.85,0.15]","","",""
"sailing-trial","287","1218487","0.0-11.0-246.0","","","","false","","","","","","","","","","192.59999990463257","","27.200000047683716","","3","0","arrowright","1","arrowright","[0.675,0.325,0.85,0.15]","","",""
"sailing-trial","288","1220362","0.0-11.0-247.0","","","","false","","","","","","","","","","null","","722.7999999523163","","1","0","null","null","arrowup","[0.675,0.325,0.85,0.15]","","",""
"sailing-trial","289","1223951","0.0-11.0-248.0","","","","false","","","","","","","","","","751.7000000476837","","244.09999990463257","","0","0","arrowleft","0","arrowleft","[0.675,0.325,0.85,0.15]","","",""
"sailing-trial","290","1226781","0.0-11.0-249.0","","","","false","","","","","","","","","","null","","820.8999998569489","","1","1","null","null","arrowup","[0.675,0.325,0.85,0.15]","","",""
"sailing-trial","291","1230549","0.0-11.0-250.0","","","","false","","","","","","","","","","535","","265.19999980926514","","2","1","arrowright","1","arrowleft","[0.675,0.325,0.85,0.15]","","",""
"sailing-trial","292","1232896","0.0-11.0-251.0","","","","false","","","","","","","","","","null","","779.8000001907349","","3","1","null","null","arrowup","[0.675,0.325,0.85,0.15]","","",""
"sailing-trial","293","1235974","0.0-11.0-252.0","","","","false","","","","","","","","","","459.2000000476837","","39.90000009536743","","2","1","arrowright","1","arrowleft","[0.675,0.325,0.85,0.15]","","",""
"sailing-trial","294","1237632","0.0-11.0-253.0","","","","false","","","","","","","","","","null","","626.4000000953674","","0","0","null","null","arrowup","[0.675,0.325,0.85,0.15]","","",""
"sailing-trial","295","1241489","0.0-11.0-254.0","","","","false","","","","","","","","","","452.5","","48.5","","2","1","arrowright","1","arrowleft","[0.85,0.15,0.675,0.325]","","",""
"sailing-trial","296","1244271","0.0-11.0-255.0","","","","false","","","","","","","","","","null","","731","","2","1","null","null","arrowup","[0.85,0.15,0.675,0.325]","","",""
"sailing-trial","297","1248279","0.0-11.0-256.0","","","","false","","","","","","","","","","586","","493.59999990463257","","2","0","arrowright","1","arrowleft","[0.85,0.15,0.675,0.325]","","",""
"sailing-trial","298","1251278","0.0-11.0-257.0","","","","false","","","","","","","","","","null","","1054.5999999046326","","0","1","null","null","arrowup","[0.85,0.15,0.675,0.325]","","",""
"sailing-trial","299","1255973","0.0-11.0-258.0","","","","false","","","","","","","","","","1454.7000000476837","","452","","2","1","arrowright","1","arrowleft","[0.85,0.15,0.675,0.325]","","",""
"sailing-trial","300","1259144","0.0-11.0-259.0","","","","false","","","","","","","","","","null","","1116.2000000476837","","2","1","null","null","arrowup","[0.85,0.15,0.675,0.325]","","",""
"sailing-trial","301","1263384","0.0-11.0-260.0","","","","false","","","","","","","","","","1036.8999998569489","","250.5","","2","1","arrowright","1","arrowleft","[0.85,0.15,0.675,0.325]","","",""
"sailing-trial","302","1266762","0.0-11.0-261.0","","","","false","","","","","","","","","","null","","1801.2000000476837","","3","1","null","null","arrowup","[0.85,0.15,0.675,0.325]","","",""
"sailing-trial","303","1270969","0.0-11.0-262.0","","","","false","","","","","","","","","","1769.8999998569489","","330.69999980926514","","3","0","arrowright","1","arrowright","[0.85,0.15,0.675,0.325]","","",""
"sailing-trial","304","1273321","0.0-11.0-263.0","","","","false","","","","","","","","","","null","","800.5999999046326","","0","1","null","null","arrowup","[0.85,0.15,0.675,0.325]","","",""
"sailing-trial","305","1277607","0.0-11.0-264.0","","","","false","","","","","","","","","","711.5","","743.5999999046326","","1","0","arrowleft","0","arrowright","[0.85,0.15,0.675,0.325]","","",""
"sailing-trial","306","1279381","0.0-11.0-265.0","","","","false","","","","","","","","","","null","","756.0999999046326","","3","0","null","null","arrowup","[0.85,0.15,0.675,0.325]","","",""
"sailing-trial","307","1283061","0.0-11.0-266.0","","","","false","","","","","","","","","","682.2999999523163","","766.4000000953674","","2","0","arrowright","1","arrowleft","[0.85,0.15,0.675,0.325]","","",""
"sailing-trial","308","1285067","0.0-11.0-267.0","","","","false","","","","","","","","","","null","","988.7000000476837","","1","0","null","null","arrowup","[0.85,0.15,0.675,0.325]","","",""
"sailing-trial","309","1289238","0.0-11.0-268.0","","","","false","","","","","","","","","","688.2999999523163","","407.39999985694885","","2","1","arrowright","1","arrowleft","[0.85,0.15,0.675,0.325]","","",""
"sailing-trial","310","1292949","0.0-11.0-269.0","","","","false","","","","","","","","","","null","","735","","1","0","null","null","arrowup","[0.85,0.15,0.675,0.325]","","",""
"sailing-trial","311","1298160","0.0-11.0-270.0","","","","false","","","","","","","","","","582.4000000953674","","5.1000001430511475","","2","1","arrowright","1","arrowleft","[0.85,0.15,0.675,0.325]","","",""
"sailing-trial","312","1302159","0.0-11.0-271.0","","","","false","","","","","","","","","","null","","1699.9000000953674","","2","1","null","null","arrowup","[0.85,0.15,0.675,0.325]","","",""
"sailing-trial","313","1308449","0.0-11.0-272.0","","","","false","","","","","","","","","","1987.1999998092651","","328.7000000476837","","0","0","arrowleft","0","arrowleft","[0.85,0.15,0.675,0.325]","","",""
"sailing-trial","314","1311195","0.0-11.0-273.0","","","","false","","","","","","","","","","null","","869.0999999046326","","2","1","null","null","arrowup","[0.85,0.15,0.675,0.325]","","",""
"sailing-trial","315","1315033","0.0-11.0-274.0","","","","false","","","","","","","","","","748","","340","","2","1","arrowright","1","arrowleft","[0.675,0.325,0.85,0.15]","","",""
"sailing-trial","316","1318453","0.0-11.0-275.0","","","","false","","","","","","","","","","null","","1732","","0","1","null","null","arrowup","[0.675,0.325,0.85,0.15]","","",""
"sailing-trial","317","1322272","0.0-11.0-276.0","","","","false","","","","","","","","","","697.4000000953674","","347.5","","1","1","arrowleft","0","arrowright","[0.675,0.325,0.85,0.15]","","",""
"sailing-trial","318","1324540","0.0-11.0-277.0","","","","false","","","","","","","","","","null","","684.2999999523163","","2","1","null","null","arrowup","[0.675,0.325,0.85,0.15]","","",""
"sailing-trial","319","1327785","0.0-11.0-278.0","","","","false","","","","","","","","","","368.19999980926514","","147","","2","1","arrowright","1","arrowleft","[0.675,0.325,0.85,0.15]","","",""
"sailing-trial","320","1331785","0.0-11.0-279.0","","","","false","","","","","","","","","","null","","1870.2000000476837","","2","0","null","null","arrowup","[0.675,0.325,0.85,0.15]","","",""
"sailing-trial","321","1334685","0.0-11.0-280.0","","","","false","","","","","","","","","","430.5","","326.89999985694885","","2","0","arrowright","1","arrowleft","[0.675,0.325,0.85,0.15]","","",""
"sailing-trial","322","1337709","0.0-11.0-281.0","","","","false","","","","","","","","","","null","","802.0999999046326","","2","1","null","null","arrowup","[0.675,0.325,0.85,0.15]","","",""
"sailing-trial","323","1340773","0.0-11.0-282.0","","","","false","","","","","","","","","","370.09999990463257","","45.30000019073486","","2","1","arrowright","1","arrowleft","[0.675,0.325,0.85,0.15]","","",""
"sailing-trial","324","1343777","0.0-11.0-283.0","","","","false","","","","","","","","","","null","","774","","3","1","null","null","arrowup","[0.675,0.325,0.85,0.15]","","",""
"sailing-trial","325","1347578","0.0-11.0-284.0","","","","false","","","","","","","","","","487.7999999523163","","12.5","","2","1","arrowright","1","arrowleft","[0.675,0.325,0.85,0.15]","","",""
"sailing-trial","326","1351447","0.0-11.0-285.0","","","","false","","","","","","","","","","null","","2078.2000000476837","","2","1","null","null","arrowup","[0.675,0.325,0.85,0.15]","","",""
"sailing-trial","327","1356834","0.0-11.0-286.0","","","","false","","","","","","","","","","878.5","","243.5","","2","1","arrowright","1","arrowleft","[0.675,0.325,0.85,0.15]","","",""
"sailing-trial","328","1358828","0.0-11.0-287.0","","","","false","","","","","","","","","","null","","824.1999998092651","","0","0","null","null","arrowup","[0.675,0.325,0.85,0.15]","","",""
"sailing-trial","329","1363115","0.0-11.0-288.0","","","","false","","","","","","","","","","1893.5","","215.89999985694885","","2","0","arrowright","1","arrowleft","[0.675,0.325,0.85,0.15]","","",""
"sailing-trial","330","1366444","0.0-11.0-289.0","","","","false","","","","","","","","","","null","","2138.7999999523163","","1","0","null","null","arrowup","[0.675,0.325,0.85,0.15]","","",""
"sailing-trial","331","1371219","0.0-11.0-290.0","","","","false","","","","","","","","","","2074.800000190735","","40.40000009536743","","2","0","arrowright","1","arrowleft","[0.85,0.15,0.675,0.325]","","",""
"sailing-trial","332","1373516","0.0-11.0-291.0","","","","false","","","","","","","","","","null","","1045","","0","0","null","null","arrowup","[0.85,0.15,0.675,0.325]","","",""
"sailing-trial","333","1377892","0.0-11.0-292.0","","","","false","","","","","","","","","","828.2999999523163","","9.900000095367432","","3","1","arrowright","1","arrowright","[0.85,0.15,0.675,0.325]","","",""
"sailing-trial","334","1381322","0.0-11.0-293.0","","","","false","","","","","","","","","","null","","1730.6000001430511","","0","1","null","null","arrowup","[0.85,0.15,0.675,0.325]","","",""
"sailing-trial","335","1384761","0.0-11.0-294.0","","","","false","","","","","","","","","","550.7999999523163","","251.40000009536743","","0","1","arrowleft","0","arrowleft","[0.85,0.15,0.675,0.325]","","",""
"sailing-trial","336","1388657","0.0-11.0-295.0","","","","false","","","","","","","","","","null","","1709.1999998092651","","1","1","null","null","arrowup","[0.85,0.15,0.675,0.325]","","",""
"sailing-trial","337","1392342","0.0-11.0-296.0","","","","false","","","","","","","","","","627.7999999523163","","73.09999990463257","","0","1","arrowleft","0","arrowleft","[0.85,0.15,0.675,0.325]","","",""
"sailing-trial","338","1397513","0.0-11.0-297.0","","","","false","","","","","","","","","","null","","3528.7999999523163","","3","1","null","null","arrowup","[0.85,0.15,0.675,0.325]","","",""
"sailing-trial","339","1400243","0.0-11.0-298.0","","","","false","","","","","","","","","","551.7999999523163","","59.90000009536743","","3","0","arrowright","1","arrowright","[0.85,0.15,0.675,0.325]","","",""
"sailing-trial","340","1404028","0.0-11.0-299.0","","","","false","","","","","","","","","","null","","2629.7999999523163","","1","0","null","null","arrowup","[0.85,0.15,0.675,0.325]","","",""
"sailing-trial","341","1407366","0.0-11.0-300.0","","","","false","","","","","","","","","","454.7000000476837","","173.09999990463257","","0","1","arrowleft","0","arrowleft","[0.85,0.15,0.675,0.325]","","",""
"sailing-trial","342","1412233","0.0-11.0-301.0","","","","false","","","","","","","","","","null","","3309.5","","3","1","null","null","arrowup","[0.85,0.15,0.675,0.325]","","",""
"sailing-trial","343","1417345","0.0-11.0-302.0","","","","false","","","","","","","","","","2605.300000190735","","476.10000014305115","","0","0","arrowleft","0","arrowleft","[0.85,0.15,0.675,0.325]","","",""
"sailing-trial","344","1419145","0.0-11.0-303.0","","","","false","","","","","","","","","","null","","761.0999999046326","","1","0","null","null","arrowup","[0.85,0.15,0.675,0.325]","","",""
"sailing-trial","345","1423111","0.0-11.0-304.0","","","","false","","","","","","","","","","511.80000019073486","","374.5","","3","1","arrowright","1","arrowright","[0.85,0.15,0.675,0.325]","","",""
"sailing-trial","346","1426070","0.0-11.0-305.0","","","","false","","","","","","","","","","null","","1332.9000000953674","","3","1","null","null","arrowup","[0.85,0.15,0.675,0.325]","","",""
"sailing-trial","347","1430840","0.0-11.0-306.0","","","","false","","","","","","","","","","2035.3000001907349","","91.40000009536743","","3","1","arrowright","1","arrowright","[0.15,0.85,0.325,0.675]","","",""
"sailing-trial","348","1435075","0.0-11.0-307.0","","","","false","","","","","","","","","","null","","2270.899999856949","","3","1","null","null","arrowup","[0.15,0.85,0.325,0.675]","","",""
"sailing-trial","349","1439629","0.0-11.0-308.0","","","","false","","","","","","","","","","468","","947.5","","3","1","arrowright","1","arrowright","[0.15,0.85,0.325,0.675]","","",""
"sailing-trial","350","1442346","0.0-11.0-309.0","","","","false","","","","","","","","","","null","","975.9000000953674","","1","1","null","null","arrowup","[0.15,0.85,0.325,0.675]","","",""
"sailing-trial","351","1445529","0.0-11.0-310.0","","","","false","","","","","","","","","","472.39999985694885","","65.59999990463257","","1","1","arrowleft","0","arrowright","[0.15,0.85,0.325,0.675]","","",""
"sailing-trial","352","1448441","0.0-11.0-311.0","","","","false","","","","","","","","","","null","","662.9000000953674","","1","1","null","null","arrowup","[0.15,0.85,0.325,0.675]","","",""
"sailing-trial","353","1452481","0.0-11.0-312.0","","","","false","","","","","","","","","","679.7999999523163","","55.80000019073486","","1","1","arrowleft","0","arrowright","[0.15,0.85,0.325,0.675]","","",""
"sailing-trial","354","1454687","0.0-11.0-313.0","","","","false","","","","","","","","","","null","","639","","1","1","null","null","arrowup","[0.15,0.85,0.325,0.675]","","",""
"sailing-trial","355","1458896","0.0-11.0-314.0","","","","false","","","","","","","","","","760.2999999523163","","740.0999999046326","","1","1","arrowleft","0","arrowright","[0.15,0.85,0.325,0.675]","","",""
"sailing-trial","356","1461660","0.0-11.0-315.0","","","","false","","","","","","","","","","null","","993.6999998092651","","1","1","null","null","arrowup","[0.15,0.85,0.325,0.675]","","",""
"sailing-trial","357","1465182","0.0-11.0-316.0","","","","false","","","","","","","","","","493.10000014305115","","329.10000014305115","","1","1","arrowleft","0","arrowright","[0.15,0.85,0.325,0.675]","","",""
"sailing-trial","358","1469261","0.0-11.0-317.0","","","","false","","","","","","","","","","null","","2854.7000000476837","","0","0","null","null","arrowup","[0.15,0.85,0.325,0.675]","","",""
"sailing-trial","359","1472981","0.0-11.0-318.0","","","","false","","","","","","","","","","639.9000000953674","","148.5","","2","1","arrowright","1","arrowleft","[0.15,0.85,0.325,0.675]","","",""
"sailing-trial","360","1475171","0.0-11.0-319.0","","","","false","","","","","","","","","","null","","670.1000001430511","","1","1","null","null","arrowup","[0.15,0.85,0.325,0.675]","","",""
"sailing-trial","361","1478502","0.0-11.0-320.0","","","","false","","","","","","","","","","290.2999999523163","","446.2999999523163","","1","1","arrowleft","0","arrowright","[0.15,0.85,0.325,0.675]","","",""
"sailing-trial","362","1483506","0.0-11.0-321.0","","","","false","","","","","","","","","","null","","2367.399999856949","","1","1","null","null","arrowup","[0.15,0.85,0.325,0.675]","","",""
"sailing-trial","363","1488046","0.0-11.0-322.0","","","","false","","","","","","","","","","1372.7999999523163","","181.80000019073486","","1","1","arrowleft","0","arrowright","[0.15,0.85,0.325,0.675]","","",""
"sailing-trial","364","1492798","0.0-11.0-323.0","","","","false","","","","","","","","","","null","","3434.0999999046326","","3","0","null","null","arrowup","[0.15,0.85,0.325,0.675]","","",""
"sailing-trial","365","1501225","0.0-11.0-324.0","","","","false","","","","","","","","","","4850.200000047684","","262.59999990463257","","1","1","arrowleft","0","arrowright","[0.325,0.675,0.15,0.85]","","",""
"sailing-trial","366","1504744","0.0-11.0-325.0","","","","false","","","","","","","","","","null","","1949.2999999523163","","0","1","null","null","arrowup","[0.325,0.675,0.15,0.85]","","",""
"sailing-trial","367","1509227","0.0-11.0-326.0","","","","false","","","","","","","","","","509.2999999523163","","620.7999999523163","","0","0","arrowleft","0","arrowleft","[0.325,0.675,0.15,0.85]","","",""
"sailing-trial","368","1511297","0.0-11.0-327.0","","","","false","","","","","","","","","","null","","790.7999999523163","","2","0","null","null","arrowup","[0.325,0.675,0.15,0.85]","","",""
"sailing-trial","369","1514887","0.0-11.0-328.0","","","","false","","","","","","","","","","567.8999998569489","","404.10000014305115","","1","1","arrowleft","0","arrowright","[0.325,0.675,0.15,0.85]","","",""
"sailing-trial","370","1517132","0.0-11.0-329.0","","","","false","","","","","","","","","","null","","726.2999999523163","","3","1","null","null","arrowup","[0.325,0.675,0.15,0.85]","","",""
"sailing-trial","371","1519891","0.0-11.0-330.0","","","","false","","","","","","","","","","479.7999999523163","","98","","3","0","arrowright","1","arrowright","[0.325,0.675,0.15,0.85]","","",""
"sailing-trial","372","1522756","0.0-11.0-331.0","","","","false","","","","","","","","","","null","","759","","2","1","null","null","arrowup","[0.325,0.675,0.15,0.85]","","",""
"sailing-trial","373","1525579","0.0-11.0-332.0","","","","false","","","","","","","","","","512.9000000953674","","291.60000014305115","","2","0","arrowright","1","arrowleft","[0.325,0.675,0.15,0.85]","","",""
"sailing-trial","374","1527900","0.0-11.0-333.0","","","","false","","","","","","","","","","null","","692.8999998569489","","3","0","null","null","arrowup","[0.325,0.675,0.15,0.85]","","",""
"sailing-trial","375","1531154","0.0-11.0-334.0","","","","false","","","","","","","","","","374.89999985694885","","335.60000014305115","","1","1","arrowleft","0","arrowright","[0.325,0.675,0.15,0.85]","","",""
"sailing-trial","376","1533638","0.0-11.0-335.0","","","","false","","","","","","","","","","null","","851.7000000476837","","0","1","null","null","arrowup","[0.325,0.675,0.15,0.85]","","",""
"sailing-trial","377","1536520","0.0-11.0-336.0","","","","false","","","","","","","","","","413.90000009536743","","380.40000009536743","","0","0","arrowleft","0","arrowleft","[0.325,0.675,0.15,0.85]","","",""
"sailing-trial","378","1538654","0.0-11.0-337.0","","","","false","","","","","","","","","","null","","753","","1","0","null","null","arrowup","[0.325,0.675,0.15,0.85]","","",""
"sailing-trial","379","1542591","0.0-11.0-338.0","","","","false","","","","","","","","","","457.90000009536743","","324.7000000476837","","1","1","arrowleft","0","arrowright","[0.325,0.675,0.15,0.85]","","",""
"sailing-trial","380","1545378","0.0-11.0-339.0","","","","false","","","","","","","","","","null","","810.7000000476837","","0","1","null","null","arrowup","[0.325,0.675,0.15,0.85]","","",""
"sailing-trial","381","1549247","0.0-11.0-340.0","","","","false","","","","","","","","","","401.10000014305115","","258.2999999523163","","0","1","arrowleft","0","arrowleft","[0.85,0.15,0.675,0.325]","","",""
"sailing-trial","382","1551215","0.0-11.0-341.0","","","","false","","","","","","","","","","null","","745.3999998569489","","2","0","null","null","arrowup","[0.85,0.15,0.675,0.325]","","",""
"sailing-trial","383","1554143","0.0-11.0-342.0","","","","false","","","","","","","","","","531.2999999523163","","228.5","","0","0","arrowleft","0","arrowleft","[0.85,0.15,0.675,0.325]","","",""
"sailing-trial","384","1556112","0.0-11.0-343.0","","","","false","","","","","","","","","","null","","687.5999999046326","","2","0","null","null","arrowup","[0.85,0.15,0.675,0.325]","","",""
"sailing-trial","385","1558995","0.0-11.0-344.0","","","","false","","","","","","","","","","533.0999999046326","","292.2999999523163","","1","0","arrowleft","0","arrowright","[0.85,0.15,0.675,0.325]","","",""
"sailing-trial","386","1560752","0.0-11.0-345.0","","","","false","","","","","","","","","","null","","732.9000000953674","","1","0","null","null","arrowup","[0.85,0.15,0.675,0.325]","","",""
"sailing-trial","387","1564404","0.0-11.0-346.0","","","","false","","","","","","","","","","534.7999999523163","","475.89999985694885","","0","1","arrowleft","0","arrowleft","[0.85,0.15,0.675,0.325]","","",""
"sailing-trial","388","1566568","0.0-11.0-347.0","","","","false","","","","","","","","","","null","","754.2000000476837","","3","0","null","null","arrowup","[0.85,0.15,0.675,0.325]","","",""
"sailing-trial","389","1569840","0.0-11.0-348.0","","","","false","","","","","","","","","","429.60000014305115","","287.09999990463257","","2","0","arrowright","1","arrowleft","[0.85,0.15,0.675,0.325]","","",""
"sailing-trial","390","1571942","0.0-11.0-349.0","","","","false","","","","","","","","","","null","","680.2999999523163","","1","0","null","null","arrowup","[0.85,0.15,0.675,0.325]","","",""
"sailing-trial","391","1574812","0.0-11.0-350.0","","","","false","","","","","","","","","","181.90000009536743","","86.30000019073486","","0","1","arrowleft","0","arrowleft","[0.85,0.15,0.675,0.325]","","",""
"sailing-trial","392","1577364","0.0-11.0-351.0","","","","false","","","","","","","","","","null","","656.9000000953674","","0","1","null","null","arrowup","[0.85,0.15,0.675,0.325]","","",""
"sailing-trial","393","1579798","0.0-11.0-352.0","","","","false","","","","","","","","","","19.299999952316284","","253.90000009536743","","0","0","arrowleft","0","arrowleft","[0.85,0.15,0.675,0.325]","","",""
"sailing-trial","394","1582248","0.0-11.0-353.0","","","","false","","","","","","","","","","null","","736.2000000476837","","2","1","null","null","arrowup","[0.85,0.15,0.675,0.325]","","",""
"sailing-trial","395","1585632","0.0-11.0-354.0","","","","false","","","","","","","","","","98","","648.2999999523163","","0","1","arrowleft","0","arrowleft","[0.85,0.15,0.675,0.325]","","",""
"sailing-trial","396","1587466","0.0-11.0-355.0","","","","false","","","","","","","","","","null","","662.5999999046326","","1","0","null","null","arrowup","[0.85,0.15,0.675,0.325]","","",""
"sailing-trial","397","1590226","0.0-11.0-356.0","","","","false","","","","","","","","","","282.89999985694885","","328.90000009536743","","0","0","arrowleft","0","arrowleft","[0.15,0.85,0.325,0.675]","","",""
"sailing-trial","398","1592690","0.0-11.0-357.0","","","","false","","","","","","","","","","null","","863.7000000476837","","0","1","null","null","arrowup","[0.15,0.85,0.325,0.675]","","",""
"sailing-trial","399","1595482","0.0-11.0-358.0","","","","false","","","","","","","","","","165.79999995231628","","564.7000000476837","","0","0","arrowleft","0","arrowleft","[0.15,0.85,0.325,0.675]","","",""
"sailing-trial","400","1597299","0.0-11.0-359.0","","","","false","","","","","","","","","","null","","759.8999998569489","","2","0","null","null","arrowup","[0.15,0.85,0.325,0.675]","","",""
"sailing-trial","401","1600154","0.0-11.0-360.0","","","","false","","","","","","","","","","647","","147.90000009536743","","3","0","arrowright","1","arrowright","[0.15,0.85,0.325,0.675]","","",""
"sailing-trial","402","1602396","0.0-11.0-361.0","","","","false","","","","","","","","","","null","","999.4000000953674","","0","0","null","null","arrowup","[0.15,0.85,0.325,0.675]","","",""
"sailing-trial","403","1605616","0.0-11.0-362.0","","","","false","","","","","","","","","","619.8000001907349","","476.90000009536743","","0","0","arrowleft","0","arrowleft","[0.15,0.85,0.325,0.675]","","",""
"sailing-trial","404","1608411","0.0-11.0-363.0","","","","false","","","","","","","","","","null","","737.6000001430511","","1","1","null","null","arrowup","[0.15,0.85,0.325,0.675]","","",""
"sailing-trial","405","1611486","0.0-11.0-364.0","","","","false","","","","","","","","","","918.1999998092651","","112.60000014305115","","2","0","arrowright","1","arrowleft","[0.15,0.85,0.325,0.675]","","",""
"sailing-trial","406","1613978","0.0-11.0-365.0","","","","false","","","","","","","","","","null","","878.5","","3","1","null","null","arrowup","[0.15,0.85,0.325,0.675]","","",""
"sailing-trial","407","1617182","0.0-11.0-366.0","","","","false","","","","","","","","","","551.7000000476837","","41.90000009536743","","3","1","arrowright","1","arrowright","[0.15,0.85,0.325,0.675]","","",""
"sailing-trial","408","1619477","0.0-11.0-367.0","","","","false","","","","","","","","","","null","","676.3000001907349","","3","1","null","null","arrowup","[0.15,0.85,0.325,0.675]","","",""
"sailing-trial","409","1622803","0.0-11.0-368.0","","","","false","","","","","","","","","","363.7999999523163","","294.59999990463257","","3","1","arrowright","1","arrowright","[0.15,0.85,0.325,0.675]","","",""
"sailing-trial","410","1624879","0.0-11.0-369.0","","","","false","","","","","","","","","","null","","887.7000000476837","","2","0","null","null","arrowup","[0.15,0.85,0.325,0.675]","","",""
"sailing-trial","411","1628555","0.0-11.0-370.0","","","","false","","","","","","","","","","486.2999999523163","","565.5999999046326","","3","1","arrowright","1","arrowright","[0.15,0.85,0.325,0.675]","","",""
"sailing-trial","412","1630429","0.0-11.0-371.0","","","","false","","","","","","","","","","null","","637.2999999523163","","1","0","null","null","arrowup","[0.15,0.85,0.325,0.675]","","",""
"sailing-trial","413","1634022","0.0-11.0-372.0","","","","false","","","","","","","","","","425.59999990463257","","609.7999999523163","","3","1","arrowright","1","arrowright","[0.15,0.85,0.325,0.675]","","",""
"sailing-trial","414","1636367","0.0-11.0-373.0","","","","false","","","","","","","","","","null","","779.6999998092651","","0","1","null","null","arrowup","[0.15,0.85,0.325,0.675]","","",""
"sailing-trial","415","1639217","0.0-11.0-374.0","","","","false","","","","","","","","","","634.7000000476837","","136.30000019073486","","3","0","arrowright","1","arrowright","[0.15,0.85,0.325,0.675]","","",""
"sailing-trial","416","1642068","0.0-11.0-375.0","","","","false","","","","","","","","","","null","","858.0999999046326","","1","1","null","null","arrowup","[0.15,0.85,0.325,0.675]","","",""
"sailing-trial","417","1645043","0.0-11.0-376.0","","","","false","","","","","","","","","","615.2000000476837","","289.09999990463257","","0","0","arrowleft","0","arrowleft","[0.15,0.85,0.325,0.675]","","",""
"sailing-trial","418","1646899","0.0-11.0-377.0","","","","false","","","","","","","","","","null","","772.0999999046326","","0","0","null","null","arrowup","[0.15,0.85,0.325,0.675]","","",""
"sailing-trial","419","1650436","0.0-11.0-378.0","","","","false","","","","","","","","","","784.5","","592.8999998569489","","3","0","arrowright","1","arrowright","[0.675,0.325,0.85,0.15]","","",""
"sailing-trial","420","1652304","0.0-11.0-379.0","","","","false","","","","","","","","","","null","","841.5","","1","0","null","null","arrowup","[0.675,0.325,0.85,0.15]","","",""
"sailing-trial","421","1654989","0.0-11.0-380.0","","","","false","","","","","","","","","","504.10000014305115","","160.79999995231628","","1","0","arrowleft","0","arrowright","[0.675,0.325,0.85,0.15]","","",""
"sailing-trial","422","1656738","0.0-11.0-381.0","","","","false","","","","","","","","","","null","","675.8999998569489","","3","0","null","null","arrowup","[0.675,0.325,0.85,0.15]","","",""
"sailing-trial","423","1660722","0.0-11.0-382.0","","","","false","","","","","","","","","","921.1000001430511","","428.10000014305115","","2","0","arrowright","1","arrowleft","[0.675,0.325,0.85,0.15]","","",""
"sailing-trial","424","1662692","0.0-11.0-383.0","","","","false","","","","","","","","","","null","","937.3000001907349","","1","0","null","null","arrowup","[0.675,0.325,0.85,0.15]","","",""
"sailing-trial","425","1665175","0.0-11.0-384.0","","","","false","","","","","","","","","","435","","38.200000047683716","","0","0","arrowleft","0","arrowleft","[0.675,0.325,0.85,0.15]","","",""
"sailing-trial","426","1667730","0.0-11.0-385.0","","","","false","","","","","","","","","","null","","775.2000000476837","","2","1","null","null","arrowup","[0.675,0.325,0.85,0.15]","","",""
"sailing-trial","427","1671151","0.0-11.0-386.0","","","","false","","","","","","","","","","369","","282.2000000476837","","2","1","arrowright","1","arrowleft","[0.675,0.325,0.85,0.15]","","",""
"sailing-trial","428","1673011","0.0-11.0-387.0","","","","false","","","","","","","","","","null","","757.4000000953674","","3","0","null","null","arrowup","[0.675,0.325,0.85,0.15]","","",""
"sailing-trial","429","1676568","0.0-11.0-388.0","","","","false","","","","","","","","","","559","","374.69999980926514","","2","1","arrowright","1","arrowleft","[0.675,0.325,0.85,0.15]","","",""
"sailing-trial","430","1678938","0.0-11.0-389.0","","","","false","","","","","","","","","","null","","731.0999999046326","","2","1","null","null","arrowup","[0.675,0.325,0.85,0.15]","","",""
"sailing-trial","431","1682624","0.0-11.0-390.0","","","","false","","","","","","","","","","425.2999999523163","","100","","2","1","arrowright","1","arrowleft","[0.675,0.325,0.85,0.15]","","",""
"sailing-trial","432","1684798","0.0-11.0-391.0","","","","false","","","","","","","","","","null","","735.2999999523163","","0","0","null","null","arrowup","[0.675,0.325,0.85,0.15]","","",""
"sailing-trial","433","1688308","0.0-11.0-392.0","","","","false","","","","","","","","","","411.2000000476837","","410.2000000476837","","2","1","arrowright","1","arrowleft","[0.675,0.325,0.85,0.15]","","",""
"sailing-trial","434","1690651","0.0-11.0-393.0","","","","false","","","","","","","","","","null","","1082.9000000953674","","1","0","null","null","arrowup","[0.675,0.325,0.85,0.15]","","",""
"sailing-trial","435","1694641","0.0-11.0-394.0","","","","false","","","","","","","","","","762.4000000953674","","409.39999985694885","","2","1","arrowright","1","arrowleft","[0.675,0.325,0.85,0.15]","","",""
"sailing-trial","436","1697358","0.0-11.0-395.0","","","","false","","","","","","","","","","null","","751","","1","1","null","null","arrowup","[0.675,0.325,0.85,0.15]","","",""
"sailing-trial","437","1704547","0.0-11.0-396.0","","","","false","","","","","","","","","","4229.599999904633","","273","","2","1","arrowright","1","arrowleft","[0.675,0.325,0.85,0.15]","","",""
"sailing-trial","438","1707210","0.0-11.0-397.0","","","","false","","","","","","","","","","null","","861.3000001907349","","2","1","null","null","arrowup","[0.675,0.325,0.85,0.15]","","",""
"sailing-trial","439","1711189","0.0-11.0-398.0","","","","false","","","","","","","","","","709","","348.39999985694885","","2","1","arrowright","1","arrowleft","[0.675,0.325,0.85,0.15]","","",""
"sailing-trial","440","1714269","0.0-11.0-399.0","","","","false","","","","","","","","","","null","","1477.2999999523163","","2","1","null","null","arrowup","[0.675,0.325,0.85,0.15]","","",""
"instructions","441","1722520","0.0-12.0","","","","","","","","","","8250.599999904633","","","","","","","","","","","","","","","","[{""page_index"":0,""viewing_time"":8249.700000047684}]"
"survey-debrief","442","1736833","0.0-13.0","","","","","","","","","","14310.5","","","","","","","","","","","","","","{""difficulty"":""4"",""fun"":""4"",""clarity"":""4"",""strategy"":""no"",""feedback"":""no""}","",""
