"trial_type","trial_index","time_elapsed","internal_node_id","value","metadata","browser_interaction","low_quality","success","timeout","failed_images","failed_audio","failed_video","rt","stimulus","response","button_pressed","island_rt","island_response","boat_rt","boat_response","boat","reward","island_key","island","boat_key","reward_probabilities","responses","num_errors","view_history"
"pavlovia","0","3","0.0-0.0","","","","","","","","","","","","","","","","","","","","","","","","","",""
"call-function","1","4","0.0-1.0","","{""task_version"":""sailing_part1_v1"",""task_condition"":""good"",""boats"":[""B"",""C"",""D"",""A""],""boats_demo"":[""H"",""G"",""E"",""F""],""islands"":[""B"",""A""],""subject_id"":""14761"",""age"":""20"",""gender"":""Male""}","[{""event"":""blur"",""trial"":2,""time"":782}]","false","","","","","","","","","","","","","","","","","","","","","",""
"preload","2","998","0.0-2.0","","","[{""event"":""blur"",""trial"":2,""time"":782},{""event"":""focus"",""trial"":3,""time"":1517},{""event"":""fullscreenenter"",""trial"":3,""time"":3489}]","false","true","false","[]","[]","[]","","","","","","","","","","","","","","","","",""
"fullscreen","3","4487","0.0-3.0","","","","","true","","","","","","","","","","","","","","","","","","","","",""
"audio-keyboard-response","4","6829","0.0-4.0-0.0","","","","","","","","","","2320","audio/beep_loop.wav"," ","","","","","","","","","","","","","",""
"audio-test","5","8190","0.0-4.0-1.0","","","","","","","","","","null","audio/turtle.mp3","","3","","","","","","","","","","","","",""
"audio-test","6","10227","0.0-4.0-2.0","","","[{""event"":""blur"",""trial"":2,""time"":782},{""event"":""focus"",""trial"":3,""time"":1517},{""event"":""fullscreenenter"",""trial"":3,""time"":3489},{""event"":""blur"",""trial"":7,""time"":13583},{""event"":""focus"",""trial"":7,""time"":19229}]","false","","","","","","null","audio/shark.mp3","","2","","","","","","","","","","","","",""
"sailing-instructions","7","43752","0.0-5.0-0.0-0.0","","","","","","","","","","","","","","null","null","null","null","null","null","","","","","","",""
"sailing-trial","8","47735","0.0-5.0-0.0-1.0-0.0","","","","","","false","","","","","","","","2854.0999999996275","","null","","null","null","arrowleft","0","null","null","","",""
"sailing-trial","9","50871","0.0-5.0-0.0-1.0-1.0","","","","","","false","","","","","","","","2023.4000000003725","","null","","null","null","arrowright","1","null","null","","",""
"sailing-trial","10","53138","0.0-5.0-0.0-1.0-2.0","","","","","","false","","","","","","","","1143.0999999996275","","null","","null","null","arrowright","1","null","null","","",""
"sailing-instructions","11","102042","0.0-5.0-0.0-2.0","","","","","","","","","","","","","","null","null","null","null","0","null","","","","","","",""
"sailing-trial","12","118504","0.0-5.0-0.0-3.0-0.0","","","","","","false","","","","","","","","null","","7301.5999999996275","","2","1","null","null","arrowleft","[1,1,1,1]","","",""
"sailing-trial","13","122854","0.0-5.0-0.0-3.0-1.0","","","","","","false","","","","","","","","null","","1506.7999999998137","","3","1","null","null","arrowright","[1,1,1,1]","","",""
"sailing-trial","14","127820","0.0-5.0-0.0-3.0-2.0","","","","","","false","","","","","","","","null","","2608.2999999998137","","2","0","null","null","arrowleft","[0,0,0,0]","","",""
"sailing-instructions","15","136182","0.0-5.0-0.0-4.0","","","","","","","","","","","","","","null","null","null","null","null","null","","","","","","",""
"sailing-comprehension","16","146176","0.0-5.0-0.0-5.0","","","[{""event"":""blur"",""trial"":2,""time"":782},{""event"":""focus"",""trial"":3,""time"":1517},{""event"":""fullscreenenter"",""trial"":3,""time"":3489},{""event"":""blur"",""trial"":7,""time"":13583},{""event"":""focus"",""trial"":7,""time"":19229},{""event"":""blur"",""trial"":17,""time"":150462},{""event"":""focus"",""trial"":17,""time"":151876},{""event"":""blur"",""trial"":17,""time"":152530},{""event"":""focus"",""trial"":17,""time"":159444},{""event"":""blur"",""trial"":17,""time"":168842},{""event"":""focus"",""trial"":17,""time"":175637}]","false","","","","","","8345.299999999814","","","","","","","","","","","","","","[""true"",""true"",""false"",""true""]","0",""
"sailing-instructions","17","232361","0.0-6.0-0.0-0.0","","","","","","","","","","","","","","null","null","null","null","null","null","","","","","","",""
"sailing-comprehension","18","243994","0.0-6.0-0.0-1.0","","","","","","","","","","8355.099999999627","","","","","","","","","","","","","","[""true"",""false"",""true""]","0",""
"sailing-instructions","19","259956","0.0-7.0-0.0-0.0","","","","","","","","","","","","","","null","null","null","null","null","null","","","","","","",""
"sailing-trial","20","265447","0.0-7.0-0.0-1.0-0.0","","","","","","false","","","","","","","","null","","2325.699999999255","","0","1","null","null","arrowup","[0.2,0.8,0.2,0.8]","","",""
"sailing-trial","21","269570","0.0-7.0-0.0-1.0-1.0","","","","","","false","","","","","","","","null","","1662.699999999255","","1","1","null","null","arrowup","[0.2,0.8,0.2,0.8]","","",""
"sailing-trial","22","272719","0.0-7.0-0.0-1.0-2.0","","","","","","false","","","","","","","","null","","1388.5","","2","0","null","null","arrowup","[0.2,0.8,0.2,0.8]","","",""
"sailing-trial","23","276203","0.0-7.0-0.0-1.0-3.0","","","","","","false","","","","","","","","null","","1235","","3","1","null","null","arrowup","[0.2,0.8,0.2,0.8]","","",""
"sailing-comprehension","24","282281","0.0-7.0-0.0-2.0","","","","","","","","","","5069.799999999814","","","","","","","","","","","","","","[""false""]","0",""
"sailing-instructions","25","292355","0.0-8.0-0.0-0.0","","","","","","","","","","","","","","null","null","null","null","null","null","","","","","","",""
"sailing-comprehension","26","295678","0.0-8.0-0.0-1.0","","","","","","","","","","2536.7999999998137","","","","","","","","","","","","","","[""true""]","0",""
"sailing-instructions","27","324468","0.0-9.0-0.0-0.0","","","","","","","","","","","","","","null","null","null","null","null","null","","","","","","",""
"sailing-trial","28","329668","0.0-9.0-0.0-1.0-0.0","","","","","","false","","","","","","","","1437.9000000003725","","93.8999999994412","","0","1","arrowleft","0","arrowleft","[0.2,0.8,0.2,0.8]","","",""
"sailing-trial","29","333951","0.0-9.0-0.0-1.0-1.0","","","","","","false","","","","","","","","591.3999999994412","","928.4000000003725","","0","0","arrowleft","0","arrowleft","[0.2,0.8,0.2,0.8]","","",""
"sailing-trial","30","337049","0.0-9.0-0.0-1.0-2.0","","","","","","false","","","","","","","","null","","1448.5","","0","0","null","null","arrowup","[0.2,0.8,0.2,0.8]","","",""
"sailing-trial","31","340895","0.0-9.0-0.0-1.0-3.0","","","","","","false","","","","","","","","700.1999999992549","","415.59999999962747","","2","0","arrowright","1","arrowleft","[0.2,0.8,0.2,0.8]","","",""
"sailing-trial","32","344019","0.0-9.0-0.0-1.0-4.0","","","","","","false","","","","","","","","null","","1167.800000000745","","3","1","null","null","arrowup","[0.2,0.8,0.2,0.8]","","",""
"sailing-trial","33","347685","0.0-9.0-0.0-1.0-5.0","","","","","","false","","","","","","","","65.79999999981374","","660.5","","3","1","arrowright","1","arrowright","[0.2,0.8,0.2,0.8]","","",""
"sailing-instructions","34","372539","0.0-10.0","","","","","","","","","","","","","","null","null","null","null","null","null","","","","","","",""
"sailing-trial","35","377568","0.0-11.0-0.0","","","","","","false","","","","","","","","1735.5","","536.5","","0","0","arrowleft","0","arrowleft","[0.15,0.85,0.325,0.675]","","",""
"sailing-trial","36","381777","0.0-11.0-1.0","","","","","","false","","","","","","","","null","","1191.8999999994412","","2","0","null","null","arrowup","[0.15,0.85,0.325,0.675]","","",""
"sailing-trial","37","385803","0.0-11.0-2.0","","","","","","false","","","","","","","","953.5999999996275","","44.200000000186265","","1","1","arrowleft","0","arrowright","[0.15,0.85,0.325,0.675]","","",""
"sailing-trial","38","388068","0.0-11.0-3.0","","","","","","false","","","","","","","","null","","709.7000000001863","","3","1","null","null","arrowup","[0.15,0.85,0.325,0.675]","","",""
"sailing-trial","39","392218","0.0-11.0-4.0","","","","","","false","","","","","","","","858.5","","514.3999999994412","","3","1","arrowright","1","arrowright","[0.15,0.85,0.325,0.675]","","",""
"sailing-trial","40","394611","0.0-11.0-5.0","","","","","","false","","","","","","","","null","","552.3999999994412","","1","1","null","null","arrowup","[0.15,0.85,0.325,0.675]","","",""
"sailing-trial","41","399002","0.0-11.0-6.0","","","","","","false","","","","","","","","671.4000000003725","","516","","1","1","arrowleft","0","arrowright","[0.15,0.85,0.325,0.675]","","",""
"sailing-trial","42","400866","0.0-11.0-7.0","","","","","","false","","","","","","","","null","","571.7999999998137","","0","0","null","null","arrowup","[0.15,0.85,0.325,0.675]","","",""
"sailing-trial","43","404240","0.0-11.0-8.0","","","","","","false","","","","","","","","641.7000000001863","","449.29999999981374","","3","0","arrowright","1","arrowright","[0.15,0.85,0.325,0.675]","","",""
"sailing-trial","44","406602","0.0-11.0-9.0","","","","","","false","","","","","","","","null","","509.70000000018626","","1","1","null","null","arrowup","[0.15,0.85,0.325,0.675]","","",""
"sailing-trial","45","410085","0.0-11.0-10.0","","","","","","false","","","","","","","","493.90000000037253","","232","","3","1","arrowright","1","arrowright","[0.15,0.85,0.325,0.675]","","",""
"sailing-trial","46","412516","0.0-11.0-11.0","","","","","","false","","","","","","","","null","","860.5999999996275","","3","0","null","null","arrowup","[0.15,0.85,0.325,0.675]","","",""
"sailing-trial","47","415987","0.0-11.0-12.0","","","","","","false","","","","","","","","722.5999999996275","","263.8999999994412","","2","0","arrowright","1","arrowleft","[0.15,0.85,0.325,0.675]","","",""
"sailing-trial","48","417592","0.0-11.0-13.0","","","","","","false","","","","","","","","null","","433.90000000037253","","2","0","null","null","arrowup","[0.15,0.85,0.325,0.675]","","",""
"sailing-trial","49","420907","0.0-11.0-14.0","","","","","","false","","","","","","","","691.4000000003725","","98.09999999962747","","0","0","arrowleft","0","arrowleft","[0.15,0.85,0.325,0.675]","","",""
"sailing-trial","50","423602","0.0-11.0-15.0","","","","","","false","","","","","","","","null","","879.0999999996275","","3","1","null","null","arrowup","[0.15,0.85,0.325,0.675]","","",""
"sailing-trial","51","427618","0.0-11.0-16.0","","","","","","false","","","","","","","","1108.7999999998137","","45.5","","1","1","arrowleft","0","arrowright","[0.325,0.675,0.15,0.85]","","",""
"sailing-trial","52","429951","0.0-11.0-17.0","","","","","","false","","","","","","","","null","","531.5","","1","1","null","null","arrowup","[0.325,0.675,0.15,0.85]","","",""
"sailing-trial","53","433701","0.0-11.0-18.0","","","","","","false","","","","","","","","682.7999999998137","","17.199999999254942","","1","1","arrowleft","0","arrowright","[0.325,0.675,0.15,0.85]","","",""
"sailing-trial","54","435846","0.0-11.0-19.0","","","","","","false","","","","","","","","null","","918.5999999996275","","0","0","null","null","arrowup","[0.325,0.675,0.15,0.85]","","",""
"sailing-trial","55","440001","0.0-11.0-20.0","","","","","","false","","","","","","","","1406.7000000001863","","90.79999999981374","","1","1","arrowleft","0","arrowright","[0.325,0.675,0.15,0.85]","","",""
"sailing-trial","56","441785","0.0-11.0-21.0","","","","","","false","","","","","","","","null","","149.09999999962747","","1","1","null","null","arrowup","[0.325,0.675,0.15,0.85]","","",""
"sailing-trial","57","445001","0.0-11.0-22.0","","","","","","false","","","","","","","","126.8999999994412","","403.90000000037253","","1","1","arrowleft","0","arrowright","[0.325,0.675,0.15,0.85]","","",""
"sailing-trial","58","449003","0.0-11.0-23.0","","","","","","false","","","","","","","","null","","1009.5","","1","0","null","null","arrowup","[0.325,0.675,0.15,0.85]","","",""
"sailing-trial","59","452718","0.0-11.0-24.0","","","","","","false","","","","","","","","142.90000000037253","","488.70000000018626","","1","1","arrowleft","0","arrowright","[0.325,0.675,0.15,0.85]","","",""
"sailing-trial","60","454565","0.0-11.0-25.0","","","","","","false","","","","","","","","null","","582.9000000003725","","2","0","null","null","arrowup","[0.325,0.675,0.15,0.85]","","",""
"sailing-trial","61","459503","0.0-11.0-26.0","","","","","","false","","","","","","","","587.6000000005588","","349.79999999981374","","2","0","arrowright","1","arrowleft","[0.325,0.675,0.15,0.85]","","",""
"sailing-trial","62","463086","0.0-11.0-27.0","","","","","","false","","","","","","","","null","","566.2000000001863","","0","0","null","null","arrowup","[0.325,0.675,0.15,0.85]","","",""
"sailing-trial","63","467134","0.0-11.0-28.0","","","","","","false","","","","","","","","474.5","","479.1000000005588","","3","1","arrowright","1","arrowright","[0.325,0.675,0.15,0.85]","","",""
"sailing-trial","64","471029","0.0-11.0-29.0","","","","","","false","","","","","","","","null","","2148.4000000003725","","0","0","null","null","arrowup","[0.325,0.675,0.15,0.85]","","",""
"sailing-trial","65","474350","0.0-11.0-30.0","","","","","","false","","","","","","","","441.29999999981374","","157.30000000074506","","3","1","arrowright","1","arrowright","[0.325,0.675,0.15,0.85]","","",""
"sailing-trial","66","476123","0.0-11.0-31.0","","","","","","false","","","","","","","","null","","521.0999999996275","","2","0","null","null","arrowup","[0.325,0.675,0.15,0.85]","","",""
"sailing-trial","67","480969","0.0-11.0-32.0","","","","","","false","","","","","","","","498.79999999981374","","349.5","","1","0","arrowleft","0","arrowright","[0.325,0.675,0.15,0.85]","","",""
"sailing-trial","68","483286","0.0-11.0-33.0","","","","","","false","","","","","","","","null","","501.70000000018626","","2","0","null","null","arrowup","[0.325,0.675,0.15,0.85]","","",""
"sailing-trial","69","487034","0.0-11.0-34.0","","","","","","false","","","","","","","","563.5","","267.20000000018626","","3","1","arrowright","1","arrowright","[0.325,0.675,0.15,0.85]","","",""
"sailing-trial","70","488531","0.0-11.0-35.0","","","","","","false","","","","","","","","null","","85.20000000018626","","0","0","null","null","arrowup","[0.325,0.675,0.15,0.85]","","",""
"sailing-trial","71","492001","0.0-11.0-36.0","","","","","","false","","","","","","","","576.2999999998137","","151.1000000005588","","2","1","arrowright","1","arrowleft","[0.675,0.325,0.85,0.15]","","",""
"sailing-trial","72","494367","0.0-11.0-37.0","","","","","","false","","","","","","","","null","","55.89999999944121","","2","1","null","null","arrowup","[0.675,0.325,0.85,0.15]","","",""
"sailing-trial","73","498133","0.0-11.0-38.0","","","","","","false","","","","","","","","514.2999999998137","","347.79999999981374","","2","1","arrowright","1","arrowleft","[0.675,0.325,0.85,0.15]","","",""
"sailing-trial","74","500440","0.0-11.0-39.0","","","","","","false","","","","","","","","null","","697","","1","0","null","null","arrowup","[0.675,0.325,0.85,0.15]","","",""
"sailing-trial","75","503833","0.0-11.0-40.0","","","","","","false","","","","","","","","414.5","","161.20000000018626","","2","1","arrowright","1","arrowleft","[0.675,0.325,0.85,0.15]","","",""
"sailing-trial","76","505929","0.0-11.0-41.0","","","","","","false","","","","","","","","null","","451.09999999962747","","3","0","null","null","arrowup","[0.675,0.325,0.85,0.15]","","",""
"sailing-trial","77","510686","0.0-11.0-42.0","","","","","","false","","","","","","","","462.59999999962747","","314.09999999962747","","1","0","arrowleft","0","arrowright","[0.675,0.325,0.85,0.15]","","",""
"sailing-trial","78","512933","0.0-11.0-43.0","","","","","","false","","","","","","","","null","","397.59999999962747","","0","1","null","null","arrowup","[0.675,0.325,0.85,0.15]","","",""
"sailing-trial","79","517552","0.0-11.0-44.0","","","","","","false","","","","","","","","398.3999999994412","","230.1000000005588","","2","0","arrowright","1","arrowleft","[0.675,0.325,0.85,0.15]","","",""
"sailing-trial","80","519444","0.0-11.0-45.0","","","","","","false","","","","","","","","null","","277.09999999962747","","3","0","null","null","arrowup","[0.675,0.325,0.85,0.15]","","",""
"sailing-trial","81","523152","0.0-11.0-46.0","","","","","","false","","","","","","","","652.7999999998137","","121.1000000005588","","0","1","arrowleft","0","arrowleft","[0.675,0.325,0.85,0.15]","","",""
"sailing-trial","82","525133","0.0-11.0-47.0","","","","","","false","","","","","","","","null","","95.59999999962747","","2","1","null","null","arrowup","[0.675,0.325,0.85,0.15]","","",""
"sailing-trial","83","527881","0.0-11.0-48.0","","","","","","false","","","","","","","","154.30000000074506","","64.5","","0","0","arrowleft","0","arrowleft","[0.675,0.325,0.85,0.15]","","",""
"sailing-trial","84","529950","0.0-11.0-49.0","","","","","","false","","","","","","","","null","","382.1000000005588","","0","1","null","null","arrowup","[0.675,0.325,0.85,0.15]","","",""
"sailing-trial","85","532816","0.0-11.0-50.0","","","","","","false","","","","","","","","95.09999999962747","","83.70000000018626","","0","1","arrowleft","0","arrowleft","[0.675,0.325,0.85,0.15]","","",""
"sailing-trial","86","534750","0.0-11.0-51.0","","","","","","false","","","","","","","","null","","92","","0","1","null","null","arrowup","[0.675,0.325,0.85,0.15]","","",""
"sailing-trial","87","537679","0.0-11.0-52.0","","","","","","false","","","","","","","","87.29999999981374","","333.6000000005588","","0","0","arrowleft","0","arrowleft","[0.15,0.85,0.325,0.675]","","",""
"sailing-trial","88","539330","0.0-11.0-53.0","","","","","","false","","","","","","","","null","","125.6000000005588","","2","0","null","null","arrowup","[0.15,0.85,0.325,0.675]","","",""
"sailing-trial","89","542999","0.0-11.0-54.0","","","","","","false","","","","","","","","729.2999999998137","","207","","1","1","arrowleft","0","arrowright","[0.15,0.85,0.325,0.675]","","",""
"sailing-trial","90","545183","0.0-11.0-55.0","","","","","","false","","","","","","","","null","","405","","1","1","null","null","arrowup","[0.15,0.85,0.325,0.675]","","",""
"sailing-trial","91","548683","0.0-11.0-56.0","","","","","","false","","","","","","","","341.5","","383.40000000037253","","3","1","arrowright","1","arrowright","[0.15,0.85,0.325,0.675]","","",""
"sailing-trial","92","550315","0.0-11.0-57.0","","","","","","false","","","","","","","","null","","55.60000000055879","","0","0","null","null","arrowup","[0.15,0.85,0.325,0.675]","","",""
"sailing-trial","93","553933","0.0-11.0-58.0","","","","","","false","","","","","","","","372.79999999981374","","444.69999999925494","","1","1","arrowleft","0","arrowright","[0.15,0.85,0.325,0.675]","","",""
"sailing-trial","94","555865","0.0-11.0-59.0","","","","","","false","","","","","","","","null","","64.09999999962747","","3","0","null","null","arrowup","[0.15,0.85,0.325,0.675]","","",""
"sailing-trial","95","558816","0.0-11.0-60.0","","","","","","false","","","","","","","","177.20000000018626","","112.79999999981374","","1","1","arrowleft","0","arrowright","[0.15,0.85,0.325,0.675]","","",""
"sailing-trial","96","561017","0.0-11.0-61.0","","","","","","false","","","","","","","","null","","646.0999999996275","","3","1","null","null","arrowup","[0.15,0.85,0.325,0.675]","","",""
"sailing-trial","97","565166","0.0-11.0-62.0","","","","","","false","","","","","","","","325.6000000005588","","777","","1","1","arrowleft","0","arrowright","[0.15,0.85,0.325,0.675]","","",""
"sailing-trial","98","567615","0.0-11.0-63.0","","","","","","false","","","","","","","","null","","1123.1000000005588","","0","0","null","null","arrowup","[0.15,0.85,0.325,0.675]","","",""
"sailing-trial","99","571566","0.0-11.0-64.0","","","","","","false","","","","","","","","637.2000000001863","","421.20000000018626","","3","1","arrowright","1","arrowright","[0.15,0.85,0.325,0.675]","","",""
"sailing-trial","100","573958","0.0-11.0-65.0","","","","","","false","","","","","","","","null","","991.7999999998137","","0","0","null","null","arrowup","[0.15,0.85,0.325,0.675]","","",""
"sailing-trial","101","577749","0.0-11.0-66.0","","","","","","false","","","","","","","","403.3999999994412","","683.1000000005588","","3","1","arrowright","1","arrowright","[0.15,0.85,0.325,0.675]","","",""
"sailing-trial","102","580283","0.0-11.0-67.0","","","","","","false","","","","","","","","null","","597.3000000007451","","3","1","null","null","arrowup","[0.15,0.85,0.325,0.675]","","",""
"sailing-trial","103","583252","0.0-11.0-68.0","","","","","","false","","","","","","","","421.40000000037253","","491.30000000074506","","3","0","arrowright","1","arrowright","[0.15,0.85,0.325,0.675]","","",""
"sailing-trial","104","585958","0.0-11.0-69.0","","","","","","false","","","","","","","","null","","1521","","3","0","null","null","arrowup","[0.15,0.85,0.325,0.675]","","",""
"sailing-trial","105","588890","0.0-11.0-70.0","","","","","","false","","","","","","","","419.1000000005588","","258.80000000074506","","2","0","arrowright","1","arrowleft","[0.325,0.675,0.15,0.85]","","",""
"sailing-trial","106","590528","0.0-11.0-71.0","","","","","","false","","","","","","","","null","","254.09999999962747","","0","0","null","null","arrowup","[0.325,0.675,0.15,0.85]","","",""
"sailing-trial","107","595017","0.0-11.0-72.0","","","","","","false","","","","","","","","251","","237.8999999994412","","0","0","arrowleft","0","arrowleft","[0.325,0.675,0.15,0.85]","","",""
"sailing-trial","108","596966","0.0-11.0-73.0","","","","","","false","","","","","","","","null","","75.20000000018626","","3","1","null","null","arrowup","[0.325,0.675,0.15,0.85]","","",""
"sailing-trial","109","600582","0.0-11.0-74.0","","","","","","false","","","","","","","","350.5","","231.1000000005588","","0","1","arrowleft","0","arrowleft","[0.325,0.675,0.15,0.85]","","",""
"sailing-trial","110","602636","0.0-11.0-75.0","","","","","","false","","","","","","","","null","","513.5","","2","0","null","null","arrowup","[0.325,0.675,0.15,0.85]","","",""
"sailing-trial","111","606766","0.0-11.0-76.0","","","","","","false","","","","","","","","539.5","","522.4000000003725","","1","1","arrowleft","0","arrowright","[0.325,0.675,0.15,0.85]","","",""
"sailing-trial","112","608816","0.0-11.0-77.0","","","","","","false","","","","","","","","null","","86.29999999981374","","3","1","null","null","arrowup","[0.325,0.675,0.15,0.85]","","",""
"sailing-trial","113","612766","0.0-11.0-78.0","","","","","","false","","","","","","","","491.6000000005588","","367.5","","1","1","arrowleft","0","arrowright","[0.325,0.675,0.15,0.85]","","",""
"sailing-trial","114","614983","0.0-11.0-79.0","","","","","","false","","","","","","","","null","","394.70000000018626","","3","1","null","null","arrowup","[0.325,0.675,0.15,0.85]","","",""
"sailing-trial","115","618326","0.0-11.0-80.0","","","","","","false","","","","","","","","508.8999999994412","","424.20000000018626","","1","0","arrowleft","0","arrowright","[0.325,0.675,0.15,0.85]","","",""
"sailing-trial","116","620433","0.0-11.0-81.0","","","","","","false","","","","","","","","null","","404.59999999962747","","2","1","null","null","arrowup","[0.325,0.675,0.15,0.85]","","",""
"sailing-trial","117","623884","0.0-11.0-82.0","","","","","","false","","","","","","","","288.59999999962747","","364.30000000074506","","1","1","arrowleft","0","arrowright","[0.325,0.675,0.15,0.85]","","",""
"sailing-trial","118","626232","0.0-11.0-83.0","","","","","","false","","","","","","","","null","","527.4000000003725","","3","1","null","null","arrowup","[0.325,0.675,0.15,0.85]","","",""
"sailing-trial","119","629866","0.0-11.0-84.0","","","","","","false","","","","","","","","505.70000000018626","","263.5","","1","1","arrowleft","0","arrowright","[0.325,0.675,0.15,0.85]","","",""
"sailing-trial","120","632266","0.0-11.0-85.0","","","","","","false","","","","","","","","null","","654.7999999998137","","3","1","null","null","arrowup","[0.325,0.675,0.15,0.85]","","",""
"sailing-trial","121","635882","0.0-11.0-86.0","","","","","","false","","","","","","","","593.2000000001863","","226.79999999981374","","1","1","arrowleft","0","arrowright","[0.325,0.675,0.15,0.85]","","",""
"sailing-trial","122","637733","0.0-11.0-87.0","","","","","","false","","","","","","","","null","","565.2999999998137","","1","0","null","null","arrowup","[0.325,0.675,0.15,0.85]","","",""
"sailing-trial","123","641365","0.0-11.0-88.0","","","","","","false","","","","","","","","463.70000000018626","","322.09999999962747","","1","1","arrowleft","0","arrowright","[0.325,0.675,0.15,0.85]","","",""
"sailing-trial","124","644368","0.0-11.0-89.0","","","","","","false","","","","","","","","null","","1378.2000000001863","","2","0","null","null","arrowup","[0.325,0.675,0.15,0.85]","","",""
"sailing-trial","125","647968","0.0-11.0-90.0","","","","","","false","","","","","","","","378.20000000018626","","223.90000000037253","","3","1","arrowright","1","arrowright","[0.325,0.675,0.15,0.85]","","",""
"sailing-trial","126","650129","0.0-11.0-91.0","","","","","","false","","","","","","","","null","","653","","2","0","null","null","arrowup","[0.325,0.675,0.15,0.85]","","",""
"sailing-trial","127","655217","0.0-11.0-92.0","","","","","","false","","","","","","","","649.3000000007451","","413.20000000018626","","2","0","arrowright","1","arrowleft","[0.325,0.675,0.15,0.85]","","",""
"sailing-trial","128","657581","0.0-11.0-93.0","","","","","","false","","","","","","","","null","","643.1000000005588","","2","0","null","null","arrowup","[0.325,0.675,0.15,0.85]","","",""
"sailing-trial","129","661761","0.0-11.0-94.0","","","","","","false","","","","","","","","484.7000000011176","","187.40000000037253","","3","0","arrowright","1","arrowright","[0.15,0.85,0.325,0.675]","","",""
"sailing-trial","130","665800","0.0-11.0-95.0","","","","","","false","","","","","","","","null","","1039","","3","0","null","null","arrowup","[0.15,0.85,0.325,0.675]","","",""
"sailing-trial","131","670997","0.0-11.0-96.0","","","","","","false","","","","","","","","1067","","827.5999999996275","","1","1","arrowleft","0","arrowright","[0.15,0.85,0.325,0.675]","","",""
"sailing-trial","132","673723","0.0-11.0-97.0","","","","","","false","","","","","","","","null","","616.5","","0","0","null","null","arrowup","[0.15,0.85,0.325,0.675]","","",""
"sailing-trial","133","677699","0.0-11.0-98.0","","","","","","false","","","","","","","","942.7000000011176","","211.80000000074506","","3","1","arrowright","1","arrowright","[0.15,0.85,0.325,0.675]","","",""
"sailing-trial","134","679840","0.0-11.0-99.0","","","","","","false","","","","","","","","null","","908.5999999996275","","2","0","null","null","arrowup","[0.15,0.85,0.325,0.675]","","",""
"sailing-trial","135","683347","0.0-11.0-100.0","","","","","","false","","","","","","","","523.2000000011176","","178.60000000149012","","1","1","arrowleft","0","arrowright","[0.15,0.85,0.325,0.675]","","",""
"sailing-trial","136","688115","0.0-11.0-101.0","","","","","","false","","","","","","","","null","","2421.4000000003725","","2","1","null","null","arrowup","[0.15,0.85,0.325,0.675]","","",""
"sailing-trial","137","692331","0.0-11.0-102.0","","","","","","false","","","","","","","","567.2000000011176","","432.09999999962747","","1","1","arrowleft","0","arrowright","[0.15,0.85,0.325,0.675]","","",""
"sailing-trial","138","695516","0.0-11.0-103.0","","","","","","false","","","","","","","","null","","1173","","1","1","null","null","arrowup","[0.15,0.85,0.325,0.675]","","",""
"sailing-trial","139","701114","0.0-11.0-104.0","","","","","","false","","","","","","","","798.2000000011176","","391.90000000037253","","1","1","arrowleft","0","arrowright","[0.15,0.85,0.325,0.675]","","",""
"sailing-trial","140","703865","0.0-11.0-105.0","","","","","","false","","","","","","","","null","","981.3999999985099","","1","1","null","null","arrowup","[0.15,0.85,0.325,0.675]","","",""
"sailing-trial","141","707872","0.0-11.0-106.0","","","","","","false","","","","","","","","1113.5","","480.19999999925494","","1","0","arrowleft","0","arrowright","[0.15,0.85,0.325,0.675]","","",""
"sailing-trial","142","709662","0.0-11.0-107.0","","","","","","false","","","","","","","","null","","545.5999999996275","","0","0","null","null","arrowup","[0.15,0.85,0.325,0.675]","","",""
"sailing-trial","143","713330","0.0-11.0-108.0","","","","","","false","","","","","","","","541","","253.7000000011176","","1","1","arrowleft","0","arrowright","[0.15,0.85,0.325,0.675]","","",""
"sailing-trial","144","715697","0.0-11.0-109.0","","","","","","false","","","","","","","","null","","620.3000000007451","","1","1","null","null","arrowup","[0.15,0.85,0.325,0.675]","","",""
"sailing-trial","145","719306","0.0-11.0-110.0","","","","","","false","","","","","","","","599.6999999992549","","410.80000000074506","","1","0","arrowleft","0","arrowright","[0.15,0.85,0.325,0.675]","","",""
"sailing-trial","146","721930","0.0-11.0-111.0","","","","","","false","","","","","","","","null","","828.1999999992549","","3","1","null","null","arrowup","[0.15,0.85,0.325,0.675]","","",""
"sailing-trial","147","725548","0.0-11.0-112.0","","","","","","false","","","","","","","","575.3999999985099","","250.80000000074506","","1","1","arrowleft","0","arrowright","[0.15,0.85,0.325,0.675]","","",""
"sailing-trial","148","727882","0.0-11.0-113.0","","","","","","false","","","","","","","","null","","584.1000000014901","","2","1","null","null","arrowup","[0.15,0.85,0.325,0.675]","","",""
"sailing-trial","149","731397","0.0-11.0-114.0","","","","","","false","","","","","","","","396.80000000074506","","101.60000000149012","","1","1","arrowleft","0","arrowright","[0.15,0.85,0.325,0.675]","","",""
"sailing-trial","150","733249","0.0-11.0-115.0","","","","","","false","","","","","","","","null","","637.5999999996275","","1","0","null","null","arrowup","[0.15,0.85,0.325,0.675]","","",""
"sailing-trial","151","737330","0.0-11.0-116.0","","","","","","false","","","","","","","","411.5","","609","","3","1","arrowright","1","arrowright","[0.325,0.675,0.15,0.85]","","",""
"sailing-trial","152","739747","0.0-11.0-117.0","","","","","","false","","","","","","","","null","","627.0999999996275","","3","1","null","null","arrowup","[0.325,0.675,0.15,0.85]","","",""
"sailing-trial","153","744248","0.0-11.0-118.0","","","","","","false","","","","","","","","591.5","","362.3999999985099","","3","1","arrowright","1","arrowright","[0.325,0.675,0.15,0.85]","","",""
"sailing-trial","154","748647","0.0-11.0-119.0","","","","","","false","","","","","","","","null","","981.8999999985099","","1","1","null","null","arrowup","[0.325,0.675,0.15,0.85]","","",""
"sailing-trial","155","752830","0.0-11.0-120.0","","","","","","false","","","","","","","","674.4000000003725","","609.4000000003725","","3","1","arrowright","1","arrowright","[0.325,0.675,0.15,0.85]","","",""
"sailing-trial","156","755847","0.0-11.0-121.0","","","","","","false","","","","","","","","null","","1240.9000000003725","","3","1","null","null","arrowup","[0.325,0.675,0.15,0.85]","","",""
"sailing-trial","157","759580","0.0-11.0-122.0","","","","","","false","","","","","","","","398.8999999985099","","530.1999999992549","","3","1","arrowright","1","arrowright","[0.325,0.675,0.15,0.85]","","",""
"sailing-trial","158","762030","0.0-11.0-123.0","","","","","","false","","","","","","","","null","","645.1999999992549","","0","1","null","null","arrowup","[0.325,0.675,0.15,0.85]","","",""
"sailing-trial","159","767230","0.0-11.0-124.0","","","","","","false","","","","","","","","1210.8999999985099","","1183.9000000003725","","3","1","arrowright","1","arrowright","[0.325,0.675,0.15,0.85]","","",""
"sailing-trial","160","770064","0.0-11.0-125.0","","","","","","false","","","","","","","","null","","1042","","1","1","null","null","arrowup","[0.325,0.675,0.15,0.85]","","",""
"sailing-trial","161","774763","0.0-11.0-126.0","","","","","","false","","","","","","","","724.2999999988824","","445","","3","1","arrowright","1","arrowright","[0.325,0.675,0.15,0.85]","","",""
"sailing-trial","162","778881","0.0-11.0-127.0","","","","","","false","","","","","","","","null","","1080.5999999996275","","1","0","null","null","arrowup","[0.325,0.675,0.15,0.85]","","",""
"sailing-trial","163","785431","0.0-11.0-128.0","","","","","","false","","","","","","","","949.5999999996275","","626.2000000011176","","3","1","arrowright","1","arrowright","[0.325,0.675,0.15,0.85]","","",""
"sailing-trial","164","787484","0.0-11.0-129.0","","","","","","false","","","","","","","","null","","447.2000000011176","","2","0","null","null","arrowup","[0.325,0.675,0.15,0.85]","","",""
"sailing-trial","165","791233","0.0-11.0-130.0","","","","","","false","","","","","","","","528.0999999996275","","475.8999999985099","","0","0","arrowleft","0","arrowleft","[0.325,0.675,0.15,0.85]","","",""
"sailing-trial","166","793664","0.0-11.0-131.0","","","","","","false","","","","","","","","null","","650.6000000014901","","1","1","null","null","arrowup","[0.325,0.675,0.15,0.85]","","",""
"sailing-trial","167","798332","0.0-11.0-132.0","","","","","","false","","","","","","","","414.30000000074506","","236.5","","1","0","arrowleft","0","arrowright","[0.325,0.675,0.15,0.85]","","",""
"sailing-trial","168","800599","0.0-11.0-133.0","","","","","","false","","","","","","","","null","","738.2999999988824","","0","0","null","null","arrowup","[0.325,0.675,0.15,0.85]","","",""
"sailing-trial","169","803645","0.0-11.0-134.0","","","","","","false","","","","","","","","514.4000000003725","","202.10000000149012","","2","0","arrowright","1","arrowleft","[0.15,0.85,0.325,0.675]","","",""
"sailing-trial","170","805963","0.0-11.0-135.0","","","","","","false","","","","","","","","null","","469.19999999925494","","3","1","null","null","arrowup","[0.15,0.85,0.325,0.675]","","",""
"sailing-trial","171","810080","0.0-11.0-136.0","","","","","","false","","","","","","","","634.5","","228.59999999962747","","3","1","arrowright","1","arrowright","[0.15,0.85,0.325,0.675]","","",""
"sailing-trial","172","811703","0.0-11.0-137.0","","","","","","false","","","","","","","","null","","506.2000000011176","","3","0","null","null","arrowup","[0.15,0.85,0.325,0.675]","","",""
"sailing-trial","173","814543","0.0-11.0-138.0","","","","","","false","","","","","","","","608.2000000011176","","53","","3","0","arrowright","1","arrowright","[0.15,0.85,0.325,0.675]","","",""
"sailing-trial","174","816692","0.0-11.0-139.0","","","","","","false","","","","","","","","null","","1025.0999999996275","","0","0","null","null","arrowup","[0.15,0.85,0.325,0.675]","","",""
"sailing-trial","175","820326","0.0-11.0-140.0","","","","","","false","","","","","","","","518.1999999992549","","70.79999999888241","","3","0","arrowright","1","arrowright","[0.15,0.85,0.325,0.675]","","",""
"sailing-trial","176","822780","0.0-11.0-141.0","","","","","","false","","","","","","","","null","","659.5","","1","1","null","null","arrowup","[0.15,0.85,0.325,0.675]","","",""
"sailing-trial","177","826579","0.0-11.0-142.0","","","","","","false","","","","","","","","308.40000000037253","","635","","1","1","arrowleft","0","arrowright","[0.15,0.85,0.325,0.675]","","",""
"sailing-trial","178","829560","0.0-11.0-143.0","","","","","","false","","","","","","","","null","","494.5","","0","0","null","null","arrowup","[0.15,0.85,0.325,0.675]","","",""
"sailing-trial","179","833313","0.0-11.0-144.0","","","","","","false","","","","","","","","409.2999999988824","","346","","1","1","arrowleft","0","arrowright","[0.15,0.85,0.325,0.675]","","",""
"sailing-trial","180","835188","0.0-11.0-145.0","","","","","","false","","","","","","","","null","","475.40000000037253","","2","0","null","null","arrowup","[0.15,0.85,0.325,0.675]","","",""
"sailing-trial","181","839129","0.0-11.0-146.0","","","","","","false","","","","","","","","442.30000000074506","","577.6999999992549","","1","1","arrowleft","0","arrowright","[0.15,0.85,0.325,0.675]","","",""
"sailing-trial","182","843048","0.0-11.0-147.0","","","","","","false","","","","","","","","null","","915.5999999996275","","2","0","null","null","arrowup","[0.15,0.85,0.325,0.675]","","",""
"sailing-trial","183","851412","0.0-11.0-148.0","","","","","","false","","","","","","","","1683.5","","3713.89999999851","","1","0","arrowleft","0","arrowright","[0.15,0.85,0.325,0.675]","","",""
"sailing-trial","184","855453","0.0-11.0-149.0","","","","","","false","","","","","","","","null","","1418.199999999255","","2","0","null","null","arrowup","[0.15,0.85,0.325,0.675]","","",""
"sailing-trial","185","863046","0.0-11.0-150.0","","","","","","false","","","","","","","","3158.5","","750.5999999996275","","3","1","arrowright","1","arrowright","[0.325,0.675,0.15,0.85]","","",""
"sailing-trial","186","865284","0.0-11.0-151.0","","","","","","false","","","","","","","","null","","551.0999999996275","","1","0","null","null","arrowup","[0.325,0.675,0.15,0.85]","","",""
"sailing-trial","187","870140","0.0-11.0-152.0","","","","","","false","","","","","","","","974.5","","125.29999999888241","","0","0","arrowleft","0","arrowleft","[0.325,0.675,0.15,0.85]","","",""
"sailing-trial","188","873730","0.0-11.0-153.0","","","","","","false","","","","","","","","null","","733.9000000003725","","3","1","null","null","arrowup","[0.325,0.675,0.15,0.85]","","",""
"sailing-trial","189","878131","0.0-11.0-154.0","","","","","","false","","","","","","","","1150.7999999988824","","489.5","","0","0","arrowleft","0","arrowleft","[0.325,0.675,0.15,0.85]","","",""
"sailing-trial","190","881228","0.0-11.0-155.0","","","","","","false","","","","","","","","null","","1445.2999999988824","","1","0","null","null","arrowup","[0.325,0.675,0.15,0.85]","","",""
"sailing-trial","191","884846","0.0-11.0-156.0","","","","","","false","","","","","","","","517.9000000003725","","28.59999999962747","","3","1","arrowright","1","arrowright","[0.325,0.675,0.15,0.85]","","",""
"sailing-trial","192","887402","0.0-11.0-157.0","","","","","","false","","","","","","","","null","","1282.9000000003725","","2","0","null","null","arrowup","[0.325,0.675,0.15,0.85]","","",""
"sailing-trial","193","891479","0.0-11.0-158.0","","","","","","false","","","","","","","","587.7999999988824","","870.2999999988824","","3","1","arrowright","1","arrowright","[0.325,0.675,0.15,0.85]","","",""
"sailing-trial","194","894012","0.0-11.0-159.0","","","","","","false","","","","","","","","null","","234.30000000074506","","0","0","null","null","arrowup","[0.325,0.675,0.15,0.85]","","",""
"sailing-trial","195","897145","0.0-11.0-160.0","","","","","","false","","","","","","","","467.19999999925494","","56.40000000037253","","3","1","arrowright","1","arrowright","[0.325,0.675,0.15,0.85]","","",""
"sailing-trial","196","899207","0.0-11.0-161.0","","","","","","false","","","","","","","","null","","434.19999999925494","","2","0","null","null","arrowup","[0.325,0.675,0.15,0.85]","","",""
"sailing-trial","197","903312","0.0-11.0-162.0","","","","","","false","","","","","","","","435.19999999925494","","416.30000000074506","","3","1","arrowright","1","arrowright","[0.325,0.675,0.15,0.85]","","",""
"sailing-trial","198","906845","0.0-11.0-163.0","","","","","","false","","","","","","","","null","","1436.199999999255","","3","1","null","null","arrowup","[0.325,0.675,0.15,0.85]","","",""
"sailing-trial","199","910428","0.0-11.0-164.0","","","","","","false","","","","","","","","468.7999999988824","","122.19999999925494","","3","1","arrowright","1","arrowright","[0.325,0.675,0.15,0.85]","","",""
"sailing-trial","200","913295","0.0-11.0-165.0","","","","","","false","","","","","","","","null","","508.30000000074506","","3","1","null","null","arrowup","[0.325,0.675,0.15,0.85]","","",""
"sailing-trial","201","916436","0.0-11.0-166.0","","","","","","false","","","","","","","","512.6999999992549","","371.7000000011176","","3","0","arrowright","1","arrowright","[0.15,0.85,0.325,0.675]","","",""
"sailing-trial","202","919529","0.0-11.0-167.0","","","","","","false","","","","","","","","null","","1567.2000000011176","","1","0","null","null","arrowup","[0.15,0.85,0.325,0.675]","","",""
"sailing-trial","203","923678","0.0-11.0-168.0","","","","","","false","","","","","","","","468.09999999962747","","461","","0","1","arrowleft","0","arrowleft","[0.15,0.85,0.325,0.675]","","",""
"sailing-trial","204","926712","0.0-11.0-169.0","","","","","","false","","","","","","","","null","","432.7000000011176","","2","1","null","null","arrowup","[0.15,0.85,0.325,0.675]","","",""
"sailing-trial","205","929807","0.0-11.0-170.0","","","","","","false","","","","","","","","449.90000000037253","","459.09999999962747","","0","0","arrowleft","0","arrowleft","[0.15,0.85,0.325,0.675]","","",""
"sailing-trial","206","931712","0.0-11.0-171.0","","","","","","false","","","","","","","","null","","348.19999999925494","","0","1","null","null","arrowup","[0.15,0.85,0.325,0.675]","","",""
"sailing-trial","207","934055","0.0-11.0-172.0","","","","","","false","","","","","","","","236.7999999988824","","68.5","","0","0","arrowleft","0","arrowleft","[0.15,0.85,0.325,0.675]","","",""
"sailing-trial","208","937214","0.0-11.0-173.0","","","","","","false","","","","","","","","null","","536.1999999992549","","0","0","null","null","arrowup","[0.15,0.85,0.325,0.675]","","",""
"sailing-trial","209","941595","0.0-11.0-174.0","","","","","","false","","","","","","","","1313.199999999255","","186.09999999962747","","1","1","arrowleft","0","arrowright","[0.15,0.85,0.325,0.675]","","",""
"sailing-trial","210","944201","0.0-11.0-175.0","","","","","","false","","","","","","","","null","","938.5999999996275","","3","0","null","null","arrowup","[0.15,0.85,0.325,0.675]","","",""
"sailing-trial","211","947177","0.0-11.0-176.0","","","","","","false","","","","","","","","420.19999999925494","","16.59999999962747","","2","1","arrowright","1","arrowleft","[0.15,0.85,0.325,0.675]","","",""
"sailing-trial","212","950962","0.0-11.0-177.0","","","","","","false","","","","","","","","null","","1257.7999999988824","","1","1","null","null","arrowup","[0.15,0.85,0.325,0.675]","","",""
"sailing-trial","213","955528","0.0-11.0-178.0","","","","","","false","","","","","","","","493.7999999988824","","65.29999999888241","","2","0","arrowright","1","arrowleft","[0.15,0.85,0.325,0.675]","","",""
"sailing-trial","214","957711","0.0-11.0-179.0","","","","","","false","","","","","","","","null","","214.90000000037253","","3","1","null","null","arrowup","[0.15,0.85,0.325,0.675]","","",""
"sailing-trial","215","960803","0.0-11.0-180.0","","","","","","false","","","","","","","","516.4000000003725","","157","","3","0","arrowright","1","arrowright","[0.15,0.85,0.325,0.675]","","",""
"sailing-trial","216","962744","0.0-11.0-181.0","","","","","","false","","","","","","","","null","","349.30000000074506","","0","1","null","null","arrowup","[0.15,0.85,0.325,0.675]","","",""
"sailing-trial","217","966559","0.0-11.0-182.0","","","","","","false","","","","","","","","590.5999999996275","","599.1999999992549","","0","0","arrowleft","0","arrowleft","[0.15,0.85,0.325,0.675]","","",""
"sailing-trial","218","971292","0.0-11.0-183.0","","","","","","false","","","","","","","","null","","3361.5","","0","0","null","null","arrowup","[0.15,0.85,0.325,0.675]","","",""
"sailing-trial","219","977036","0.0-11.0-184.0","","","","","","false","","","","","","","","405.90000000037253","","2933.5","","2","0","arrowright","1","arrowleft","[0.15,0.85,0.325,0.675]","","",""
"sailing-trial","220","980828","0.0-11.0-185.0","","","","","","false","","","","","","","","null","","2239.7999999988824","","1","1","null","null","arrowup","[0.15,0.85,0.325,0.675]","","",""
"sailing-trial","221","984042","0.0-11.0-186.0","","","","","","false","","","","","","","","423.2000000011176","","532.7999999988824","","1","0","arrowleft","0","arrowright","[0.675,0.325,0.85,0.15]","","",""
"sailing-trial","222","988014","0.0-11.0-187.0","","","","","","false","","","","","","","","null","","967.8000000007451","","3","0","null","null","arrowup","[0.675,0.325,0.85,0.15]","","",""
"sailing-trial","223","994194","0.0-11.0-188.0","","","","","","false","","","","","","","","737","","187.59999999962747","","2","1","arrowright","1","arrowleft","[0.675,0.325,0.85,0.15]","","",""
"sailing-trial","224","996194","0.0-11.0-189.0","","","","","","false","","","","","","","","null","","441.59999999962747","","0","1","null","null","arrowup","[0.675,0.325,0.85,0.15]","","",""
"sailing-trial","225","999878","0.0-11.0-190.0","","","","","","false","","","","","","","","577.8000000007451","","365.19999999925494","","1","1","arrowleft","0","arrowright","[0.675,0.325,0.85,0.15]","","",""
"sailing-trial","226","1002319","0.0-11.0-191.0","","","","","","false","","","","","","","","null","","881.9000000003725","","3","0","null","null","arrowup","[0.675,0.325,0.85,0.15]","","",""
"sailing-trial","227","1005777","0.0-11.0-192.0","","","","","","false","","","","","","","","443.2000000011176","","181.5","","2","1","arrowright","1","arrowleft","[0.675,0.325,0.85,0.15]","","",""
"sailing-trial","228","1008959","0.0-11.0-193.0","","","","","","false","","","","","","","","null","","847.5999999996275","","3","0","null","null","arrowup","[0.675,0.325,0.85,0.15]","","",""
"sailing-trial","229","1012861","0.0-11.0-194.0","","","","","","false","","","","","","","","593.6999999992549","","499","","1","1","arrowleft","0","arrowright","[0.675,0.325,0.85,0.15]","","",""
"sailing-trial","230","1016744","0.0-11.0-195.0","","","","","","false","","","","","","","","null","","2023.300000000745","","2","1","null","null","arrowup","[0.675,0.325,0.85,0.15]","","",""
"sailing-trial","231","1019906","0.0-11.0-196.0","","","","","","false","","","","","","","","613.6999999992549","","274.30000000074506","","1","0","arrowleft","0","arrowright","[0.675,0.325,0.85,0.15]","","",""
"sailing-trial","232","1026279","0.0-11.0-197.0","","","","","","false","","","","","","","","null","","3377.199999999255","","2","0","null","null","arrowup","[0.675,0.325,0.85,0.15]","","",""
"sailing-trial","233","1030577","0.0-11.0-198.0","","","","","","false","","","","","","","","765.5","","269.5","","2","1","arrowright","1","arrowleft","[0.675,0.325,0.85,0.15]","","",""
"sailing-trial","234","1034444","0.0-11.0-199.0","","","","","","false","","","","","","","","null","","1815.9000000003725","","2","1","null","null","arrowup","[0.675,0.325,0.85,0.15]","","",""
"sailing-trial","235","1041143","0.0-11.0-200.0","","","","","","false","","","","","","","","525.1999999992549","","245.59999999962747","","2","1","arrowright","1","arrowleft","[0.675,0.325,0.85,0.15]","","",""
"sailing-trial","236","1042534","0.0-11.0-201.0","","","","","","false","","","","","","","","null","","262.59999999962747","","3","0","null","null","arrowup","[0.675,0.325,0.85,0.15]","","",""
"sailing-trial","237","1045710","0.0-11.0-202.0","","","","","","false","","","","","","","","431.09999999962747","","122.70000000111759","","2","1","arrowright","1","arrowleft","[0.675,0.325,0.85,0.15]","","",""
"sailing-trial","238","1048847","0.0-11.0-203.0","","","","","","false","","","","","","","","null","","1621.7000000011176","","3","0","null","null","arrowup","[0.675,0.325,0.85,0.15]","","",""
"sailing-trial","239","1052277","0.0-11.0-204.0","","","","","","false","","","","","","","","391.09999999962747","","36","","1","1","arrowleft","0","arrowright","[0.325,0.675,0.15,0.85]","","",""
"sailing-trial","240","1053780","0.0-11.0-205.0","","","","","","false","","","","","","","","null","","447.7000000011176","","2","0","null","null","arrowup","[0.325,0.675,0.15,0.85]","","",""
"sailing-trial","241","1058827","0.0-11.0-206.0","","","","","","false","","","","","","","","220.5","","712.9000000003725","","3","1","arrowright","1","arrowright","[0.325,0.675,0.15,0.85]","","",""
"sailing-trial","242","1061893","0.0-11.0-207.0","","","","","","false","","","","","","","","null","","663.0999999996275","","0","1","null","null","arrowup","[0.325,0.675,0.15,0.85]","","",""
"sailing-trial","243","1065276","0.0-11.0-208.0","","","","","","false","","","","","","","","513.6999999992549","","144.09999999962747","","3","1","arrowright","1","arrowright","[0.325,0.675,0.15,0.85]","","",""
"sailing-trial","244","1066672","0.0-11.0-209.0","","","","","","false","","","","","","","","null","","237.40000000037253","","2","0","null","null","arrowup","[0.325,0.675,0.15,0.85]","","",""
"sailing-trial","245","1073611","0.0-11.0-210.0","","","","","","false","","","","","","","","372.80000000074506","","4421.5999999996275","","3","0","arrowright","1","arrowright","[0.325,0.675,0.15,0.85]","","",""
"sailing-trial","246","1074988","0.0-11.0-211.0","","","","","","false","","","","","","","","null","","220.5","","1","0","null","null","arrowup","[0.325,0.675,0.15,0.85]","","",""
"sailing-trial","247","1078328","0.0-11.0-212.0","","","","","","false","","","","","","","","506.2000000011176","","331.6000000014901","","0","0","arrowleft","0","arrowleft","[0.325,0.675,0.15,0.85]","","",""
"sailing-trial","248","1081049","0.0-11.0-213.0","","","","","","false","","","","","","","","null","","766","","1","0","null","null","arrowup","[0.325,0.675,0.15,0.85]","","",""
"sailing-trial","249","1085609","0.0-11.0-214.0","","","","","","false","","","","","","","","468","","378.09999999962747","","3","1","arrowright","1","arrowright","[0.325,0.675,0.15,0.85]","","",""
"sailing-trial","250","1091677","0.0-11.0-215.0","","","","","","false","","","","","","","","null","","2406.5999999996275","","1","1","null","null","arrowup","[0.325,0.675,0.15,0.85]","","",""
"sailing-trial","251","1095443","0.0-11.0-216.0","","","","","","false","","","","","","","","500.7000000011176","","225.59999999962747","","3","1","arrowright","1","arrowright","[0.325,0.675,0.15,0.85]","","",""
"sailing-trial","252","1097143","0.0-11.0-217.0","","","","","","false","","","","","","","","null","","174.7000000011176","","3","1","null","null","arrowup","[0.325,0.675,0.15,0.85]","","",""
"sailing-trial","253","1101626","0.0-11.0-218.0","","","","","","false","","","","","","","","499.19999999925494","","142.09999999962747","","3","1","arrowright","1","arrowright","[0.325,0.675,0.15,0.85]","","",""
"sailing-trial","254","1104114","0.0-11.0-219.0","","","","","","false","","","","","","","","null","","844","","0","0","null","null","arrowup","[0.325,0.675,0.15,0.85]","","",""
"sailing-trial","255","1107826","0.0-11.0-220.0","","","","","","false","","","","","","","","741","","434.09999999962747","","3","1","arrowright","1","arrowright","[0.325,0.675,0.15,0.85]","","",""
"sailing-trial","256","1110359","0.0-11.0-221.0","","","","","","false","","","","","","","","null","","589.5999999996275","","2","1","null","null","arrowup","[0.325,0.675,0.15,0.85]","","",""
"sailing-trial","257","1113414","0.0-11.0-222.0","","","","","","false","","","","","","","","421.69999999925494","","498.90000000037253","","3","0","arrowright","1","arrowright","[0.325,0.675,0.15,0.85]","","",""
"sailing-trial","258","1115325","0.0-11.0-223.0","","","","","","false","","","","","","","","null","","656.1000000014901","","2","0","null","null","arrowup","[0.325,0.675,0.15,0.85]","","",""
"sailing-trial","259","1118742","0.0-11.0-224.0","","","","","","false","","","","","","","","301.7000000011176","","428","","3","1","arrowright","1","arrowright","[0.15,0.85,0.325,0.675]","","",""
"sailing-trial","260","1121711","0.0-11.0-225.0","","","","","","false","","","","","","","","null","","815.3000000007451","","3","1","null","null","arrowup","[0.15,0.85,0.325,0.675]","","",""
"sailing-trial","261","1125959","0.0-11.0-226.0","","","","","","false","","","","","","","","920.8000000007451","","190.90000000037253","","3","1","arrowright","1","arrowright","[0.15,0.85,0.325,0.675]","","",""
"sailing-trial","262","1128520","0.0-11.0-227.0","","","","","","false","","","","","","","","null","","968.3999999985099","","0","0","null","null","arrowup","[0.15,0.85,0.325,0.675]","","",""
"sailing-trial","263","1132477","0.0-11.0-228.0","","","","","","false","","","","","","","","869.5","","459.90000000037253","","1","1","arrowleft","0","arrowright","[0.15,0.85,0.325,0.675]","","",""
"sailing-trial","264","1134559","0.0-11.0-229.0","","","","","","false","","","","","","","","null","","529.1000000014901","","2","1","null","null","arrowup","[0.15,0.85,0.325,0.675]","","",""
"sailing-trial","265","1138092","0.0-11.0-230.0","","","","","","false","","","","","","","","456.6000000014901","","168.7000000011176","","1","1","arrowleft","0","arrowright","[0.15,0.85,0.325,0.675]","","",""
"sailing-trial","266","1140060","0.0-11.0-231.0","","","","","","false","","","","","","","","null","","133.7999999988824","","1","1","null","null","arrowup","[0.15,0.85,0.325,0.675]","","",""
"sailing-trial","267","1143276","0.0-11.0-232.0","","","","","","false","","","","","","","","476.5","","247.30000000074506","","1","1","arrowleft","0","arrowright","[0.15,0.85,0.325,0.675]","","",""
"sailing-trial","268","1146026","0.0-11.0-233.0","","","","","","false","","","","","","","","null","","897.7000000011176","","2","1","null","null","arrowup","[0.15,0.85,0.325,0.675]","","",""
"sailing-trial","269","1149993","0.0-11.0-234.0","","","","","","false","","","","","","","","682.2000000011176","","503.80000000074506","","1","1","arrowleft","0","arrowright","[0.15,0.85,0.325,0.675]","","",""
"sailing-trial","270","1152625","0.0-11.0-235.0","","","","","","false","","","","","","","","null","","1174.7999999988824","","3","0","null","null","arrowup","[0.15,0.85,0.325,0.675]","","",""
"sailing-trial","271","1158042","0.0-11.0-236.0","","","","","","false","","","","","","","","735.9000000003725","","1747.0999999996275","","1","1","arrowleft","0","arrowright","[0.15,0.85,0.325,0.675]","","",""
"sailing-trial","272","1160975","0.0-11.0-237.0","","","","","","false","","","","","","","","null","","1295.3999999985099","","3","1","null","null","arrowup","[0.15,0.85,0.325,0.675]","","",""
"sailing-trial","273","1164609","0.0-11.0-238.0","","","","","","false","","","","","","","","748.5","","90.30000000074506","","1","1","arrowleft","0","arrowright","[0.15,0.85,0.325,0.675]","","",""
"sailing-trial","274","1166208","0.0-11.0-239.0","","","","","","false","","","","","","","","null","","344.5","","1","0","null","null","arrowup","[0.15,0.85,0.325,0.675]","","",""
"sailing-trial","275","1169476","0.0-11.0-240.0","","","","","","false","","","","","","","","308.2000000011176","","41.40000000037253","","1","1","arrowleft","0","arrowright","[0.15,0.85,0.325,0.675]","","",""
"sailing-trial","276","1170724","0.0-11.0-241.0","","","","","","false","","","","","","","","null","","111.70000000111759","","1","0","null","null","arrowup","[0.15,0.85,0.325,0.675]","","",""
"sailing-trial","277","1173723","0.0-11.0-242.0","","","","","","false","","","","","","","","494","","288.1000000014901","","1","0","arrowleft","0","arrowright","[0.325,0.675,0.15,0.85]","","",""
"sailing-trial","278","1175102","0.0-11.0-243.0","","","","","","false","","","","","","","","null","","61","","2","0","null","null","arrowup","[0.325,0.675,0.15,0.85]","","",""
"sailing-trial","279","1178676","0.0-11.0-244.0","","","","","","false","","","","","","","","229","","190.80000000074506","","0","1","arrowleft","0","arrowleft","[0.325,0.675,0.15,0.85]","","",""
"sailing-trial","280","1180959","0.0-11.0-245.0","","","","","","false","","","","","","","","null","","400.40000000037253","","3","1","null","null","arrowup","[0.325,0.675,0.15,0.85]","","",""
"sailing-trial","281","1184826","0.0-11.0-246.0","","","","","","false","","","","","","","","668.2999999988824","","244.69999999925494","","0","1","arrowleft","0","arrowleft","[0.325,0.675,0.15,0.85]","","",""
"sailing-trial","282","1189859","0.0-11.0-247.0","","","","","","false","","","","","","","","null","","3168.5","","1","1","null","null","arrowup","[0.325,0.675,0.15,0.85]","","",""
"sailing-trial","283","1193458","0.0-11.0-248.0","","","","","","false","","","","","","","","573.2999999988824","","267.90000000037253","","1","1","arrowleft","0","arrowright","[0.325,0.675,0.15,0.85]","","",""
"sailing-trial","284","1196225","0.0-11.0-249.0","","","","","","false","","","","","","","","null","","349.5","","0","1","null","null","arrowup","[0.325,0.675,0.15,0.85]","","",""
"sailing-trial","285","1199096","0.0-11.0-250.0","","","","","","false","","","","","","","","548.5","","135.5","","1","0","arrowleft","0","arrowright","[0.325,0.675,0.15,0.85]","","",""
"sailing-trial","286","1200734","0.0-11.0-251.0","","","","","","false","","","","","","","","null","","554.1999999992549","","0","0","null","null","arrowup","[0.325,0.675,0.15,0.85]","","",""
"sailing-trial","287","1203774","0.0-11.0-252.0","","","","","","false","","","","","","","","473.30000000074506","","427.3999999985099","","0","0","arrowleft","0","arrowleft","[0.325,0.675,0.15,0.85]","","",""
"sailing-trial","288","1205681","0.0-11.0-253.0","","","","","","false","","","","","","","","null","","244.5","","1","0","null","null","arrowup","[0.325,0.675,0.15,0.85]","","",""
"sailing-trial","289","1209125","0.0-11.0-254.0","","","","","","false","","","","","","","","108.40000000037253","","750.5","","3","1","arrowright","1","arrowright","[0.325,0.675,0.15,0.85]","","",""
"sailing-trial","290","1212441","0.0-11.0-255.0","","","","","","false","","","","","","","","null","","1507.4000000003725","","1","1","null","null","arrowup","[0.325,0.675,0.15,0.85]","","",""
"sailing-trial","291","1215456","0.0-11.0-256.0","","","","","","false","","","","","","","","578.3000000007451","","167.5","","3","0","arrowright","1","arrowright","[0.325,0.675,0.15,0.85]","","",""
"sailing-trial","292","1216977","0.0-11.0-257.0","","","","","","false","","","","","","","","null","","329.09999999962747","","0","0","null","null","arrowup","[0.325,0.675,0.15,0.85]","","",""
"sailing-trial","293","1219654","0.0-11.0-258.0","","","","","","false","","","","","","","","275.1000000014901","","218.7000000011176","","2","0","arrowright","1","arrowleft","[0.15,0.85,0.325,0.675]","","",""
"sailing-trial","294","1220880","0.0-11.0-259.0","","","","","","false","","","","","","","","null","","21.699999999254942","","0","0","null","null","arrowup","[0.15,0.85,0.325,0.675]","","",""
"sailing-trial","295","1224078","0.0-11.0-260.0","","","","","","false","","","","","","","","124.39999999850988","","844.9000000003725","","0","0","arrowleft","0","arrowleft","[0.15,0.85,0.325,0.675]","","",""
"sailing-trial","296","1226026","0.0-11.0-261.0","","","","","","false","","","","","","","","null","","226.60000000149012","","0","1","null","null","arrowup","[0.15,0.85,0.325,0.675]","","",""
"sailing-trial","297","1228868","0.0-11.0-262.0","","","","","","false","","","","","","","","52.30000000074506","","451.3999999985099","","0","0","arrowleft","0","arrowleft","[0.15,0.85,0.325,0.675]","","",""
"sailing-trial","298","1231158","0.0-11.0-263.0","","","","","","false","","","","","","","","null","","650.7999999988824","","1","1","null","null","arrowup","[0.15,0.85,0.325,0.675]","","",""
"sailing-trial","299","1234016","0.0-11.0-264.0","","","","","","false","","","","","","","","443.69999999925494","","153.19999999925494","","0","0","arrowleft","0","arrowleft","[0.15,0.85,0.325,0.675]","","",""
"sailing-trial","300","1236025","0.0-11.0-265.0","","","","","","false","","","","","","","","null","","354.90000000037253","","1","1","null","null","arrowup","[0.15,0.85,0.325,0.675]","","",""
"sailing-trial","301","1239225","0.0-11.0-266.0","","","","","","false","","","","","","","","338.7999999988824","","201.09999999962747","","1","1","arrowleft","0","arrowright","[0.15,0.85,0.325,0.675]","","",""
"sailing-trial","302","1241491","0.0-11.0-267.0","","","","","","false","","","","","","","","null","","544.2000000011176","","1","1","null","null","arrowup","[0.15,0.85,0.325,0.675]","","",""
"sailing-trial","303","1244742","0.0-11.0-268.0","","","","","","false","","","","","","","","594.5999999996275","","65.30000000074506","","1","1","arrowleft","0","arrowright","[0.15,0.85,0.325,0.675]","","",""
"sailing-trial","304","1246941","0.0-11.0-269.0","","","","","","false","","","","","","","","null","","265.2000000011176","","2","1","null","null","arrowup","[0.15,0.85,0.325,0.675]","","",""
"sailing-trial","305","1249859","0.0-11.0-270.0","","","","","","false","","","","","","","","255.69999999925494","","468.8999999985099","","2","0","arrowright","1","arrowleft","[0.15,0.85,0.325,0.675]","","",""
"sailing-trial","306","1251841","0.0-11.0-271.0","","","","","","false","","","","","","","","null","","3.199999999254942","","1","1","null","null","arrowup","[0.15,0.85,0.325,0.675]","","",""
"sailing-trial","307","1254980","0.0-11.0-272.0","","","","","","false","","","","","","","","496.3999999985099","","278.19999999925494","","2","0","arrowright","1","arrowleft","[0.15,0.85,0.325,0.675]","","",""
"sailing-trial","308","1256494","0.0-11.0-273.0","","","","","","false","","","","","","","","null","","226.39999999850988","","0","0","null","null","arrowup","[0.15,0.85,0.325,0.675]","","",""
"sailing-trial","309","1259907","0.0-11.0-274.0","","","","","","false","","","","","","","","431.69999999925494","","359.3999999985099","","1","1","arrowleft","0","arrowright","[0.15,0.85,0.325,0.675]","","",""
"sailing-trial","310","1262575","0.0-11.0-275.0","","","","","","false","","","","","","","","null","","1030.4000000003725","","1","1","null","null","arrowup","[0.15,0.85,0.325,0.675]","","",""
"sailing-trial","311","1266225","0.0-11.0-276.0","","","","","","false","","","","","","","","489","","535.1999999992549","","1","1","arrowleft","0","arrowright","[0.325,0.675,0.15,0.85]","","",""
"sailing-trial","312","1268624","0.0-11.0-277.0","","","","","","false","","","","","","","","null","","622.7999999988824","","3","1","null","null","arrowup","[0.325,0.675,0.15,0.85]","","",""
"sailing-trial","313","1271825","0.0-11.0-278.0","","","","","","false","","","","","","","","453.69999999925494","","205.7000000011176","","3","1","arrowright","1","arrowright","[0.325,0.675,0.15,0.85]","","",""
"sailing-trial","314","1274174","0.0-11.0-279.0","","","","","","false","","","","","","","","null","","577.2999999988824","","0","1","null","null","arrowup","[0.325,0.675,0.15,0.85]","","",""
"sailing-trial","315","1277809","0.0-11.0-280.0","","","","","","false","","","","","","","","384.69999999925494","","362.2999999988824","","0","1","arrowleft","0","arrowleft","[0.325,0.675,0.15,0.85]","","",""
"sailing-trial","316","1280208","0.0-11.0-281.0","","","","","","false","","","","","","","","null","","523.2999999988824","","0","1","null","null","arrowup","[0.325,0.675,0.15,0.85]","","",""
"sailing-trial","317","1283541","0.0-11.0-282.0","","","","","","false","","","","","","","","143.40000000037253","","545.3999999985099","","0","1","arrowleft","0","arrowleft","[0.325,0.675,0.15,0.85]","","",""
"sailing-trial","318","1285402","0.0-11.0-283.0","","","","","","false","","","","","","","","null","","576.0999999996275","","3","0","null","null","arrowup","[0.325,0.675,0.15,0.85]","","",""
"sailing-trial","319","1288491","0.0-11.0-284.0","","","","","","false","","","","","","","","198.5","","260.6000000014901","","0","1","arrowleft","0","arrowleft","[0.325,0.675,0.15,0.85]","","",""
"sailing-trial","320","1290308","0.0-11.0-285.0","","","","","","false","","","","","","","","null","","574.7999999988824","","2","0","null","null","arrowup","[0.325,0.675,0.15,0.85]","","",""
"sailing-trial","321","1292997","0.0-11.0-286.0","","","","","","false","","","","","","","","387.59999999962747","","176","","0","0","arrowleft","0","arrowleft","[0.325,0.675,0.15,0.85]","","",""
"sailing-trial","322","1295407","0.0-11.0-287.0","","","","","","false","","","","","","","","null","","553.6999999992549","","3","1","null","null","arrowup","[0.325,0.675,0.15,0.85]","","",""
"sailing-trial","323","1298941","0.0-11.0-288.0","","","","","","false","","","","","","","","538.4000000003725","","408.09999999962747","","3","1","arrowright","1","arrowright","[0.325,0.675,0.15,0.85]","","",""
"sailing-trial","324","1301158","0.0-11.0-289.0","","","","","","false","","","","","","","","null","","668.1999999992549","","0","1","null","null","arrowup","[0.325,0.675,0.15,0.85]","","",""
"sailing-trial","325","1304824","0.0-11.0-290.0","","","","","","false","","","","","","","","482.8999999985099","","395.09999999962747","","0","1","arrowleft","0","arrowleft","[0.325,0.675,0.15,0.85]","","",""
"sailing-trial","326","1306740","0.0-11.0-291.0","","","","","","false","","","","","","","","null","","678.1999999992549","","2","0","null","null","arrowup","[0.325,0.675,0.15,0.85]","","",""
"sailing-trial","327","1309626","0.0-11.0-292.0","","","","","","false","","","","","","","","335.2000000011176","","473.90000000037253","","0","0","arrowleft","0","arrowleft","[0.15,0.85,0.325,0.675]","","",""
"sailing-trial","328","1311991","0.0-11.0-293.0","","","","","","false","","","","","","","","null","","512.6000000014901","","2","1","null","null","arrowup","[0.15,0.85,0.325,0.675]","","",""
"sailing-trial","329","1315142","0.0-11.0-294.0","","","","","","false","","","","","","","","568.6999999992549","","298.59999999962747","","2","0","arrowright","1","arrowleft","[0.15,0.85,0.325,0.675]","","",""
"sailing-trial","330","1317724","0.0-11.0-295.0","","","","","","false","","","","","","","","null","","629","","1","1","null","null","arrowup","[0.15,0.85,0.325,0.675]","","",""
"sailing-trial","331","1321192","0.0-11.0-296.0","","","","","","false","","","","","","","","455.40000000037253","","266","","1","1","arrowleft","0","arrowright","[0.15,0.85,0.325,0.675]","","",""
"sailing-trial","332","1323004","0.0-11.0-297.0","","","","","","false","","","","","","","","null","","788.5999999996275","","1","0","null","null","arrowup","[0.15,0.85,0.325,0.675]","","",""
"sailing-trial","333","1326124","0.0-11.0-298.0","","","","","","false","","","","","","","","447.5","","86.5","","1","1","arrowleft","0","arrowright","[0.15,0.85,0.325,0.675]","","",""
"sailing-trial","334","1328607","0.0-11.0-299.0","","","","","","false","","","","","","","","null","","528.8999999985099","","3","1","null","null","arrowup","[0.15,0.85,0.325,0.675]","","",""
"sailing-trial","335","1331823","0.0-11.0-300.0","","","","","","false","","","","","","","","250.59999999962747","","248.5","","3","1","arrowright","1","arrowright","[0.15,0.85,0.325,0.675]","","",""
"sailing-trial","336","1333616","0.0-11.0-301.0","","","","","","false","","","","","","","","null","","488","","2","0","null","null","arrowup","[0.15,0.85,0.325,0.675]","","",""
"sailing-trial","337","1336443","0.0-11.0-302.0","","","","","","false","","","","","","","","339.2999999988824","","161.19999999925494","","3","0","arrowright","1","arrowright","[0.15,0.85,0.325,0.675]","","",""
"sailing-trial","338","1338650","0.0-11.0-303.0","","","","","","false","","","","","","","","null","","1071.0999999996275","","3","0","null","null","arrowup","[0.15,0.85,0.325,0.675]","","",""
"sailing-trial","339","1342172","0.0-11.0-304.0","","","","","","false","","","","","","","","562","","766","","0","0","arrowleft","0","arrowleft","[0.15,0.85,0.325,0.675]","","",""
"sailing-trial","340","1343972","0.0-11.0-305.0","","","","","","false","","","","","","","","null","","488.09999999962747","","2","0","null","null","arrowup","[0.15,0.85,0.325,0.675]","","",""
"sailing-trial","341","1347889","0.0-11.0-306.0","","","","","","false","","","","","","","","542.1999999992549","","466.09999999962747","","1","1","arrowleft","0","arrowright","[0.15,0.85,0.325,0.675]","","",""
"sailing-trial","342","1349942","0.0-11.0-307.0","","","","","","false","","","","","","","","null","","759.7999999988824","","0","0","null","null","arrowup","[0.15,0.85,0.325,0.675]","","",""
"sailing-trial","343","1353656","0.0-11.0-308.0","","","","","","false","","","","","","","","427.6000000014901","","493.09999999962747","","1","1","arrowleft","0","arrowright","[0.15,0.85,0.325,0.675]","","",""
"sailing-trial","344","1355723","0.0-11.0-309.0","","","","","","false","","","","","","","","null","","546.2999999988824","","2","1","null","null","arrowup","[0.15,0.85,0.325,0.675]","","",""
"sailing-trial","345","1359123","0.0-11.0-310.0","","","","","","false","","","","","","","","389","","307.5","","1","1","arrowleft","0","arrowright","[0.325,0.675,0.15,0.85]","","",""
"sailing-trial","346","1361456","0.0-11.0-311.0","","","","","","false","","","","","","","","null","","535.5999999996275","","0","1","null","null","arrowup","[0.325,0.675,0.15,0.85]","","",""
"sailing-trial","347","1364890","0.0-11.0-312.0","","","","","","false","","","","","","","","373.69999999925494","","240.90000000037253","","1","1","arrowleft","0","arrowright","[0.325,0.675,0.15,0.85]","","",""
"sailing-trial","348","1367090","0.0-11.0-313.0","","","","","","false","","","","","","","","null","","482.19999999925494","","0","1","null","null","arrowup","[0.325,0.675,0.15,0.85]","","",""
"sailing-trial","349","1370340","0.0-11.0-314.0","","","","","","false","","","","","","","","361.30000000074506","","314.90000000037253","","1","1","arrowleft","0","arrowright","[0.325,0.675,0.15,0.85]","","",""
"sailing-trial","350","1372247","0.0-11.0-315.0","","","","","","false","","","","","","","","null","","731.7999999988824","","0","0","null","null","arrowup","[0.325,0.675,0.15,0.85]","","",""
"sailing-trial","351","1374928","0.0-11.0-316.0","","","","","","false","","","","","","","","335.80000000074506","","9.099999999627471","","1","0","arrowleft","0","arrowright","[0.325,0.675,0.15,0.85]","","",""
"sailing-trial","352","1377456","0.0-11.0-317.0","","","","","","false","","","","","","","","null","","785.7999999988824","","3","1","null","null","arrowup","[0.325,0.675,0.15,0.85]","","",""
"sailing-trial","353","1380590","0.0-11.0-318.0","","","","","","false","","","","","","","","342.40000000037253","","110.60000000149012","","3","1","arrowright","1","arrowright","[0.325,0.675,0.15,0.85]","","",""
"sailing-trial","354","1383622","0.0-11.0-319.0","","","","","","false","","","","","","","","null","","1081.699999999255","","1","1","null","null","arrowup","[0.325,0.675,0.15,0.85]","","",""
"sailing-trial","355","1387256","0.0-11.0-320.0","","","","","","false","","","","","","","","534.8999999985099","","242.40000000037253","","3","1","arrowright","1","arrowright","[0.325,0.675,0.15,0.85]","","",""
"sailing-trial","356","1389229","0.0-11.0-321.0","","","","","","false","","","","","","","","null","","697.5","","2","0","null","null","arrowup","[0.325,0.675,0.15,0.85]","","",""
"sailing-trial","357","1393707","0.0-11.0-322.0","","","","","","false","","","","","","","","149.59999999962747","","192.19999999925494","","3","1","arrowright","1","arrowright","[0.325,0.675,0.15,0.85]","","",""
"sailing-trial","358","1396924","0.0-11.0-323.0","","","","","","false","","","","","","","","null","","197","","2","0","null","null","arrowup","[0.325,0.675,0.15,0.85]","","",""
"sailing-trial","359","1401023","0.0-11.0-324.0","","","","","","false","","","","","","","","488.90000000037253","","178.90000000037253","","3","1","arrowright","1","arrowright","[0.325,0.675,0.15,0.85]","","",""
"sailing-trial","360","1404408","0.0-11.0-325.0","","","","","","false","","","","","","","","null","","630.7999999988824","","3","1","null","null","arrowup","[0.325,0.675,0.15,0.85]","","",""
"sailing-trial","361","1409073","0.0-11.0-326.0","","","","","","false","","","","","","","","1552.5999999996275","","121.69999999925494","","3","1","arrowright","1","arrowright","[0.325,0.675,0.15,0.85]","","",""
"sailing-trial","362","1411656","0.0-11.0-327.0","","","","","","false","","","","","","","","null","","1027.7000000011176","","1","1","null","null","arrowup","[0.325,0.675,0.15,0.85]","","",""
"sailing-trial","363","1415123","0.0-11.0-328.0","","","","","","false","","","","","","","","387","","114.70000000111759","","3","1","arrowright","1","arrowright","[0.325,0.675,0.15,0.85]","","",""
"sailing-trial","364","1417318","0.0-11.0-329.0","","","","","","false","","","","","","","","null","","846.3000000007451","","0","0","null","null","arrowup","[0.325,0.675,0.15,0.85]","","",""
"sailing-trial","365","1421241","0.0-11.0-330.0","","","","","","false","","","","","","","","866.0999999996275","","178.2999999988824","","3","0","arrowright","1","arrowright","[0.85,0.15,0.675,0.325]","","",""
"sailing-trial","366","1423168","0.0-11.0-331.0","","","","","","false","","","","","","","","null","","505.8999999985099","","1","0","null","null","arrowup","[0.85,0.15,0.675,0.325]","","",""
"sailing-trial","367","1426269","0.0-11.0-332.0","","","","","","false","","","","","","","","779.5999999996275","","249.59999999962747","","0","0","arrowleft","0","arrowleft","[0.85,0.15,0.675,0.325]","","",""
"sailing-trial","368","1428330","0.0-11.0-333.0","","","","","","false","","","","","","","","null","","752","","2","0","null","null","arrowup","[0.85,0.15,0.675,0.325]","","",""
"sailing-trial","369","1431367","0.0-11.0-334.0","","","","","","false","","","","","","","","342.09999999962747","","526.4000000003725","","1","0","arrowleft","0","arrowright","[0.85,0.15,0.675,0.325]","","",""
"sailing-trial","370","1433469","0.0-11.0-335.0","","","","","","false","","","","","","","","null","","935.0999999996275","","1","0","null","null","arrowup","[0.85,0.15,0.675,0.325]","","",""
"sailing-trial","371","1436169","0.0-11.0-336.0","","","","","","false","","","","","","","","333.5","","124.09999999962747","","2","0","arrowright","1","arrowleft","[0.85,0.15,0.675,0.325]","","",""
"sailing-trial","372","1438227","0.0-11.0-337.0","","","","","","false","","","","","","","","null","","420.7999999988824","","2","1","null","null","arrowup","[0.85,0.15,0.675,0.325]","","",""
"sailing-trial","373","1440844","0.0-11.0-338.0","","","","","","false","","","","","","","","347.5","","182.40000000037253","","2","0","arrowright","1","arrowleft","[0.85,0.15,0.675,0.325]","","",""
"sailing-trial","374","1442403","0.0-11.0-339.0","","","","","","false","","","","","","","","null","","497.90000000037253","","1","0","null","null","arrowup","[0.85,0.15,0.675,0.325]","","",""
"sailing-trial","375","1445638","0.0-11.0-340.0","","","","","","false","","","","","","","","498.19999999925494","","491.7999999988824","","3","0","arrowright","1","arrowright","[0.85,0.15,0.675,0.325]","","",""
"sailing-trial","376","1447888","0.0-11.0-341.0","","","","","","false","","","","","","","","null","","359.59999999962747","","1","1","null","null","arrowup","[0.85,0.15,0.675,0.325]","","",""
"sailing-trial","377","1450671","0.0-11.0-342.0","","","","","","false","","","","","","","","514.6999999992549","","132.09999999962747","","1","0","arrowleft","0","arrowright","[0.85,0.15,0.675,0.325]","","",""
"sailing-trial","378","1452838","0.0-11.0-343.0","","","","","","false","","","","","","","","null","","663.2000000011176","","0","1","null","null","arrowup","[0.85,0.15,0.675,0.325]","","",""
"sailing-trial","379","1456455","0.0-11.0-344.0","","","","","","false","","","","","","","","363.09999999962747","","450","","0","1","arrowleft","0","arrowleft","[0.85,0.15,0.675,0.325]","","",""
"sailing-trial","380","1458506","0.0-11.0-345.0","","","","","","false","","","","","","","","null","","492.7000000011176","","2","1","null","null","arrowup","[0.85,0.15,0.675,0.325]","","",""
"sailing-trial","381","1462155","0.0-11.0-346.0","","","","","","false","","","","","","","","524.8000000007451","","202.59999999962747","","0","1","arrowleft","0","arrowleft","[0.85,0.15,0.675,0.325]","","",""
"sailing-trial","382","1464555","0.0-11.0-347.0","","","","","","false","","","","","","","","null","","649.4000000003725","","3","1","null","null","arrowup","[0.85,0.15,0.675,0.325]","","",""
"sailing-trial","383","1467921","0.0-11.0-348.0","","","","","","false","","","","","","","","359.90000000037253","","283.5","","0","1","arrowleft","0","arrowleft","[0.85,0.15,0.675,0.325]","","",""
"sailing-trial","384","1469776","0.0-11.0-349.0","","","","","","false","","","","","","","","null","","858.8000000007451","","0","0","null","null","arrowup","[0.85,0.15,0.675,0.325]","","",""
"sailing-trial","385","1472905","0.0-11.0-350.0","","","","","","false","","","","","","","","356.80000000074506","","175.7000000011176","","0","1","arrowleft","0","arrowleft","[0.85,0.15,0.675,0.325]","","",""
"sailing-trial","386","1474521","0.0-11.0-351.0","","","","","","false","","","","","","","","null","","29.799999998882413","","2","1","null","null","arrowup","[0.85,0.15,0.675,0.325]","","",""
"sailing-trial","387","1476993","0.0-11.0-352.0","","","","","","false","","","","","","","","358.09999999962747","","32.80000000074506","","0","0","arrowleft","0","arrowleft","[0.15,0.85,0.325,0.675]","","",""
"sailing-trial","388","1479205","0.0-11.0-353.0","","","","","","false","","","","","","","","null","","502.19999999925494","","1","1","null","null","arrowup","[0.15,0.85,0.325,0.675]","","",""
"sailing-trial","389","1486488","0.0-11.0-354.0","","","","","","false","","","","","","","","616.5999999996275","","3733.9000000003725","","1","1","arrowleft","0","arrowright","[0.15,0.85,0.325,0.675]","","",""
"sailing-trial","390","1488655","0.0-11.0-355.0","","","","","","false","","","","","","","","null","","663","","1","1","null","null","arrowup","[0.15,0.85,0.325,0.675]","","",""
"sailing-trial","391","1492047","0.0-11.0-356.0","","","","","","false","","","","","","","","403.40000000037253","","620.6999999992549","","1","0","arrowleft","0","arrowright","[0.15,0.85,0.325,0.675]","","",""
"sailing-trial","392","1494439","0.0-11.0-357.0","","","","","","false","","","","","","","","null","","608.6999999992549","","3","1","null","null","arrowup","[0.15,0.85,0.325,0.675]","","",""
"sailing-trial","393","1498023","0.0-11.0-358.0","","","","","","false","","","","","","","","542.6999999992549","","356.90000000037253","","2","1","arrowright","1","arrowleft","[0.15,0.85,0.325,0.675]","","",""
"sailing-trial","394","1500471","0.0-11.0-359.0","","","","","","false","","","","","","","","null","","513.2999999988824","","3","1","null","null","arrowup","[0.15,0.85,0.325,0.675]","","",""
"sailing-trial","395","1503887","0.0-11.0-360.0","","","","","","false","","","","","","","","546.2000000011176","","276.6000000014901","","2","1","arrowright","1","arrowleft","[0.15,0.85,0.325,0.675]","","",""
"sailing-trial","396","1506521","0.0-11.0-361.0","","","","","","false","","","","","","","","null","","578.6999999992549","","1","1","null","null","arrowup","[0.15,0.85,0.325,0.675]","","",""
"sailing-trial","397","1509186","0.0-11.0-362.0","","","","","","false","","","","","","","","338.7000000011176","","18.09999999962747","","0","0","arrowleft","0","arrowleft","[0.15,0.85,0.325,0.675]","","",""
"sailing-trial","398","1511604","0.0-11.0-363.0","","","","","","false","","","","","","","","null","","910.4000000003725","","3","1","null","null","arrowup","[0.15,0.85,0.325,0.675]","","",""
"sailing-trial","399","1514644","0.0-11.0-364.0","","","","","","false","","","","","","","","549.4000000003725","","231.90000000037253","","2","0","arrowright","1","arrowleft","[0.15,0.85,0.325,0.675]","","",""
"sailing-trial","400","1516336","0.0-11.0-365.0","","","","","","false","","","","","","","","null","","523.6999999992549","","1","0","null","null","arrowup","[0.15,0.85,0.325,0.675]","","",""
"sailing-trial","401","1522354","0.0-11.0-366.0","","","","","","false","","","","","","","","2485.2000000011176","","436.59999999962747","","0","1","arrowleft","0","arrowleft","[0.15,0.85,0.325,0.675]","","",""
"sailing-trial","402","1524055","0.0-11.0-367.0","","","","","","false","","","","","","","","null","","430","","0","0","null","null","arrowup","[0.15,0.85,0.325,0.675]","","",""
"sailing-trial","403","1527104","0.0-11.0-368.0","","","","","","false","","","","","","","","137.80000000074506","","76","","0","1","arrowleft","0","arrowleft","[0.325,0.675,0.15,0.85]","","",""
"sailing-trial","404","1529237","0.0-11.0-369.0","","","","","","false","","","","","","","","null","","422.90000000037253","","0","1","null","null","arrowup","[0.325,0.675,0.15,0.85]","","",""
"sailing-trial","405","1532621","0.0-11.0-370.0","","","","","","false","","","","","","","","445.90000000037253","","340.80000000074506","","0","1","arrowleft","0","arrowleft","[0.325,0.675,0.15,0.85]","","",""
"sailing-trial","406","1535655","0.0-11.0-371.0","","","","","","false","","","","","","","","null","","1482.1000000014901","","2","1","null","null","arrowup","[0.325,0.675,0.15,0.85]","","",""
"sailing-trial","407","1539181","0.0-11.0-372.0","","","","","","false","","","","","","","","723.4000000003725","","135.30000000074506","","0","0","arrowleft","0","arrowleft","[0.325,0.675,0.15,0.85]","","",""
"sailing-trial","408","1541189","0.0-11.0-373.0","","","","","","false","","","","","","","","null","","469","","0","0","null","null","arrowup","[0.325,0.675,0.15,0.85]","","",""
"sailing-trial","409","1544272","0.0-11.0-374.0","","","","","","false","","","","","","","","472.69999999925494","","352.2000000011176","","1","0","arrowleft","0","arrowright","[0.325,0.675,0.15,0.85]","","",""
"sailing-trial","410","1545871","0.0-11.0-375.0","","","","","","false","","","","","","","","null","","559.4000000003725","","2","0","null","null","arrowup","[0.325,0.675,0.15,0.85]","","",""
"sailing-trial","411","1548960","0.0-11.0-376.0","","","","","","false","","","","","","","","467.69999999925494","","405.90000000037253","","3","0","arrowright","1","arrowright","[0.325,0.675,0.15,0.85]","","",""
"sailing-trial","412","1551720","0.0-11.0-377.0","","","","","","false","","","","","","","","null","","1035","","3","1","null","null","arrowup","[0.325,0.675,0.15,0.85]","","",""
"sailing-trial","413","1556037","0.0-11.0-378.0","","","","","","false","","","","","","","","1452.9000000003725","","121.59999999962747","","3","1","arrowright","1","arrowright","[0.325,0.675,0.15,0.85]","","",""
"sailing-trial","414","1558437","0.0-11.0-379.0","","","","","","false","","","","","","","","null","","594.1999999992549","","3","1","null","null","arrowup","[0.325,0.675,0.15,0.85]","","",""
"sailing-trial","415","1562272","0.0-11.0-380.0","","","","","","false","","","","","","","","713.0999999996275","","295","","3","1","arrowright","1","arrowright","[0.325,0.675,0.15,0.85]","","",""
"sailing-trial","416","1564020","0.0-11.0-381.0","","","","","","false","","","","","","","","null","","23.90000000037253","","3","1","null","null","arrowup","[0.325,0.675,0.15,0.85]","","",""
"sailing-trial","417","1567287","0.0-11.0-382.0","","","","","","false","","","","","","","","341.80000000074506","","265.90000000037253","","3","1","arrowright","1","arrowright","[0.325,0.675,0.15,0.85]","","",""
"sailing-trial","418","1570037","0.0-11.0-383.0","","","","","","false","","","","","","","","null","","794.8000000007451","","1","1","null","null","arrowup","[0.325,0.675,0.15,0.85]","","",""
"sailing-trial","419","1572868","0.0-11.0-384.0","","","","","","false","","","","","","","","516.0999999996275","","302.59999999962747","","3","0","arrowright","1","arrowright","[0.15,0.85,0.325,0.675]","","",""
"sailing-trial","420","1575571","0.0-11.0-385.0","","","","","","false","","","","","","","","null","","841.4000000003725","","0","1","null","null","arrowup","[0.15,0.85,0.325,0.675]","","",""
"sailing-trial","421","1579753","0.0-11.0-386.0","","","","","","false","","","","","","","","1061.5999999996275","","522.1999999992549","","3","1","arrowright","1","arrowright","[0.15,0.85,0.325,0.675]","","",""
"sailing-trial","422","1582953","0.0-11.0-387.0","","","","","","false","","","","","","","","null","","550.7000000011176","","2","1","null","null","arrowup","[0.15,0.85,0.325,0.675]","","",""
"sailing-trial","423","1585669","0.0-11.0-388.0","","","","","","false","","","","","","","","307.90000000037253","","138","","3","0","arrowright","1","arrowright","[0.15,0.85,0.325,0.675]","","",""
"sailing-trial","424","1587442","0.0-11.0-389.0","","","","","","false","","","","","","","","null","","764.6000000014901","","0","0","null","null","arrowup","[0.15,0.85,0.325,0.675]","","",""
"sailing-trial","425","1591203","0.0-11.0-390.0","","","","","","false","","","","","","","","422.2000000011176","","119.70000000111759","","1","1","arrowleft","0","arrowright","[0.15,0.85,0.325,0.675]","","",""
"sailing-trial","426","1593772","0.0-11.0-391.0","","","","","","false","","","","","","","","null","","555.9000000003725","","1","1","null","null","arrowup","[0.15,0.85,0.325,0.675]","","",""
"sailing-trial","427","1597420","0.0-11.0-392.0","","","","","","false","","","","","","","","490.5","","84.70000000111759","","1","1","arrowleft","0","arrowright","[0.15,0.85,0.325,0.675]","","",""
"sailing-trial","428","1599237","0.0-11.0-393.0","","","","","","false","","","","","","","","null","","24.200000001117587","","3","1","null","null","arrowup","[0.15,0.85,0.325,0.675]","","",""
"sailing-trial","429","1602589","0.0-11.0-394.0","","","","","","false","","","","","","","","408.40000000037253","","90.79999999888241","","1","1","arrowleft","0","arrowright","[0.15,0.85,0.325,0.675]","","",""
"sailing-trial","430","1604896","0.0-11.0-395.0","","","","","","false","","","","","","","","null","","704.8000000007451","","2","0","null","null","arrowup","[0.15,0.85,0.325,0.675]","","",""
"sailing-trial","431","1608504","0.0-11.0-396.0","","","","","","false","","","","","","","","467.30000000074506","","281.40000000037253","","1","1","arrowleft","0","arrowright","[0.15,0.85,0.325,0.675]","","",""
"sailing-trial","432","1611225","0.0-11.0-397.0","","","","","","false","","","","","","","","null","","1186.5999999996275","","0","0","null","null","arrowup","[0.15,0.85,0.325,0.675]","","",""
"sailing-trial","433","1614736","0.0-11.0-398.0","","","","","","false","","","","","","","","706.8000000007451","","589.5","","1","0","arrowleft","0","arrowright","[0.15,0.85,0.325,0.675]","","",""
"sailing-trial","434","1618170","0.0-11.0-399.0","","","","","","false","","","","","","","","null","","1790.8999999985099","","0","1","null","null","arrowup","[0.15,0.85,0.325,0.675]","","",""
"instructions","435","1622642","0.0-12.0","","","","","","","","","","4471.4000000003725","","","","","","","","","","","","","","","","[{""page_index"":0,""viewing_time"":4470.799999998882}]"
"survey-debrief","436","1646570","0.0-13.0","","","","","","","","","","23926.5","","","","","","","","","","","","","","{""difficulty"":""4"",""fun"":""3"",""clarity"":""5"",""strategy"":""go to the one that just had gold"",""feedback"":""n/a""}","",""
