"trial_type","trial_index","time_elapsed","internal_node_id","value","metadata","success","timeout","failed_images","failed_audio","failed_video","browser_interaction","low_quality","rt","stimulus","response","button_pressed","island_rt","island_response","boat_rt","boat_response","boat","reward","island_key","island","boat_key","reward_probabilities","responses","num_errors","view_history"
"pavlovia","0","7","0.0-0.0","","","","","","","","","","","","","","","","","","","","","","","","","",""
"call-function","1","8","0.0-1.0","","{""task_version"":""sailing_part1_v1"",""task_condition"":""good"",""boats"":[""D"",""A"",""B"",""C""],""boats_demo"":[""G"",""H"",""F"",""E""],""islands"":[""A"",""B""],""subject_id"":""14940"",""age"":""16"",""gender"":""Female""}","","","","","","","","","","","","","","","","","","","","","","","",""
"preload","2","1433","0.0-2.0","","","true","false","[]","[]","[]","[{""event"":""fullscreenenter"",""trial"":3,""time"":2739}]","false","","","","","","","","","","","","","","","","",""
"fullscreen","3","3659","0.0-3.0","","","true","","","","","","","","","","","","","","","","","","","","","","",""
"audio-keyboard-response","4","6414","0.0-4.0-0.0","","","","","","","","","","2690.6666666666665","audio/beep_loop.wav"," ","","","","","","","","","","","","","",""
"audio-test","5","7632","0.0-4.0-1.0","","","","","","","","","","null","audio/turtle.mp3","","3","","","","","","","","","","","","",""
"audio-test","6","9464","0.0-4.0-2.0","","","","","","","","","","null","audio/shark.mp3","","2","","","","","","","","","","","","",""
"sailing-instructions","7","38591","0.0-5.0-0.0-0.0","","","","","","","","","","","","","","null","null","null","null","null","null","","","","","","",""
"sailing-trial","8","45806","0.0-5.0-0.0-1.0-0.0","","","","false","","","","","","","","","","6093.39999961853","","null","","null","null","arrowleft","0","null","null","","",""
"sailing-trial","9","47517","0.0-5.0-0.0-1.0-1.0","","","","false","","","","","","","","","","600.3000001907349","","null","","null","null","arrowright","1","null","null","","",""
"sailing-trial","10","49506","0.0-5.0-0.0-1.0-2.0","","","","false","","","","","","","","","","880.4000005722046","","null","","null","null","arrowright","1","null","null","","",""
"sailing-instructions","11","89169","0.0-5.0-0.0-2.0","","","","","","","","","","","","","","null","null","null","null","0","null","","","","","","",""
"sailing-trial","12","93972","0.0-5.0-0.0-3.0-0.0","","","","false","","","","","","","","","","null","","1829.1999998092651","","2","1","null","null","arrowleft","[1,1,1,1]","","",""
"sailing-trial","13","96676","0.0-5.0-0.0-3.0-1.0","","","","false","","","","","","","","","","null","","370.19999980926514","","3","1","null","null","arrowright","[1,1,1,1]","","",""
"sailing-trial","14","100110","0.0-5.0-0.0-3.0-2.0","","","","false","","","","","","","","","","null","","1077.8000001907349","","2","0","null","null","arrowleft","[0,0,0,0]","","",""
"sailing-instructions","15","107551","0.0-5.0-0.0-4.0","","","","","","","","","","","","","","null","null","null","null","null","null","","","","","","",""
"sailing-comprehension","16","117510","0.0-5.0-0.0-5.0","","","","","","","","","","8247.300000190735","","","","","","","","","","","","","","[""true"",""true"",""false"",""true""]","0",""
"sailing-instructions","17","175287","0.0-6.0-0.0-0.0","","","","","","","","","","","","","","null","null","null","null","null","null","","","","","","",""
"sailing-comprehension","18","182589","0.0-6.0-0.0-1.0","","","","","","","","","","5936.199999809265","","","","","","","","","","","","","","[""true"",""false"",""true""]","0",""
"sailing-instructions","19","196187","0.0-7.0-0.0-0.0","","","","","","","","","","","","","","null","null","null","null","null","null","","","","","","",""
"sailing-trial","20","200628","0.0-7.0-0.0-1.0-0.0","","","","false","","","","","","","","","","null","","2158","","0","1","null","null","arrowup","[0.2,0.8,0.2,0.8]","","",""
"sailing-trial","21","203871","0.0-7.0-0.0-1.0-1.0","","","","false","","","","","","","","","","null","","1196.4000005722046","","1","1","null","null","arrowup","[0.2,0.8,0.2,0.8]","","",""
"sailing-trial","22","205792","0.0-7.0-0.0-1.0-2.0","","","","false","","","","","","","","","","null","","673","","2","0","null","null","arrowup","[0.2,0.8,0.2,0.8]","","",""
"sailing-trial","23","208452","0.0-7.0-0.0-1.0-3.0","","","","false","","","","","","","","","","null","","723.4000005722046","","3","1","null","null","arrowup","[0.2,0.8,0.2,0.8]","","",""
"sailing-comprehension","24","212707","0.0-7.0-0.0-2.0","","","","","","","","","","2833.300000190735","","","","","","","","","","","","","","[""false""]","0",""
"sailing-instructions","25","223236","0.0-8.0-0.0-0.0","","","","","","","","","","","","","","null","null","null","null","null","null","","","","","","",""
"sailing-comprehension","26","226616","0.0-8.0-0.0-1.0","","","","","","","","","","1974.6000003814697","","","","","","","","","","","","","","[""true""]","0",""
"sailing-instructions","27","253164","0.0-9.0-0.0-0.0","","","","","","","","","","","","","","null","null","null","null","null","null","","","","","","",""
"sailing-trial","28","258381","0.0-9.0-0.0-1.0-0.0","","","","false","","","","","","","","","","698.5","","699.1999998092651","","2","1","arrowright","1","arrowleft","[0.2,0.8,0.2,0.8]","","",""
"sailing-trial","29","262237","0.0-9.0-0.0-1.0-1.0","","","","false","","","","","","","","","","751.8999996185303","","1025.3999996185303","","0","0","arrowleft","0","arrowleft","[0.2,0.8,0.2,0.8]","","",""
"sailing-trial","30","265181","0.0-9.0-0.0-1.0-2.0","","","","false","","","","","","","","","","null","","1406","","0","1","null","null","arrowup","[0.2,0.8,0.2,0.8]","","",""
"sailing-trial","31","268998","0.0-9.0-0.0-1.0-3.0","","","","false","","","","","","","","","","622","","218.10000038146973","","3","0","arrowright","1","arrowright","[0.2,0.8,0.2,0.8]","","",""
"sailing-trial","32","271666","0.0-9.0-0.0-1.0-4.0","","","","false","","","","","","","","","","null","","775.8999996185303","","3","1","null","null","arrowup","[0.2,0.8,0.2,0.8]","","",""
"sailing-trial","33","275684","0.0-9.0-0.0-1.0-5.0","","","","false","","","","","","","","","","1023.0999994277954","","170.9000005722046","","2","0","arrowright","1","arrowleft","[0.2,0.8,0.2,0.8]","","",""
"sailing-instructions","34","301786","0.0-10.0","","","","","","","","","","","","","","null","null","null","null","null","null","","","","","","",""
"sailing-trial","35","307255","0.0-11.0-0.0","","","","false","","","","","","","","","","1102.5","","451.30000019073486","","3","0","arrowright","1","arrowright","[0.325,0.675,0.85,0.15]","","",""
"sailing-trial","36","310018","0.0-11.0-1.0","","","","false","","","","","","","","","","null","","924.3999996185303","","0","1","null","null","arrowup","[0.325,0.675,0.85,0.15]","","",""
"sailing-trial","37","313894","0.0-11.0-2.0","","","","false","","","","","","","","","","642","","1020.8000001907349","","0","0","arrowleft","0","arrowleft","[0.325,0.675,0.85,0.15]","","",""
"sailing-trial","38","315945","0.0-11.0-3.0","","","","false","","","","","","","","","","null","","1024.3999996185303","","3","0","null","null","arrowup","[0.325,0.675,0.85,0.15]","","",""
"sailing-trial","39","320433","0.0-11.0-4.0","","","","false","","","","","","","","","","725.5","","759.7000007629395","","2","1","arrowright","1","arrowleft","[0.325,0.675,0.85,0.15]","","",""
"sailing-trial","40","323418","0.0-11.0-5.0","","","","false","","","","","","","","","","null","","1036.4000005722046","","2","1","null","null","arrowup","[0.325,0.675,0.85,0.15]","","",""
"sailing-trial","41","327098","0.0-11.0-6.0","","","","false","","","","","","","","","","861.8000001907349","","278.3999996185303","","2","1","arrowright","1","arrowleft","[0.325,0.675,0.85,0.15]","","",""
"sailing-trial","42","330123","0.0-11.0-7.0","","","","false","","","","","","","","","","null","","1101.2999992370605","","1","1","null","null","arrowup","[0.325,0.675,0.85,0.15]","","",""
"sailing-trial","43","333852","0.0-11.0-8.0","","","","false","","","","","","","","","","877.1999998092651","","483.19999980926514","","1","0","arrowleft","0","arrowright","[0.325,0.675,0.85,0.15]","","",""
"sailing-trial","44","336674","0.0-11.0-9.0","","","","false","","","","","","","","","","null","","1033","","2","1","null","null","arrowup","[0.325,0.675,0.85,0.15]","","",""
"sailing-trial","45","340010","0.0-11.0-10.0","","","","false","","","","","","","","","","601.3000001907349","","86.10000038146973","","2","1","arrowright","1","arrowleft","[0.325,0.675,0.85,0.15]","","",""
"sailing-trial","46","342777","0.0-11.0-11.0","","","","false","","","","","","","","","","null","","875.5","","2","1","null","null","arrowup","[0.325,0.675,0.85,0.15]","","",""
"sailing-trial","47","346129","0.0-11.0-12.0","","","","false","","","","","","","","","","578.3999996185303","","499.5","","2","0","arrowright","1","arrowleft","[0.325,0.675,0.85,0.15]","","",""
"sailing-trial","48","348143","0.0-11.0-13.0","","","","false","","","","","","","","","","null","","795.7999992370605","","0","0","null","null","arrowup","[0.325,0.675,0.85,0.15]","","",""
"sailing-trial","49","351450","0.0-11.0-14.0","","","","false","","","","","","","","","","662.6999998092651","","51","","1","1","arrowleft","0","arrowright","[0.325,0.675,0.85,0.15]","","",""
"sailing-trial","50","353868","0.0-11.0-15.0","","","","false","","","","","","","","","","null","","886.2000007629395","","2","1","null","null","arrowup","[0.325,0.675,0.85,0.15]","","",""
"sailing-trial","51","357005","0.0-11.0-16.0","","","","false","","","","","","","","","","478.0999994277954","","72","","2","1","arrowright","1","arrowleft","[0.325,0.675,0.85,0.15]","","",""
"sailing-trial","52","359388","0.0-11.0-17.0","","","","false","","","","","","","","","","null","","860.8000001907349","","2","1","null","null","arrowup","[0.325,0.675,0.85,0.15]","","",""
"sailing-trial","53","364042","0.0-11.0-18.0","","","","false","","","","","","","","","","487.80000019073486","","1252.2000007629395","","2","1","arrowright","1","arrowleft","[0.675,0.325,0.15,0.85]","","",""
"sailing-trial","54","367084","0.0-11.0-19.0","","","","false","","","","","","","","","","null","","813.3000001907349","","0","0","null","null","arrowup","[0.675,0.325,0.15,0.85]","","",""
"sailing-trial","55","371912","0.0-11.0-20.0","","","","false","","","","","","","","","","582.3999996185303","","528.3000001907349","","2","0","arrowright","1","arrowleft","[0.675,0.325,0.15,0.85]","","",""
"sailing-trial","56","374694","0.0-11.0-21.0","","","","false","","","","","","","","","","null","","783.0999994277954","","1","0","null","null","arrowup","[0.675,0.325,0.15,0.85]","","",""
"sailing-trial","57","378000","0.0-11.0-22.0","","","","false","","","","","","","","","","571.6999998092651","","612.8999996185303","","0","0","arrowleft","0","arrowleft","[0.675,0.325,0.15,0.85]","","",""
"sailing-trial","58","380654","0.0-11.0-23.0","","","","false","","","","","","","","","","null","","825.3999996185303","","3","1","null","null","arrowup","[0.675,0.325,0.15,0.85]","","",""
"sailing-trial","59","383738","0.0-11.0-24.0","","","","false","","","","","","","","","","521.5","","28.899999618530273","","3","1","arrowright","1","arrowright","[0.675,0.325,0.15,0.85]","","",""
"sailing-trial","60","386507","0.0-11.0-25.0","","","","false","","","","","","","","","","null","","827.8000001907349","","0","1","null","null","arrowup","[0.675,0.325,0.15,0.85]","","",""
"sailing-trial","61","390535","0.0-11.0-26.0","","","","false","","","","","","","","","","588.8000001907349","","608.5","","3","1","arrowright","1","arrowright","[0.675,0.325,0.15,0.85]","","",""
"sailing-trial","62","393365","0.0-11.0-27.0","","","","false","","","","","","","","","","null","","931.6000003814697","","3","1","null","null","arrowup","[0.675,0.325,0.15,0.85]","","",""
"sailing-trial","63","397267","0.0-11.0-28.0","","","","false","","","","","","","","","","542.5","","543.6999998092651","","3","1","arrowright","1","arrowright","[0.675,0.325,0.15,0.85]","","",""
"sailing-trial","64","400086","0.0-11.0-29.0","","","","false","","","","","","","","","","null","","1001","","1","1","null","null","arrowup","[0.675,0.325,0.15,0.85]","","",""
"sailing-trial","65","403821","0.0-11.0-30.0","","","","false","","","","","","","","","","711","","368.19999980926514","","3","1","arrowright","1","arrowright","[0.675,0.325,0.15,0.85]","","",""
"sailing-trial","66","406196","0.0-11.0-31.0","","","","false","","","","","","","","","","null","","924.8000001907349","","0","0","null","null","arrowup","[0.675,0.325,0.15,0.85]","","",""
"sailing-trial","67","409382","0.0-11.0-32.0","","","","false","","","","","","","","","","541.8999996185303","","451","","3","0","arrowright","1","arrowright","[0.675,0.325,0.15,0.85]","","",""
"sailing-trial","68","412193","0.0-11.0-33.0","","","","false","","","","","","","","","","null","","1024.9000005722046","","3","1","null","null","arrowup","[0.675,0.325,0.15,0.85]","","",""
"sailing-trial","69","415435","0.0-11.0-34.0","","","","false","","","","","","","","","","526.1000003814697","","10.300000190734863","","3","1","arrowright","1","arrowright","[0.675,0.325,0.15,0.85]","","",""
"sailing-trial","70","417743","0.0-11.0-35.0","","","","false","","","","","","","","","","null","","842.8999996185303","","2","0","null","null","arrowup","[0.675,0.325,0.15,0.85]","","",""
"sailing-trial","71","420983","0.0-11.0-36.0","","","","false","","","","","","","","","","543.8000001907349","","84.5","","3","1","arrowright","1","arrowright","[0.675,0.325,0.15,0.85]","","",""
"sailing-trial","72","424056","0.0-11.0-37.0","","","","false","","","","","","","","","","null","","1144.1000003814697","","0","1","null","null","arrowup","[0.675,0.325,0.15,0.85]","","",""
"sailing-trial","73","428166","0.0-11.0-38.0","","","","false","","","","","","","","","","1730.6000003814697","","374.1000003814697","","3","0","arrowright","1","arrowright","[0.325,0.675,0.85,0.15]","","",""
"sailing-trial","74","430657","0.0-11.0-39.0","","","","false","","","","","","","","","","null","","831.7999992370605","","1","1","null","null","arrowup","[0.325,0.675,0.85,0.15]","","",""
"sailing-trial","75","433336","0.0-11.0-40.0","","","","false","","","","","","","","","","551.8000001907349","","24.399999618530273","","1","0","arrowleft","0","arrowright","[0.325,0.675,0.85,0.15]","","",""
"sailing-trial","76","435508","0.0-11.0-41.0","","","","false","","","","","","","","","","null","","790.8000001907349","","3","0","null","null","arrowup","[0.325,0.675,0.85,0.15]","","",""
"sailing-trial","77","439462","0.0-11.0-42.0","","","","false","","","","","","","","","","549.8000001907349","","561.1999998092651","","1","1","arrowleft","0","arrowright","[0.325,0.675,0.85,0.15]","","",""
"sailing-trial","78","442131","0.0-11.0-43.0","","","","false","","","","","","","","","","null","","856.1999998092651","","1","1","null","null","arrowup","[0.325,0.675,0.85,0.15]","","",""
"sailing-trial","79","445899","0.0-11.0-44.0","","","","false","","","","","","","","","","585.7999992370605","","366.30000019073486","","1","1","arrowleft","0","arrowright","[0.325,0.675,0.85,0.15]","","",""
"sailing-trial","80","448167","0.0-11.0-45.0","","","","false","","","","","","","","","","null","","578.2000007629395","","1","1","null","null","arrowup","[0.325,0.675,0.85,0.15]","","",""
"sailing-trial","81","451572","0.0-11.0-46.0","","","","false","","","","","","","","","","570.6999998092651","","205.0999994277954","","1","1","arrowleft","0","arrowright","[0.325,0.675,0.85,0.15]","","",""
"sailing-trial","82","453957","0.0-11.0-47.0","","","","false","","","","","","","","","","null","","1285.6999998092651","","0","0","null","null","arrowup","[0.325,0.675,0.85,0.15]","","",""
"sailing-trial","83","458869","0.0-11.0-48.0","","","","false","","","","","","","","","","782.7999992370605","","174.30000019073486","","0","0","arrowleft","0","arrowleft","[0.325,0.675,0.85,0.15]","","",""
"sailing-trial","84","461095","0.0-11.0-49.0","","","","false","","","","","","","","","","null","","1141.8999996185303","","0","0","null","null","arrowup","[0.325,0.675,0.85,0.15]","","",""
"sailing-trial","85","465369","0.0-11.0-50.0","","","","false","","","","","","","","","","1136.0999994277954","","363","","1","1","arrowleft","0","arrowright","[0.325,0.675,0.85,0.15]","","",""
"sailing-trial","86","468185","0.0-11.0-51.0","","","","false","","","","","","","","","","null","","930","","2","1","null","null","arrowup","[0.325,0.675,0.85,0.15]","","",""
"sailing-trial","87","471704","0.0-11.0-52.0","","","","false","","","","","","","","","","595.8999996185303","","288.69999980926514","","1","1","arrowleft","0","arrowright","[0.325,0.675,0.85,0.15]","","",""
"sailing-trial","88","473687","0.0-11.0-53.0","","","","false","","","","","","","","","","null","","935.5","","0","0","null","null","arrowup","[0.325,0.675,0.85,0.15]","","",""
"sailing-trial","89","477408","0.0-11.0-54.0","","","","false","","","","","","","","","","592","","301","","1","1","arrowleft","0","arrowright","[0.325,0.675,0.85,0.15]","","",""
"sailing-trial","90","479978","0.0-11.0-55.0","","","","false","","","","","","","","","","null","","773.3999996185303","","2","1","null","null","arrowup","[0.325,0.675,0.85,0.15]","","",""
"sailing-trial","91","482839","0.0-11.0-56.0","","","","false","","","","","","","","","","552.1000003814697","","197.60000038146973","","1","0","arrowleft","0","arrowright","[0.15,0.85,0.675,0.325]","","",""
"sailing-trial","92","485430","0.0-11.0-57.0","","","","false","","","","","","","","","","null","","773","","2","1","null","null","arrowup","[0.15,0.85,0.675,0.325]","","",""
"sailing-trial","93","489016","0.0-11.0-58.0","","","","false","","","","","","","","","","900.1999998092651","","43.39999961853027","","2","1","arrowright","1","arrowleft","[0.15,0.85,0.675,0.325]","","",""
"sailing-trial","94","491885","0.0-11.0-59.0","","","","false","","","","","","","","","","null","","1053.8000001907349","","1","1","null","null","arrowup","[0.15,0.85,0.675,0.325]","","",""
"sailing-trial","95","495228","0.0-11.0-60.0","","","","false","","","","","","","","","","566","","352.30000019073486","","2","0","arrowright","1","arrowleft","[0.15,0.85,0.675,0.325]","","",""
"sailing-trial","96","497037","0.0-11.0-61.0","","","","false","","","","","","","","","","null","","753.3999996185303","","1","0","null","null","arrowup","[0.15,0.85,0.675,0.325]","","",""
"sailing-trial","97","500479","0.0-11.0-62.0","","","","false","","","","","","","","","","493.19999980926514","","44.69999980926514","","0","1","arrowleft","0","arrowleft","[0.15,0.85,0.675,0.325]","","",""
"sailing-trial","98","502657","0.0-11.0-63.0","","","","false","","","","","","","","","","null","","772.3999996185303","","0","0","null","null","arrowup","[0.15,0.85,0.675,0.325]","","",""
"sailing-trial","99","505576","0.0-11.0-64.0","","","","false","","","","","","","","","","484.5","","52.10000038146973","","3","0","arrowright","1","arrowright","[0.15,0.85,0.675,0.325]","","",""
"sailing-trial","100","508080","0.0-11.0-65.0","","","","false","","","","","","","","","","null","","844.8000001907349","","3","1","null","null","arrowup","[0.15,0.85,0.675,0.325]","","",""
"sailing-trial","101","511895","0.0-11.0-66.0","","","","false","","","","","","","","","","1010.1999998092651","","177.19999980926514","","1","1","arrowleft","0","arrowright","[0.15,0.85,0.675,0.325]","","",""
"sailing-trial","102","514379","0.0-11.0-67.0","","","","false","","","","","","","","","","null","","760.6000003814697","","3","1","null","null","arrowup","[0.15,0.85,0.675,0.325]","","",""
"sailing-trial","103","518115","0.0-11.0-68.0","","","","false","","","","","","","","","","630.3999996185303","","297.19999980926514","","1","1","arrowleft","0","arrowright","[0.15,0.85,0.675,0.325]","","",""
"sailing-trial","104","520113","0.0-11.0-69.0","","","","false","","","","","","","","","","null","","772.3000001907349","","3","0","null","null","arrowup","[0.15,0.85,0.675,0.325]","","",""
"sailing-trial","105","523336","0.0-11.0-70.0","","","","false","","","","","","","","","","464.19999980926514","","143.30000019073486","","1","1","arrowleft","0","arrowright","[0.15,0.85,0.675,0.325]","","",""
"sailing-trial","106","525837","0.0-11.0-71.0","","","","false","","","","","","","","","","null","","729.8000001907349","","2","1","null","null","arrowup","[0.15,0.85,0.675,0.325]","","",""
"sailing-trial","107","528405","0.0-11.0-72.0","","","","false","","","","","","","","","","409.6000003814697","","53.5","","1","0","arrowleft","0","arrowright","[0.325,0.675,0.85,0.15]","","",""
"sailing-trial","108","530462","0.0-11.0-73.0","","","","false","","","","","","","","","","null","","712","","0","0","null","null","arrowup","[0.325,0.675,0.85,0.15]","","",""
"sailing-trial","109","533764","0.0-11.0-74.0","","","","false","","","","","","","","","","495.0999994277954","","363.30000019073486","","3","0","arrowright","1","arrowright","[0.325,0.675,0.85,0.15]","","",""
"sailing-trial","110","536261","0.0-11.0-75.0","","","","false","","","","","","","","","","null","","742.5","","1","1","null","null","arrowup","[0.325,0.675,0.85,0.15]","","",""
"sailing-trial","111","539462","0.0-11.0-76.0","","","","false","","","","","","","","","","914.5999994277954","","42.30000019073486","","1","0","arrowleft","0","arrowright","[0.325,0.675,0.85,0.15]","","",""
"sailing-trial","112","541982","0.0-11.0-77.0","","","","false","","","","","","","","","","null","","864.8000001907349","","1","1","null","null","arrowup","[0.325,0.675,0.85,0.15]","","",""
"sailing-trial","113","545351","0.0-11.0-78.0","","","","false","","","","","","","","","","665.1000003814697","","341.30000019073486","","0","0","arrowleft","0","arrowleft","[0.325,0.675,0.85,0.15]","","",""
"sailing-trial","114","548485","0.0-11.0-79.0","","","","false","","","","","","","","","","null","","1324.6000003814697","","0","1","null","null","arrowup","[0.325,0.675,0.85,0.15]","","",""
"sailing-trial","115","552472","0.0-11.0-80.0","","","","false","","","","","","","","","","530.6000003814697","","600.1000003814697","","2","1","arrowright","1","arrowleft","[0.325,0.675,0.85,0.15]","","",""
"sailing-trial","116","554889","0.0-11.0-81.0","","","","false","","","","","","","","","","null","","1134.5999994277954","","0","0","null","null","arrowup","[0.325,0.675,0.85,0.15]","","",""
"sailing-trial","117","558410","0.0-11.0-82.0","","","","false","","","","","","","","","","419.3999996185303","","352.0999994277954","","2","1","arrowright","1","arrowleft","[0.325,0.675,0.85,0.15]","","",""
"sailing-trial","118","560485","0.0-11.0-83.0","","","","false","","","","","","","","","","null","","705.6000003814697","","3","0","null","null","arrowup","[0.325,0.675,0.85,0.15]","","",""
"sailing-trial","119","564155","0.0-11.0-84.0","","","","false","","","","","","","","","","471.5","","349.19999980926514","","2","1","arrowright","1","arrowleft","[0.325,0.675,0.85,0.15]","","",""
"sailing-trial","120","566215","0.0-11.0-85.0","","","","false","","","","","","","","","","null","","813.8000001907349","","1","0","null","null","arrowup","[0.325,0.675,0.85,0.15]","","",""
"sailing-trial","121","569585","0.0-11.0-86.0","","","","false","","","","","","","","","","582.3000001907349","","111.10000038146973","","2","1","arrowright","1","arrowleft","[0.325,0.675,0.85,0.15]","","",""
"sailing-trial","122","571622","0.0-11.0-87.0","","","","false","","","","","","","","","","null","","721.8000001907349","","3","0","null","null","arrowup","[0.325,0.675,0.85,0.15]","","",""
"sailing-trial","123","574829","0.0-11.0-88.0","","","","false","","","","","","","","","","471.69999980926514","","54.59999942779541","","2","1","arrowright","1","arrowleft","[0.325,0.675,0.85,0.15]","","",""
"sailing-trial","124","576729","0.0-11.0-89.0","","","","false","","","","","","","","","","null","","834.1000003814697","","0","0","null","null","arrowup","[0.325,0.675,0.85,0.15]","","",""
"sailing-trial","125","580250","0.0-11.0-90.0","","","","false","","","","","","","","","","486.5","","293.19999980926514","","2","1","arrowright","1","arrowleft","[0.325,0.675,0.85,0.15]","","",""
"sailing-trial","126","582718","0.0-11.0-91.0","","","","false","","","","","","","","","","null","","723.8000001907349","","2","1","null","null","arrowup","[0.325,0.675,0.85,0.15]","","",""
"sailing-trial","127","585369","0.0-11.0-92.0","","","","false","","","","","","","","","","496","","20.100000381469727","","2","0","arrowright","1","arrowleft","[0.15,0.85,0.675,0.325]","","",""
"sailing-trial","128","588293","0.0-11.0-93.0","","","","false","","","","","","","","","","null","","1286.8999996185303","","1","1","null","null","arrowup","[0.15,0.85,0.675,0.325]","","",""
"sailing-trial","129","590951","0.0-11.0-94.0","","","","false","","","","","","","","","","502","","59.69999980926514","","2","0","arrowright","1","arrowleft","[0.15,0.85,0.675,0.325]","","",""
"sailing-trial","130","593362","0.0-11.0-95.0","","","","false","","","","","","","","","","null","","734.9000005722046","","2","1","null","null","arrowup","[0.15,0.85,0.675,0.325]","","",""
"sailing-trial","131","596423","0.0-11.0-96.0","","","","false","","","","","","","","","","543.5","","120.89999961853027","","2","0","arrowright","1","arrowleft","[0.15,0.85,0.675,0.325]","","",""
"sailing-trial","132","599080","0.0-11.0-97.0","","","","false","","","","","","","","","","null","","852.6999998092651","","1","1","null","null","arrowup","[0.15,0.85,0.675,0.325]","","",""
"sailing-trial","133","602248","0.0-11.0-98.0","","","","false","","","","","","","","","","605.6000003814697","","19.09999942779541","","1","1","arrowleft","0","arrowright","[0.15,0.85,0.675,0.325]","","",""
"sailing-trial","134","604181","0.0-11.0-99.0","","","","false","","","","","","","","","","null","","786.5","","3","0","null","null","arrowup","[0.15,0.85,0.675,0.325]","","",""
"sailing-trial","135","607250","0.0-11.0-100.0","","","","false","","","","","","","","","","474.19999980926514","","122.89999961853027","","1","0","arrowleft","0","arrowright","[0.15,0.85,0.675,0.325]","","",""
"sailing-trial","136","609586","0.0-11.0-101.0","","","","false","","","","","","","","","","null","","697.1999998092651","","2","1","null","null","arrowup","[0.15,0.85,0.675,0.325]","","",""
"sailing-trial","137","613005","0.0-11.0-102.0","","","","false","","","","","","","","","","549.3999996185303","","1.5999994277954102","","1","1","arrowleft","0","arrowright","[0.15,0.85,0.675,0.325]","","",""
"sailing-trial","138","615040","0.0-11.0-103.0","","","","false","","","","","","","","","","null","","789.6000003814697","","3","0","null","null","arrowup","[0.15,0.85,0.675,0.325]","","",""
"sailing-trial","139","618460","0.0-11.0-104.0","","","","false","","","","","","","","","","436.80000019073486","","388.9000005722046","","1","1","arrowleft","0","arrowright","[0.15,0.85,0.675,0.325]","","",""
"sailing-trial","140","620533","0.0-11.0-105.0","","","","false","","","","","","","","","","null","","775.4000005722046","","3","0","null","null","arrowup","[0.15,0.85,0.675,0.325]","","",""
"sailing-trial","141","623476","0.0-11.0-106.0","","","","false","","","","","","","","","","373.30000019073486","","208","","1","0","arrowleft","0","arrowright","[0.15,0.85,0.675,0.325]","","",""
"sailing-trial","142","625431","0.0-11.0-107.0","","","","false","","","","","","","","","","null","","897.3000001907349","","2","0","null","null","arrowup","[0.15,0.85,0.675,0.325]","","",""
"sailing-trial","143","628850","0.0-11.0-108.0","","","","false","","","","","","","","","","575.1999998092651","","394.5999994277954","","0","0","arrowleft","0","arrowleft","[0.15,0.85,0.675,0.325]","","",""
"sailing-trial","144","631417","0.0-11.0-109.0","","","","false","","","","","","","","","","null","","766","","2","1","null","null","arrowup","[0.15,0.85,0.675,0.325]","","",""
"sailing-trial","145","635064","0.0-11.0-110.0","","","","false","","","","","","","","","","618.7999992370605","","114.59999942779541","","2","1","arrowright","1","arrowleft","[0.15,0.85,0.675,0.325]","","",""
"sailing-trial","146","637163","0.0-11.0-111.0","","","","false","","","","","","","","","","null","","802.8000001907349","","3","0","null","null","arrowup","[0.15,0.85,0.675,0.325]","","",""
"sailing-trial","147","640525","0.0-11.0-112.0","","","","false","","","","","","","","","","543.1999998092651","","58.09999942779541","","2","1","arrowright","1","arrowleft","[0.325,0.675,0.85,0.15]","","",""
"sailing-trial","148","643226","0.0-11.0-113.0","","","","false","","","","","","","","","","null","","810.8000001907349","","0","1","null","null","arrowup","[0.325,0.675,0.85,0.15]","","",""
"sailing-trial","149","646964","0.0-11.0-114.0","","","","false","","","","","","","","","","500.80000019073486","","332.69999980926514","","2","1","arrowright","1","arrowleft","[0.325,0.675,0.85,0.15]","","",""
"sailing-trial","150","649531","0.0-11.0-115.0","","","","false","","","","","","","","","","null","","784.5","","1","1","null","null","arrowup","[0.325,0.675,0.85,0.15]","","",""
"sailing-trial","151","652799","0.0-11.0-116.0","","","","false","","","","","","","","","","585.8999996185303","","55.80000019073486","","2","1","arrowright","1","arrowleft","[0.325,0.675,0.85,0.15]","","",""
"sailing-trial","152","655574","0.0-11.0-117.0","","","","false","","","","","","","","","","null","","897.1999998092651","","1","1","null","null","arrowup","[0.325,0.675,0.85,0.15]","","",""
"sailing-trial","153","658643","0.0-11.0-118.0","","","","false","","","","","","","","","","553.1999998092651","","210.80000019073486","","2","0","arrowright","1","arrowleft","[0.325,0.675,0.85,0.15]","","",""
"sailing-trial","154","660633","0.0-11.0-119.0","","","","false","","","","","","","","","","null","","863.5999994277954","","3","0","null","null","arrowup","[0.325,0.675,0.85,0.15]","","",""
"sailing-trial","155","664078","0.0-11.0-120.0","","","","false","","","","","","","","","","442.80000019073486","","227.29999923706055","","2","1","arrowright","1","arrowleft","[0.325,0.675,0.85,0.15]","","",""
"sailing-trial","156","666648","0.0-11.0-121.0","","","","false","","","","","","","","","","null","","719.4000005722046","","1","1","null","null","arrowup","[0.325,0.675,0.85,0.15]","","",""
"sailing-trial","157","669860","0.0-11.0-122.0","","","","false","","","","","","","","","","559","","269.4000005722046","","2","0","arrowright","1","arrowleft","[0.325,0.675,0.85,0.15]","","",""
"sailing-trial","158","672364","0.0-11.0-123.0","","","","false","","","","","","","","","","null","","886.1999998092651","","1","1","null","null","arrowup","[0.325,0.675,0.85,0.15]","","",""
"sailing-trial","159","675919","0.0-11.0-124.0","","","","false","","","","","","","","","","542.6999998092651","","153","","1","1","arrowleft","0","arrowright","[0.325,0.675,0.85,0.15]","","",""
"sailing-trial","160","678077","0.0-11.0-125.0","","","","false","","","","","","","","","","null","","1057.3000001907349","","2","0","null","null","arrowup","[0.325,0.675,0.85,0.15]","","",""
"sailing-trial","161","681114","0.0-11.0-126.0","","","","false","","","","","","","","","","489.4000005722046","","62.5","","1","0","arrowleft","0","arrowright","[0.325,0.675,0.85,0.15]","","",""
"sailing-trial","162","683721","0.0-11.0-127.0","","","","false","","","","","","","","","","null","","752.7000007629395","","1","1","null","null","arrowup","[0.325,0.675,0.85,0.15]","","",""
"sailing-trial","163","687707","0.0-11.0-128.0","","","","false","","","","","","","","","","844.9000005722046","","127.80000019073486","","1","1","arrowleft","0","arrowright","[0.15,0.85,0.675,0.325]","","",""
"sailing-trial","164","690141","0.0-11.0-129.0","","","","false","","","","","","","","","","null","","1039.1000003814697","","1","0","null","null","arrowup","[0.15,0.85,0.675,0.325]","","",""
"sailing-trial","165","693490","0.0-11.0-130.0","","","","false","","","","","","","","","","456","","297.5","","1","1","arrowleft","0","arrowright","[0.15,0.85,0.675,0.325]","","",""
"sailing-trial","166","696488","0.0-11.0-131.0","","","","false","","","","","","","","","","null","","690.8999996185303","","0","0","null","null","arrowup","[0.15,0.85,0.675,0.325]","","",""
"sailing-trial","167","699993","0.0-11.0-132.0","","","","false","","","","","","","","","","553.5","","132.80000019073486","","1","1","arrowleft","0","arrowright","[0.15,0.85,0.675,0.325]","","",""
"sailing-trial","168","702228","0.0-11.0-133.0","","","","false","","","","","","","","","","null","","978.9000005722046","","3","0","null","null","arrowup","[0.15,0.85,0.675,0.325]","","",""
"sailing-trial","169","707728","0.0-11.0-134.0","","","","false","","","","","","","","","","574.1999998092651","","918.8999996185303","","3","0","arrowright","1","arrowright","[0.15,0.85,0.675,0.325]","","",""
"sailing-trial","170","710886","0.0-11.0-135.0","","","","false","","","","","","","","","","null","","863.4000005722046","","3","0","null","null","arrowup","[0.15,0.85,0.675,0.325]","","",""
"sailing-trial","171","714409","0.0-11.0-136.0","","","","false","","","","","","","","","","514.8999996185303","","164","","1","1","arrowleft","0","arrowright","[0.15,0.85,0.675,0.325]","","",""
"sailing-trial","172","717269","0.0-11.0-137.0","","","","false","","","","","","","","","","null","","972.6999998092651","","2","1","null","null","arrowup","[0.15,0.85,0.675,0.325]","","",""
"sailing-trial","173","720469","0.0-11.0-138.0","","","","false","","","","","","","","","","533.2000007629395","","138.39999961853027","","1","1","arrowleft","0","arrowright","[0.15,0.85,0.675,0.325]","","",""
"sailing-trial","174","722879","0.0-11.0-139.0","","","","false","","","","","","","","","","null","","642.6999998092651","","2","1","null","null","arrowup","[0.15,0.85,0.675,0.325]","","",""
"sailing-trial","175","726499","0.0-11.0-140.0","","","","false","","","","","","","","","","485.1000003814697","","214.5","","1","1","arrowleft","0","arrowright","[0.15,0.85,0.675,0.325]","","",""
"sailing-trial","176","728948","0.0-11.0-141.0","","","","false","","","","","","","","","","null","","672.5","","2","1","null","null","arrowup","[0.15,0.85,0.675,0.325]","","",""
"sailing-trial","177","732018","0.0-11.0-142.0","","","","false","","","","","","","","","","643.6000003814697","","250.39999961853027","","1","0","arrowleft","0","arrowright","[0.15,0.85,0.675,0.325]","","",""
"sailing-trial","178","734048","0.0-11.0-143.0","","","","false","","","","","","","","","","null","","763.1999998092651","","0","0","null","null","arrowup","[0.15,0.85,0.675,0.325]","","",""
"sailing-trial","179","737409","0.0-11.0-144.0","","","","false","","","","","","","","","","513.1000003814697","","224","","1","1","arrowleft","0","arrowright","[0.15,0.85,0.675,0.325]","","",""
"sailing-trial","180","740039","0.0-11.0-145.0","","","","false","","","","","","","","","","null","","884.5","","2","1","null","null","arrowup","[0.15,0.85,0.675,0.325]","","",""
"sailing-trial","181","743324","0.0-11.0-146.0","","","","false","","","","","","","","","","553.1000003814697","","166.80000019073486","","1","1","arrowleft","0","arrowright","[0.325,0.675,0.85,0.15]","","",""
"sailing-trial","182","746877","0.0-11.0-147.0","","","","false","","","","","","","","","","null","","1707.5999994277954","","2","1","null","null","arrowup","[0.325,0.675,0.85,0.15]","","",""
"sailing-trial","183","750396","0.0-11.0-148.0","","","","false","","","","","","","","","","513.5","","341","","1","1","arrowleft","0","arrowright","[0.325,0.675,0.85,0.15]","","",""
"sailing-trial","184","753019","0.0-11.0-149.0","","","","false","","","","","","","","","","null","","865.8000001907349","","2","1","null","null","arrowup","[0.325,0.675,0.85,0.15]","","",""
"sailing-trial","185","756571","0.0-11.0-150.0","","","","false","","","","","","","","","","587.5999994277954","","57.89999961853027","","1","1","arrowleft","0","arrowright","[0.325,0.675,0.85,0.15]","","",""
"sailing-trial","186","758592","0.0-11.0-151.0","","","","false","","","","","","","","","","null","","904.6999998092651","","3","0","null","null","arrowup","[0.325,0.675,0.85,0.15]","","",""
"sailing-trial","187","761958","0.0-11.0-152.0","","","","false","","","","","","","","","","493.29999923706055","","130.29999923706055","","1","1","arrowleft","0","arrowright","[0.325,0.675,0.85,0.15]","","",""
"sailing-trial","188","764710","0.0-11.0-153.0","","","","false","","","","","","","","","","null","","858.5","","0","1","null","null","arrowup","[0.325,0.675,0.85,0.15]","","",""
"sailing-trial","189","768913","0.0-11.0-154.0","","","","false","","","","","","","","","","1436.0999994277954","","65","","1","1","arrowleft","0","arrowright","[0.325,0.675,0.85,0.15]","","",""
"sailing-trial","190","771330","0.0-11.0-155.0","","","","false","","","","","","","","","","null","","843.6000003814697","","1","1","null","null","arrowup","[0.325,0.675,0.85,0.15]","","",""
"sailing-trial","191","775417","0.0-11.0-156.0","","","","false","","","","","","","","","","976.3000001907349","","281.69999980926514","","0","1","arrowleft","0","arrowleft","[0.325,0.675,0.85,0.15]","","",""
"sailing-trial","192","777514","0.0-11.0-157.0","","","","false","","","","","","","","","","null","","899.6000003814697","","1","0","null","null","arrowup","[0.325,0.675,0.85,0.15]","","",""
"sailing-trial","193","780637","0.0-11.0-158.0","","","","false","","","","","","","","","","513.2000007629395","","260.0999994277954","","0","0","arrowleft","0","arrowleft","[0.325,0.675,0.85,0.15]","","",""
"sailing-trial","194","783507","0.0-11.0-159.0","","","","false","","","","","","","","","","null","","939.5","","2","1","null","null","arrowup","[0.325,0.675,0.85,0.15]","","",""
"sailing-trial","195","786854","0.0-11.0-160.0","","","","false","","","","","","","","","","839.1999998092651","","39","","1","0","arrowleft","0","arrowright","[0.325,0.675,0.85,0.15]","","",""
"sailing-trial","196","789795","0.0-11.0-161.0","","","","false","","","","","","","","","","null","","1262.6000003814697","","2","1","null","null","arrowup","[0.325,0.675,0.85,0.15]","","",""
"sailing-trial","197","792680","0.0-11.0-162.0","","","","false","","","","","","","","","","701.6999998092651","","4.5","","2","0","arrowright","1","arrowleft","[0.15,0.85,0.675,0.325]","","",""
"sailing-trial","198","794562","0.0-11.0-163.0","","","","false","","","","","","","","","","null","","736.4000005722046","","3","0","null","null","arrowup","[0.15,0.85,0.675,0.325]","","",""
"sailing-trial","199","797581","0.0-11.0-164.0","","","","false","","","","","","","","","","474.3999996185303","","288.70000076293945","","2","0","arrowright","1","arrowleft","[0.15,0.85,0.675,0.325]","","",""
"sailing-trial","200","799713","0.0-11.0-165.0","","","","false","","","","","","","","","","null","","874.5999994277954","","3","0","null","null","arrowup","[0.15,0.85,0.675,0.325]","","",""
"sailing-trial","201","803413","0.0-11.0-166.0","","","","false","","","","","","","","","","453.5","","391.80000019073486","","0","0","arrowleft","0","arrowleft","[0.15,0.85,0.675,0.325]","","",""
"sailing-trial","202","806088","0.0-11.0-167.0","","","","false","","","","","","","","","","null","","743.3000001907349","","1","1","null","null","arrowup","[0.15,0.85,0.675,0.325]","","",""
"sailing-trial","203","810273","0.0-11.0-168.0","","","","false","","","","","","","","","","679.3000001907349","","185.5","","1","0","arrowleft","0","arrowright","[0.15,0.85,0.675,0.325]","","",""
"sailing-trial","204","812032","0.0-11.0-169.0","","","","false","","","","","","","","","","null","","722.8000001907349","","3","0","null","null","arrowup","[0.15,0.85,0.675,0.325]","","",""
"sailing-trial","205","815761","0.0-11.0-170.0","","","","false","","","","","","","","","","704.7999992370605","","113.59999942779541","","1","1","arrowleft","0","arrowright","[0.15,0.85,0.675,0.325]","","",""
"sailing-trial","206","818062","0.0-11.0-171.0","","","","false","","","","","","","","","","null","","763.1000003814697","","2","1","null","null","arrowup","[0.15,0.85,0.675,0.325]","","",""
"sailing-trial","207","821531","0.0-11.0-172.0","","","","false","","","","","","","","","","653.3000001907349","","215.30000019073486","","1","1","arrowleft","0","arrowright","[0.15,0.85,0.675,0.325]","","",""
"sailing-trial","208","823942","0.0-11.0-173.0","","","","false","","","","","","","","","","null","","783.3000001907349","","3","0","null","null","arrowup","[0.15,0.85,0.675,0.325]","","",""
"sailing-trial","209","827312","0.0-11.0-174.0","","","","false","","","","","","","","","","424.30000019073486","","32.5","","1","1","arrowleft","0","arrowright","[0.15,0.85,0.675,0.325]","","",""
"sailing-trial","210","829362","0.0-11.0-175.0","","","","false","","","","","","","","","","null","","743.1999998092651","","2","0","null","null","arrowup","[0.15,0.85,0.675,0.325]","","",""
"sailing-trial","211","832789","0.0-11.0-176.0","","","","false","","","","","","","","","","543.5","","224.39999961853027","","1","1","arrowleft","0","arrowright","[0.15,0.85,0.675,0.325]","","",""
"sailing-trial","212","835112","0.0-11.0-177.0","","","","false","","","","","","","","","","null","","845","","0","0","null","null","arrowup","[0.15,0.85,0.675,0.325]","","",""
"sailing-trial","213","838209","0.0-11.0-178.0","","","","false","","","","","","","","","","823.0999994277954","","10.200000762939453","","3","0","arrowright","1","arrowright","[0.15,0.85,0.675,0.325]","","",""
"sailing-trial","214","840442","0.0-11.0-179.0","","","","false","","","","","","","","","","null","","984.8000001907349","","3","0","null","null","arrowup","[0.15,0.85,0.675,0.325]","","",""
"sailing-trial","215","843814","0.0-11.0-180.0","","","","false","","","","","","","","","","544.5","","60.5","","1","1","arrowleft","0","arrowright","[0.325,0.675,0.85,0.15]","","",""
"sailing-trial","216","845730","0.0-11.0-181.0","","","","false","","","","","","","","","","null","","739.3000001907349","","3","0","null","null","arrowup","[0.325,0.675,0.85,0.15]","","",""
"sailing-trial","217","849100","0.0-11.0-182.0","","","","false","","","","","","","","","","405.19999980926514","","187.19999980926514","","1","1","arrowleft","0","arrowright","[0.325,0.675,0.85,0.15]","","",""
"sailing-trial","218","851672","0.0-11.0-183.0","","","","false","","","","","","","","","","null","","835.1999998092651","","2","1","null","null","arrowup","[0.325,0.675,0.85,0.15]","","",""
"sailing-trial","219","855092","0.0-11.0-184.0","","","","false","","","","","","","","","","654","","259.4000005722046","","1","1","arrowleft","0","arrowright","[0.325,0.675,0.85,0.15]","","",""
"sailing-trial","220","857182","0.0-11.0-185.0","","","","false","","","","","","","","","","null","","692.6000003814697","","0","0","null","null","arrowup","[0.325,0.675,0.85,0.15]","","",""
"sailing-trial","221","860675","0.0-11.0-186.0","","","","false","","","","","","","","","","513.3999996185303","","309.20000076293945","","1","1","arrowleft","0","arrowright","[0.325,0.675,0.85,0.15]","","",""
"sailing-trial","222","863202","0.0-11.0-187.0","","","","false","","","","","","","","","","null","","880","","2","1","null","null","arrowup","[0.325,0.675,0.85,0.15]","","",""
"sailing-trial","223","866878","0.0-11.0-188.0","","","","false","","","","","","","","","","783.3000001907349","","71.19999980926514","","1","1","arrowleft","0","arrowright","[0.325,0.675,0.85,0.15]","","",""
"sailing-trial","224","869481","0.0-11.0-189.0","","","","false","","","","","","","","","","null","","837.3999996185303","","3","1","null","null","arrowup","[0.325,0.675,0.85,0.15]","","",""
"sailing-trial","225","872502","0.0-11.0-190.0","","","","false","","","","","","","","","","594.6000003814697","","30.5","","1","0","arrowleft","0","arrowright","[0.325,0.675,0.85,0.15]","","",""
"sailing-trial","226","874594","0.0-11.0-191.0","","","","false","","","","","","","","","","null","","795.3999996185303","","3","0","null","null","arrowup","[0.325,0.675,0.85,0.15]","","",""
"sailing-trial","227","878344","0.0-11.0-192.0","","","","false","","","","","","","","","","462.69999980926514","","297.6000003814697","","1","1","arrowleft","0","arrowright","[0.325,0.675,0.85,0.15]","","",""
"sailing-trial","228","881025","0.0-11.0-193.0","","","","false","","","","","","","","","","null","","854.7000007629395","","2","1","null","null","arrowup","[0.325,0.675,0.85,0.15]","","",""
"sailing-trial","229","884384","0.0-11.0-194.0","","","","false","","","","","","","","","","543","","146.5999994277954","","1","0","arrowleft","0","arrowright","[0.325,0.675,0.85,0.15]","","",""
"sailing-trial","230","886485","0.0-11.0-195.0","","","","false","","","","","","","","","","null","","852.9000005722046","","0","0","null","null","arrowup","[0.325,0.675,0.85,0.15]","","",""
"sailing-trial","231","889881","0.0-11.0-196.0","","","","false","","","","","","","","","","373.30000019073486","","189.60000038146973","","1","1","arrowleft","0","arrowright","[0.15,0.85,0.675,0.325]","","",""
"sailing-trial","232","892516","0.0-11.0-197.0","","","","false","","","","","","","","","","null","","1036.0999994277954","","1","1","null","null","arrowup","[0.15,0.85,0.675,0.325]","","",""
"sailing-trial","233","895955","0.0-11.0-198.0","","","","false","","","","","","","","","","502.9000005722046","","94.69999980926514","","1","1","arrowleft","0","arrowright","[0.15,0.85,0.675,0.325]","","",""
"sailing-trial","234","897885","0.0-11.0-199.0","","","","false","","","","","","","","","","null","","733.1000003814697","","2","0","null","null","arrowup","[0.15,0.85,0.675,0.325]","","",""
"sailing-trial","235","901038","0.0-11.0-200.0","","","","false","","","","","","","","","","473.0999994277954","","20.5","","1","1","arrowleft","0","arrowright","[0.15,0.85,0.675,0.325]","","",""
"sailing-trial","236","903407","0.0-11.0-201.0","","","","false","","","","","","","","","","null","","838.8999996185303","","2","1","null","null","arrowup","[0.15,0.85,0.675,0.325]","","",""
"sailing-trial","237","906192","0.0-11.0-202.0","","","","false","","","","","","","","","","430.5","","140.69999980926514","","1","0","arrowleft","0","arrowright","[0.15,0.85,0.675,0.325]","","",""
"sailing-trial","238","908315","0.0-11.0-203.0","","","","false","","","","","","","","","","null","","815.3000001907349","","3","0","null","null","arrowup","[0.15,0.85,0.675,0.325]","","",""
"sailing-trial","239","911682","0.0-11.0-204.0","","","","false","","","","","","","","","","414.19999980926514","","173.80000019073486","","1","1","arrowleft","0","arrowright","[0.15,0.85,0.675,0.325]","","",""
"sailing-trial","240","914532","0.0-11.0-205.0","","","","false","","","","","","","","","","null","","1116.3999996185303","","3","1","null","null","arrowup","[0.15,0.85,0.675,0.325]","","",""
"sailing-trial","241","917615","0.0-11.0-206.0","","","","false","","","","","","","","","","516.9000005722046","","264.8999996185303","","3","0","arrowright","1","arrowright","[0.15,0.85,0.675,0.325]","","",""
"sailing-trial","242","919610","0.0-11.0-207.0","","","","false","","","","","","","","","","null","","881.7999992370605","","0","0","null","null","arrowup","[0.15,0.85,0.675,0.325]","","",""
"sailing-trial","243","922554","0.0-11.0-208.0","","","","false","","","","","","","","","","419.3999996185303","","14","","1","1","arrowleft","0","arrowright","[0.15,0.85,0.675,0.325]","","",""
"sailing-trial","244","925073","0.0-11.0-209.0","","","","false","","","","","","","","","","null","","814.2999992370605","","3","1","null","null","arrowup","[0.15,0.85,0.675,0.325]","","",""
"sailing-trial","245","928674","0.0-11.0-210.0","","","","false","","","","","","","","","","585","","205.69999980926514","","1","1","arrowleft","0","arrowright","[0.15,0.85,0.675,0.325]","","",""
"sailing-trial","246","933173","0.0-11.0-211.0","","","","false","","","","","","","","","","null","","3272.699999809265","","0","0","null","null","arrowup","[0.15,0.85,0.675,0.325]","","",""
"sailing-trial","247","936865","0.0-11.0-212.0","","","","false","","","","","","","","","","765.9000005722046","","173.5999994277954","","1","1","arrowleft","0","arrowright","[0.15,0.85,0.675,0.325]","","",""
"sailing-trial","248","938856","0.0-11.0-213.0","","","","false","","","","","","","","","","null","","893.0999994277954","","0","0","null","null","arrowup","[0.15,0.85,0.675,0.325]","","",""
"sailing-trial","249","942284","0.0-11.0-214.0","","","","false","","","","","","","","","","452.9000005722046","","164","","1","1","arrowleft","0","arrowright","[0.15,0.85,0.675,0.325]","","",""
"sailing-trial","250","944956","0.0-11.0-215.0","","","","false","","","","","","","","","","null","","963.9000005722046","","1","1","null","null","arrowup","[0.15,0.85,0.675,0.325]","","",""
"sailing-trial","251","947786","0.0-11.0-216.0","","","","false","","","","","","","","","","573.5999994277954","","11.800000190734863","","1","0","arrowleft","0","arrowright","[0.15,0.85,0.675,0.325]","","",""
"sailing-trial","252","950124","0.0-11.0-217.0","","","","false","","","","","","","","","","null","","631.6000003814697","","1","1","null","null","arrowup","[0.15,0.85,0.675,0.325]","","",""
"sailing-trial","253","953659","0.0-11.0-218.0","","","","false","","","","","","","","","","625.3000001907349","","144.79999923706055","","1","1","arrowleft","0","arrowright","[0.325,0.675,0.85,0.15]","","",""
"sailing-trial","254","955694","0.0-11.0-219.0","","","","false","","","","","","","","","","null","","419.19999980926514","","1","1","null","null","arrowup","[0.325,0.675,0.85,0.15]","","",""
"sailing-trial","255","959064","0.0-11.0-220.0","","","","false","","","","","","","","","","365.80000019073486","","313.8999996185303","","1","1","arrowleft","0","arrowright","[0.325,0.675,0.85,0.15]","","",""
"sailing-trial","256","960446","0.0-11.0-221.0","","","","false","","","","","","","","","","null","","335.19999980926514","","0","0","null","null","arrowup","[0.325,0.675,0.85,0.15]","","",""
"sailing-trial","257","963532","0.0-11.0-222.0","","","","false","","","","","","","","","","413.1000003814697","","119.89999961853027","","1","0","arrowleft","0","arrowright","[0.325,0.675,0.85,0.15]","","",""
"sailing-trial","258","965585","0.0-11.0-223.0","","","","false","","","","","","","","","","null","","476.30000019073486","","0","1","null","null","arrowup","[0.325,0.675,0.85,0.15]","","",""
"sailing-trial","259","968996","0.0-11.0-224.0","","","","false","","","","","","","","","","395.69999980926514","","328","","1","0","arrowleft","0","arrowright","[0.325,0.675,0.85,0.15]","","",""
"sailing-trial","260","971446","0.0-11.0-225.0","","","","false","","","","","","","","","","null","","603.6000003814697","","3","1","null","null","arrowup","[0.325,0.675,0.85,0.15]","","",""
"sailing-trial","261","975108","0.0-11.0-226.0","","","","false","","","","","","","","","","702.4000005722046","","110.70000076293945","","2","1","arrowright","1","arrowleft","[0.325,0.675,0.85,0.15]","","",""
"sailing-trial","262","977509","0.0-11.0-227.0","","","","false","","","","","","","","","","null","","839.1000003814697","","0","1","null","null","arrowup","[0.325,0.675,0.85,0.15]","","",""
"sailing-trial","263","980736","0.0-11.0-228.0","","","","false","","","","","","","","","","430.0999994277954","","330.5","","1","0","arrowleft","0","arrowright","[0.325,0.675,0.85,0.15]","","",""
"sailing-trial","264","982736","0.0-11.0-229.0","","","","false","","","","","","","","","","null","","744.1000003814697","","3","0","null","null","arrowup","[0.325,0.675,0.85,0.15]","","",""
"sailing-trial","265","986026","0.0-11.0-230.0","","","","false","","","","","","","","","","816.1999998092651","","37","","2","0","arrowright","1","arrowleft","[0.325,0.675,0.85,0.15]","","",""
"sailing-trial","266","988406","0.0-11.0-231.0","","","","false","","","","","","","","","","null","","723.6999998092651","","1","1","null","null","arrowup","[0.325,0.675,0.85,0.15]","","",""
"sailing-trial","267","991602","0.0-11.0-232.0","","","","false","","","","","","","","","","455.30000019073486","","23","","1","1","arrowleft","0","arrowright","[0.325,0.675,0.85,0.15]","","",""
"sailing-trial","268","993545","0.0-11.0-233.0","","","","false","","","","","","","","","","null","","717.1000003814697","","1","0","null","null","arrowup","[0.325,0.675,0.85,0.15]","","",""
"sailing-trial","269","996680","0.0-11.0-234.0","","","","false","","","","","","","","","","467.5","","83.09999942779541","","1","1","arrowleft","0","arrowright","[0.325,0.675,0.85,0.15]","","",""
"sailing-trial","270","998797","0.0-11.0-235.0","","","","false","","","","","","","","","","null","","870.0999994277954","","0","0","null","null","arrowup","[0.325,0.675,0.85,0.15]","","",""
"sailing-trial","271","1002452","0.0-11.0-236.0","","","","false","","","","","","","","","","747.3000001907349","","15.800000190734863","","1","1","arrowleft","0","arrowright","[0.325,0.675,0.85,0.15]","","",""
"sailing-trial","272","1004937","0.0-11.0-237.0","","","","false","","","","","","","","","","null","","937.3000001907349","","0","1","null","null","arrowup","[0.325,0.675,0.85,0.15]","","",""
"sailing-trial","273","1008038","0.0-11.0-238.0","","","","false","","","","","","","","","","755.1999998092651","","248","","2","0","arrowright","1","arrowleft","[0.325,0.675,0.85,0.15]","","",""
"sailing-trial","274","1009838","0.0-11.0-239.0","","","","false","","","","","","","","","","null","","714.8000001907349","","3","0","null","null","arrowup","[0.325,0.675,0.85,0.15]","","",""
"sailing-trial","275","1012777","0.0-11.0-240.0","","","","false","","","","","","","","","","484.0999994277954","","251.69999980926514","","1","0","arrowleft","0","arrowright","[0.325,0.675,0.85,0.15]","","",""
"sailing-trial","276","1014977","0.0-11.0-241.0","","","","false","","","","","","","","","","null","","613.8999996185303","","2","1","null","null","arrowup","[0.325,0.675,0.85,0.15]","","",""
"sailing-trial","277","1018345","0.0-11.0-242.0","","","","false","","","","","","","","","","383.79999923706055","","285.30000019073486","","1","1","arrowleft","0","arrowright","[0.15,0.85,0.675,0.325]","","",""
"sailing-trial","278","1020228","0.0-11.0-243.0","","","","false","","","","","","","","","","null","","486.5999994277954","","0","0","null","null","arrowup","[0.15,0.85,0.675,0.325]","","",""
"sailing-trial","279","1023583","0.0-11.0-244.0","","","","false","","","","","","","","","","503.8999996185303","","294.19999980926514","","1","1","arrowleft","0","arrowright","[0.15,0.85,0.675,0.325]","","",""
"sailing-trial","280","1025428","0.0-11.0-245.0","","","","false","","","","","","","","","","null","","369.9000005722046","","1","0","null","null","arrowup","[0.15,0.85,0.675,0.325]","","",""
"sailing-trial","281","1028936","0.0-11.0-246.0","","","","false","","","","","","","","","","494.5","","136.89999961853027","","2","1","arrowright","1","arrowleft","[0.15,0.85,0.675,0.325]","","",""
"sailing-trial","282","1030948","0.0-11.0-247.0","","","","false","","","","","","","","","","null","","763.8000001907349","","3","0","null","null","arrowup","[0.15,0.85,0.675,0.325]","","",""
"sailing-trial","283","1034273","0.0-11.0-248.0","","","","false","","","","","","","","","","434.3999996185303","","254.5","","1","1","arrowleft","0","arrowright","[0.15,0.85,0.675,0.325]","","",""
"sailing-trial","284","1036574","0.0-11.0-249.0","","","","false","","","","","","","","","","null","","538.1000003814697","","1","1","null","null","arrowup","[0.15,0.85,0.675,0.325]","","",""
"sailing-trial","285","1039548","0.0-11.0-250.0","","","","false","","","","","","","","","","527.9000005722046","","70.40000057220459","","1","0","arrowleft","0","arrowright","[0.15,0.85,0.675,0.325]","","",""
"sailing-trial","286","1042196","0.0-11.0-251.0","","","","false","","","","","","","","","","null","","895.6999998092651","","2","1","null","null","arrowup","[0.15,0.85,0.675,0.325]","","",""
"sailing-trial","287","1045658","0.0-11.0-252.0","","","","false","","","","","","","","","","386.4000005722046","","317.1000003814697","","1","1","arrowleft","0","arrowright","[0.15,0.85,0.675,0.325]","","",""
"sailing-trial","288","1047816","0.0-11.0-253.0","","","","false","","","","","","","","","","null","","863.1999998092651","","0","0","null","null","arrowup","[0.15,0.85,0.675,0.325]","","",""
"sailing-trial","289","1051451","0.0-11.0-254.0","","","","false","","","","","","","","","","695.8000001907349","","259","","1","1","arrowleft","0","arrowright","[0.15,0.85,0.675,0.325]","","",""
"sailing-trial","290","1053184","0.0-11.0-255.0","","","","false","","","","","","","","","","null","","492","","3","0","null","null","arrowup","[0.15,0.85,0.675,0.325]","","",""
"sailing-trial","291","1056497","0.0-11.0-256.0","","","","false","","","","","","","","","","424.19999980926514","","101.90000057220459","","1","1","arrowleft","0","arrowright","[0.15,0.85,0.675,0.325]","","",""
"sailing-trial","292","1058414","0.0-11.0-257.0","","","","false","","","","","","","","","","null","","701.8999996185303","","3","0","null","null","arrowup","[0.15,0.85,0.675,0.325]","","",""
"sailing-trial","293","1062305","0.0-11.0-258.0","","","","false","","","","","","","","","","485.30000019073486","","654.5","","1","1","arrowleft","0","arrowright","[0.675,0.325,0.15,0.85]","","",""
"sailing-trial","294","1064133","0.0-11.0-259.0","","","","false","","","","","","","","","","null","","645.1999998092651","","2","0","null","null","arrowup","[0.675,0.325,0.15,0.85]","","",""
"sailing-trial","295","1067018","0.0-11.0-260.0","","","","false","","","","","","","","","","505.80000019073486","","358.1000003814697","","1","0","arrowleft","0","arrowright","[0.675,0.325,0.15,0.85]","","",""
"sailing-trial","296","1069746","0.0-11.0-261.0","","","","false","","","","","","","","","","null","","911.6000003814697","","0","1","null","null","arrowup","[0.675,0.325,0.15,0.85]","","",""
"sailing-trial","297","1073225","0.0-11.0-262.0","","","","false","","","","","","","","","","473.9000005722046","","251","","0","1","arrowleft","0","arrowleft","[0.675,0.325,0.15,0.85]","","",""
"sailing-trial","298","1075916","0.0-11.0-263.0","","","","false","","","","","","","","","","null","","954.8999996185303","","0","1","null","null","arrowup","[0.675,0.325,0.15,0.85]","","",""
"sailing-trial","299","1079712","0.0-11.0-264.0","","","","false","","","","","","","","","","564.4000005722046","","306.6000003814697","","0","1","arrowleft","0","arrowleft","[0.675,0.325,0.15,0.85]","","",""
"sailing-trial","300","1081846","0.0-11.0-265.0","","","","false","","","","","","","","","","null","","847","","1","0","null","null","arrowup","[0.675,0.325,0.15,0.85]","","",""
"sailing-trial","301","1085356","0.0-11.0-266.0","","","","false","","","","","","","","","","504.5","","537.1999998092651","","0","0","arrowleft","0","arrowleft","[0.675,0.325,0.15,0.85]","","",""
"sailing-trial","302","1087245","0.0-11.0-267.0","","","","false","","","","","","","","","","null","","713.7000007629395","","2","0","null","null","arrowup","[0.675,0.325,0.15,0.85]","","",""
"sailing-trial","303","1090952","0.0-11.0-268.0","","","","false","","","","","","","","","","494.69999980926514","","579.5999994277954","","0","1","arrowleft","0","arrowleft","[0.675,0.325,0.15,0.85]","","",""
"sailing-trial","304","1093422","0.0-11.0-269.0","","","","false","","","","","","","","","","null","","867.6999998092651","","1","1","null","null","arrowup","[0.675,0.325,0.15,0.85]","","",""
"sailing-trial","305","1096924","0.0-11.0-270.0","","","","false","","","","","","","","","","438.6000003814697","","98.30000019073486","","0","1","arrowleft","0","arrowleft","[0.675,0.325,0.15,0.85]","","",""
"sailing-trial","306","1099125","0.0-11.0-271.0","","","","false","","","","","","","","","","null","","1065.6999998092651","","1","0","null","null","arrowup","[0.675,0.325,0.15,0.85]","","",""
"sailing-trial","307","1102596","0.0-11.0-272.0","","","","false","","","","","","","","","","474.6000003814697","","131.39999961853027","","0","1","arrowleft","0","arrowleft","[0.675,0.325,0.15,0.85]","","",""
"sailing-trial","308","1104394","0.0-11.0-273.0","","","","false","","","","","","","","","","null","","662.8000001907349","","2","0","null","null","arrowup","[0.675,0.325,0.15,0.85]","","",""
"sailing-trial","309","1107385","0.0-11.0-274.0","","","","false","","","","","","","","","","434.69999980926514","","44.39999961853027","","0","1","arrowleft","0","arrowleft","[0.85,0.15,0.325,0.675]","","",""
"sailing-trial","310","1109866","0.0-11.0-275.0","","","","false","","","","","","","","","","null","","825","","3","1","null","null","arrowup","[0.85,0.15,0.325,0.675]","","",""
"sailing-trial","311","1113552","0.0-11.0-276.0","","","","false","","","","","","","","","","473.6000003814697","","409.70000076293945","","0","1","arrowleft","0","arrowleft","[0.85,0.15,0.325,0.675]","","",""
"sailing-trial","312","1115737","0.0-11.0-277.0","","","","false","","","","","","","","","","null","","626.5","","3","1","null","null","arrowup","[0.85,0.15,0.325,0.675]","","",""
"sailing-trial","313","1119056","0.0-11.0-278.0","","","","false","","","","","","","","","","395.4000005722046","","315.80000019073486","","3","1","arrowright","1","arrowright","[0.85,0.15,0.325,0.675]","","",""
"sailing-trial","314","1121155","0.0-11.0-279.0","","","","false","","","","","","","","","","null","","693.7999992370605","","1","0","null","null","arrowup","[0.85,0.15,0.325,0.675]","","",""
"sailing-trial","315","1124792","0.0-11.0-280.0","","","","false","","","","","","","","","","374.0999994277954","","398.69999980926514","","0","1","arrowleft","0","arrowleft","[0.85,0.15,0.325,0.675]","","",""
"sailing-trial","316","1127155","0.0-11.0-281.0","","","","false","","","","","","","","","","null","","566.8000001907349","","0","1","null","null","arrowup","[0.85,0.15,0.325,0.675]","","",""
"sailing-trial","317","1130263","0.0-11.0-282.0","","","","false","","","","","","","","","","385.19999980926514","","37.70000076293945","","0","1","arrowleft","0","arrowleft","[0.85,0.15,0.325,0.675]","","",""
"sailing-trial","318","1132013","0.0-11.0-283.0","","","","false","","","","","","","","","","null","","654.5","","3","0","null","null","arrowup","[0.85,0.15,0.325,0.675]","","",""
"sailing-trial","319","1135100","0.0-11.0-284.0","","","","false","","","","","","","","","","416.30000019073486","","141","","0","1","arrowleft","0","arrowleft","[0.85,0.15,0.325,0.675]","","",""
"sailing-trial","320","1137084","0.0-11.0-285.0","","","","false","","","","","","","","","","null","","619.8999996185303","","2","0","null","null","arrowup","[0.85,0.15,0.325,0.675]","","",""
"sailing-trial","321","1140604","0.0-11.0-286.0","","","","false","","","","","","","","","","585.6000003814697","","95.10000038146973","","0","1","arrowleft","0","arrowleft","[0.85,0.15,0.325,0.675]","","",""
"sailing-trial","322","1142485","0.0-11.0-287.0","","","","false","","","","","","","","","","null","","594.1999998092651","","3","0","null","null","arrowup","[0.85,0.15,0.325,0.675]","","",""
"sailing-trial","323","1145815","0.0-11.0-288.0","","","","false","","","","","","","","","","374.80000019073486","","67.10000038146973","","0","1","arrowleft","0","arrowleft","[0.85,0.15,0.325,0.675]","","",""
"sailing-trial","324","1147775","0.0-11.0-289.0","","","","false","","","","","","","","","","null","","484.5","","2","0","null","null","arrowup","[0.85,0.15,0.325,0.675]","","",""
"sailing-trial","325","1151345","0.0-11.0-290.0","","","","false","","","","","","","","","","344.5999994277954","","346.5","","0","1","arrowleft","0","arrowleft","[0.85,0.15,0.325,0.675]","","",""
"sailing-trial","326","1153345","0.0-11.0-291.0","","","","false","","","","","","","","","","null","","644.6999998092651","","1","0","null","null","arrowup","[0.85,0.15,0.325,0.675]","","",""
"sailing-trial","327","1156064","0.0-11.0-292.0","","","","false","","","","","","","","","","354.9000005722046","","119.30000019073486","","0","0","arrowleft","0","arrowleft","[0.325,0.675,0.85,0.15]","","",""
"sailing-trial","328","1158570","0.0-11.0-293.0","","","","false","","","","","","","","","","null","","675.1999998092651","","1","1","null","null","arrowup","[0.325,0.675,0.85,0.15]","","",""
"sailing-trial","329","1161645","0.0-11.0-294.0","","","","false","","","","","","","","","","550.1000003814697","","326.19999980926514","","3","0","arrowright","1","arrowright","[0.325,0.675,0.85,0.15]","","",""
"sailing-trial","330","1164187","0.0-11.0-295.0","","","","false","","","","","","","","","","null","","825.3999996185303","","0","1","null","null","arrowup","[0.325,0.675,0.85,0.15]","","",""
"sailing-trial","331","1166995","0.0-11.0-296.0","","","","false","","","","","","","","","","352","","86.10000038146973","","0","0","arrowleft","0","arrowleft","[0.325,0.675,0.85,0.15]","","",""
"sailing-trial","332","1168766","0.0-11.0-297.0","","","","false","","","","","","","","","","null","","574.3999996185303","","3","0","null","null","arrowup","[0.325,0.675,0.85,0.15]","","",""
"sailing-trial","333","1171357","0.0-11.0-298.0","","","","false","","","","","","","","","","394.5","","95.80000019073486","","0","0","arrowleft","0","arrowleft","[0.325,0.675,0.85,0.15]","","",""
"sailing-trial","334","1173780","0.0-11.0-299.0","","","","false","","","","","","","","","","null","","802.4000005722046","","1","1","null","null","arrowup","[0.325,0.675,0.85,0.15]","","",""
"sailing-trial","335","1177197","0.0-11.0-300.0","","","","false","","","","","","","","","","871.8999996185303","","269.79999923706055","","3","0","arrowright","1","arrowright","[0.325,0.675,0.85,0.15]","","",""
"sailing-trial","336","1179516","0.0-11.0-301.0","","","","false","","","","","","","","","","null","","533.8999996185303","","2","1","null","null","arrowup","[0.325,0.675,0.85,0.15]","","",""
"sailing-trial","337","1182968","0.0-11.0-302.0","","","","false","","","","","","","","","","544.5","","158.80000019073486","","2","1","arrowright","1","arrowleft","[0.325,0.675,0.85,0.15]","","",""
"sailing-trial","338","1185487","0.0-11.0-303.0","","","","false","","","","","","","","","","null","","922.8999996185303","","1","1","null","null","arrowup","[0.325,0.675,0.85,0.15]","","",""
"sailing-trial","339","1188956","0.0-11.0-304.0","","","","false","","","","","","","","","","514.3999996185303","","51.09999942779541","","2","1","arrowright","1","arrowleft","[0.325,0.675,0.85,0.15]","","",""
"sailing-trial","340","1191227","0.0-11.0-305.0","","","","false","","","","","","","","","","null","","706.0999994277954","","3","1","null","null","arrowup","[0.325,0.675,0.85,0.15]","","",""
"sailing-trial","341","1194575","0.0-11.0-306.0","","","","false","","","","","","","","","","414.19999980926514","","363.69999980926514","","2","1","arrowright","1","arrowleft","[0.325,0.675,0.85,0.15]","","",""
"sailing-trial","342","1196928","0.0-11.0-307.0","","","","false","","","","","","","","","","null","","675.1000003814697","","2","1","null","null","arrowup","[0.325,0.675,0.85,0.15]","","",""
"sailing-trial","343","1200330","0.0-11.0-308.0","","","","false","","","","","","","","","","473.4000005722046","","160.5999994277954","","2","1","arrowright","1","arrowleft","[0.85,0.15,0.325,0.675]","","",""
"sailing-trial","344","1202716","0.0-11.0-309.0","","","","false","","","","","","","","","","null","","750.0999994277954","","2","1","null","null","arrowup","[0.85,0.15,0.325,0.675]","","",""
"sailing-trial","345","1205838","0.0-11.0-310.0","","","","false","","","","","","","","","","524.9000005722046","","225","","2","0","arrowright","1","arrowleft","[0.85,0.15,0.325,0.675]","","",""
"sailing-trial","346","1208188","0.0-11.0-311.0","","","","false","","","","","","","","","","null","","763.3000001907349","","3","1","null","null","arrowup","[0.85,0.15,0.325,0.675]","","",""
"sailing-trial","347","1211625","0.0-11.0-312.0","","","","false","","","","","","","","","","404.6000003814697","","338.4000005722046","","3","1","arrowright","1","arrowright","[0.85,0.15,0.325,0.675]","","",""
"sailing-trial","348","1214473","0.0-11.0-313.0","","","","false","","","","","","","","","","null","","936.5999994277954","","3","1","null","null","arrowup","[0.85,0.15,0.325,0.675]","","",""
"sailing-trial","349","1218110","0.0-11.0-314.0","","","","false","","","","","","","","","","480.29999923706055","","247.69999980926514","","3","1","arrowright","1","arrowright","[0.85,0.15,0.325,0.675]","","",""
"sailing-trial","350","1221177","0.0-11.0-315.0","","","","false","","","","","","","","","","null","","1781.1999998092651","","2","0","null","null","arrowup","[0.85,0.15,0.325,0.675]","","",""
"sailing-trial","351","1224264","0.0-11.0-316.0","","","","false","","","","","","","","","","484.79999923706055","","93.30000019073486","","3","1","arrowright","1","arrowright","[0.85,0.15,0.325,0.675]","","",""
"sailing-trial","352","1226699","0.0-11.0-317.0","","","","false","","","","","","","","","","null","","787.1999998092651","","0","1","null","null","arrowup","[0.85,0.15,0.325,0.675]","","",""
"sailing-trial","353","1229883","0.0-11.0-318.0","","","","false","","","","","","","","","","471.19999980926514","","188.89999961853027","","3","1","arrowright","1","arrowright","[0.85,0.15,0.325,0.675]","","",""
"sailing-trial","354","1232719","0.0-11.0-319.0","","","","false","","","","","","","","","","null","","928.1000003814697","","1","1","null","null","arrowup","[0.85,0.15,0.325,0.675]","","",""
"sailing-trial","355","1236394","0.0-11.0-320.0","","","","false","","","","","","","","","","452.80000019073486","","475.5","","3","1","arrowright","1","arrowright","[0.85,0.15,0.325,0.675]","","",""
"sailing-trial","356","1238756","0.0-11.0-321.0","","","","false","","","","","","","","","","null","","667.5","","0","1","null","null","arrowup","[0.85,0.15,0.325,0.675]","","",""
"sailing-trial","357","1242167","0.0-11.0-322.0","","","","false","","","","","","","","","","624.3000001907349","","111.09999942779541","","3","1","arrowright","1","arrowright","[0.85,0.15,0.325,0.675]","","",""
"sailing-trial","358","1244237","0.0-11.0-323.0","","","","false","","","","","","","","","","null","","958.4000005722046","","1","0","null","null","arrowup","[0.85,0.15,0.325,0.675]","","",""
"sailing-trial","359","1247747","0.0-11.0-324.0","","","","false","","","","","","","","","","445.0999994277954","","116.5","","3","1","arrowright","1","arrowright","[0.675,0.325,0.15,0.85]","","",""
"sailing-trial","360","1249708","0.0-11.0-325.0","","","","false","","","","","","","","","","null","","643.3999996185303","","2","0","null","null","arrowup","[0.675,0.325,0.15,0.85]","","",""
"sailing-trial","361","1253337","0.0-11.0-326.0","","","","false","","","","","","","","","","402.80000019073486","","370","","3","1","arrowright","1","arrowright","[0.675,0.325,0.15,0.85]","","",""
"sailing-trial","362","1255307","0.0-11.0-327.0","","","","false","","","","","","","","","","null","","963.6999998092651","","1","0","null","null","arrowup","[0.675,0.325,0.15,0.85]","","",""
"sailing-trial","363","1258570","0.0-11.0-328.0","","","","false","","","","","","","","","","434.5999994277954","","299.5","","3","1","arrowright","1","arrowright","[0.675,0.325,0.15,0.85]","","",""
"sailing-trial","364","1260876","0.0-11.0-329.0","","","","false","","","","","","","","","","null","","720.6000003814697","","1","1","null","null","arrowup","[0.675,0.325,0.15,0.85]","","",""
"sailing-trial","365","1264024","0.0-11.0-330.0","","","","false","","","","","","","","","","465","","110.59999942779541","","3","1","arrowright","1","arrowright","[0.675,0.325,0.15,0.85]","","",""
"sailing-trial","366","1266023","0.0-11.0-331.0","","","","false","","","","","","","","","","null","","795.3000001907349","","1","0","null","null","arrowup","[0.675,0.325,0.15,0.85]","","",""
"sailing-trial","367","1269328","0.0-11.0-332.0","","","","false","","","","","","","","","","378.9000005722046","","75.80000019073486","","3","1","arrowright","1","arrowright","[0.675,0.325,0.15,0.85]","","",""
"sailing-trial","368","1271338","0.0-11.0-333.0","","","","false","","","","","","","","","","null","","781.6000003814697","","0","0","null","null","arrowup","[0.675,0.325,0.15,0.85]","","",""
"sailing-trial","369","1273977","0.0-11.0-334.0","","","","false","","","","","","","","","","423.70000076293945","","192.39999961853027","","3","0","arrowright","1","arrowright","[0.675,0.325,0.15,0.85]","","",""
"sailing-trial","370","1276250","0.0-11.0-335.0","","","","false","","","","","","","","","","null","","704","","0","1","null","null","arrowup","[0.675,0.325,0.15,0.85]","","",""
"sailing-trial","371","1279985","0.0-11.0-336.0","","","","false","","","","","","","","","","450.3999996185303","","396.30000019073486","","3","1","arrowright","1","arrowright","[0.675,0.325,0.15,0.85]","","",""
"sailing-trial","372","1282394","0.0-11.0-337.0","","","","false","","","","","","","","","","null","","705","","0","1","null","null","arrowup","[0.675,0.325,0.15,0.85]","","",""
"sailing-trial","373","1285906","0.0-11.0-338.0","","","","false","","","","","","","","","","548.3000001907349","","167.5999994277954","","3","1","arrowright","1","arrowright","[0.675,0.325,0.15,0.85]","","",""
"sailing-trial","374","1288027","0.0-11.0-339.0","","","","false","","","","","","","","","","null","","754.8999996185303","","0","0","null","null","arrowup","[0.675,0.325,0.15,0.85]","","",""
"sailing-trial","375","1291226","0.0-11.0-340.0","","","","false","","","","","","","","","","343.5","","90.5","","3","1","arrowright","1","arrowright","[0.85,0.15,0.325,0.675]","","",""
"sailing-trial","376","1293511","0.0-11.0-341.0","","","","false","","","","","","","","","","null","","724","","3","1","null","null","arrowup","[0.85,0.15,0.325,0.675]","","",""
"sailing-trial","377","1296680","0.0-11.0-342.0","","","","false","","","","","","","","","","440.80000019073486","","190.5","","3","1","arrowright","1","arrowright","[0.85,0.15,0.325,0.675]","","",""
"sailing-trial","378","1299415","0.0-11.0-343.0","","","","false","","","","","","","","","","null","","692","","0","1","null","null","arrowup","[0.85,0.15,0.325,0.675]","","",""
"sailing-trial","379","1302348","0.0-11.0-344.0","","","","false","","","","","","","","","","497.3999996185303","","21.300000190734863","","3","0","arrowright","1","arrowright","[0.85,0.15,0.325,0.675]","","",""
"sailing-trial","380","1304908","0.0-11.0-345.0","","","","false","","","","","","","","","","null","","683.8000001907349","","1","1","null","null","arrowup","[0.85,0.15,0.325,0.675]","","",""
"sailing-trial","381","1308021","0.0-11.0-346.0","","","","false","","","","","","","","","","474.3999996185303","","109.5","","3","1","arrowright","1","arrowright","[0.85,0.15,0.325,0.675]","","",""
"sailing-trial","382","1310106","0.0-11.0-347.0","","","","false","","","","","","","","","","null","","750.9000005722046","","0","0","null","null","arrowup","[0.85,0.15,0.325,0.675]","","",""
"sailing-trial","383","1313491","0.0-11.0-348.0","","","","false","","","","","","","","","","436","","155.30000019073486","","3","1","arrowright","1","arrowright","[0.85,0.15,0.325,0.675]","","",""
"sailing-trial","384","1316394","0.0-11.0-349.0","","","","false","","","","","","","","","","null","","1309.9000005722046","","2","1","null","null","arrowup","[0.85,0.15,0.325,0.675]","","",""
"sailing-trial","385","1319578","0.0-11.0-350.0","","","","false","","","","","","","","","","668.5","","324.30000019073486","","2","0","arrowright","1","arrowleft","[0.85,0.15,0.325,0.675]","","",""
"sailing-trial","386","1322049","0.0-11.0-351.0","","","","false","","","","","","","","","","null","","904.4000005722046","","1","1","null","null","arrowup","[0.85,0.15,0.325,0.675]","","",""
"sailing-trial","387","1325488","0.0-11.0-352.0","","","","false","","","","","","","","","","423","","260.30000019073486","","0","1","arrowleft","0","arrowleft","[0.85,0.15,0.325,0.675]","","",""
"sailing-trial","388","1327836","0.0-11.0-353.0","","","","false","","","","","","","","","","null","","1004.2000007629395","","2","0","null","null","arrowup","[0.85,0.15,0.325,0.675]","","",""
"sailing-trial","389","1331221","0.0-11.0-354.0","","","","false","","","","","","","","","","426.30000019073486","","94.10000038146973","","0","1","arrowleft","0","arrowleft","[0.85,0.15,0.325,0.675]","","",""
"sailing-trial","390","1333555","0.0-11.0-355.0","","","","false","","","","","","","","","","null","","938.8000001907349","","0","0","null","null","arrowup","[0.85,0.15,0.325,0.675]","","",""
"sailing-trial","391","1337057","0.0-11.0-356.0","","","","false","","","","","","","","","","546.5","","189.30000019073486","","0","1","arrowleft","0","arrowleft","[0.85,0.15,0.325,0.675]","","",""
"sailing-trial","392","1339561","0.0-11.0-357.0","","","","false","","","","","","","","","","null","","745.3000001907349","","0","1","null","null","arrowup","[0.85,0.15,0.325,0.675]","","",""
"sailing-trial","393","1342997","0.0-11.0-358.0","","","","false","","","","","","","","","","443.1000003814697","","152.10000038146973","","0","1","arrowleft","0","arrowleft","[0.85,0.15,0.325,0.675]","","",""
"sailing-trial","394","1345338","0.0-11.0-359.0","","","","false","","","","","","","","","","null","","1184.8000001907349","","0","0","null","null","arrowup","[0.85,0.15,0.325,0.675]","","",""
"sailing-trial","395","1348500","0.0-11.0-360.0","","","","false","","","","","","","","","","364.19999980926514","","251.60000038146973","","0","1","arrowleft","0","arrowleft","[0.85,0.15,0.325,0.675]","","",""
"sailing-trial","396","1350985","0.0-11.0-361.0","","","","false","","","","","","","","","","null","","761.0999994277954","","1","1","null","null","arrowup","[0.85,0.15,0.325,0.675]","","",""
"sailing-trial","397","1353604","0.0-11.0-362.0","","","","false","","","","","","","","","","548.9000005722046","","41.39999961853027","","0","0","arrowleft","0","arrowleft","[0.675,0.325,0.15,0.85]","","",""
"sailing-trial","398","1356217","0.0-11.0-363.0","","","","false","","","","","","","","","","null","","714.6000003814697","","3","1","null","null","arrowup","[0.675,0.325,0.15,0.85]","","",""
"sailing-trial","399","1359505","0.0-11.0-364.0","","","","false","","","","","","","","","","562.1000003814697","","74.69999980926514","","3","1","arrowright","1","arrowright","[0.675,0.325,0.15,0.85]","","",""
"sailing-trial","400","1361652","0.0-11.0-365.0","","","","false","","","","","","","","","","null","","1085.6000003814697","","2","0","null","null","arrowup","[0.675,0.325,0.15,0.85]","","",""
"sailing-trial","401","1364775","0.0-11.0-366.0","","","","false","","","","","","","","","","396","","124.10000038146973","","3","1","arrowright","1","arrowright","[0.675,0.325,0.15,0.85]","","",""
"sailing-trial","402","1367615","0.0-11.0-367.0","","","","false","","","","","","","","","","null","","1194.0999994277954","","3","1","null","null","arrowup","[0.675,0.325,0.15,0.85]","","",""
"sailing-trial","403","1370760","0.0-11.0-368.0","","","","false","","","","","","","","","","515","","37","","3","1","arrowright","1","arrowright","[0.675,0.325,0.15,0.85]","","",""
"sailing-trial","404","1373129","0.0-11.0-369.0","","","","false","","","","","","","","","","null","","830.6000003814697","","3","1","null","null","arrowup","[0.675,0.325,0.15,0.85]","","",""
"sailing-trial","405","1376582","0.0-11.0-370.0","","","","false","","","","","","","","","","531.6999998092651","","130.80000019073486","","3","1","arrowright","1","arrowright","[0.675,0.325,0.15,0.85]","","",""
"sailing-trial","406","1378294","0.0-11.0-371.0","","","","false","","","","","","","","","","null","","655.8000001907349","","2","0","null","null","arrowup","[0.675,0.325,0.15,0.85]","","",""
"sailing-trial","407","1381836","0.0-11.0-372.0","","","","false","","","","","","","","","","674.8999996185303","","276.5","","0","1","arrowleft","0","arrowleft","[0.675,0.325,0.15,0.85]","","",""
"sailing-trial","408","1383574","0.0-11.0-373.0","","","","false","","","","","","","","","","null","","597.3999996185303","","2","0","null","null","arrowup","[0.675,0.325,0.15,0.85]","","",""
"sailing-trial","409","1386956","0.0-11.0-374.0","","","","false","","","","","","","","","","385.20000076293945","","219.5","","3","1","arrowright","1","arrowright","[0.675,0.325,0.15,0.85]","","",""
"sailing-trial","410","1389175","0.0-11.0-375.0","","","","false","","","","","","","","","","null","","543.6999998092651","","3","1","null","null","arrowup","[0.675,0.325,0.15,0.85]","","",""
"sailing-trial","411","1392585","0.0-11.0-376.0","","","","false","","","","","","","","","","645.1999998092651","","439.30000019073486","","3","0","arrowright","1","arrowright","[0.675,0.325,0.15,0.85]","","",""
"sailing-trial","412","1394424","0.0-11.0-377.0","","","","false","","","","","","","","","","null","","675.6999998092651","","2","0","null","null","arrowup","[0.675,0.325,0.15,0.85]","","",""
"sailing-trial","413","1397614","0.0-11.0-378.0","","","","false","","","","","","","","","","455.70000076293945","","15.600000381469727","","0","1","arrowleft","0","arrowleft","[0.675,0.325,0.15,0.85]","","",""
"sailing-trial","414","1399374","0.0-11.0-379.0","","","","false","","","","","","","","","","null","","565","","0","0","null","null","arrowup","[0.675,0.325,0.15,0.85]","","",""
"sailing-trial","415","1402801","0.0-11.0-380.0","","","","false","","","","","","","","","","395.29999923706055","","478.3999996185303","","0","1","arrowleft","0","arrowleft","[0.325,0.675,0.85,0.15]","","",""
"sailing-trial","416","1406202","0.0-11.0-381.0","","","","false","","","","","","","","","","null","","1398.5","","0","1","null","null","arrowup","[0.325,0.675,0.85,0.15]","","",""
"sailing-trial","417","1410156","0.0-11.0-382.0","","","","false","","","","","","","","","","688.3999996185303","","86.59999942779541","","0","1","arrowleft","0","arrowleft","[0.325,0.675,0.85,0.15]","","",""
"sailing-trial","418","1412825","0.0-11.0-383.0","","","","false","","","","","","","","","","null","","862.3999996185303","","2","1","null","null","arrowup","[0.325,0.675,0.85,0.15]","","",""
"sailing-trial","419","1416729","0.0-11.0-384.0","","","","false","","","","","","","","","","654","","109.80000019073486","","3","1","arrowright","1","arrowright","[0.325,0.675,0.85,0.15]","","",""
"sailing-trial","420","1419230","0.0-11.0-385.0","","","","false","","","","","","","","","","null","","763","","0","1","null","null","arrowup","[0.325,0.675,0.85,0.15]","","",""
"sailing-trial","421","1422281","0.0-11.0-386.0","","","","false","","","","","","","","","","442.80000019073486","","355.30000019073486","","0","0","arrowleft","0","arrowleft","[0.325,0.675,0.85,0.15]","","",""
"sailing-trial","422","1425501","0.0-11.0-387.0","","","","false","","","","","","","","","","null","","1500.0999994277954","","3","1","null","null","arrowup","[0.325,0.675,0.85,0.15]","","",""
"sailing-trial","423","1428702","0.0-11.0-388.0","","","","false","","","","","","","","","","630.8999996185303","","320.8999996185303","","3","0","arrowright","1","arrowright","[0.325,0.675,0.85,0.15]","","",""
"sailing-trial","424","1430907","0.0-11.0-389.0","","","","false","","","","","","","","","","null","","1029.6000003814697","","1","0","null","null","arrowup","[0.325,0.675,0.85,0.15]","","",""
"sailing-trial","425","1433703","0.0-11.0-390.0","","","","false","","","","","","","","","","415.69999980926514","","183.5","","3","0","arrowright","1","arrowright","[0.325,0.675,0.85,0.15]","","",""
"sailing-trial","426","1435942","0.0-11.0-391.0","","","","false","","","","","","","","","","null","","699.1000003814697","","1","1","null","null","arrowup","[0.325,0.675,0.85,0.15]","","",""
"sailing-trial","427","1439218","0.0-11.0-392.0","","","","false","","","","","","","","","","560.5","","423.0999994277954","","1","0","arrowleft","0","arrowright","[0.325,0.675,0.85,0.15]","","",""
"sailing-trial","428","1442117","0.0-11.0-393.0","","","","false","","","","","","","","","","null","","1183.3000001907349","","1","1","null","null","arrowup","[0.325,0.675,0.85,0.15]","","",""
"sailing-trial","429","1445267","0.0-11.0-394.0","","","","false","","","","","","","","","","595.3000001907349","","52","","0","0","arrowleft","0","arrowleft","[0.325,0.675,0.85,0.15]","","",""
"sailing-trial","430","1447587","0.0-11.0-395.0","","","","false","","","","","","","","","","null","","655.2999992370605","","1","1","null","null","arrowup","[0.325,0.675,0.85,0.15]","","",""
"sailing-trial","431","1451553","0.0-11.0-396.0","","","","false","","","","","","","","","","815.9000005722046","","315","","1","1","arrowleft","0","arrowright","[0.325,0.675,0.85,0.15]","","",""
"sailing-trial","432","1453867","0.0-11.0-397.0","","","","false","","","","","","","","","","null","","1117.6000003814697","","3","0","null","null","arrowup","[0.325,0.675,0.85,0.15]","","",""
"sailing-trial","433","1457323","0.0-11.0-398.0","","","","false","","","","","","","","","","465.5","","237.30000019073486","","1","1","arrowleft","0","arrowright","[0.325,0.675,0.85,0.15]","","",""
"sailing-trial","434","1460442","0.0-11.0-399.0","","","","false","","","","","","","","","","null","","1217.5","","0","1","null","null","arrowup","[0.325,0.675,0.85,0.15]","","",""
"instructions","435","1462644","0.0-12.0","","","","","","","","","","2200.7999992370605","","","","","","","","","","","","","","","","[{""page_index"":0,""viewing_time"":2199.5}]"
"survey-debrief","436","1491789","0.0-13.0","","","","","","","","","","29139.699999809265","","","","","","","","","","","","","","{""difficulty"":""4"",""fun"":""4"",""clarity"":""5"",""strategy"":""I remembered that in the presentation, often three x's in a row was a sign of an unlucky house"",""feedback"":""""}","",""
