"trial_type","trial_index","time_elapsed","internal_node_id","value","metadata","success","timeout","failed_images","failed_audio","failed_video","browser_interaction","low_quality","rt","stimulus","response","button_pressed","island_rt","island_response","boat_rt","boat_response","boat","reward","island_key","island","boat_key","reward_probabilities","responses","num_errors","view_history"
"pavlovia","0","3","0.0-0.0","","","","","","","","","","","","","","","","","","","","","","","","","",""
"call-function","1","3","0.0-1.0","","{""task_version"":""sailing_part1_v1"",""task_condition"":""good"",""boats"":[""B"",""A"",""C"",""D""],""boats_demo"":[""E"",""G"",""H"",""F""],""islands"":[""B"",""A""],""subject_id"":""14384"",""age"":""22"",""gender"":""Male""}","","","","","","","","","","","","","","","","","","","","","","","",""
"preload","2","1918","0.0-2.0","","","true","false","[]","[]","[]","[{""event"":""fullscreenenter"",""trial"":3,""time"":16113}]","false","","","","","","","","","","","","","","","","",""
"fullscreen","3","17088","0.0-3.0","","","true","","","","","","","","","","","","","","","","","","","","","","",""
"audio-keyboard-response","4","18712","0.0-4.0-0.0","","","","","","","","","","1618.6666666666697","audio/beep_loop.wav"," ","","","","","","","","","","","","","",""
"audio-test","5","20468","0.0-4.0-1.0","","","","","","","","","","null","audio/turtle.mp3","","3","","","","","","","","","","","","",""
"audio-test","6","22783","0.0-4.0-2.0","","","","","","","","","","null","audio/shark.mp3","","2","","","","","","","","","","","","",""
"sailing-instructions","7","56611","0.0-5.0-0.0-0.0","","","","","","","","","","","","","","null","null","null","null","null","null","","","","","","",""
"sailing-trial","8","59021","0.0-5.0-0.0-1.0-0.0","","","","false","","","","","","","","","","1271.199999988079","","null","","null","null","arrowleft","0","null","null","","",""
"sailing-trial","9","61698","0.0-5.0-0.0-1.0-1.0","","","","false","","","","","","","","","","1543.699999988079","","null","","null","null","arrowright","1","null","null","","",""
"sailing-trial","10","64137","0.0-5.0-0.0-1.0-2.0","","","","false","","","","","","","","","","1291.1000000238419","","null","","null","null","arrowleft","0","null","null","","",""
"sailing-instructions","11","110780","0.0-5.0-0.0-2.0","","","","","","","","","","","","","","null","null","null","null","0","null","","","","","","",""
"sailing-trial","12","116653","0.0-5.0-0.0-3.0-0.0","","","","false","","","","","","","","","","null","","2751.600000023842","","2","1","null","null","arrowleft","[1,1,1,1]","","",""
"sailing-trial","13","119809","0.0-5.0-0.0-3.0-1.0","","","","false","","","","","","","","","","null","","644.0999999642372","","3","1","null","null","arrowright","[1,1,1,1]","","",""
"sailing-trial","14","123880","0.0-5.0-0.0-3.0-2.0","","","","false","","","","","","","","","","null","","925.6000000238419","","2","0","null","null","arrowleft","[0,0,0,0]","","",""
"sailing-instructions","15","133519","0.0-5.0-0.0-4.0","","","","","","","","","","","","","","null","null","null","null","null","null","","","","","","",""
"sailing-comprehension","16","145832","0.0-5.0-0.0-5.0","","","","","","","","","","10830.300000011921","","","","","","","","","","","","","","[""true"",""true"",""false"",""true""]","0",""
"sailing-instructions","17","208540","0.0-6.0-0.0-0.0","","","","","","","","","","","","","","null","null","null","null","null","null","","","","","","",""
"sailing-comprehension","18","216004","0.0-6.0-0.0-1.0","","","","","","","","","","6902.800000011921","","","","","","","","","","","","","","[""true"",""false"",""true""]","0",""
"sailing-instructions","19","229900","0.0-7.0-0.0-0.0","","","","","","","","","","","","","","null","null","null","null","null","null","","","","","","",""
"sailing-trial","20","234822","0.0-7.0-0.0-1.0-0.0","","","","false","","","","","","","","","","null","","2333.199999988079","","0","0","null","null","arrowup","[0.2,0.8,0.2,0.8]","","",""
"sailing-trial","21","238455","0.0-7.0-0.0-1.0-1.0","","","","false","","","","","","","","","","null","","1493.8999999761581","","1","1","null","null","arrowup","[0.2,0.8,0.2,0.8]","","",""
"sailing-trial","22","241098","0.0-7.0-0.0-1.0-2.0","","","","false","","","","","","","","","","null","","1051.6000000238419","","2","0","null","null","arrowup","[0.2,0.8,0.2,0.8]","","",""
"sailing-trial","23","243934","0.0-7.0-0.0-1.0-3.0","","","","false","","","","","","","","","","null","","802.8999999761581","","3","1","null","null","arrowup","[0.2,0.8,0.2,0.8]","","",""
"sailing-comprehension","24","249033","0.0-7.0-0.0-2.0","","","","","","","","","","4149.800000011921","","","","","","","","","","","","","","[""false""]","0",""
"sailing-instructions","25","258929","0.0-8.0-0.0-0.0","","","","","","","","","","","","","","null","null","null","null","null","null","","","","","","",""
"sailing-comprehension","26","262412","0.0-8.0-0.0-1.0","","","","","","","","","","2846.800000011921","","","","","","","","","","","","","","[""true""]","0",""
"sailing-instructions","27","291790","0.0-9.0-0.0-0.0","","","","","","","","","","","","","","null","null","null","null","null","null","","","","","","",""
"sailing-trial","28","297086","0.0-9.0-0.0-1.0-0.0","","","","false","","","","","","","","","","1059.800000011921","","4.800000011920929","","3","1","arrowright","1","arrowright","[0.2,0.8,0.2,0.8]","","",""
"sailing-trial","29","301468","0.0-9.0-0.0-1.0-1.0","","","","false","","","","","","","","","","647.7999999523163","","549.7000000476837","","0","1","arrowleft","0","arrowleft","[0.2,0.8,0.2,0.8]","","",""
"sailing-trial","30","305169","0.0-9.0-0.0-1.0-2.0","","","","false","","","","","","","","","","null","","1322.300000011921","","0","0","null","null","arrowup","[0.2,0.8,0.2,0.8]","","",""
"sailing-trial","31","309887","0.0-9.0-0.0-1.0-3.0","","","","false","","","","","","","","","","809.8999999761581","","732.8999999761581","","0","1","arrowleft","0","arrowleft","[0.2,0.8,0.2,0.8]","","",""
"sailing-trial","32","313218","0.0-9.0-0.0-1.0-4.0","","","","false","","","","","","","","","","null","","979.8999999761581","","3","1","null","null","arrowup","[0.2,0.8,0.2,0.8]","","",""
"sailing-trial","33","317726","0.0-9.0-0.0-1.0-5.0","","","","false","","","","","","","","","","986.3999999761581","","578","","3","1","arrowright","1","arrowright","[0.2,0.8,0.2,0.8]","","",""
"sailing-instructions","34","342671","0.0-10.0","","","","","","","","","","","","","","null","null","null","null","null","null","","","","","","",""
"sailing-trial","35","347743","0.0-11.0-0.0","","","","false","","","","","","","","","","1552.5999999642372","","145.0999999642372","","0","1","arrowleft","0","arrowleft","[0.85,0.15,0.325,0.675]","","",""
"sailing-trial","36","351197","0.0-11.0-1.0","","","","false","","","","","","","","","","null","","1399.7000000476837","","3","1","null","null","arrowup","[0.85,0.15,0.325,0.675]","","",""
"sailing-trial","37","355264","0.0-11.0-2.0","","","","false","","","","","","","","","","702.7000000476837","","341.10000002384186","","0","1","arrowleft","0","arrowleft","[0.85,0.15,0.325,0.675]","","",""
"sailing-trial","38","358420","0.0-11.0-3.0","","","","false","","","","","","","","","","null","","1109.8999999761581","","2","1","null","null","arrowup","[0.85,0.15,0.325,0.675]","","",""
"sailing-trial","39","362745","0.0-11.0-4.0","","","","false","","","","","","","","","","1062.9000000357628","","256.30000001192093","","0","1","arrowleft","0","arrowleft","[0.85,0.15,0.325,0.675]","","",""
"sailing-trial","40","366137","0.0-11.0-5.0","","","","false","","","","","","","","","","null","","1295.800000011921","","3","1","null","null","arrowup","[0.85,0.15,0.325,0.675]","","",""
"sailing-trial","41","371277","0.0-11.0-6.0","","","","false","","","","","","","","","","857.9000000357628","","222.39999997615814","","0","0","arrowleft","0","arrowleft","[0.85,0.15,0.325,0.675]","","",""
"sailing-trial","42","375470","0.0-11.0-7.0","","","","false","","","","","","","","","","null","","1156.5","","1","0","null","null","arrowup","[0.85,0.15,0.325,0.675]","","",""
"sailing-trial","43","378431","0.0-11.0-8.0","","","","false","","","","","","","","","","650","","83.5","","0","0","arrowleft","0","arrowleft","[0.85,0.15,0.325,0.675]","","",""
"sailing-trial","44","381633","0.0-11.0-9.0","","","","false","","","","","","","","","","null","","1205.3999999761581","","3","1","null","null","arrowup","[0.85,0.15,0.325,0.675]","","",""
"sailing-trial","45","386626","0.0-11.0-10.0","","","","false","","","","","","","","","","1847.4000000357628","","62","","0","1","arrowleft","0","arrowleft","[0.85,0.15,0.325,0.675]","","",""
"sailing-trial","46","389765","0.0-11.0-11.0","","","","false","","","","","","","","","","null","","1049.300000011921","","3","1","null","null","arrowup","[0.85,0.15,0.325,0.675]","","",""
"sailing-trial","47","394406","0.0-11.0-12.0","","","","false","","","","","","","","","","970.3000000119209","","726.6999999880791","","0","1","arrowleft","0","arrowleft","[0.85,0.15,0.325,0.675]","","",""
"sailing-trial","48","397447","0.0-11.0-13.0","","","","false","","","","","","","","","","null","","1106.199999988079","","0","1","null","null","arrowup","[0.85,0.15,0.325,0.675]","","",""
"sailing-trial","49","402624","0.0-11.0-14.0","","","","false","","","","","","","","","","1421.699999988079","","819.5999999642372","","0","1","arrowleft","0","arrowleft","[0.85,0.15,0.325,0.675]","","",""
"sailing-trial","50","406557","0.0-11.0-15.0","","","","false","","","","","","","","","","null","","926.6000000238419","","1","0","null","null","arrowup","[0.85,0.15,0.325,0.675]","","",""
"sailing-trial","51","411306","0.0-11.0-16.0","","","","false","","","","","","","","","","1223.199999988079","","604","","0","1","arrowleft","0","arrowleft","[0.675,0.325,0.15,0.85]","","",""
"sailing-trial","52","414261","0.0-11.0-17.0","","","","false","","","","","","","","","","null","","834.6000000238419","","3","1","null","null","arrowup","[0.675,0.325,0.15,0.85]","","",""
"sailing-trial","53","418553","0.0-11.0-18.0","","","","false","","","","","","","","","","1096.7999999523163","","279.30000001192093","","0","1","arrowleft","0","arrowleft","[0.675,0.325,0.15,0.85]","","",""
"sailing-trial","54","421809","0.0-11.0-19.0","","","","false","","","","","","","","","","null","","1332.6000000238419","","0","1","null","null","arrowup","[0.675,0.325,0.15,0.85]","","",""
"sailing-trial","55","425650","0.0-11.0-20.0","","","","false","","","","","","","","","","655.0999999642372","","268.60000002384186","","0","1","arrowleft","0","arrowleft","[0.675,0.325,0.15,0.85]","","",""
"sailing-trial","56","429620","0.0-11.0-21.0","","","","false","","","","","","","","","","null","","939.5","","1","0","null","null","arrowup","[0.675,0.325,0.15,0.85]","","",""
"sailing-trial","57","434693","0.0-11.0-22.0","","","","false","","","","","","","","","","732","","294.9000000357628","","0","0","arrowleft","0","arrowleft","[0.675,0.325,0.15,0.85]","","",""
"sailing-trial","58","437639","0.0-11.0-23.0","","","","false","","","","","","","","","","null","","972.3000000119209","","3","1","null","null","arrowup","[0.675,0.325,0.15,0.85]","","",""
"sailing-trial","59","443225","0.0-11.0-24.0","","","","false","","","","","","","","","","1095","","435.80000001192093","","0","0","arrowleft","0","arrowleft","[0.675,0.325,0.15,0.85]","","",""
"sailing-trial","60","447638","0.0-11.0-25.0","","","","false","","","","","","","","","","null","","1351.5","","2","0","null","null","arrowup","[0.675,0.325,0.15,0.85]","","",""
"sailing-trial","61","451535","0.0-11.0-26.0","","","","false","","","","","","","","","","687.0999999642372","","153.4000000357628","","0","1","arrowleft","0","arrowleft","[0.675,0.325,0.15,0.85]","","",""
"sailing-trial","62","455163","0.0-11.0-27.0","","","","false","","","","","","","","","","null","","1563.6000000238419","","3","1","null","null","arrowup","[0.675,0.325,0.15,0.85]","","",""
"sailing-trial","63","459800","0.0-11.0-28.0","","","","false","","","","","","","","","","916.0999999642372","","732.1999999880791","","0","1","arrowleft","0","arrowleft","[0.675,0.325,0.15,0.85]","","",""
"sailing-trial","64","463917","0.0-11.0-29.0","","","","false","","","","","","","","","","null","","1092.8999999761581","","2","0","null","null","arrowup","[0.675,0.325,0.15,0.85]","","",""
"sailing-trial","65","468949","0.0-11.0-30.0","","","","false","","","","","","","","","","676.1999999880791","","326.80000001192093","","0","0","arrowleft","0","arrowleft","[0.675,0.325,0.15,0.85]","","",""
"sailing-trial","66","473375","0.0-11.0-31.0","","","","false","","","","","","","","","","null","","1384.0999999642372","","2","0","null","null","arrowup","[0.675,0.325,0.15,0.85]","","",""
"sailing-trial","67","478211","0.0-11.0-32.0","","","","false","","","","","","","","","","657.9000000357628","","103.89999997615814","","0","0","arrowleft","0","arrowleft","[0.85,0.15,0.325,0.675]","","",""
"sailing-trial","68","482156","0.0-11.0-33.0","","","","false","","","","","","","","","","null","","918.3999999761581","","2","0","null","null","arrowup","[0.85,0.15,0.325,0.675]","","",""
"sailing-trial","69","485968","0.0-11.0-34.0","","","","false","","","","","","","","","","560.8999999761581","","332.19999998807907","","3","1","arrowright","1","arrowright","[0.85,0.15,0.325,0.675]","","",""
"sailing-trial","70","488773","0.0-11.0-35.0","","","","false","","","","","","","","","","null","","937.8999999761581","","3","1","null","null","arrowup","[0.85,0.15,0.325,0.675]","","",""
"sailing-trial","71","492780","0.0-11.0-36.0","","","","false","","","","","","","","","","961.1999999880791","","212.69999998807907","","3","1","arrowright","1","arrowright","[0.85,0.15,0.325,0.675]","","",""
"sailing-trial","72","496522","0.0-11.0-37.0","","","","false","","","","","","","","","","null","","724.3999999761581","","3","0","null","null","arrowup","[0.85,0.15,0.325,0.675]","","",""
"sailing-trial","73","500914","0.0-11.0-38.0","","","","false","","","","","","","","","","767.5","","731.8000000119209","","3","1","arrowright","1","arrowright","[0.85,0.15,0.325,0.675]","","",""
"sailing-trial","74","504818","0.0-11.0-39.0","","","","false","","","","","","","","","","null","","878.8000000119209","","2","0","null","null","arrowup","[0.85,0.15,0.325,0.675]","","",""
"sailing-trial","75","510834","0.0-11.0-40.0","","","","false","","","","","","","","","","645.1000000238419","","1299.6000000238419","","3","0","arrowright","1","arrowright","[0.85,0.15,0.325,0.675]","","",""
"sailing-trial","76","514089","0.0-11.0-41.0","","","","false","","","","","","","","","","null","","1275.5","","2","1","null","null","arrowup","[0.85,0.15,0.325,0.675]","","",""
"sailing-trial","77","518266","0.0-11.0-42.0","","","","false","","","","","","","","","","833.8999999761581","","294.69999998807907","","3","1","arrowright","1","arrowright","[0.85,0.15,0.325,0.675]","","",""
"sailing-trial","78","522741","0.0-11.0-43.0","","","","false","","","","","","","","","","null","","1437.1000000238419","","1","0","null","null","arrowup","[0.85,0.15,0.325,0.675]","","",""
"sailing-trial","79","526986","0.0-11.0-44.0","","","","false","","","","","","","","","","709.2000000476837","","665.3000000119209","","3","1","arrowright","1","arrowright","[0.85,0.15,0.325,0.675]","","",""
"sailing-trial","80","530897","0.0-11.0-45.0","","","","false","","","","","","","","","","null","","1879","","0","1","null","null","arrowup","[0.85,0.15,0.325,0.675]","","",""
"sailing-trial","81","536866","0.0-11.0-46.0","","","","false","","","","","","","","","","1282.4000000357628","","646.1000000238419","","3","0","arrowright","1","arrowright","[0.85,0.15,0.325,0.675]","","",""
"sailing-trial","82","541289","0.0-11.0-47.0","","","","false","","","","","","","","","","null","","1354.0999999642372","","2","0","null","null","arrowup","[0.85,0.15,0.325,0.675]","","",""
"sailing-trial","83","545313","0.0-11.0-48.0","","","","false","","","","","","","","","","555.6999999880791","","465.80000001192093","","3","1","arrowright","1","arrowright","[0.675,0.325,0.15,0.85]","","",""
"sailing-trial","84","549909","0.0-11.0-49.0","","","","false","","","","","","","","","","null","","1569.5","","0","0","null","null","arrowup","[0.675,0.325,0.15,0.85]","","",""
"sailing-trial","85","553682","0.0-11.0-50.0","","","","false","","","","","","","","","","666","","217.69999998807907","","3","1","arrowright","1","arrowright","[0.675,0.325,0.15,0.85]","","",""
"sailing-trial","86","556939","0.0-11.0-51.0","","","","false","","","","","","","","","","null","","1123","","1","1","null","null","arrowup","[0.675,0.325,0.15,0.85]","","",""
"sailing-trial","87","560852","0.0-11.0-52.0","","","","false","","","","","","","","","","694.9000000357628","","343.19999998807907","","3","1","arrowright","1","arrowright","[0.675,0.325,0.15,0.85]","","",""
"sailing-trial","88","563846","0.0-11.0-53.0","","","","false","","","","","","","","","","null","","926.1000000238419","","3","1","null","null","arrowup","[0.675,0.325,0.15,0.85]","","",""
"sailing-trial","89","568300","0.0-11.0-54.0","","","","false","","","","","","","","","","819.9000000357628","","708.1000000238419","","3","1","arrowright","1","arrowright","[0.675,0.325,0.15,0.85]","","",""
"sailing-trial","90","572333","0.0-11.0-55.0","","","","false","","","","","","","","","","null","","982.5","","1","0","null","null","arrowup","[0.675,0.325,0.15,0.85]","","",""
"sailing-trial","91","576041","0.0-11.0-56.0","","","","false","","","","","","","","","","603.8999999761581","","169","","3","1","arrowright","1","arrowright","[0.675,0.325,0.15,0.85]","","",""
"sailing-trial","92","578733","0.0-11.0-57.0","","","","false","","","","","","","","","","null","","739.3999999761581","","0","1","null","null","arrowup","[0.675,0.325,0.15,0.85]","","",""
"sailing-trial","93","582622","0.0-11.0-58.0","","","","false","","","","","","","","","","740.3000000119209","","158.5","","3","1","arrowright","1","arrowright","[0.675,0.325,0.15,0.85]","","",""
"sailing-trial","94","586704","0.0-11.0-59.0","","","","false","","","","","","","","","","null","","1055.5","","2","0","null","null","arrowup","[0.675,0.325,0.15,0.85]","","",""
"sailing-trial","95","590888","0.0-11.0-60.0","","","","false","","","","","","","","","","593.6000000238419","","686.5","","3","1","arrowright","1","arrowright","[0.675,0.325,0.15,0.85]","","",""
"sailing-trial","96","594544","0.0-11.0-61.0","","","","false","","","","","","","","","","null","","630","","2","0","null","null","arrowup","[0.675,0.325,0.15,0.85]","","",""
"sailing-trial","97","598184","0.0-11.0-62.0","","","","false","","","","","","","","","","584.7999999523163","","170","","3","1","arrowright","1","arrowright","[0.675,0.325,0.15,0.85]","","",""
"sailing-trial","98","602157","0.0-11.0-63.0","","","","false","","","","","","","","","","null","","934.6999999880791","","2","0","null","null","arrowup","[0.675,0.325,0.15,0.85]","","",""
"sailing-trial","99","606150","0.0-11.0-64.0","","","","false","","","","","","","","","","663.8999999761581","","345.80000001192093","","3","1","arrowright","1","arrowright","[0.675,0.325,0.15,0.85]","","",""
"sailing-trial","100","609391","0.0-11.0-65.0","","","","false","","","","","","","","","","null","","1353.800000011921","","3","1","null","null","arrowup","[0.675,0.325,0.15,0.85]","","",""
"sailing-trial","101","614496","0.0-11.0-66.0","","","","false","","","","","","","","","","777.2999999523163","","274","","3","0","arrowright","1","arrowright","[0.325,0.675,0.85,0.15]","","",""
"sailing-trial","102","617540","0.0-11.0-67.0","","","","false","","","","","","","","","","null","","1112.3999999761581","","3","1","null","null","arrowup","[0.325,0.675,0.85,0.15]","","",""
"sailing-trial","103","622783","0.0-11.0-68.0","","","","false","","","","","","","","","","1074.699999988079","","104.19999998807907","","3","0","arrowright","1","arrowright","[0.325,0.675,0.85,0.15]","","",""
"sailing-trial","104","626356","0.0-11.0-69.0","","","","false","","","","","","","","","","null","","933.5999999642372","","2","1","null","null","arrowup","[0.325,0.675,0.85,0.15]","","",""
"sailing-trial","105","631715","0.0-11.0-70.0","","","","false","","","","","","","","","","882.2000000476837","","436.69999998807907","","3","0","arrowright","1","arrowright","[0.325,0.675,0.85,0.15]","","",""
"sailing-trial","106","634455","0.0-11.0-71.0","","","","false","","","","","","","","","","null","","907.3000000119209","","2","1","null","null","arrowup","[0.325,0.675,0.85,0.15]","","",""
"sailing-trial","107","637953","0.0-11.0-72.0","","","","false","","","","","","","","","","592.9000000357628","","69.40000003576279","","2","1","arrowright","1","arrowleft","[0.325,0.675,0.85,0.15]","","",""
"sailing-trial","108","642281","0.0-11.0-73.0","","","","false","","","","","","","","","","null","","1299.1000000238419","","0","0","null","null","arrowup","[0.325,0.675,0.85,0.15]","","",""
"sailing-trial","109","645892","0.0-11.0-74.0","","","","false","","","","","","","","","","586","","178.79999995231628","","2","1","arrowright","1","arrowleft","[0.325,0.675,0.85,0.15]","","",""
"sailing-trial","110","648866","0.0-11.0-75.0","","","","false","","","","","","","","","","null","","1065.5","","0","1","null","null","arrowup","[0.325,0.675,0.85,0.15]","","",""
"sailing-trial","111","652913","0.0-11.0-76.0","","","","false","","","","","","","","","","1023.9000000357628","","118.60000002384186","","2","1","arrowright","1","arrowleft","[0.325,0.675,0.85,0.15]","","",""
"sailing-trial","112","656818","0.0-11.0-77.0","","","","false","","","","","","","","","","null","","888.6999999880791","","0","0","null","null","arrowup","[0.325,0.675,0.85,0.15]","","",""
"sailing-trial","113","660611","0.0-11.0-78.0","","","","false","","","","","","","","","","756.5","","164.80000001192093","","2","1","arrowright","1","arrowleft","[0.325,0.675,0.85,0.15]","","",""
"sailing-trial","114","664479","0.0-11.0-79.0","","","","false","","","","","","","","","","null","","779.8999999761581","","0","0","null","null","arrowup","[0.325,0.675,0.85,0.15]","","",""
"sailing-trial","115","668103","0.0-11.0-80.0","","","","false","","","","","","","","","","542.5","","199.89999997615814","","2","1","arrowright","1","arrowleft","[0.325,0.675,0.85,0.15]","","",""
"sailing-trial","116","670610","0.0-11.0-81.0","","","","false","","","","","","","","","","null","","620.5999999642372","","2","1","null","null","arrowup","[0.325,0.675,0.85,0.15]","","",""
"sailing-trial","117","674315","0.0-11.0-82.0","","","","false","","","","","","","","","","818.8000000119209","","69.29999995231628","","2","1","arrowright","1","arrowleft","[0.325,0.675,0.85,0.15]","","",""
"sailing-trial","118","676920","0.0-11.0-83.0","","","","false","","","","","","","","","","null","","572.2999999523163","","0","1","null","null","arrowup","[0.325,0.675,0.85,0.15]","","",""
"sailing-trial","119","681079","0.0-11.0-84.0","","","","false","","","","","","","","","","891.1000000238419","","431.80000001192093","","2","1","arrowright","1","arrowleft","[0.325,0.675,0.85,0.15]","","",""
"sailing-trial","120","684950","0.0-11.0-85.0","","","","false","","","","","","","","","","null","","820.5999999642372","","0","0","null","null","arrowup","[0.325,0.675,0.85,0.15]","","",""
"sailing-trial","121","688562","0.0-11.0-86.0","","","","false","","","","","","","","","","674","","97","","2","1","arrowright","1","arrowleft","[0.325,0.675,0.85,0.15]","","",""
"sailing-trial","122","691114","0.0-11.0-87.0","","","","false","","","","","","","","","","null","","621","","1","1","null","null","arrowup","[0.325,0.675,0.85,0.15]","","",""
"sailing-trial","123","694894","0.0-11.0-88.0","","","","false","","","","","","","","","","853.8000000119209","","110.90000003576279","","2","1","arrowright","1","arrowleft","[0.15,0.85,0.675,0.325]","","",""
"sailing-trial","124","697843","0.0-11.0-89.0","","","","false","","","","","","","","","","null","","1014.5","","1","1","null","null","arrowup","[0.15,0.85,0.675,0.325]","","",""
"sailing-trial","125","701751","0.0-11.0-90.0","","","","false","","","","","","","","","","891.3999999761581","","105.09999996423721","","2","1","arrowright","1","arrowleft","[0.15,0.85,0.675,0.325]","","",""
"sailing-trial","126","705040","0.0-11.0-91.0","","","","false","","","","","","","","","","null","","1304.800000011921","","3","1","null","null","arrowup","[0.15,0.85,0.675,0.325]","","",""
"sailing-trial","127","709048","0.0-11.0-92.0","","","","false","","","","","","","","","","832.5","","201.10000002384186","","2","1","arrowright","1","arrowleft","[0.15,0.85,0.675,0.325]","","",""
"sailing-trial","128","713072","0.0-11.0-93.0","","","","false","","","","","","","","","","null","","971.6000000238419","","3","0","null","null","arrowup","[0.15,0.85,0.675,0.325]","","",""
"sailing-trial","129","718088","0.0-11.0-94.0","","","","false","","","","","","","","","","686.6999999880791","","261.39999997615814","","2","0","arrowright","1","arrowleft","[0.15,0.85,0.675,0.325]","","",""
"sailing-trial","130","722271","0.0-11.0-95.0","","","","false","","","","","","","","","","null","","1134.7999999523163","","3","0","null","null","arrowup","[0.15,0.85,0.675,0.325]","","",""
"sailing-trial","131","726612","0.0-11.0-96.0","","","","false","","","","","","","","","","656.5","","712.7999999523163","","2","1","arrowright","1","arrowleft","[0.15,0.85,0.675,0.325]","","",""
"sailing-trial","132","730879","0.0-11.0-97.0","","","","false","","","","","","","","","","null","","1235.2000000476837","","0","0","null","null","arrowup","[0.15,0.85,0.675,0.325]","","",""
"sailing-trial","133","734477","0.0-11.0-98.0","","","","false","","","","","","","","","","617.5","","145","","2","1","arrowright","1","arrowleft","[0.15,0.85,0.675,0.325]","","",""
"sailing-trial","134","738432","0.0-11.0-99.0","","","","false","","","","","","","","","","null","","918.1000000238419","","0","0","null","null","arrowup","[0.15,0.85,0.675,0.325]","","",""
"sailing-trial","135","742238","0.0-11.0-100.0","","","","false","","","","","","","","","","668.4000000357628","","230.19999998807907","","2","1","arrowright","1","arrowleft","[0.15,0.85,0.675,0.325]","","",""
"sailing-trial","136","744816","0.0-11.0-101.0","","","","false","","","","","","","","","","null","","658.6999999880791","","1","1","null","null","arrowup","[0.15,0.85,0.675,0.325]","","",""
"sailing-trial","137","748896","0.0-11.0-102.0","","","","false","","","","","","","","","","933.6999999880791","","259.7999999523163","","2","1","arrowright","1","arrowleft","[0.15,0.85,0.675,0.325]","","",""
"sailing-trial","138","751413","0.0-11.0-103.0","","","","false","","","","","","","","","","null","","663.2999999523163","","2","1","null","null","arrowup","[0.15,0.85,0.675,0.325]","","",""
"sailing-trial","139","756965","0.0-11.0-104.0","","","","false","","","","","","","","","","632.9000000357628","","867.8000000119209","","2","0","arrowright","1","arrowleft","[0.85,0.15,0.325,0.675]","","",""
"sailing-trial","140","760933","0.0-11.0-105.0","","","","false","","","","","","","","","","null","","927.3999999761581","","1","0","null","null","arrowup","[0.85,0.15,0.325,0.675]","","",""
"sailing-trial","141","764343","0.0-11.0-106.0","","","","false","","","","","","","","","","613.1999999880791","","86.29999995231628","","2","1","arrowright","1","arrowleft","[0.85,0.15,0.325,0.675]","","",""
"sailing-trial","142","767128","0.0-11.0-107.0","","","","false","","","","","","","","","","null","","895.4000000357628","","0","1","null","null","arrowup","[0.85,0.15,0.325,0.675]","","",""
"sailing-trial","143","772178","0.0-11.0-108.0","","","","false","","","","","","","","","","777.5","","235.70000004768372","","2","0","arrowright","1","arrowleft","[0.85,0.15,0.325,0.675]","","",""
"sailing-trial","144","774537","0.0-11.0-109.0","","","","false","","","","","","","","","","null","","368.9000000357628","","3","1","null","null","arrowup","[0.85,0.15,0.325,0.675]","","",""
"sailing-trial","145","779421","0.0-11.0-110.0","","","","false","","","","","","","","","","490.30000001192093","","329.10000002384186","","2","0","arrowright","1","arrowleft","[0.85,0.15,0.325,0.675]","","",""
"sailing-trial","146","783234","0.0-11.0-111.0","","","","false","","","","","","","","","","null","","750.8000000119209","","0","0","null","null","arrowup","[0.85,0.15,0.325,0.675]","","",""
"sailing-trial","147","788099","0.0-11.0-112.0","","","","false","","","","","","","","","","755.6999999880791","","35.19999998807907","","2","0","arrowright","1","arrowleft","[0.85,0.15,0.325,0.675]","","",""
"sailing-trial","148","792076","0.0-11.0-113.0","","","","false","","","","","","","","","","null","","934.0999999642372","","3","0","null","null","arrowup","[0.85,0.15,0.325,0.675]","","",""
"sailing-trial","149","795608","0.0-11.0-114.0","","","","false","","","","","","","","","","622.5999999642372","","26.599999964237213","","1","1","arrowleft","0","arrowright","[0.85,0.15,0.325,0.675]","","",""
"sailing-trial","150","799474","0.0-11.0-115.0","","","","false","","","","","","","","","","null","","821.5","","1","0","null","null","arrowup","[0.85,0.15,0.325,0.675]","","",""
"sailing-trial","151","803349","0.0-11.0-116.0","","","","false","","","","","","","","","","530.6000000238419","","398","","1","1","arrowleft","0","arrowright","[0.85,0.15,0.325,0.675]","","",""
"sailing-trial","152","807071","0.0-11.0-117.0","","","","false","","","","","","","","","","null","","700.6999999880791","","1","0","null","null","arrowup","[0.85,0.15,0.325,0.675]","","",""
"sailing-trial","153","812984","0.0-11.0-118.0","","","","false","","","","","","","","","","668.8000000119209","","1183.800000011921","","3","0","arrowright","1","arrowright","[0.85,0.15,0.325,0.675]","","",""
"sailing-trial","154","817035","0.0-11.0-119.0","","","","false","","","","","","","","","","null","","1020.1000000238419","","3","0","null","null","arrowup","[0.85,0.15,0.325,0.675]","","",""
"sailing-trial","155","820798","0.0-11.0-120.0","","","","false","","","","","","","","","","518.3000000119209","","373.5","","2","1","arrowright","1","arrowleft","[0.85,0.15,0.325,0.675]","","",""
"sailing-trial","156","824605","0.0-11.0-121.0","","","","false","","","","","","","","","","null","","753.1000000238419","","2","0","null","null","arrowup","[0.85,0.15,0.325,0.675]","","",""
"sailing-trial","157","829497","0.0-11.0-122.0","","","","false","","","","","","","","","","623.2000000476837","","197.19999998807907","","2","0","arrowright","1","arrowleft","[0.85,0.15,0.325,0.675]","","",""
"sailing-trial","158","832488","0.0-11.0-123.0","","","","false","","","","","","","","","","null","","998.1999999880791","","0","1","null","null","arrowup","[0.85,0.15,0.325,0.675]","","",""
"sailing-trial","159","837840","0.0-11.0-124.0","","","","false","","","","","","","","","","1219.5","","76.60000002384186","","1","0","arrowleft","0","arrowright","[0.85,0.15,0.325,0.675]","","",""
"sailing-trial","160","841721","0.0-11.0-125.0","","","","false","","","","","","","","","","null","","859.8999999761581","","1","0","null","null","arrowup","[0.85,0.15,0.325,0.675]","","",""
"sailing-trial","161","845461","0.0-11.0-126.0","","","","false","","","","","","","","","","661.6000000238419","","106.30000001192093","","0","1","arrowleft","0","arrowleft","[0.85,0.15,0.325,0.675]","","",""
"sailing-trial","162","849388","0.0-11.0-127.0","","","","false","","","","","","","","","","null","","898.9000000357628","","1","0","null","null","arrowup","[0.85,0.15,0.325,0.675]","","",""
"sailing-trial","163","852957","0.0-11.0-128.0","","","","false","","","","","","","","","","584.1000000238419","","0.5999999642372131","","0","1","arrowleft","0","arrowleft","[0.675,0.325,0.15,0.85]","","",""
"sailing-trial","164","855749","0.0-11.0-129.0","","","","false","","","","","","","","","","null","","895","","0","1","null","null","arrowup","[0.675,0.325,0.15,0.85]","","",""
"sailing-trial","165","859816","0.0-11.0-130.0","","","","false","","","","","","","","","","705.1000000238419","","483.19999998807907","","0","1","arrowleft","0","arrowleft","[0.675,0.325,0.15,0.85]","","",""
"sailing-trial","166","862428","0.0-11.0-131.0","","","","false","","","","","","","","","","null","","778.5999999642372","","0","1","null","null","arrowup","[0.675,0.325,0.15,0.85]","","",""
"sailing-trial","167","867507","0.0-11.0-132.0","","","","false","","","","","","","","","","754.6000000238419","","299.19999998807907","","0","0","arrowleft","0","arrowleft","[0.675,0.325,0.15,0.85]","","",""
"sailing-trial","168","871595","0.0-11.0-133.0","","","","false","","","","","","","","","","null","","1068.300000011921","","1","0","null","null","arrowup","[0.675,0.325,0.15,0.85]","","",""
"sailing-trial","169","876486","0.0-11.0-134.0","","","","false","","","","","","","","","","710.8999999761581","","159.30000001192093","","0","0","arrowleft","0","arrowleft","[0.675,0.325,0.15,0.85]","","",""
"sailing-trial","170","880450","0.0-11.0-135.0","","","","false","","","","","","","","","","null","","895.6999999880791","","2","0","null","null","arrowup","[0.675,0.325,0.15,0.85]","","",""
"sailing-trial","171","884320","0.0-11.0-136.0","","","","false","","","","","","","","","","560.3999999761581","","417","","0","1","arrowleft","0","arrowleft","[0.675,0.325,0.15,0.85]","","",""
"sailing-trial","172","887480","0.0-11.0-137.0","","","","false","","","","","","","","","","null","","1282.6000000238419","","3","1","null","null","arrowup","[0.675,0.325,0.15,0.85]","","",""
"sailing-trial","173","891301","0.0-11.0-138.0","","","","false","","","","","","","","","","698.6999999880791","","206.80000001192093","","0","1","arrowleft","0","arrowleft","[0.675,0.325,0.15,0.85]","","",""
"sailing-trial","174","895425","0.0-11.0-139.0","","","","false","","","","","","","","","","null","","1070.7999999523163","","2","0","null","null","arrowup","[0.675,0.325,0.15,0.85]","","",""
"sailing-trial","175","899566","0.0-11.0-140.0","","","","false","","","","","","","","","","784.1999999880791","","430.4000000357628","","0","1","arrowleft","0","arrowleft","[0.675,0.325,0.15,0.85]","","",""
"sailing-trial","176","902694","0.0-11.0-141.0","","","","false","","","","","","","","","","null","","1229.3999999761581","","3","1","null","null","arrowup","[0.675,0.325,0.15,0.85]","","",""
"sailing-trial","177","907004","0.0-11.0-142.0","","","","false","","","","","","","","","","1066.3999999761581","","356.69999998807907","","0","1","arrowleft","0","arrowleft","[0.675,0.325,0.15,0.85]","","",""
"sailing-trial","178","909503","0.0-11.0-143.0","","","","false","","","","","","","","","","null","","601","","3","1","null","null","arrowup","[0.675,0.325,0.15,0.85]","","",""
"sailing-trial","179","913492","0.0-11.0-144.0","","","","false","","","","","","","","","","710.8000000119209","","235.69999998807907","","0","1","arrowleft","0","arrowleft","[0.85,0.15,0.325,0.675]","","",""
"sailing-trial","180","917603","0.0-11.0-145.0","","","","false","","","","","","","","","","null","","1065.300000011921","","2","0","null","null","arrowup","[0.85,0.15,0.325,0.675]","","",""
"sailing-trial","181","922455","0.0-11.0-146.0","","","","false","","","","","","","","","","715.6999999880791","","34.799999952316284","","0","0","arrowleft","0","arrowleft","[0.85,0.15,0.325,0.675]","","",""
"sailing-trial","182","925165","0.0-11.0-147.0","","","","false","","","","","","","","","","null","","701.8000000119209","","0","1","null","null","arrowup","[0.85,0.15,0.325,0.675]","","",""
"sailing-trial","183","930425","0.0-11.0-148.0","","","","false","","","","","","","","","","1306.4000000357628","","1014.3999999761581","","0","1","arrowleft","0","arrowleft","[0.85,0.15,0.325,0.675]","","",""
"sailing-trial","184","933265","0.0-11.0-149.0","","","","false","","","","","","","","","","null","","934.1000000238419","","0","1","null","null","arrowup","[0.85,0.15,0.325,0.675]","","",""
"sailing-trial","185","937207","0.0-11.0-150.0","","","","false","","","","","","","","","","755.6999999880791","","282.19999998807907","","0","1","arrowleft","0","arrowleft","[0.85,0.15,0.325,0.675]","","",""
"sailing-trial","186","941599","0.0-11.0-151.0","","","","false","","","","","","","","","","null","","1325","","1","0","null","null","arrowup","[0.85,0.15,0.325,0.675]","","",""
"sailing-trial","187","945572","0.0-11.0-152.0","","","","false","","","","","","","","","","728.7999999523163","","342","","0","1","arrowleft","0","arrowleft","[0.85,0.15,0.325,0.675]","","",""
"sailing-trial","188","948394","0.0-11.0-153.0","","","","false","","","","","","","","","","null","","923.2999999523163","","3","1","null","null","arrowup","[0.85,0.15,0.325,0.675]","","",""
"sailing-trial","189","952769","0.0-11.0-154.0","","","","false","","","","","","","","","","1159.1000000238419","","333.60000002384186","","0","1","arrowleft","0","arrowleft","[0.85,0.15,0.325,0.675]","","",""
"sailing-trial","190","955607","0.0-11.0-155.0","","","","false","","","","","","","","","","null","","958.5","","0","1","null","null","arrowup","[0.85,0.15,0.325,0.675]","","",""
"sailing-trial","191","959464","0.0-11.0-156.0","","","","false","","","","","","","","","","772.4000000357628","","236.80000001192093","","0","1","arrowleft","0","arrowleft","[0.85,0.15,0.325,0.675]","","",""
"sailing-trial","192","963524","0.0-11.0-157.0","","","","false","","","","","","","","","","null","","985.2000000476837","","2","0","null","null","arrowup","[0.85,0.15,0.325,0.675]","","",""
"sailing-trial","193","967498","0.0-11.0-158.0","","","","false","","","","","","","","","","589.8000000119209","","473.19999998807907","","0","1","arrowleft","0","arrowleft","[0.85,0.15,0.325,0.675]","","",""
"sailing-trial","194","969969","0.0-11.0-159.0","","","","false","","","","","","","","","","null","","644.5999999642372","","0","1","null","null","arrowup","[0.85,0.15,0.325,0.675]","","",""
"sailing-trial","195","973860","0.0-11.0-160.0","","","","false","","","","","","","","","","718.3000000119209","","301.80000001192093","","0","1","arrowleft","0","arrowleft","[0.85,0.15,0.325,0.675]","","",""
"sailing-trial","196","976489","0.0-11.0-161.0","","","","false","","","","","","","","","","null","","761","","3","1","null","null","arrowup","[0.85,0.15,0.325,0.675]","","",""
"sailing-trial","197","980880","0.0-11.0-162.0","","","","false","","","","","","","","","","1013.0999999642372","","476.5","","0","1","arrowleft","0","arrowleft","[0.85,0.15,0.325,0.675]","","",""
"sailing-trial","198","984849","0.0-11.0-163.0","","","","false","","","","","","","","","","null","","924.1999999880791","","3","0","null","null","arrowup","[0.85,0.15,0.325,0.675]","","",""
"sailing-trial","199","988385","0.0-11.0-164.0","","","","false","","","","","","","","","","550.8000000119209","","3.100000023841858","","0","1","arrowleft","0","arrowleft","[0.85,0.15,0.325,0.675]","","",""
"sailing-trial","200","991224","0.0-11.0-165.0","","","","false","","","","","","","","","","null","","912.3000000119209","","2","1","null","null","arrowup","[0.85,0.15,0.325,0.675]","","",""
"sailing-trial","201","996511","0.0-11.0-166.0","","","","false","","","","","","","","","","1030.3999999761581","","245.5","","0","0","arrowleft","0","arrowleft","[0.325,0.675,0.85,0.15]","","",""
"sailing-trial","202","999360","0.0-11.0-167.0","","","","false","","","","","","","","","","null","","978.6000000238419","","1","1","null","null","arrowup","[0.325,0.675,0.85,0.15]","","",""
"sailing-trial","203","1004669","0.0-11.0-168.0","","","","false","","","","","","","","","","693.7000000476837","","555","","0","0","arrowleft","0","arrowleft","[0.325,0.675,0.85,0.15]","","",""
"sailing-trial","204","1007576","0.0-11.0-169.0","","","","false","","","","","","","","","","null","","897.9000000357628","","2","1","null","null","arrowup","[0.325,0.675,0.85,0.15]","","",""
"sailing-trial","205","1011818","0.0-11.0-170.0","","","","false","","","","","","","","","","771.4000000357628","","480.89999997615814","","0","1","arrowleft","0","arrowleft","[0.325,0.675,0.85,0.15]","","",""
"sailing-trial","206","1014639","0.0-11.0-171.0","","","","false","","","","","","","","","","null","","945.3000000119209","","2","1","null","null","arrowup","[0.325,0.675,0.85,0.15]","","",""
"sailing-trial","207","1019483","0.0-11.0-172.0","","","","false","","","","","","","","","","583.2999999523163","","217","","0","0","arrowleft","0","arrowleft","[0.325,0.675,0.85,0.15]","","",""
"sailing-trial","208","1023350","0.0-11.0-173.0","","","","false","","","","","","","","","","null","","821.0999999642372","","3","0","null","null","arrowup","[0.325,0.675,0.85,0.15]","","",""
"sailing-trial","209","1027167","0.0-11.0-174.0","","","","false","","","","","","","","","","483.39999997615814","","452.69999998807907","","1","1","arrowleft","0","arrowright","[0.325,0.675,0.85,0.15]","","",""
"sailing-trial","210","1029936","0.0-11.0-175.0","","","","false","","","","","","","","","","null","","816.9000000357628","","0","1","null","null","arrowup","[0.325,0.675,0.85,0.15]","","",""
"sailing-trial","211","1034043","0.0-11.0-176.0","","","","false","","","","","","","","","","1219.4000000357628","","21.80000001192093","","1","1","arrowleft","0","arrowright","[0.325,0.675,0.85,0.15]","","",""
"sailing-trial","212","1037933","0.0-11.0-177.0","","","","false","","","","","","","","","","null","","876","","2","0","null","null","arrowup","[0.325,0.675,0.85,0.15]","","",""
"sailing-trial","213","1042181","0.0-11.0-178.0","","","","false","","","","","","","","","","740.6000000238419","","612.3000000119209","","1","1","arrowleft","0","arrowright","[0.325,0.675,0.85,0.15]","","",""
"sailing-trial","214","1045822","0.0-11.0-179.0","","","","false","","","","","","","","","","null","","638.0999999642372","","2","0","null","null","arrowup","[0.325,0.675,0.85,0.15]","","",""
"sailing-trial","215","1049440","0.0-11.0-180.0","","","","false","","","","","","","","","","792.8000000119209","","16.5","","1","1","arrowleft","0","arrowright","[0.325,0.675,0.85,0.15]","","",""
"sailing-trial","216","1051944","0.0-11.0-181.0","","","","false","","","","","","","","","","null","","683.5999999642372","","3","1","null","null","arrowup","[0.325,0.675,0.85,0.15]","","",""
"sailing-trial","217","1055652","0.0-11.0-182.0","","","","false","","","","","","","","","","693.9000000357628","","157.5","","1","1","arrowleft","0","arrowright","[0.325,0.675,0.85,0.15]","","",""
"sailing-trial","218","1059579","0.0-11.0-183.0","","","","false","","","","","","","","","","null","","889.6999999880791","","1","0","null","null","arrowup","[0.325,0.675,0.85,0.15]","","",""
"sailing-trial","219","1064273","0.0-11.0-184.0","","","","false","","","","","","","","","","584.0999999642372","","36.89999997615814","","1","0","arrowleft","0","arrowright","[0.325,0.675,0.85,0.15]","","",""
"sailing-trial","220","1066886","0.0-11.0-185.0","","","","false","","","","","","","","","","null","","790.3000000119209","","2","1","null","null","arrowup","[0.325,0.675,0.85,0.15]","","",""
"sailing-trial","221","1071716","0.0-11.0-186.0","","","","false","","","","","","","","","","676.6000000238419","","118.69999998807907","","1","0","arrowleft","0","arrowright","[0.675,0.325,0.15,0.85]","","",""
"sailing-trial","222","1074437","0.0-11.0-187.0","","","","false","","","","","","","","","","null","","719.4000000357628","","1","1","null","null","arrowup","[0.675,0.325,0.15,0.85]","","",""
"sailing-trial","223","1079223","0.0-11.0-188.0","","","","false","","","","","","","","","","708.1000000238419","","24.69999998807907","","1","0","arrowleft","0","arrowright","[0.675,0.325,0.15,0.85]","","",""
"sailing-trial","224","1083073","0.0-11.0-189.0","","","","false","","","","","","","","","","null","","795.4000000357628","","1","0","null","null","arrowup","[0.675,0.325,0.15,0.85]","","",""
"sailing-trial","225","1088276","0.0-11.0-190.0","","","","false","","","","","","","","","","535.1000000238419","","580.7000000476837","","2","0","arrowright","1","arrowleft","[0.675,0.325,0.15,0.85]","","",""
"sailing-trial","226","1090890","0.0-11.0-191.0","","","","false","","","","","","","","","","null","","754.9000000357628","","3","1","null","null","arrowup","[0.675,0.325,0.15,0.85]","","",""
"sailing-trial","227","1096464","0.0-11.0-192.0","","","","false","","","","","","","","","","1403.1000000238419","","127.90000003576279","","3","0","arrowright","1","arrowright","[0.675,0.325,0.15,0.85]","","",""
"sailing-trial","228","1099520","0.0-11.0-193.0","","","","false","","","","","","","","","","null","","1160.5","","0","1","null","null","arrowup","[0.675,0.325,0.15,0.85]","","",""
"sailing-trial","229","1106765","0.0-11.0-194.0","","","","false","","","","","","","","","","2347.599999964237","","1921","","2","1","arrowright","1","arrowleft","[0.675,0.325,0.15,0.85]","","",""
"sailing-trial","230","1111188","0.0-11.0-195.0","","","","false","","","","","","","","","","null","","1384.0999999642372","","3","0","null","null","arrowup","[0.675,0.325,0.15,0.85]","","",""
"sailing-trial","231","1115905","0.0-11.0-196.0","","","","false","","","","","","","","","","663.6999999880791","","20.600000023841858","","2","0","arrowright","1","arrowleft","[0.675,0.325,0.15,0.85]","","",""
"sailing-trial","232","1118959","0.0-11.0-197.0","","","","false","","","","","","","","","","null","","1091.800000011921","","2","1","null","null","arrowup","[0.675,0.325,0.15,0.85]","","",""
"sailing-trial","233","1123231","0.0-11.0-198.0","","","","false","","","","","","","","","","707","","593.5","","0","1","arrowleft","0","arrowleft","[0.675,0.325,0.15,0.85]","","",""
"sailing-trial","234","1127702","0.0-11.0-199.0","","","","false","","","","","","","","","","null","","1415.4000000357628","","1","0","null","null","arrowup","[0.675,0.325,0.15,0.85]","","",""
"sailing-trial","235","1131916","0.0-11.0-200.0","","","","false","","","","","","","","","","1023.1000000238419","","228","","0","1","arrowleft","0","arrowleft","[0.675,0.325,0.15,0.85]","","",""
"sailing-trial","236","1135905","0.0-11.0-201.0","","","","false","","","","","","","","","","null","","2107.100000023842","","3","1","null","null","arrowup","[0.675,0.325,0.15,0.85]","","",""
"sailing-trial","237","1139915","0.0-11.0-202.0","","","","false","","","","","","","","","","844.5","","152.19999998807907","","0","1","arrowleft","0","arrowleft","[0.675,0.325,0.15,0.85]","","",""
"sailing-trial","238","1142602","0.0-11.0-203.0","","","","false","","","","","","","","","","null","","826.5","","1","1","null","null","arrowup","[0.675,0.325,0.15,0.85]","","",""
"sailing-trial","239","1146595","0.0-11.0-204.0","","","","false","","","","","","","","","","799.7999999523163","","292.9000000357628","","0","1","arrowleft","0","arrowleft","[0.85,0.15,0.325,0.675]","","",""
"sailing-trial","240","1151502","0.0-11.0-205.0","","","","false","","","","","","","","","","null","","1890.199999988079","","1","0","null","null","arrowup","[0.85,0.15,0.325,0.675]","","",""
"sailing-trial","241","1155261","0.0-11.0-206.0","","","","false","","","","","","","","","","630.1999999880791","","234.10000002384186","","0","1","arrowleft","0","arrowleft","[0.85,0.15,0.325,0.675]","","",""
"sailing-trial","242","1159067","0.0-11.0-207.0","","","","false","","","","","","","","","","null","","778.1999999880791","","1","0","null","null","arrowup","[0.85,0.15,0.325,0.675]","","",""
"sailing-trial","243","1163827","0.0-11.0-208.0","","","","false","","","","","","","","","","703.3000000119209","","1124.699999988079","","0","1","arrowleft","0","arrowleft","[0.85,0.15,0.325,0.675]","","",""
"sailing-trial","244","1167611","0.0-11.0-209.0","","","","false","","","","","","","","","","null","","745","","1","0","null","null","arrowup","[0.85,0.15,0.325,0.675]","","",""
"sailing-trial","245","1170840","0.0-11.0-210.0","","","","false","","","","","","","","","","553.1999999880791","","43.60000002384186","","0","1","arrowleft","0","arrowleft","[0.85,0.15,0.325,0.675]","","",""
"sailing-trial","246","1174647","0.0-11.0-211.0","","","","false","","","","","","","","","","null","","777.8999999761581","","3","0","null","null","arrowup","[0.85,0.15,0.325,0.675]","","",""
"sailing-trial","247","1178472","0.0-11.0-212.0","","","","false","","","","","","","","","","729.3000000119209","","134.39999997615814","","0","1","arrowleft","0","arrowleft","[0.85,0.15,0.325,0.675]","","",""
"sailing-trial","248","1182379","0.0-11.0-213.0","","","","false","","","","","","","","","","null","","862.6999999880791","","2","0","null","null","arrowup","[0.85,0.15,0.325,0.675]","","",""
"sailing-trial","249","1186270","0.0-11.0-214.0","","","","false","","","","","","","","","","450.80000001192093","","554.7000000476837","","0","1","arrowleft","0","arrowleft","[0.85,0.15,0.325,0.675]","","",""
"sailing-trial","250","1189043","0.0-11.0-215.0","","","","false","","","","","","","","","","null","","853.6000000238419","","3","1","null","null","arrowup","[0.85,0.15,0.325,0.675]","","",""
"sailing-trial","251","1193101","0.0-11.0-216.0","","","","false","","","","","","","","","","703.3999999761581","","426.19999998807907","","0","1","arrowleft","0","arrowleft","[0.85,0.15,0.325,0.675]","","",""
"sailing-trial","252","1195856","0.0-11.0-217.0","","","","false","","","","","","","","","","null","","895.8999999761581","","0","1","null","null","arrowup","[0.85,0.15,0.325,0.675]","","",""
"sailing-trial","253","1199414","0.0-11.0-218.0","","","","false","","","","","","","","","","643.6999999880791","","67.40000003576279","","0","1","arrowleft","0","arrowleft","[0.85,0.15,0.325,0.675]","","",""
"sailing-trial","254","1202235","0.0-11.0-219.0","","","","false","","","","","","","","","","null","","923.9000000357628","","3","1","null","null","arrowup","[0.85,0.15,0.325,0.675]","","",""
"sailing-trial","255","1207073","0.0-11.0-220.0","","","","false","","","","","","","","","","675.5","","113.70000004768372","","0","0","arrowleft","0","arrowleft","[0.85,0.15,0.325,0.675]","","",""
"sailing-trial","256","1209883","0.0-11.0-221.0","","","","false","","","","","","","","","","null","","852.3999999761581","","2","1","null","null","arrowup","[0.85,0.15,0.325,0.675]","","",""
"sailing-trial","257","1213744","0.0-11.0-222.0","","","","false","","","","","","","","","","638","","246","","0","1","arrowleft","0","arrowleft","[0.85,0.15,0.325,0.675]","","",""
"sailing-trial","258","1217166","0.0-11.0-223.0","","","","false","","","","","","","","","","null","","1459.1000000238419","","3","1","null","null","arrowup","[0.85,0.15,0.325,0.675]","","",""
"sailing-trial","259","1221938","0.0-11.0-224.0","","","","false","","","","","","","","","","699","","11.799999952316284","","0","0","arrowleft","0","arrowleft","[0.675,0.325,0.15,0.85]","","",""
"sailing-trial","260","1224511","0.0-11.0-225.0","","","","false","","","","","","","","","","null","","714.1000000238419","","1","1","null","null","arrowup","[0.675,0.325,0.15,0.85]","","",""
"sailing-trial","261","1228418","0.0-11.0-226.0","","","","false","","","","","","","","","","626.1999999880791","","366.19999998807907","","0","1","arrowleft","0","arrowleft","[0.675,0.325,0.15,0.85]","","",""
"sailing-trial","262","1231253","0.0-11.0-227.0","","","","false","","","","","","","","","","null","","950","","1","1","null","null","arrowup","[0.675,0.325,0.15,0.85]","","",""
"sailing-trial","263","1234510","0.0-11.0-228.0","","","","false","","","","","","","","","","531.3000000119209","","406.60000002384186","","0","0","arrowleft","0","arrowleft","[0.675,0.325,0.15,0.85]","","",""
"sailing-trial","264","1240043","0.0-11.0-229.0","","","","false","","","","","","","","","","null","","2485.5","","1","0","null","null","arrowup","[0.675,0.325,0.15,0.85]","","",""
"sailing-trial","265","1244116","0.0-11.0-230.0","","","","false","","","","","","","","","","782.8999999761581","","281.89999997615814","","0","1","arrowleft","0","arrowleft","[0.675,0.325,0.15,0.85]","","",""
"sailing-trial","266","1248021","0.0-11.0-231.0","","","","false","","","","","","","","","","null","","874.9000000357628","","2","0","null","null","arrowup","[0.675,0.325,0.15,0.85]","","",""
"sailing-trial","267","1251507","0.0-11.0-232.0","","","","false","","","","","","","","","","551.1999999880791","","71.10000002384186","","0","1","arrowleft","0","arrowleft","[0.675,0.325,0.15,0.85]","","",""
"sailing-trial","268","1254376","0.0-11.0-233.0","","","","false","","","","","","","","","","null","","921.3999999761581","","2","1","null","null","arrowup","[0.675,0.325,0.15,0.85]","","",""
"sailing-trial","269","1259284","0.0-11.0-234.0","","","","false","","","","","","","","","","605.7999999523163","","273.5","","0","0","arrowleft","0","arrowleft","[0.675,0.325,0.15,0.85]","","",""
"sailing-trial","270","1263201","0.0-11.0-235.0","","","","false","","","","","","","","","","null","","878.1000000238419","","2","0","null","null","arrowup","[0.675,0.325,0.15,0.85]","","",""
"sailing-trial","271","1267877","0.0-11.0-236.0","","","","false","","","","","","","","","","575.8000000119209","","21.30000001192093","","0","0","arrowleft","0","arrowleft","[0.675,0.325,0.15,0.85]","","",""
"sailing-trial","272","1271819","0.0-11.0-237.0","","","","false","","","","","","","","","","null","","921.3999999761581","","1","0","null","null","arrowup","[0.675,0.325,0.15,0.85]","","",""
"sailing-trial","273","1275359","0.0-11.0-238.0","","","","false","","","","","","","","","","589.8999999761581","","58.80000001192093","","0","1","arrowleft","0","arrowleft","[0.675,0.325,0.15,0.85]","","",""
"sailing-trial","274","1279128","0.0-11.0-239.0","","","","false","","","","","","","","","","null","","758.5","","3","0","null","null","arrowup","[0.675,0.325,0.15,0.85]","","",""
"sailing-trial","275","1283107","0.0-11.0-240.0","","","","false","","","","","","","","","","560.1000000238419","","516.5","","0","1","arrowleft","0","arrowleft","[0.85,0.15,0.325,0.675]","","",""
"sailing-trial","276","1287136","0.0-11.0-241.0","","","","false","","","","","","","","","","null","","979.0999999642372","","1","0","null","null","arrowup","[0.85,0.15,0.325,0.675]","","",""
"sailing-trial","277","1290690","0.0-11.0-242.0","","","","false","","","","","","","","","","496.19999998807907","","98.19999998807907","","0","1","arrowleft","0","arrowleft","[0.85,0.15,0.325,0.675]","","",""
"sailing-trial","278","1294496","0.0-11.0-243.0","","","","false","","","","","","","","","","null","","758","","1","0","null","null","arrowup","[0.85,0.15,0.325,0.675]","","",""
"sailing-trial","279","1298279","0.0-11.0-244.0","","","","false","","","","","","","","","","563","","300.9000000357628","","0","1","arrowleft","0","arrowleft","[0.85,0.15,0.325,0.675]","","",""
"sailing-trial","280","1302330","0.0-11.0-245.0","","","","false","","","","","","","","","","null","","993.7000000476837","","2","0","null","null","arrowup","[0.85,0.15,0.325,0.675]","","",""
"sailing-trial","281","1306674","0.0-11.0-246.0","","","","false","","","","","","","","","","1073","","441.30000001192093","","0","1","arrowleft","0","arrowleft","[0.85,0.15,0.325,0.675]","","",""
"sailing-trial","282","1309150","0.0-11.0-247.0","","","","false","","","","","","","","","","null","","591.5999999642372","","0","1","null","null","arrowup","[0.85,0.15,0.325,0.675]","","",""
"sailing-trial","283","1312965","0.0-11.0-248.0","","","","false","","","","","","","","","","824.6000000238419","","106.39999997615814","","0","1","arrowleft","0","arrowleft","[0.85,0.15,0.325,0.675]","","",""
"sailing-trial","284","1316428","0.0-11.0-249.0","","","","false","","","","","","","","","","null","","398.80000001192093","","3","0","null","null","arrowup","[0.85,0.15,0.325,0.675]","","",""
"sailing-trial","285","1320163","0.0-11.0-250.0","","","","false","","","","","","","","","","617.1999999880791","","196","","0","1","arrowleft","0","arrowleft","[0.85,0.15,0.325,0.675]","","",""
"sailing-trial","286","1323655","0.0-11.0-251.0","","","","false","","","","","","","","","","null","","452.2999999523163","","0","0","null","null","arrowup","[0.85,0.15,0.325,0.675]","","",""
"sailing-trial","287","1327175","0.0-11.0-252.0","","","","false","","","","","","","","","","604.3000000119209","","32.5","","0","1","arrowleft","0","arrowleft","[0.85,0.15,0.325,0.675]","","",""
"sailing-trial","288","1330665","0.0-11.0-253.0","","","","false","","","","","","","","","","null","","456.19999998807907","","0","0","null","null","arrowup","[0.85,0.15,0.325,0.675]","","",""
"sailing-trial","289","1334173","0.0-11.0-254.0","","","","false","","","","","","","","","","598.6000000238419","","35","","0","1","arrowleft","0","arrowleft","[0.85,0.15,0.325,0.675]","","",""
"sailing-trial","290","1336344","0.0-11.0-255.0","","","","false","","","","","","","","","","null","","328.2999999523163","","0","1","null","null","arrowup","[0.85,0.15,0.325,0.675]","","",""
"sailing-trial","291","1340287","0.0-11.0-256.0","","","","false","","","","","","","","","","623.1000000238419","","435.7999999523163","","0","1","arrowleft","0","arrowleft","[0.85,0.15,0.325,0.675]","","",""
"sailing-trial","292","1343940","0.0-11.0-257.0","","","","false","","","","","","","","","","null","","612.0999999642372","","1","0","null","null","arrowup","[0.85,0.15,0.325,0.675]","","",""
"sailing-trial","293","1348649","0.0-11.0-258.0","","","","false","","","","","","","","","","411","","247","","0","0","arrowleft","0","arrowleft","[0.85,0.15,0.325,0.675]","","",""
"sailing-trial","294","1352845","0.0-11.0-259.0","","","","false","","","","","","","","","","null","","1136.4000000357628","","1","0","null","null","arrowup","[0.85,0.15,0.325,0.675]","","",""
"sailing-trial","295","1356766","0.0-11.0-260.0","","","","false","","","","","","","","","","807","","245.5","","0","1","arrowleft","0","arrowleft","[0.675,0.325,0.15,0.85]","","",""
"sailing-trial","296","1360801","0.0-11.0-261.0","","","","false","","","","","","","","","","null","","992.0999999642372","","2","0","null","null","arrowup","[0.675,0.325,0.15,0.85]","","",""
"sailing-trial","297","1365532","0.0-11.0-262.0","","","","false","","","","","","","","","","520.7000000476837","","161.5","","0","0","arrowleft","0","arrowleft","[0.675,0.325,0.15,0.85]","","",""
"sailing-trial","298","1369270","0.0-11.0-263.0","","","","false","","","","","","","","","","null","","705.7999999523163","","2","0","null","null","arrowup","[0.675,0.325,0.15,0.85]","","",""
"sailing-trial","299","1373097","0.0-11.0-264.0","","","","false","","","","","","","","","","492.2000000476837","","416.69999998807907","","0","1","arrowleft","0","arrowleft","[0.675,0.325,0.15,0.85]","","",""
"sailing-trial","300","1377087","0.0-11.0-265.0","","","","false","","","","","","","","","","null","","960.5","","3","0","null","null","arrowup","[0.675,0.325,0.15,0.85]","","",""
"sailing-trial","301","1380695","0.0-11.0-266.0","","","","false","","","","","","","","","","562.4000000357628","","180.39999997615814","","0","1","arrowleft","0","arrowleft","[0.675,0.325,0.15,0.85]","","",""
"sailing-trial","302","1384672","0.0-11.0-267.0","","","","false","","","","","","","","","","null","","937.1000000238419","","3","0","null","null","arrowup","[0.675,0.325,0.15,0.85]","","",""
"sailing-trial","303","1388627","0.0-11.0-268.0","","","","false","","","","","","","","","","683.6999999880791","","333.4000000357628","","0","1","arrowleft","0","arrowleft","[0.675,0.325,0.15,0.85]","","",""
"sailing-trial","304","1391700","0.0-11.0-269.0","","","","false","","","","[{""event"":""fullscreenenter"",""trial"":3,""time"":16113},{""event"":""blur"",""trial"":305,""time"":1395430},{""event"":""focus"",""trial"":305,""time"":1396152}]","false","","","","","null","","1096.699999988079","","0","1","null","null","arrowup","[0.675,0.325,0.15,0.85]","","",""
"sailing-trial","305","1396731","0.0-11.0-270.0","","","","false","","","","","","","","","","723.0999999642372","","259.39999997615814","","0","0","arrowleft","0","arrowleft","[0.675,0.325,0.15,0.85]","","",""
"sailing-trial","306","1400969","0.0-11.0-271.0","","","","false","","","","","","","","","","null","","1199.699999988079","","0","0","null","null","arrowup","[0.675,0.325,0.15,0.85]","","",""
"sailing-trial","307","1406325","0.0-11.0-272.0","","","","false","","","","","","","","","","1186.300000011921","","102.09999996423721","","0","0","arrowleft","0","arrowleft","[0.675,0.325,0.15,0.85]","","",""
"sailing-trial","308","1409051","0.0-11.0-273.0","","","","false","","","","","","","","","","null","","786.5","","0","1","null","null","arrowup","[0.675,0.325,0.15,0.85]","","",""
"sailing-trial","309","1414181","0.0-11.0-274.0","","","","false","","","","","","","","","","1278.3999999761581","","554.8999999761581","","3","1","arrowright","1","arrowright","[0.675,0.325,0.15,0.85]","","",""
"sailing-trial","310","1418128","0.0-11.0-275.0","","","","false","","","","","","","","","","null","","894","","2","0","null","null","arrowup","[0.675,0.325,0.15,0.85]","","",""
"sailing-trial","311","1421850","0.0-11.0-276.0","","","","false","","","","","","","","","","623","","162.10000002384186","","3","1","arrowright","1","arrowright","[0.15,0.85,0.675,0.325]","","",""
"sailing-trial","312","1424998","0.0-11.0-277.0","","","","false","","","","","","","","","","null","","1013.3000000119209","","1","1","null","null","arrowup","[0.15,0.85,0.675,0.325]","","",""
"sailing-trial","313","1429828","0.0-11.0-278.0","","","","false","","","","","","","","","","767.6000000238419","","29.69999998807907","","3","0","arrowright","1","arrowright","[0.15,0.85,0.675,0.325]","","",""
"sailing-trial","314","1432437","0.0-11.0-279.0","","","","false","","","","","","","","","","null","","689.4000000357628","","1","1","null","null","arrowup","[0.15,0.85,0.675,0.325]","","",""
"sailing-trial","315","1435832","0.0-11.0-280.0","","","","false","","","","","","","","","","535.5999999642372","","27.899999976158142","","1","1","arrowleft","0","arrowright","[0.15,0.85,0.675,0.325]","","",""
"sailing-trial","316","1439694","0.0-11.0-281.0","","","","false","","","","","","","","","","null","","824.8000000119209","","0","0","null","null","arrowup","[0.15,0.85,0.675,0.325]","","",""
"sailing-trial","317","1443567","0.0-11.0-282.0","","","","false","","","","","","","","","","605.1000000238419","","315.80000001192093","","1","1","arrowleft","0","arrowright","[0.15,0.85,0.675,0.325]","","",""
"sailing-trial","318","1446373","0.0-11.0-283.0","","","","false","","","","","","","","","","null","","889.6000000238419","","2","1","null","null","arrowup","[0.15,0.85,0.675,0.325]","","",""
"sailing-trial","319","1450063","0.0-11.0-284.0","","","","false","","","","","","","","","","662.1999999880791","","157.10000002384186","","1","1","arrowleft","0","arrowright","[0.15,0.85,0.675,0.325]","","",""
"sailing-trial","320","1453978","0.0-11.0-285.0","","","","false","","","","","","","","","","null","","884.1000000238419","","2","0","null","null","arrowup","[0.15,0.85,0.675,0.325]","","",""
"sailing-trial","321","1457827","0.0-11.0-286.0","","","","false","","","","","","","","","","615.3000000119209","","268.9000000357628","","1","1","arrowleft","0","arrowright","[0.15,0.85,0.675,0.325]","","",""
"sailing-trial","322","1461903","0.0-11.0-287.0","","","","false","","","","","","","","","","null","","2083.099999964237","","3","1","null","null","arrowup","[0.15,0.85,0.675,0.325]","","",""
"sailing-trial","323","1467004","0.0-11.0-288.0","","","","false","","","","","","","","","","934.3999999761581","","104.29999995231628","","1","0","arrowleft","0","arrowright","[0.15,0.85,0.675,0.325]","","",""
"sailing-trial","324","1470802","0.0-11.0-289.0","","","","false","","","","","","","","","","null","","754.1999999880791","","2","0","null","null","arrowup","[0.15,0.85,0.675,0.325]","","",""
"sailing-trial","325","1474426","0.0-11.0-290.0","","","","false","","","","","","","","","","684.3999999761581","","85.30000001192093","","1","1","arrowleft","0","arrowright","[0.15,0.85,0.675,0.325]","","",""
"sailing-trial","326","1477834","0.0-11.0-291.0","","","","false","","","","","","","","","","null","","756","","1","1","null","null","arrowup","[0.15,0.85,0.675,0.325]","","",""
"sailing-trial","327","1483131","0.0-11.0-292.0","","","","false","","","","","","","","","","636.6999999880791","","638.7999999523163","","3","0","arrowright","1","arrowright","[0.15,0.85,0.675,0.325]","","",""
"sailing-trial","328","1487255","0.0-11.0-293.0","","","","false","","","","","","","","","","null","","1055","","0","0","null","null","arrowup","[0.15,0.85,0.675,0.325]","","",""
"sailing-trial","329","1490945","0.0-11.0-294.0","","","","false","","","","","","","","","","797.4000000357628","","20.099999964237213","","1","1","arrowleft","0","arrowright","[0.325,0.675,0.85,0.15]","","",""
"sailing-trial","330","1494674","0.0-11.0-295.0","","","","false","","","","","","","","","","null","","670.1000000238419","","1","0","null","null","arrowup","[0.325,0.675,0.85,0.15]","","",""
"sailing-trial","331","1498605","0.0-11.0-296.0","","","","false","","","","","","","","","","527","","451.80000001192093","","1","1","arrowleft","0","arrowright","[0.325,0.675,0.85,0.15]","","",""
"sailing-trial","332","1502436","0.0-11.0-297.0","","","","false","","","","","","","","","","null","","790.8999999761581","","0","0","null","null","arrowup","[0.325,0.675,0.85,0.15]","","",""
"sailing-trial","333","1506990","0.0-11.0-298.0","","","","false","","","","","","","","","","721.3999999761581","","908.9000000357628","","1","1","arrowleft","0","arrowright","[0.325,0.675,0.85,0.15]","","",""
"sailing-trial","334","1511226","0.0-11.0-299.0","","","","false","","","","","","","","","","null","","1184.6000000238419","","0","0","null","null","arrowup","[0.325,0.675,0.85,0.15]","","",""
"sailing-trial","335","1515156","0.0-11.0-300.0","","","","false","","","","","","","","","","603.3000000119209","","483","","1","1","arrowleft","0","arrowright","[0.325,0.675,0.85,0.15]","","",""
"sailing-trial","336","1519284","0.0-11.0-301.0","","","","false","","","","","","","","","","null","","1071.5","","0","0","null","null","arrowup","[0.325,0.675,0.85,0.15]","","",""
"sailing-trial","337","1523155","0.0-11.0-302.0","","","","false","","","","","","","","","","727.5","","237.69999998807907","","1","1","arrowleft","0","arrowright","[0.325,0.675,0.85,0.15]","","",""
"sailing-trial","338","1527122","0.0-11.0-303.0","","","","false","","","","","","","","","","null","","931.3999999761581","","3","0","null","null","arrowup","[0.325,0.675,0.85,0.15]","","",""
"sailing-trial","339","1532136","0.0-11.0-304.0","","","","false","","","","","","","","","","575.5","","393.5","","1","0","arrowleft","0","arrowright","[0.325,0.675,0.85,0.15]","","",""
"sailing-trial","340","1534976","0.0-11.0-305.0","","","","false","","","","","","","","","","null","","935.5","","3","1","null","null","arrowup","[0.325,0.675,0.85,0.15]","","",""
"sailing-trial","341","1539001","0.0-11.0-306.0","","","","false","","","","","","","","","","582.8000000119209","","442.19999998807907","","1","1","arrowleft","0","arrowright","[0.325,0.675,0.85,0.15]","","",""
"sailing-trial","342","1541757","0.0-11.0-307.0","","","","false","","","","","","","","","","null","","906.8999999761581","","2","1","null","null","arrowup","[0.325,0.675,0.85,0.15]","","",""
"sailing-trial","343","1546829","0.0-11.0-308.0","","","","false","","","","","","","","","","671.1999999880791","","362","","1","0","arrowleft","0","arrowright","[0.325,0.675,0.85,0.15]","","",""
"sailing-trial","344","1549609","0.0-11.0-309.0","","","","false","","","","","","","","","","null","","866.1999999880791","","3","1","null","null","arrowup","[0.325,0.675,0.85,0.15]","","",""
"sailing-trial","345","1554115","0.0-11.0-310.0","","","","false","","","","","","","","","","1173.4000000357628","","372.5999999642372","","1","1","arrowleft","0","arrowright","[0.325,0.675,0.85,0.15]","","",""
"sailing-trial","346","1558404","0.0-11.0-311.0","","","","false","","","","","","","","","","null","","1264.800000011921","","0","0","null","null","arrowup","[0.325,0.675,0.85,0.15]","","",""
"sailing-trial","347","1562347","0.0-11.0-312.0","","","","false","","","","","","","","","","842.5","","208.60000002384186","","1","1","arrowleft","0","arrowright","[0.325,0.675,0.85,0.15]","","",""
"sailing-trial","348","1565051","0.0-11.0-313.0","","","","false","","","","","","","","","","null","","788.1000000238419","","0","1","null","null","arrowup","[0.325,0.675,0.85,0.15]","","",""
"sailing-trial","349","1570480","0.0-11.0-314.0","","","","false","","","","","","","","","","1337.7999999523163","","41.59999996423721","","1","0","arrowleft","0","arrowright","[0.85,0.15,0.325,0.675]","","",""
"sailing-trial","350","1573710","0.0-11.0-315.0","","","","false","","","","","","","","","","null","","1029.3999999761581","","2","1","null","null","arrowup","[0.85,0.15,0.325,0.675]","","",""
"sailing-trial","351","1579829","0.0-11.0-316.0","","","","false","","","","","","","","","","1703.199999988079","","366.2999999523163","","1","0","arrowleft","0","arrowright","[0.85,0.15,0.325,0.675]","","",""
"sailing-trial","352","1582318","0.0-11.0-317.0","","","","false","","","","","","","","","","null","","615.6999999880791","","0","1","null","null","arrowup","[0.85,0.15,0.325,0.675]","","",""
"sailing-trial","353","1586260","0.0-11.0-318.0","","","","false","","","","","","","","","","603.8000000119209","","286","","1","1","arrowleft","0","arrowright","[0.85,0.15,0.325,0.675]","","",""
"sailing-trial","354","1588870","0.0-11.0-319.0","","","","false","","","","","","","","","","null","","760.1999999880791","","3","1","null","null","arrowup","[0.85,0.15,0.325,0.675]","","",""
"sailing-trial","355","1593626","0.0-11.0-320.0","","","","false","","","","","","","","","","639.1000000238419","","106.30000001192093","","1","0","arrowleft","0","arrowright","[0.85,0.15,0.325,0.675]","","",""
"sailing-trial","356","1596268","0.0-11.0-321.0","","","","false","","","","","","","","","","null","","671.8000000119209","","2","1","null","null","arrowup","[0.85,0.15,0.325,0.675]","","",""
"sailing-trial","357","1601683","0.0-11.0-322.0","","","","false","","","","","","","","","","985.1999999880791","","381.30000001192093","","1","0","arrowleft","0","arrowright","[0.85,0.15,0.325,0.675]","","",""
"sailing-trial","358","1605461","0.0-11.0-323.0","","","","false","","","","","","","","","","null","","723.6999999880791","","2","0","null","null","arrowup","[0.85,0.15,0.325,0.675]","","",""
"sailing-trial","359","1610756","0.0-11.0-324.0","","","","false","","","","","","","","","","1083.5","","137.9000000357628","","0","0","arrowleft","0","arrowleft","[0.85,0.15,0.325,0.675]","","",""
"sailing-trial","360","1613449","0.0-11.0-325.0","","","","false","","","","","","","","","","null","","724","","0","1","null","null","arrowup","[0.85,0.15,0.325,0.675]","","",""
"sailing-trial","361","1617711","0.0-11.0-326.0","","","","false","","","","","","","","","","850","","461.80000001192093","","3","1","arrowright","1","arrowright","[0.85,0.15,0.325,0.675]","","",""
"sailing-trial","362","1620459","0.0-11.0-327.0","","","","false","","","","","","","","","","null","","915.0999999642372","","0","1","null","null","arrowup","[0.85,0.15,0.325,0.675]","","",""
"sailing-trial","363","1625689","0.0-11.0-328.0","","","","false","","","","","","","","","","719.6999999880791","","407.0999999642372","","3","0","arrowright","1","arrowright","[0.85,0.15,0.325,0.675]","","",""
"sailing-trial","364","1628325","0.0-11.0-329.0","","","","false","","","","","","","","","","null","","747.8000000119209","","2","1","null","null","arrowup","[0.85,0.15,0.325,0.675]","","",""
"sailing-trial","365","1633365","0.0-11.0-330.0","","","","false","","","","","","","","","","703.5999999642372","","279","","3","0","arrowright","1","arrowright","[0.675,0.325,0.15,0.85]","","",""
"sailing-trial","366","1636240","0.0-11.0-331.0","","","","false","","","","","","","","","","null","","921.6999999880791","","1","1","null","null","arrowup","[0.675,0.325,0.15,0.85]","","",""
"sailing-trial","367","1639713","0.0-11.0-332.0","","","","false","","","","","","","","","","555.8999999761581","","52.59999996423721","","0","1","arrowleft","0","arrowleft","[0.675,0.325,0.15,0.85]","","",""
"sailing-trial","368","1643542","0.0-11.0-333.0","","","","false","","","","","","","","","","null","","785.6000000238419","","0","0","null","null","arrowup","[0.675,0.325,0.15,0.85]","","",""
"sailing-trial","369","1646889","0.0-11.0-334.0","","","","false","","","","","","","","","","268.10000002384186","","139.10000002384186","","0","1","arrowleft","0","arrowleft","[0.675,0.325,0.15,0.85]","","",""
"sailing-trial","370","1649800","0.0-11.0-335.0","","","","false","","","","","","","","","","null","","770.3000000119209","","3","1","null","null","arrowup","[0.675,0.325,0.15,0.85]","","",""
"sailing-trial","371","1654659","0.0-11.0-336.0","","","","false","","","","","","","","","","715","","1116.6000000238419","","0","1","arrowleft","0","arrowleft","[0.675,0.325,0.15,0.85]","","",""
"sailing-trial","372","1658622","0.0-11.0-337.0","","","","false","","","","","","","","","","null","","913.6999999880791","","1","0","null","null","arrowup","[0.675,0.325,0.15,0.85]","","",""
"sailing-trial","373","1663404","0.0-11.0-338.0","","","","false","","","","","","","","","","513.8999999761581","","183.30000001192093","","0","0","arrowleft","0","arrowleft","[0.675,0.325,0.15,0.85]","","",""
"sailing-trial","374","1666079","0.0-11.0-339.0","","","","false","","","","","","","","","","null","","742.5","","3","1","null","null","arrowup","[0.675,0.325,0.15,0.85]","","",""
"sailing-trial","375","1671006","0.0-11.0-340.0","","","","false","","","","","","","","","","1185.300000011921","","734.5","","0","1","arrowleft","0","arrowleft","[0.675,0.325,0.15,0.85]","","",""
"sailing-trial","376","1675049","0.0-11.0-341.0","","","","false","","","","","","","","","","null","","2084.600000023842","","1","1","null","null","arrowup","[0.675,0.325,0.15,0.85]","","",""
"sailing-trial","377","1680140","0.0-11.0-342.0","","","","false","","","","","","","","","","802.5999999642372","","272.5999999642372","","0","0","arrowleft","0","arrowleft","[0.675,0.325,0.15,0.85]","","",""
"sailing-trial","378","1682691","0.0-11.0-343.0","","","","false","","","","","","","","","","null","","709.5999999642372","","3","1","null","null","arrowup","[0.675,0.325,0.15,0.85]","","",""
"sailing-trial","379","1687788","0.0-11.0-344.0","","","","false","","","","","","","","","","689.3999999761581","","389.30000001192093","","0","0","arrowleft","0","arrowleft","[0.675,0.325,0.15,0.85]","","",""
"sailing-trial","380","1690629","0.0-11.0-345.0","","","","false","","","","","","","","","","null","","822","","1","1","null","null","arrowup","[0.675,0.325,0.15,0.85]","","",""
"sailing-trial","381","1695220","0.0-11.0-346.0","","","","false","","","","","","","","","","1426.699999988079","","201","","3","1","arrowright","1","arrowright","[0.675,0.325,0.15,0.85]","","",""
"sailing-trial","382","1698176","0.0-11.0-347.0","","","","false","","","","","","","","","","null","","718.8999999761581","","2","1","null","null","arrowup","[0.675,0.325,0.15,0.85]","","",""
"sailing-trial","383","1702601","0.0-11.0-348.0","","","","false","","","","","","","","","","1305.199999988079","","172.30000001192093","","3","1","arrowright","1","arrowright","[0.85,0.15,0.325,0.675]","","",""
"sailing-trial","384","1706358","0.0-11.0-349.0","","","","false","","","","","","","","","","null","","705","","1","0","null","null","arrowup","[0.85,0.15,0.325,0.675]","","",""
"sailing-trial","385","1710033","0.0-11.0-350.0","","","","false","","","","","","","","","","629.6999999880791","","169.89999997615814","","3","1","arrowright","1","arrowright","[0.85,0.15,0.325,0.675]","","",""
"sailing-trial","386","1713906","0.0-11.0-351.0","","","","false","","","","","","","","","","null","","829.3000000119209","","1","0","null","null","arrowup","[0.85,0.15,0.325,0.675]","","",""
"sailing-trial","387","1717780","0.0-11.0-352.0","","","","false","","","","","","","","","","616.3000000119209","","400.60000002384186","","3","1","arrowright","1","arrowright","[0.85,0.15,0.325,0.675]","","",""
"sailing-trial","388","1722002","0.0-11.0-353.0","","","","false","","","","","","","","","","null","","1188.9000000357628","","2","0","null","null","arrowup","[0.85,0.15,0.325,0.675]","","",""
"sailing-trial","389","1727015","0.0-11.0-354.0","","","","false","","","","","","","","","","535.0999999642372","","442.9000000357628","","3","0","arrowright","1","arrowright","[0.85,0.15,0.325,0.675]","","",""
"sailing-trial","390","1730372","0.0-11.0-355.0","","","","false","","","","","","","","","","null","","942.6000000238419","","0","1","null","null","arrowup","[0.85,0.15,0.325,0.675]","","",""
"sailing-trial","391","1734259","0.0-11.0-356.0","","","","false","","","","","","","","","","741","","288.30000001192093","","3","1","arrowright","1","arrowright","[0.85,0.15,0.325,0.675]","","",""
"sailing-trial","392","1737468","0.0-11.0-357.0","","","","false","","","","","","","","","","null","","1094.9000000357628","","0","1","null","null","arrowup","[0.85,0.15,0.325,0.675]","","",""
"sailing-trial","393","1741230","0.0-11.0-358.0","","","","false","","","","","","","","","","773.8000000119209","","119.10000002384186","","3","1","arrowright","1","arrowright","[0.85,0.15,0.325,0.675]","","",""
"sailing-trial","394","1745579","0.0-11.0-359.0","","","","false","","","","","","","","","","null","","1333.8999999761581","","1","0","null","null","arrowup","[0.85,0.15,0.325,0.675]","","",""
"sailing-trial","395","1750093","0.0-11.0-360.0","","","","false","","","","","","","","","","1163.0999999642372","","172.9000000357628","","3","1","arrowright","1","arrowright","[0.85,0.15,0.325,0.675]","","",""
"sailing-trial","396","1754217","0.0-11.0-361.0","","","","false","","","","","","","","","","null","","1109.1000000238419","","0","0","null","null","arrowup","[0.85,0.15,0.325,0.675]","","",""
"sailing-trial","397","1759276","0.0-11.0-362.0","","","","false","","","","","","","","","","929.3999999761581","","122.30000001192093","","3","0","arrowright","1","arrowright","[0.85,0.15,0.325,0.675]","","",""
"sailing-trial","398","1762568","0.0-11.0-363.0","","","","false","","","","","","","","","","null","","1164.199999988079","","0","1","null","null","arrowup","[0.85,0.15,0.325,0.675]","","",""
"sailing-trial","399","1766909","0.0-11.0-364.0","","","","false","","","","","","","","","","786.6000000238419","","282.0999999642372","","3","1","arrowright","1","arrowright","[0.85,0.15,0.325,0.675]","","",""
"sailing-trial","400","1771384","0.0-11.0-365.0","","","","false","","","","","","","","","","null","","1426.5","","2","0","null","null","arrowup","[0.85,0.15,0.325,0.675]","","",""
"sailing-trial","401","1775643","0.0-11.0-366.0","","","","false","","","","","","","","","","651.3000000119209","","310.19999998807907","","3","1","arrowright","1","arrowright","[0.675,0.325,0.15,0.85]","","",""
"sailing-trial","402","1778814","0.0-11.0-367.0","","","","false","","","","","","","","","","null","","1263.300000011921","","1","1","null","null","arrowup","[0.675,0.325,0.15,0.85]","","",""
"sailing-trial","403","1783464","0.0-11.0-368.0","","","","false","","","","","","","","","","1332.5","","430.60000002384186","","3","1","arrowright","1","arrowright","[0.675,0.325,0.15,0.85]","","",""
"sailing-trial","404","1787451","0.0-11.0-369.0","","","","false","","","","","","","","","","null","","929.3999999761581","","1","0","null","null","arrowup","[0.675,0.325,0.15,0.85]","","",""
"sailing-trial","405","1791273","0.0-11.0-370.0","","","","false","","","","","","","","","","663.1000000238419","","75.80000001192093","","3","1","arrowright","1","arrowright","[0.675,0.325,0.15,0.85]","","",""
"sailing-trial","406","1795711","0.0-11.0-371.0","","","","false","","","","","","","","","","null","","1421.5999999642372","","1","0","null","null","arrowup","[0.675,0.325,0.15,0.85]","","",""
"sailing-trial","407","1800190","0.0-11.0-372.0","","","","false","","","","","","","","","","845.5","","794.1000000238419","","3","1","arrowright","1","arrowright","[0.675,0.325,0.15,0.85]","","",""
"sailing-trial","408","1804377","0.0-11.0-373.0","","","","false","","","","","","","","","","null","","1134.6000000238419","","1","0","null","null","arrowup","[0.675,0.325,0.15,0.85]","","",""
"sailing-trial","409","1808712","0.0-11.0-374.0","","","","false","","","","","","","","","","715.8000000119209","","723.2999999523163","","3","1","arrowright","1","arrowright","[0.675,0.325,0.15,0.85]","","",""
"sailing-trial","410","1812900","0.0-11.0-375.0","","","","false","","","","","","","","","","null","","1137.5","","2","0","null","null","arrowup","[0.675,0.325,0.15,0.85]","","",""
"sailing-trial","411","1818442","0.0-11.0-376.0","","","","false","","","","","","","","","","902.1999999880791","","1952.699999988079","","3","1","arrowright","1","arrowright","[0.675,0.325,0.15,0.85]","","",""
"sailing-trial","412","1822826","0.0-11.0-377.0","","","","false","","","","","","","","","","null","","1358.199999988079","","2","0","null","null","arrowup","[0.675,0.325,0.15,0.85]","","",""
"sailing-trial","413","1827191","0.0-11.0-378.0","","","","false","","","","","","","","","","881.4000000357628","","492.80000001192093","","3","1","arrowright","1","arrowright","[0.675,0.325,0.15,0.85]","","",""
"sailing-trial","414","1831484","0.0-11.0-379.0","","","","false","","","","","","","","","","null","","1252.300000011921","","1","0","null","null","arrowup","[0.675,0.325,0.15,0.85]","","",""
"sailing-trial","415","1837555","0.0-11.0-380.0","","","","false","","","","","","","","","","1018.2000000476837","","988.1000000238419","","3","0","arrowright","1","arrowright","[0.675,0.325,0.15,0.85]","","",""
"sailing-trial","416","1841934","0.0-11.0-381.0","","","","false","","","","","","","","","","null","","1331.3999999761581","","2","0","null","null","arrowup","[0.675,0.325,0.15,0.85]","","",""
"sailing-trial","417","1846639","0.0-11.0-382.0","","","","false","","","","","","","","","","216.39999997615814","","365.60000002384186","","0","0","arrowleft","0","arrowleft","[0.85,0.15,0.325,0.675]","","",""
"sailing-trial","418","1850819","0.0-11.0-383.0","","","","false","","","","","","","","","","null","","1144.1000000238419","","0","0","null","null","arrowup","[0.85,0.15,0.325,0.675]","","",""
"sailing-trial","419","1855795","0.0-11.0-384.0","","","","false","","","","","","","","","","630.3999999761581","","1201.9000000357628","","3","1","arrowright","1","arrowright","[0.85,0.15,0.325,0.675]","","",""
"sailing-trial","420","1858729","0.0-11.0-385.0","","","","false","","","","","","","","","","null","","1053.5","","3","1","null","null","arrowup","[0.85,0.15,0.325,0.675]","","",""
"sailing-trial","421","1862961","0.0-11.0-386.0","","","","false","","","","","","","","","","872","","299.30000001192093","","3","1","arrowright","1","arrowright","[0.85,0.15,0.325,0.675]","","",""
"sailing-trial","422","1866067","0.0-11.0-387.0","","","","false","","","","","","","","","","null","","1025.2000000476837","","0","1","null","null","arrowup","[0.85,0.15,0.325,0.675]","","",""
"sailing-trial","423","1871677","0.0-11.0-388.0","","","","false","","","","","","","","","","977.5","","1679.5","","3","1","arrowright","1","arrowright","[0.85,0.15,0.325,0.675]","","",""
"sailing-trial","424","1875786","0.0-11.0-389.0","","","","false","","","","","","","","","","null","","1095.5999999642372","","3","0","null","null","arrowup","[0.85,0.15,0.325,0.675]","","",""
"sailing-trial","425","1881657","0.0-11.0-390.0","","","","false","","","","","","","","","","1561.800000011921","","263.5","","3","0","arrowright","1","arrowright","[0.85,0.15,0.325,0.675]","","",""
"sailing-trial","426","1886722","0.0-11.0-391.0","","","","false","","","","","","","","","","null","","2010.699999988079","","0","0","null","null","arrowup","[0.85,0.15,0.325,0.675]","","",""
"sailing-trial","427","1893159","0.0-11.0-392.0","","","","false","","","","","","","","","","1633","","1858.300000011921","","3","1","arrowright","1","arrowright","[0.85,0.15,0.325,0.675]","","",""
"sailing-trial","428","1896275","0.0-11.0-393.0","","","","false","","","","","","","","","","null","","1179.4000000357628","","3","1","null","null","arrowup","[0.85,0.15,0.325,0.675]","","",""
"sailing-trial","429","1902401","0.0-11.0-394.0","","","","false","","","","","","","","","","1233.300000011921","","807","","3","0","arrowright","1","arrowright","[0.85,0.15,0.325,0.675]","","",""
"sailing-trial","430","1905526","0.0-11.0-395.0","","","","false","","","","","","","","","","null","","1119.5","","3","1","null","null","arrowup","[0.85,0.15,0.325,0.675]","","",""
"sailing-trial","431","1909759","0.0-11.0-396.0","","","","false","","","","","","","","","","808.0999999642372","","195.60000002384186","","3","1","arrowright","1","arrowright","[0.85,0.15,0.325,0.675]","","",""
"sailing-trial","432","1913907","0.0-11.0-397.0","","","","false","","","","","","","","","","null","","1098.1000000238419","","3","0","null","null","arrowup","[0.85,0.15,0.325,0.675]","","",""
"sailing-trial","433","1917951","0.0-11.0-398.0","","","","false","","","","","","","","","","697.1999999880791","","466.60000002384186","","3","1","arrowright","1","arrowright","[0.85,0.15,0.325,0.675]","","",""
"sailing-trial","434","1921356","0.0-11.0-399.0","","","","false","","","","","","","","","","null","","1534.300000011921","","1","1","null","null","arrowup","[0.85,0.15,0.325,0.675]","","",""
"instructions","435","1924046","0.0-12.0","","","","","","","","","","2689.300000011921","","","","","","","","","","","","","","","","[{""page_index"":0,""viewing_time"":2688.5}]"
"survey-debrief","436","1957017","0.0-13.0","","","","","","","","","","32969.299999952316","","","","","","","","","","","","","","{""difficulty"":""4"",""fun"":""2"",""clarity"":""4"",""strategy"":""just memory, tried to keep with one color when possible"",""feedback"":""""}","",""
