"trial_type","trial_index","time_elapsed","internal_node_id","value","metadata","success","timeout","failed_images","failed_audio","failed_video","browser_interaction","low_quality","rt","stimulus","response","button_pressed","island_rt","island_response","boat_rt","boat_response","boat","reward","island_key","island","boat_key","reward_probabilities","responses","num_errors","view_history"
"pavlovia","0","2","0.0-0.0","","","","","","","","","","","","","","","","","","","","","","","","","",""
"call-function","1","3","0.0-1.0","","{""task_version"":""sailing_part1_v1"",""task_condition"":""good"",""boats"":[""A"",""C"",""B"",""D""],""boats_demo"":[""H"",""G"",""F"",""E""],""islands"":[""B"",""A""],""subject_id"":""14755"",""age"":""19"",""gender"":""Male""}","","","","","","","","","","","","","","","","","","","","","","","",""
"preload","2","11970","0.0-2.0","","","true","false","[]","[]","[]","[{""event"":""fullscreenenter"",""trial"":3,""time"":14055}]","false","","","","","","","","","","","","","","","","",""
"fullscreen","3","15025","0.0-3.0","","","true","","","","","","","","","","","","","","","","","","","","","","",""
"audio-keyboard-response","4","17468","0.0-4.0-0.0","","","","","","","","","","1869.3333333333333","audio/beep_loop.wav"," ","","","","","","","","","","","","","",""
"audio-test","5","19054","0.0-4.0-1.0","","","","","","","","","","null","audio/turtle.mp3","","3","","","","","","","","","","","","",""
"audio-test","6","21048","0.0-4.0-2.0","","","","","","","","","","null","audio/shark.mp3","","2","","","","","","","","","","","","",""
"sailing-instructions","7","51214","0.0-5.0-0.0-0.0","","","","","","","","","","","","","","null","null","null","null","null","null","","","","","","",""
"sailing-trial","8","54205","0.0-5.0-0.0-1.0-0.0","","","","false","","","","","","","","","","1858.8999999761581","","null","","null","null","arrowleft","0","null","null","","",""
"sailing-trial","9","56318","0.0-5.0-0.0-1.0-1.0","","","","false","","","","","","","","","","980.7999999523163","","null","","null","null","arrowright","1","null","null","","",""
"sailing-trial","10","59312","0.0-5.0-0.0-1.0-2.0","","","","false","","","","","","","","","","1863.1000000238419","","null","","null","null","arrowleft","0","null","null","","",""
"sailing-instructions","11","102682","0.0-5.0-0.0-2.0","","","","","","","","","","","","","","null","null","null","null","0","null","","","","","","",""
"sailing-trial","12","108204","0.0-5.0-0.0-3.0-0.0","","","","false","","","","","","","","","","null","","2519","","2","1","null","null","arrowleft","[1,1,1,1]","","",""
"sailing-trial","13","112020","0.0-5.0-0.0-3.0-1.0","","","","false","","","","","","","","","","null","","521.7000000476837","","3","1","null","null","arrowright","[1,1,1,1]","","",""
"sailing-trial","14","115545","0.0-5.0-0.0-3.0-2.0","","","","false","","","","","","","","","","null","","950.2999999523163","","3","0","null","null","arrowright","[0,0,0,0]","","",""
"sailing-instructions","15","122870","0.0-5.0-0.0-4.0","","","","","","","","","","","","","","null","null","null","null","null","null","","","","","","",""
"sailing-comprehension","16","143615","0.0-5.0-0.0-5.0","","","","","","","","","","17744.299999952316","","","","","","","","","","","","","","[""true"",""true"",""false"",""true""]","0",""
"sailing-instructions","17","204757","0.0-6.0-0.0-0.0","","","","","","","","","","","","","","null","null","null","null","null","null","","","","","","",""
"sailing-comprehension","18","219266","0.0-6.0-0.0-1.0","","","","","","","","","","13431.600000023842","","","","","","","","","","","","","","[""true"",""false"",""true""]","0",""
"sailing-instructions","19","232596","0.0-7.0-0.0-0.0","","","","","","","","","","","","","","null","null","null","null","null","null","","","","","","",""
"sailing-trial","20","236628","0.0-7.0-0.0-1.0-0.0","","","","false","","","","","","","","","","null","","2145.7000000476837","","0","0","null","null","arrowup","[0.2,0.8,0.2,0.8]","","",""
"sailing-trial","21","240152","0.0-7.0-0.0-1.0-1.0","","","","false","","","","","","","","","","null","","1164.3999999761581","","1","1","null","null","arrowup","[0.2,0.8,0.2,0.8]","","",""
"sailing-trial","22","242562","0.0-7.0-0.0-1.0-2.0","","","","false","","","","","","","","","","null","","960.9000000953674","","2","0","null","null","arrowup","[0.2,0.8,0.2,0.8]","","",""
"sailing-trial","23","245122","0.0-7.0-0.0-1.0-3.0","","","","false","","","","","","","","","","null","","795.2000000476837","","3","1","null","null","arrowup","[0.2,0.8,0.2,0.8]","","",""
"sailing-comprehension","24","252035","0.0-7.0-0.0-2.0","","","","","","","","","","5769.400000095367","","","","","","","","","","","","","","[""false""]","0",""
"sailing-instructions","25","263984","0.0-8.0-0.0-0.0","","","","","","","","","","","","","","null","null","null","null","null","null","","","","","","",""
"sailing-comprehension","26","270306","0.0-8.0-0.0-1.0","","","","","","","","","","5205.299999952316","","","","","","","","","","","","","","[""true""]","0",""
"sailing-instructions","27","300095","0.0-9.0-0.0-0.0","","","","","","","","","","","","","","null","null","null","null","null","null","","","","","","",""
"sailing-trial","28","304279","0.0-9.0-0.0-1.0-0.0","","","","false","","","","","","","","","","634.6000000238419","","821.8999999761581","","2","0","arrowright","1","arrowleft","[0.2,0.8,0.2,0.8]","","",""
"sailing-trial","29","308341","0.0-9.0-0.0-1.0-1.0","","","","false","","","","","","","","","","552.5","","494.60000002384186","","3","1","arrowright","1","arrowright","[0.2,0.8,0.2,0.8]","","",""
"sailing-trial","30","311139","0.0-9.0-0.0-1.0-2.0","","","","false","","","","","","","","","","null","","1105.5999999046326","","0","0","null","null","arrowup","[0.2,0.8,0.2,0.8]","","",""
"sailing-trial","31","314268","0.0-9.0-0.0-1.0-3.0","","","","false","","","","","","","","","","514.6999999284744","","64.09999990463257","","0","0","arrowleft","0","arrowleft","[0.2,0.8,0.2,0.8]","","",""
"sailing-trial","32","317514","0.0-9.0-0.0-1.0-4.0","","","","false","","","","","","","","","","null","","1315.9000000953674","","3","1","null","null","arrowup","[0.2,0.8,0.2,0.8]","","",""
"sailing-trial","33","321562","0.0-9.0-0.0-1.0-5.0","","","","false","","","","","","","","","","533.1999999284744","","567.5","","1","1","arrowleft","0","arrowright","[0.2,0.8,0.2,0.8]","","",""
"sailing-instructions","34","347959","0.0-10.0","","","","","","","","","","","","","","null","null","null","null","null","null","","","","","","",""
"sailing-trial","35","353198","0.0-11.0-0.0","","","","false","","","","","","","","","","1991.1000000238419","","529.5","","3","0","arrowright","1","arrowright","[0.85,0.15,0.675,0.325]","","",""
"sailing-trial","36","356080","0.0-11.0-1.0","","","","false","","","","","","","","","","null","","950.8999999761581","","0","1","null","null","arrowup","[0.85,0.15,0.675,0.325]","","",""
"sailing-trial","37","359859","0.0-11.0-2.0","","","","false","","","","","","","","","","528.7000000476837","","341.5","","2","1","arrowright","1","arrowleft","[0.85,0.15,0.675,0.325]","","",""
"sailing-trial","38","361974","0.0-11.0-3.0","","","","false","","","","","","","","","","null","","715.7000000476837","","1","0","null","null","arrowup","[0.85,0.15,0.675,0.325]","","",""
"sailing-trial","39","365720","0.0-11.0-4.0","","","","false","","","","","","","","","","528.6000000238419","","258","","0","1","arrowleft","0","arrowleft","[0.85,0.15,0.675,0.325]","","",""
"sailing-trial","40","368251","0.0-11.0-5.0","","","","false","","","","","","","","","","null","","659.1999999284744","","2","1","null","null","arrowup","[0.85,0.15,0.675,0.325]","","",""
"sailing-trial","41","372099","0.0-11.0-6.0","","","","false","","","","","","","","","","445.6999999284744","","477.5","","0","1","arrowleft","0","arrowleft","[0.85,0.15,0.675,0.325]","","",""
"sailing-trial","42","374828","0.0-11.0-7.0","","","","false","","","","","","","","","","null","","906.3999999761581","","3","1","null","null","arrowup","[0.85,0.15,0.675,0.325]","","",""
"sailing-trial","43","378373","0.0-11.0-8.0","","","","false","","","","","","","","","","441.5","","587.6000000238419","","3","0","arrowright","1","arrowright","[0.85,0.15,0.675,0.325]","","",""
"sailing-trial","44","380983","0.0-11.0-9.0","","","","false","","","","","","","","","","null","","1120.3999999761581","","1","0","null","null","arrowup","[0.85,0.15,0.675,0.325]","","",""
"sailing-trial","45","384686","0.0-11.0-10.0","","","","false","","","","","","","","","","483.1999999284744","","295.2999999523163","","2","1","arrowright","1","arrowleft","[0.85,0.15,0.675,0.325]","","",""
"sailing-trial","46","386620","0.0-11.0-11.0","","","","false","","","","","","","","","","null","","679","","3","0","null","null","arrowup","[0.85,0.15,0.675,0.325]","","",""
"sailing-trial","47","390015","0.0-11.0-12.0","","","","false","","","","","","","","","","493.10000002384186","","34.299999952316284","","0","1","arrowleft","0","arrowleft","[0.85,0.15,0.675,0.325]","","",""
"sailing-trial","48","392397","0.0-11.0-13.0","","","","false","","","","","","","","","","null","","991.9000000953674","","2","0","null","null","arrowup","[0.85,0.15,0.675,0.325]","","",""
"sailing-trial","49","395992","0.0-11.0-14.0","","","","false","","","","","","","","","","480.5","","290.39999997615814","","2","1","arrowright","1","arrowleft","[0.85,0.15,0.675,0.325]","","",""
"sailing-trial","50","398639","0.0-11.0-15.0","","","","false","","","","","","","","","","null","","764.1999999284744","","2","1","null","null","arrowup","[0.85,0.15,0.675,0.325]","","",""
"sailing-trial","51","402252","0.0-11.0-16.0","","","","false","","","","","","","","","","482.60000002384186","","271","","0","1","arrowleft","0","arrowleft","[0.675,0.325,0.85,0.15]","","",""
"sailing-trial","52","404757","0.0-11.0-17.0","","","","false","","","","","","","","","","null","","1195.8999999761581","","3","0","null","null","arrowup","[0.675,0.325,0.85,0.15]","","",""
"sailing-trial","53","408762","0.0-11.0-18.0","","","","false","","","","","","","","","","741.2000000476837","","346.5","","2","1","arrowright","1","arrowleft","[0.675,0.325,0.85,0.15]","","",""
"sailing-trial","54","411243","0.0-11.0-19.0","","","","false","","","","","","","","","","null","","473.39999997615814","","0","1","null","null","arrowup","[0.675,0.325,0.85,0.15]","","",""
"sailing-trial","55","414607","0.0-11.0-20.0","","","","false","","","","","","","","","","364.40000009536743","","215.5","","0","1","arrowleft","0","arrowleft","[0.675,0.325,0.85,0.15]","","",""
"sailing-trial","56","416971","0.0-11.0-21.0","","","","false","","","","","","","","","","null","","619.2000000476837","","2","1","null","null","arrowup","[0.675,0.325,0.85,0.15]","","",""
"sailing-trial","57","420686","0.0-11.0-22.0","","","","false","","","","","","","","","","412.39999997615814","","327.7999999523163","","2","1","arrowright","1","arrowleft","[0.675,0.325,0.85,0.15]","","",""
"sailing-trial","58","422716","0.0-11.0-23.0","","","","false","","","","","","","","","","null","","794.3999999761581","","1","0","null","null","arrowup","[0.675,0.325,0.85,0.15]","","",""
"sailing-trial","59","427810","0.0-11.0-24.0","","","","false","","","","","","","","","","463","","1808.3999999761581","","0","1","arrowleft","0","arrowleft","[0.675,0.325,0.85,0.15]","","",""
"sailing-trial","60","430126","0.0-11.0-25.0","","","","false","","","","","","","","","","null","","977.8999999761581","","3","0","null","null","arrowup","[0.675,0.325,0.85,0.15]","","",""
"sailing-trial","61","433476","0.0-11.0-26.0","","","","false","","","","","","","","","","487.89999997615814","","333.10000002384186","","2","0","arrowright","1","arrowleft","[0.675,0.325,0.85,0.15]","","",""
"sailing-trial","62","436135","0.0-11.0-27.0","","","","false","","","","","","","","","","null","","829","","2","1","null","null","arrowup","[0.675,0.325,0.85,0.15]","","",""
"sailing-trial","63","441049","0.0-11.0-28.0","","","","false","","","","","","","","","","565.2999999523163","","1432.6000000238419","","0","1","arrowleft","0","arrowleft","[0.675,0.325,0.85,0.15]","","",""
"sailing-trial","64","442930","0.0-11.0-29.0","","","","false","","","","","","","","","","null","","512","","0","0","null","null","arrowup","[0.675,0.325,0.85,0.15]","","",""
"sailing-trial","65","446875","0.0-11.0-30.0","","","","false","","","","","","","","","","590.7000000476837","","387.5","","2","1","arrowright","1","arrowleft","[0.675,0.325,0.85,0.15]","","",""
"sailing-trial","66","450596","0.0-11.0-31.0","","","","false","","","","","","","","","","null","","2224.8000000715256","","1","0","null","null","arrowup","[0.675,0.325,0.85,0.15]","","",""
"sailing-trial","67","453788","0.0-11.0-32.0","","","","false","","","","","","","","","","697.8999999761581","","2.5","","0","0","arrowleft","0","arrowleft","[0.675,0.325,0.85,0.15]","","",""
"sailing-trial","68","455687","0.0-11.0-33.0","","","","false","","","","","","","","","","null","","586.3000000715256","","1","0","null","null","arrowup","[0.675,0.325,0.85,0.15]","","",""
"sailing-trial","69","459131","0.0-11.0-34.0","","","","false","","","","","","","","","","447.2000000476837","","257.60000002384186","","2","1","arrowright","1","arrowleft","[0.675,0.325,0.85,0.15]","","",""
"sailing-trial","70","461736","0.0-11.0-35.0","","","","false","","","","","","","","","","null","","1278.6999999284744","","3","0","null","null","arrowup","[0.675,0.325,0.85,0.15]","","",""
"sailing-trial","71","465332","0.0-11.0-36.0","","","","false","","","","","","","","","","488.60000002384186","","684.6999999284744","","0","0","arrowleft","0","arrowleft","[0.675,0.325,0.85,0.15]","","",""
"sailing-trial","72","467949","0.0-11.0-37.0","","","","false","","","","","","","","","","null","","1230.1000000238419","","1","0","null","null","arrowup","[0.675,0.325,0.85,0.15]","","",""
"sailing-trial","73","471743","0.0-11.0-38.0","","","","false","","","","","","","","","","787.6000000238419","","351.89999997615814","","3","0","arrowright","1","arrowright","[0.85,0.15,0.675,0.325]","","",""
"sailing-trial","74","474363","0.0-11.0-39.0","","","","false","","","","","","","","","","null","","778.5","","2","1","null","null","arrowup","[0.85,0.15,0.675,0.325]","","",""
"sailing-trial","75","478695","0.0-11.0-40.0","","","","false","","","","","","","","","","1412","","111.79999995231628","","1","1","arrowleft","0","arrowright","[0.85,0.15,0.675,0.325]","","",""
"sailing-trial","76","480726","0.0-11.0-41.0","","","","false","","","","","","","","","","null","","748.6999999284744","","0","0","null","null","arrowup","[0.85,0.15,0.675,0.325]","","",""
"sailing-trial","77","484936","0.0-11.0-42.0","","","","false","","","","","","","","","","925.5999999046326","","316","","2","1","arrowright","1","arrowleft","[0.85,0.15,0.675,0.325]","","",""
"sailing-trial","78","487196","0.0-11.0-43.0","","","","false","","","","","","","","","","null","","945.3999999761581","","3","0","null","null","arrowup","[0.85,0.15,0.675,0.325]","","",""
"sailing-trial","79","490470","0.0-11.0-44.0","","","","false","","","","","","","","","","495.5","","277.39999997615814","","1","0","arrowleft","0","arrowright","[0.85,0.15,0.675,0.325]","","",""
"sailing-trial","80","492998","0.0-11.0-45.0","","","","false","","","","","","","","","","null","","752.8999999761581","","2","1","null","null","arrowup","[0.85,0.15,0.675,0.325]","","",""
"sailing-trial","81","496024","0.0-11.0-46.0","","","","false","","","","","","","","","","425.39999997615814","","180.39999997615814","","1","0","arrowleft","0","arrowright","[0.85,0.15,0.675,0.325]","","",""
"sailing-trial","82","498889","0.0-11.0-47.0","","","","false","","","","","","","","","","null","","1085.1999999284744","","2","1","null","null","arrowup","[0.85,0.15,0.675,0.325]","","",""
"sailing-trial","83","503466","0.0-11.0-48.0","","","","false","","","","","","","","","","1947.6000000238419","","268","","0","0","arrowleft","0","arrowleft","[0.85,0.15,0.675,0.325]","","",""
"sailing-trial","84","505751","0.0-11.0-49.0","","","","false","","","","","","","","","","null","","1069.5","","2","0","null","null","arrowup","[0.85,0.15,0.675,0.325]","","",""
"sailing-trial","85","508933","0.0-11.0-50.0","","","","false","","","","","","","","","","471.5","","267.3000000715256","","1","0","arrowleft","0","arrowright","[0.85,0.15,0.675,0.325]","","",""
"sailing-trial","86","511341","0.0-11.0-51.0","","","","false","","","","","","","","","","null","","858.1000000238419","","2","0","null","null","arrowup","[0.85,0.15,0.675,0.325]","","",""
"sailing-trial","87","514352","0.0-11.0-52.0","","","","false","","","","","","","","","","394.5","","261.10000002384186","","3","0","arrowright","1","arrowright","[0.85,0.15,0.675,0.325]","","",""
"sailing-trial","88","516488","0.0-11.0-53.0","","","","false","","","","","","","","","","null","","794.8999999761581","","1","0","null","null","arrowup","[0.85,0.15,0.675,0.325]","","",""
"sailing-trial","89","519661","0.0-11.0-54.0","","","","false","","","","","","","","","","506.7000000476837","","263.90000009536743","","0","0","arrowleft","0","arrowleft","[0.675,0.325,0.85,0.15]","","",""
"sailing-trial","90","522268","0.0-11.0-55.0","","","","false","","","","","","","","","","null","","745","","2","1","null","null","arrowup","[0.675,0.325,0.85,0.15]","","",""
"sailing-trial","91","525797","0.0-11.0-56.0","","","","false","","","","","","","","","","432.7000000476837","","163.19999992847443","","2","1","arrowright","1","arrowleft","[0.675,0.325,0.85,0.15]","","",""
"sailing-trial","92","527664","0.0-11.0-57.0","","","","false","","","","","","","","","","null","","585.3999999761581","","1","0","null","null","arrowup","[0.675,0.325,0.85,0.15]","","",""
"sailing-trial","93","530943","0.0-11.0-58.0","","","","false","","","","","","","","","","439.3000000715256","","19.199999928474426","","2","1","arrowright","1","arrowleft","[0.675,0.325,0.85,0.15]","","",""
"sailing-trial","94","533132","0.0-11.0-59.0","","","","false","","","","","","","","","","null","","875.1000000238419","","1","0","null","null","arrowup","[0.675,0.325,0.85,0.15]","","",""
"sailing-trial","95","536703","0.0-11.0-60.0","","","","false","","","","","","","","","","432.5","","309.39999997615814","","2","1","arrowright","1","arrowleft","[0.675,0.325,0.85,0.15]","","",""
"sailing-trial","96","539368","0.0-11.0-61.0","","","","false","","","","","","","","","","null","","897.8999999761581","","0","1","null","null","arrowup","[0.675,0.325,0.85,0.15]","","",""
"sailing-trial","97","542980","0.0-11.0-62.0","","","","false","","","","","","","","","","401","","388.5","","2","1","arrowright","1","arrowleft","[0.675,0.325,0.85,0.15]","","",""
"sailing-trial","98","545213","0.0-11.0-63.0","","","","false","","","","","","","","","","null","","495.60000002384186","","2","1","null","null","arrowup","[0.675,0.325,0.85,0.15]","","",""
"sailing-trial","99","548363","0.0-11.0-64.0","","","","false","","","","","","","","","","386.6999999284744","","330.39999997615814","","0","0","arrowleft","0","arrowleft","[0.675,0.325,0.85,0.15]","","",""
"sailing-trial","100","550888","0.0-11.0-65.0","","","","false","","","","","","","","","","null","","779.7000000476837","","2","1","null","null","arrowup","[0.675,0.325,0.85,0.15]","","",""
"sailing-trial","101","554770","0.0-11.0-66.0","","","","false","","","","","","","","","","809.1000000238419","","184.39999997615814","","0","1","arrowleft","0","arrowleft","[0.675,0.325,0.85,0.15]","","",""
"sailing-trial","102","557467","0.0-11.0-67.0","","","","false","","","","","","","","","","null","","896.1999999284744","","1","1","null","null","arrowup","[0.675,0.325,0.85,0.15]","","",""
"sailing-trial","103","561014","0.0-11.0-68.0","","","","false","","","","","","","","","","642.5","","129.10000002384186","","0","1","arrowleft","0","arrowleft","[0.675,0.325,0.85,0.15]","","",""
"sailing-trial","104","564112","0.0-11.0-69.0","","","","false","","","","","","","","","","null","","1228.1000000238419","","1","1","null","null","arrowup","[0.675,0.325,0.85,0.15]","","",""
"sailing-trial","105","568109","0.0-11.0-70.0","","","","false","","","","","","","","","","793.1000000238419","","338.3000000715256","","2","1","arrowright","1","arrowleft","[0.675,0.325,0.85,0.15]","","",""
"sailing-trial","106","570047","0.0-11.0-71.0","","","","false","","","","","","","","","","null","","776.0999999046326","","2","0","null","null","arrowup","[0.675,0.325,0.85,0.15]","","",""
"sailing-trial","107","573637","0.0-11.0-72.0","","","","false","","","","","","","","","","472.2999999523163","","337.39999997615814","","0","1","arrowleft","0","arrowleft","[0.325,0.675,0.15,0.85]","","",""
"sailing-trial","108","576147","0.0-11.0-73.0","","","","false","","","","","","","","","","null","","628","","2","1","null","null","arrowup","[0.325,0.675,0.15,0.85]","","",""
"sailing-trial","109","579278","0.0-11.0-74.0","","","","false","","","","","","","","","","293.7000000476837","","290.40000009536743","","1","0","arrowleft","0","arrowright","[0.325,0.675,0.15,0.85]","","",""
"sailing-trial","110","582043","0.0-11.0-75.0","","","","false","","","","","","","","","","null","","1023.7999999523163","","3","1","null","null","arrowup","[0.325,0.675,0.15,0.85]","","",""
"sailing-trial","111","585332","0.0-11.0-76.0","","","","false","","","","","","","","","","470.39999997615814","","345.2999999523163","","2","0","arrowright","1","arrowleft","[0.325,0.675,0.15,0.85]","","",""
"sailing-trial","112","587136","0.0-11.0-77.0","","","","false","","","","","","","","","","null","","530.1000000238419","","0","0","null","null","arrowup","[0.325,0.675,0.15,0.85]","","",""
"sailing-trial","113","590714","0.0-11.0-78.0","","","","false","","","","","","","","","","750.4000000953674","","342.2999999523163","","0","0","arrowleft","0","arrowleft","[0.325,0.675,0.15,0.85]","","",""
"sailing-trial","114","592732","0.0-11.0-79.0","","","","false","","","","","","","","","","null","","589.7999999523163","","2","0","null","null","arrowup","[0.325,0.675,0.15,0.85]","","",""
"sailing-trial","115","595895","0.0-11.0-80.0","","","","false","","","","","","","","","","360.89999997615814","","44.799999952316284","","1","1","arrowleft","0","arrowright","[0.325,0.675,0.15,0.85]","","",""
"sailing-trial","116","597783","0.0-11.0-81.0","","","","false","","","","","","","","","","null","","644","","1","0","null","null","arrowup","[0.325,0.675,0.15,0.85]","","",""
"sailing-trial","117","601207","0.0-11.0-82.0","","","","false","","","","","","","","","","497.8000000715256","","190.69999992847443","","3","1","arrowright","1","arrowright","[0.325,0.675,0.15,0.85]","","",""
"sailing-trial","118","603059","0.0-11.0-83.0","","","","false","","","","","","","","","","null","","557.8000000715256","","2","0","null","null","arrowup","[0.325,0.675,0.15,0.85]","","",""
"sailing-trial","119","606421","0.0-11.0-84.0","","","","false","","","","","","","","","","355","","169.19999992847443","","3","1","arrowright","1","arrowright","[0.325,0.675,0.15,0.85]","","",""
"sailing-trial","120","608574","0.0-11.0-85.0","","","","false","","","","","","","","","","null","","892.7000000476837","","2","0","null","null","arrowup","[0.325,0.675,0.15,0.85]","","",""
"sailing-trial","121","611171","0.0-11.0-86.0","","","","false","","","","","","","","","","300.6999999284744","","36.200000047683716","","3","0","arrowright","1","arrowright","[0.325,0.675,0.15,0.85]","","",""
"sailing-trial","122","613430","0.0-11.0-87.0","","","","false","","","","","","","","","","null","","517.3999999761581","","2","1","null","null","arrowup","[0.325,0.675,0.15,0.85]","","",""
"sailing-trial","123","617009","0.0-11.0-88.0","","","","false","","","","","","","","","","413","","170.60000002384186","","1","1","arrowleft","0","arrowright","[0.325,0.675,0.15,0.85]","","",""
"sailing-trial","124","619177","0.0-11.0-89.0","","","","false","","","","","","","","","","null","","901.8999999761581","","0","0","null","null","arrowup","[0.325,0.675,0.15,0.85]","","",""
"sailing-trial","125","622388","0.0-11.0-90.0","","","","false","","","","","","","","","","466.39999997615814","","314.7999999523163","","1","0","arrowleft","0","arrowright","[0.325,0.675,0.15,0.85]","","",""
"sailing-trial","126","624649","0.0-11.0-91.0","","","","false","","","","","","","","","","null","","897.9000000953674","","2","0","null","null","arrowup","[0.325,0.675,0.15,0.85]","","",""
"sailing-trial","127","627373","0.0-11.0-92.0","","","","false","","","","","","","","","","354.7999999523163","","155","","0","0","arrowleft","0","arrowleft","[0.325,0.675,0.15,0.85]","","",""
"sailing-trial","128","629662","0.0-11.0-93.0","","","","false","","","","","","","","","","null","","522.0999999046326","","3","1","null","null","arrowup","[0.325,0.675,0.15,0.85]","","",""
"sailing-trial","129","633011","0.0-11.0-94.0","","","","false","","","","","","","","","","315.60000002384186","","210.20000004768372","","3","1","arrowright","1","arrowright","[0.15,0.85,0.325,0.675]","","",""
"sailing-trial","130","634989","0.0-11.0-95.0","","","","false","","","","","","","","","","null","","637.5","","0","0","null","null","arrowup","[0.15,0.85,0.325,0.675]","","",""
"sailing-trial","131","638238","0.0-11.0-96.0","","","","false","","","","","","","","","","374.09999990463257","","6.5","","3","1","arrowright","1","arrowright","[0.15,0.85,0.325,0.675]","","",""
"sailing-trial","132","642027","0.0-11.0-97.0","","","","false","","","","","","","","","","null","","2264.5","","3","0","null","null","arrowup","[0.15,0.85,0.325,0.675]","","",""
"sailing-trial","133","645023","0.0-11.0-98.0","","","","false","","","","","","","","","","548.1000000238419","","78.70000004768372","","0","0","arrowleft","0","arrowleft","[0.15,0.85,0.325,0.675]","","",""
"sailing-trial","134","647407","0.0-11.0-99.0","","","","false","","","","","","","","","","null","","1067","","3","0","null","null","arrowup","[0.15,0.85,0.325,0.675]","","",""
"sailing-trial","135","650943","0.0-11.0-100.0","","","","false","","","","","","","","","","303.1999999284744","","407.60000002384186","","2","1","arrowright","1","arrowleft","[0.15,0.85,0.325,0.675]","","",""
"sailing-trial","136","653139","0.0-11.0-101.0","","","","false","","","","","","","","","","null","","890.3999999761581","","0","0","null","null","arrowup","[0.15,0.85,0.325,0.675]","","",""
"sailing-trial","137","656091","0.0-11.0-102.0","","","","false","","","","","","","","","","358.5","","83.10000002384186","","2","0","arrowright","1","arrowleft","[0.15,0.85,0.325,0.675]","","",""
"sailing-trial","138","658484","0.0-11.0-103.0","","","","false","","","","","","","","","","null","","642.6999999284744","","3","1","null","null","arrowup","[0.15,0.85,0.325,0.675]","","",""
"sailing-trial","139","661999","0.0-11.0-104.0","","","","false","","","","","","","","","","317.2000000476837","","276.60000002384186","","3","1","arrowright","1","arrowright","[0.15,0.85,0.325,0.675]","","",""
"sailing-trial","140","665828","0.0-11.0-105.0","","","","false","","","","","","","","","","null","","2022","","3","1","null","null","arrowup","[0.15,0.85,0.325,0.675]","","",""
"sailing-trial","141","669643","0.0-11.0-106.0","","","","false","","","","","","","","","","1061.8000000715256","","287.10000002384186","","3","0","arrowright","1","arrowright","[0.15,0.85,0.325,0.675]","","",""
"sailing-trial","142","672201","0.0-11.0-107.0","","","","false","","","","","","","","","","null","","1165.0999999046326","","2","0","null","null","arrowup","[0.15,0.85,0.325,0.675]","","",""
"sailing-trial","143","676268","0.0-11.0-108.0","","","","false","","","","","","","","","","482.59999990463257","","625.1000000238419","","1","1","arrowleft","0","arrowright","[0.15,0.85,0.325,0.675]","","",""
"sailing-trial","144","679415","0.0-11.0-109.0","","","","false","","","","","","","","","","null","","1279.8999999761581","","3","1","null","null","arrowup","[0.15,0.85,0.325,0.675]","","",""
"sailing-trial","145","682875","0.0-11.0-110.0","","","","false","","","","","","","","","","609.6999999284744","","348.40000009536743","","1","0","arrowleft","0","arrowright","[0.85,0.15,0.675,0.325]","","",""
"sailing-trial","146","686863","0.0-11.0-111.0","","","","false","","","","","","","","","","null","","2559.399999976158","","1","0","null","null","arrowup","[0.85,0.15,0.675,0.325]","","",""
"sailing-trial","147","689827","0.0-11.0-112.0","","","","false","","","","","","","","","","448.59999990463257","","46.5","","0","0","arrowleft","0","arrowleft","[0.85,0.15,0.675,0.325]","","",""
"sailing-trial","148","692186","0.0-11.0-113.0","","","","false","","","","","","","","","","null","","573.6000000238419","","0","1","null","null","arrowup","[0.85,0.15,0.675,0.325]","","",""
"sailing-trial","149","695799","0.0-11.0-114.0","","","","false","","","","","","","","","","545.0999999046326","","200.29999995231628","","2","1","arrowright","1","arrowleft","[0.85,0.15,0.675,0.325]","","",""
"sailing-trial","150","697837","0.0-11.0-115.0","","","","false","","","","","","","","","","null","","709","","3","0","null","null","arrowup","[0.85,0.15,0.675,0.325]","","",""
"sailing-trial","151","702144","0.0-11.0-116.0","","","","false","","","","","","","","","","956.7000000476837","","416.2000000476837","","0","1","arrowleft","0","arrowleft","[0.85,0.15,0.675,0.325]","","",""
"sailing-trial","152","704676","0.0-11.0-117.0","","","","false","","","","","","","","","","null","","1209.8999999761581","","3","0","null","null","arrowup","[0.85,0.15,0.675,0.325]","","",""
"sailing-trial","153","708154","0.0-11.0-118.0","","","","false","","","","","","","","","","392.2000000476837","","257.40000009536743","","0","1","arrowleft","0","arrowleft","[0.85,0.15,0.675,0.325]","","",""
"sailing-trial","154","710582","0.0-11.0-119.0","","","","false","","","","","","","","","","null","","1108.3999999761581","","3","0","null","null","arrowup","[0.85,0.15,0.675,0.325]","","",""
"sailing-trial","155","713916","0.0-11.0-120.0","","","","false","","","","","","","","","","476.5","","41.39999997615814","","0","1","arrowleft","0","arrowleft","[0.85,0.15,0.675,0.325]","","",""
"sailing-trial","156","716596","0.0-11.0-121.0","","","","false","","","","","","","","","","null","","1328","","0","0","null","null","arrowup","[0.85,0.15,0.675,0.325]","","",""
"sailing-trial","157","721607","0.0-11.0-122.0","","","","false","","","","","","","","","","1832.7000000476837","","351.5","","2","1","arrowright","1","arrowleft","[0.85,0.15,0.675,0.325]","","",""
"sailing-trial","158","724537","0.0-11.0-123.0","","","","false","","","","","","","","","","null","","1090.6000000238419","","0","1","null","null","arrowup","[0.85,0.15,0.675,0.325]","","",""
"sailing-trial","159","728485","0.0-11.0-124.0","","","","false","","","","","","","","","","995.1000000238419","","108.09999990463257","","2","1","arrowright","1","arrowleft","[0.85,0.15,0.675,0.325]","","",""
"sailing-trial","160","731476","0.0-11.0-125.0","","","","false","","","","","","","","","","null","","1668","","1","0","null","null","arrowup","[0.85,0.15,0.675,0.325]","","",""
"sailing-trial","161","735627","0.0-11.0-126.0","","","","false","","","","","","","","","","1018.3999999761581","","327.60000002384186","","2","1","arrowright","1","arrowleft","[0.85,0.15,0.675,0.325]","","",""
"sailing-trial","162","737919","0.0-11.0-127.0","","","","false","","","","","","","","","","null","","924.2999999523163","","3","0","null","null","arrowup","[0.85,0.15,0.675,0.325]","","",""
"sailing-trial","163","741440","0.0-11.0-128.0","","","","false","","","","","","","","","","382.39999997615814","","585.5","","2","0","arrowright","1","arrowleft","[0.325,0.675,0.15,0.85]","","",""
"sailing-trial","164","746119","0.0-11.0-129.0","","","","false","","","","","","","","","","null","","1583.6999999284744","","1","1","null","null","arrowup","[0.325,0.675,0.15,0.85]","","",""
"sailing-trial","165","749791","0.0-11.0-130.0","","","","false","","","","","","","","","","640.0999999046326","","367.39999997615814","","2","0","arrowright","1","arrowleft","[0.325,0.675,0.15,0.85]","","",""
"sailing-trial","166","752277","0.0-11.0-131.0","","","","false","","","","","","","","","","null","","1122.1000000238419","","2","0","null","null","arrowup","[0.325,0.675,0.15,0.85]","","",""
"sailing-trial","167","755959","0.0-11.0-132.0","","","","false","","","","","","","","","","307.7999999523163","","367","","3","1","arrowright","1","arrowright","[0.325,0.675,0.15,0.85]","","",""
"sailing-trial","168","757826","0.0-11.0-133.0","","","","false","","","","","","","","","","null","","501.59999990463257","","3","0","null","null","arrowup","[0.325,0.675,0.15,0.85]","","",""
"sailing-trial","169","761219","0.0-11.0-134.0","","","","false","","","","","","","","","","394.10000002384186","","160.39999997615814","","3","1","arrowright","1","arrowright","[0.325,0.675,0.15,0.85]","","",""
"sailing-trial","170","764149","0.0-11.0-135.0","","","","false","","","","","","","","","","null","","1073","","0","1","null","null","arrowup","[0.325,0.675,0.15,0.85]","","",""
"sailing-trial","171","767962","0.0-11.0-136.0","","","","false","","","","","","","","","","863.3999999761581","","11.800000071525574","","0","1","arrowleft","0","arrowleft","[0.325,0.675,0.15,0.85]","","",""
"sailing-trial","172","771310","0.0-11.0-137.0","","","","false","","","","","","","","","","null","","1471.2999999523163","","3","1","null","null","arrowup","[0.325,0.675,0.15,0.85]","","",""
"sailing-trial","173","775589","0.0-11.0-138.0","","","","false","","","","","","","","","","897","","444.90000009536743","","0","1","arrowleft","0","arrowleft","[0.325,0.675,0.15,0.85]","","",""
"sailing-trial","174","778252","0.0-11.0-139.0","","","","false","","","","","","","","","","null","","849.5999999046326","","3","1","null","null","arrowup","[0.325,0.675,0.15,0.85]","","",""
"sailing-trial","175","781898","0.0-11.0-140.0","","","","false","","","","","","","","","","392.7000000476837","","361.5","","3","1","arrowright","1","arrowright","[0.325,0.675,0.15,0.85]","","",""
"sailing-trial","176","784845","0.0-11.0-141.0","","","","false","","","","","","","","","","null","","1062.3000000715256","","0","1","null","null","arrowup","[0.325,0.675,0.15,0.85]","","",""
"sailing-trial","177","788442","0.0-11.0-142.0","","","","false","","","","","","","","","","518.6000000238419","","254.5","","3","1","arrowright","1","arrowright","[0.325,0.675,0.15,0.85]","","",""
"sailing-trial","178","791473","0.0-11.0-143.0","","","","false","","","","","","","","","","null","","1169.3999999761581","","3","1","null","null","arrowup","[0.325,0.675,0.15,0.85]","","",""
"sailing-trial","179","795451","0.0-11.0-144.0","","","","false","","","","","","","","","","820.5999999046326","","314.59999990463257","","0","1","arrowleft","0","arrowleft","[0.675,0.325,0.85,0.15]","","",""
"sailing-trial","180","797780","0.0-11.0-145.0","","","","false","","","","","","","","","","null","","896.6000000238419","","1","0","null","null","arrowup","[0.675,0.325,0.85,0.15]","","",""
"sailing-trial","181","800866","0.0-11.0-146.0","","","","false","","","","","","","","","","570","","234.60000002384186","","0","0","arrowleft","0","arrowleft","[0.675,0.325,0.85,0.15]","","",""
"sailing-trial","182","803611","0.0-11.0-147.0","","","","false","","","","","","","","","","null","","816.8000000715256","","2","1","null","null","arrowup","[0.675,0.325,0.85,0.15]","","",""
"sailing-trial","183","806232","0.0-11.0-148.0","","","","false","","","","","","","","","","95.60000002384186","","207.39999997615814","","3","0","arrowright","1","arrowright","[0.675,0.325,0.85,0.15]","","",""
"sailing-trial","184","808439","0.0-11.0-149.0","","","","false","","","","","","","","","","null","","579","","0","1","null","null","arrowup","[0.675,0.325,0.85,0.15]","","",""
"sailing-trial","185","812336","0.0-11.0-150.0","","","","false","","","","","","","","","","795.1000000238419","","206","","2","1","arrowright","1","arrowleft","[0.675,0.325,0.85,0.15]","","",""
"sailing-trial","186","814210","0.0-11.0-151.0","","","","false","","","","","","","","","","null","","553.7999999523163","","1","0","null","null","arrowup","[0.675,0.325,0.85,0.15]","","",""
"sailing-trial","187","817748","0.0-11.0-152.0","","","","false","","","","","","","","","","420.2999999523163","","261.90000009536743","","0","1","arrowleft","0","arrowleft","[0.675,0.325,0.85,0.15]","","",""
"sailing-trial","188","820976","0.0-11.0-153.0","","","","false","","","","","","","","","","null","","1409.2999999523163","","2","1","null","null","arrowup","[0.675,0.325,0.85,0.15]","","",""
"sailing-trial","189","824674","0.0-11.0-154.0","","","","false","","","","","","","","","","1204.7000000476837","","33.60000002384186","","2","0","arrowright","1","arrowleft","[0.675,0.325,0.85,0.15]","","",""
"sailing-trial","190","827265","0.0-11.0-155.0","","","","false","","","","","","","","","","null","","1293.1000000238419","","1","0","null","null","arrowup","[0.675,0.325,0.85,0.15]","","",""
"sailing-trial","191","830702","0.0-11.0-156.0","","","","false","","","","","","","","","","340.6999999284744","","237","","0","1","arrowleft","0","arrowleft","[0.675,0.325,0.85,0.15]","","",""
"sailing-trial","192","832958","0.0-11.0-157.0","","","","false","","","","","","","","","","null","","876.3999999761581","","1","0","null","null","arrowup","[0.675,0.325,0.85,0.15]","","",""
"sailing-trial","193","836763","0.0-11.0-158.0","","","","false","","","","","","","","","","625.5999999046326","","654","","0","0","arrowleft","0","arrowleft","[0.675,0.325,0.85,0.15]","","",""
"sailing-trial","194","839416","0.0-11.0-159.0","","","","false","","","","","","","","","","null","","1311.5","","3","0","null","null","arrowup","[0.675,0.325,0.85,0.15]","","",""
"sailing-trial","195","842680","0.0-11.0-160.0","","","","false","","","","","","","","","","417","","315.39999997615814","","2","0","arrowright","1","arrowleft","[0.85,0.15,0.675,0.325]","","",""
"sailing-trial","196","844848","0.0-11.0-161.0","","","","false","","","","","","","","","","null","","655.1000000238419","","1","0","null","null","arrowup","[0.85,0.15,0.675,0.325]","","",""
"sailing-trial","197","849300","0.0-11.0-162.0","","","","false","","","","","","","","","","1521.6999999284744","","45.300000071525574","","2","1","arrowright","1","arrowleft","[0.85,0.15,0.675,0.325]","","",""
"sailing-trial","198","851879","0.0-11.0-163.0","","","","false","","","","","","","","","","null","","800.6999999284744","","0","1","null","null","arrowup","[0.85,0.15,0.675,0.325]","","",""
"sailing-trial","199","855344","0.0-11.0-164.0","","","","false","","","","","","","","","","529.3999999761581","","96.70000004768372","","0","1","arrowleft","0","arrowleft","[0.85,0.15,0.675,0.325]","","",""
"sailing-trial","200","858206","0.0-11.0-165.0","","","","false","","","","","","","","","","null","","1027.7000000476837","","0","1","null","null","arrowup","[0.85,0.15,0.675,0.325]","","",""
"sailing-trial","201","861720","0.0-11.0-166.0","","","","false","","","","","","","","","","316.7000000476837","","327.39999997615814","","0","1","arrowleft","0","arrowleft","[0.85,0.15,0.675,0.325]","","",""
"sailing-trial","202","865051","0.0-11.0-167.0","","","","false","","","","","","","","","","null","","1543.1999999284744","","2","1","null","null","arrowup","[0.85,0.15,0.675,0.325]","","",""
"sailing-trial","203","868646","0.0-11.0-168.0","","","","false","","","","","","","","","","423.7999999523163","","25.600000023841858","","3","1","arrowright","1","arrowright","[0.85,0.15,0.675,0.325]","","",""
"sailing-trial","204","872448","0.0-11.0-169.0","","","","false","","","","","","","","","","null","","2325.6999999284744","","1","0","null","null","arrowup","[0.85,0.15,0.675,0.325]","","",""
"sailing-trial","205","876090","0.0-11.0-170.0","","","","false","","","","","","","","","","695.4000000953674","","120.5","","0","1","arrowleft","0","arrowleft","[0.85,0.15,0.675,0.325]","","",""
"sailing-trial","206","878356","0.0-11.0-171.0","","","","false","","","","","","","","","","null","","1022.8999999761581","","1","0","null","null","arrowup","[0.85,0.15,0.675,0.325]","","",""
"sailing-trial","207","882066","0.0-11.0-172.0","","","","false","","","","","","","","","","482.2000000476837","","294","","2","1","arrowright","1","arrowleft","[0.85,0.15,0.675,0.325]","","",""
"sailing-trial","208","885232","0.0-11.0-173.0","","","","false","","","","","","","","","","null","","1336.2000000476837","","2","1","null","null","arrowup","[0.85,0.15,0.675,0.325]","","",""
"sailing-trial","209","889410","0.0-11.0-174.0","","","","false","","","","","","","","","","759.5","","366.7999999523163","","0","1","arrowleft","0","arrowleft","[0.85,0.15,0.675,0.325]","","",""
"sailing-trial","210","891823","0.0-11.0-175.0","","","","false","","","","","","","","","","null","","939.5","","1","0","null","null","arrowup","[0.85,0.15,0.675,0.325]","","",""
"sailing-trial","211","895554","0.0-11.0-176.0","","","","false","","","","","","","","","","766.6999999284744","","78.19999992847443","","2","1","arrowright","1","arrowleft","[0.675,0.325,0.85,0.15]","","",""
"sailing-trial","212","898246","0.0-11.0-177.0","","","","false","","","","","","","","","","null","","1376.3000000715256","","3","0","null","null","arrowup","[0.675,0.325,0.85,0.15]","","",""
"sailing-trial","213","901933","0.0-11.0-178.0","","","","false","","","","","","","","","","441.89999997615814","","288.3000000715256","","2","1","arrowright","1","arrowleft","[0.675,0.325,0.85,0.15]","","",""
"sailing-trial","214","904336","0.0-11.0-179.0","","","","false","","","","","","","","","","null","","863","","0","0","null","null","arrowup","[0.675,0.325,0.85,0.15]","","",""
"sailing-trial","215","909808","0.0-11.0-180.0","","","","false","","","","","","","","","","698.7999999523163","","972","","0","1","arrowleft","0","arrowleft","[0.675,0.325,0.85,0.15]","","",""
"sailing-trial","216","915037","0.0-11.0-181.0","","","","false","","","","","","","","","","null","","3131.8000000715256","","1","1","null","null","arrowup","[0.675,0.325,0.85,0.15]","","",""
"sailing-trial","217","919962","0.0-11.0-182.0","","","","false","","","","","","","","","","1703.2000000476837","","298.89999997615814","","0","1","arrowleft","0","arrowleft","[0.675,0.325,0.85,0.15]","","",""
"sailing-trial","218","922523","0.0-11.0-183.0","","","","false","","","","","","","","","","null","","1022.6999999284744","","1","0","null","null","arrowup","[0.675,0.325,0.85,0.15]","","",""
"sailing-trial","219","926156","0.0-11.0-184.0","","","","false","","","","","","","","","","490.5","","171.40000009536743","","2","1","arrowright","1","arrowleft","[0.675,0.325,0.85,0.15]","","",""
"sailing-trial","220","928691","0.0-11.0-185.0","","","","false","","","","","","","","","","null","","994.8000000715256","","3","0","null","null","arrowup","[0.675,0.325,0.85,0.15]","","",""
"sailing-trial","221","932534","0.0-11.0-186.0","","","","false","","","","","","","","","","828.5999999046326","","129.89999997615814","","0","1","arrowleft","0","arrowleft","[0.675,0.325,0.85,0.15]","","",""
"sailing-trial","222","935216","0.0-11.0-187.0","","","","false","","","","","","","","","","null","","881.7000000476837","","0","1","null","null","arrowup","[0.675,0.325,0.85,0.15]","","",""
"sailing-trial","223","938573","0.0-11.0-188.0","","","","false","","","","","","","","","","670.8000000715256","","103.20000004768372","","0","0","arrowleft","0","arrowleft","[0.675,0.325,0.85,0.15]","","",""
"sailing-trial","224","941310","0.0-11.0-189.0","","","","false","","","","","","","","","","null","","814.3999999761581","","2","1","null","null","arrowup","[0.675,0.325,0.85,0.15]","","",""
"sailing-trial","225","945092","0.0-11.0-190.0","","","","false","","","","","","","","","","578.9000000953674","","257.89999997615814","","0","1","arrowleft","0","arrowleft","[0.675,0.325,0.85,0.15]","","",""
"sailing-trial","226","947830","0.0-11.0-191.0","","","","false","","","","","","","","","","null","","1215.6999999284744","","1","0","null","null","arrowup","[0.675,0.325,0.85,0.15]","","",""
"sailing-trial","227","951566","0.0-11.0-192.0","","","","false","","","","","","","","","","497.10000002384186","","288","","2","1","arrowright","1","arrowleft","[0.85,0.15,0.675,0.325]","","",""
"sailing-trial","228","953764","0.0-11.0-193.0","","","","false","","","","","","","","","","null","","888.9000000953674","","1","0","null","null","arrowup","[0.85,0.15,0.675,0.325]","","",""
"sailing-trial","229","957075","0.0-11.0-194.0","","","","false","","","","","","","","","","391.39999997615814","","14.700000047683716","","2","1","arrowright","1","arrowleft","[0.85,0.15,0.675,0.325]","","",""
"sailing-trial","230","959990","0.0-11.0-195.0","","","","false","","","","","","","","","","null","","963.8999999761581","","2","1","null","null","arrowup","[0.85,0.15,0.675,0.325]","","",""
"sailing-trial","231","963405","0.0-11.0-196.0","","","","false","","","","","","","","","","392.5","","79.20000004768372","","2","1","arrowright","1","arrowleft","[0.85,0.15,0.675,0.325]","","",""
"sailing-trial","232","966018","0.0-11.0-197.0","","","","false","","","","","","","","","","null","","819.5","","2","1","null","null","arrowup","[0.85,0.15,0.675,0.325]","","",""
"sailing-trial","233","969499","0.0-11.0-198.0","","","","false","","","","","","","","","","394.89999997615814","","237.89999997615814","","0","1","arrowleft","0","arrowleft","[0.85,0.15,0.675,0.325]","","",""
"sailing-trial","234","972164","0.0-11.0-199.0","","","","false","","","","","","","","","","null","","763.7999999523163","","0","1","null","null","arrowup","[0.85,0.15,0.675,0.325]","","",""
"sailing-trial","235","975425","0.0-11.0-200.0","","","","false","","","","","","","","","","385.10000002384186","","0.8000000715255737","","2","1","arrowright","1","arrowleft","[0.85,0.15,0.675,0.325]","","",""
"sailing-trial","236","978158","0.0-11.0-201.0","","","","false","","","","","","","","","","null","","785.3999999761581","","1","1","null","null","arrowup","[0.85,0.15,0.675,0.325]","","",""
"sailing-trial","237","982020","0.0-11.0-202.0","","","","false","","","","","","","","","","755.1000000238419","","244.39999997615814","","0","1","arrowleft","0","arrowleft","[0.85,0.15,0.675,0.325]","","",""
"sailing-trial","238","984728","0.0-11.0-203.0","","","","false","","","","","","","","","","null","","1104.6999999284744","","1","0","null","null","arrowup","[0.85,0.15,0.675,0.325]","","",""
"sailing-trial","239","987668","0.0-11.0-204.0","","","","false","","","","","","","","","","592.2999999523163","","85.80000007152557","","2","0","arrowright","1","arrowleft","[0.85,0.15,0.675,0.325]","","",""
"sailing-trial","240","990546","0.0-11.0-205.0","","","","false","","","","","","","","","","null","","1574","","1","0","null","null","arrowup","[0.85,0.15,0.675,0.325]","","",""
"sailing-trial","241","994091","0.0-11.0-206.0","","","","false","","","","","","","","","","528.6000000238419","","124.10000002384186","","0","1","arrowleft","0","arrowleft","[0.85,0.15,0.675,0.325]","","",""
"sailing-trial","242","996572","0.0-11.0-207.0","","","","false","","","","","","","","","","null","","533.2000000476837","","3","1","null","null","arrowup","[0.85,0.15,0.675,0.325]","","",""
"sailing-trial","243","1000203","0.0-11.0-208.0","","","","false","","","","","","","","","","494.89999997615814","","298.89999997615814","","2","1","arrowright","1","arrowleft","[0.85,0.15,0.675,0.325]","","",""
"sailing-trial","244","1002584","0.0-11.0-209.0","","","","false","","","","","","","","","","null","","611.2000000476837","","3","1","null","null","arrowup","[0.85,0.15,0.675,0.325]","","",""
"sailing-trial","245","1006196","0.0-11.0-210.0","","","","false","","","","","","","","","","339.6999999284744","","311.2000000476837","","0","1","arrowleft","0","arrowleft","[0.85,0.15,0.675,0.325]","","",""
"sailing-trial","246","1008350","0.0-11.0-211.0","","","","false","","","","","","","","","","null","","618","","3","0","null","null","arrowup","[0.85,0.15,0.675,0.325]","","",""
"sailing-trial","247","1012389","0.0-11.0-212.0","","","","false","","","","","","","","","","713.1999999284744","","563.6000000238419","","0","1","arrowleft","0","arrowleft","[0.85,0.15,0.675,0.325]","","",""
"sailing-trial","248","1015121","0.0-11.0-213.0","","","","false","","","","","","","","","","null","","881.2999999523163","","3","1","null","null","arrowup","[0.85,0.15,0.675,0.325]","","",""
"sailing-trial","249","1018681","0.0-11.0-214.0","","","","false","","","","","","","","","","912.3999999761581","","154.20000004768372","","2","0","arrowright","1","arrowleft","[0.85,0.15,0.675,0.325]","","",""
"sailing-trial","250","1021465","0.0-11.0-215.0","","","","false","","","","","","","","","","null","","856.3999999761581","","2","1","null","null","arrowup","[0.85,0.15,0.675,0.325]","","",""
"sailing-trial","251","1024895","0.0-11.0-216.0","","","","false","","","","","","","","","","437.5","","158.10000002384186","","0","1","arrowleft","0","arrowleft","[0.675,0.325,0.85,0.15]","","",""
"sailing-trial","252","1027453","0.0-11.0-217.0","","","","false","","","","","","","","","","null","","1011.8999999761581","","3","0","null","null","arrowup","[0.675,0.325,0.85,0.15]","","",""
"sailing-trial","253","1031121","0.0-11.0-218.0","","","","false","","","","","","","","","","447.7000000476837","","374.2999999523163","","0","1","arrowleft","0","arrowleft","[0.675,0.325,0.85,0.15]","","",""
"sailing-trial","254","1033100","0.0-11.0-219.0","","","","false","","","","","","","","","","null","","668.3000000715256","","1","0","null","null","arrowup","[0.675,0.325,0.85,0.15]","","",""
"sailing-trial","255","1036733","0.0-11.0-220.0","","","","false","","","","","","","","","","399","","252.30000007152557","","2","1","arrowright","1","arrowleft","[0.675,0.325,0.85,0.15]","","",""
"sailing-trial","256","1038987","0.0-11.0-221.0","","","","false","","","","","","","","","","null","","720.5","","1","0","null","null","arrowup","[0.675,0.325,0.85,0.15]","","",""
"sailing-trial","257","1043609","0.0-11.0-222.0","","","","false","","","","","","","","","","565.5","","600.3000000715256","","0","1","arrowleft","0","arrowleft","[0.675,0.325,0.85,0.15]","","",""
"sailing-trial","258","1046308","0.0-11.0-223.0","","","","false","","","","","","","","","","null","","892.8999999761581","","0","1","null","null","arrowup","[0.675,0.325,0.85,0.15]","","",""
"sailing-trial","259","1050469","0.0-11.0-224.0","","","","false","","","","","","","","","","367.5","","381.89999997615814","","2","1","arrowright","1","arrowleft","[0.675,0.325,0.85,0.15]","","",""
"sailing-trial","260","1053434","0.0-11.0-225.0","","","","false","","","","","","","","","","null","","1226.5","","2","1","null","null","arrowup","[0.675,0.325,0.85,0.15]","","",""
"sailing-trial","261","1058545","0.0-11.0-226.0","","","","false","","","","","","","","","","1003.8000000715256","","1269.8999999761581","","0","1","arrowleft","0","arrowleft","[0.675,0.325,0.85,0.15]","","",""
"sailing-trial","262","1061394","0.0-11.0-227.0","","","","false","","","","","","","","","","null","","1524.2000000476837","","3","0","null","null","arrowup","[0.675,0.325,0.85,0.15]","","",""
"sailing-trial","263","1065481","0.0-11.0-228.0","","","","false","","","","","","","","","","654.9000000953674","","809.7999999523163","","0","0","arrowleft","0","arrowleft","[0.675,0.325,0.85,0.15]","","",""
"sailing-trial","264","1068884","0.0-11.0-229.0","","","","false","","","","","","","","","","null","","1600.5","","0","1","null","null","arrowup","[0.675,0.325,0.85,0.15]","","",""
"sailing-trial","265","1072315","0.0-11.0-230.0","","","","false","","","","","","","","","","491.2000000476837","","92.5","","2","1","arrowright","1","arrowleft","[0.675,0.325,0.85,0.15]","","",""
"sailing-trial","266","1075417","0.0-11.0-231.0","","","","false","","","","","","","","","","null","","1257.2999999523163","","3","0","null","null","arrowup","[0.675,0.325,0.85,0.15]","","",""
"sailing-trial","267","1080226","0.0-11.0-232.0","","","","false","","","","","","","","","","1556","","193.59999990463257","","0","1","arrowleft","0","arrowleft","[0.85,0.15,0.675,0.325]","","",""
"sailing-trial","268","1083406","0.0-11.0-233.0","","","","false","","","","","","","","","","null","","891.2000000476837","","2","1","null","null","arrowup","[0.85,0.15,0.675,0.325]","","",""
"sailing-trial","269","1088849","0.0-11.0-234.0","","","","false","","","","","","","","","","633.0999999046326","","1844.8000000715256","","2","1","arrowright","1","arrowleft","[0.85,0.15,0.675,0.325]","","",""
"sailing-trial","270","1091830","0.0-11.0-235.0","","","","false","","","","","","","","","","null","","1104.4000000953674","","0","1","null","null","arrowup","[0.85,0.15,0.675,0.325]","","",""
"sailing-trial","271","1095377","0.0-11.0-236.0","","","","false","","","","","","","","","","469.10000002384186","","60.39999997615814","","0","1","arrowleft","0","arrowleft","[0.85,0.15,0.675,0.325]","","",""
"sailing-trial","272","1098126","0.0-11.0-237.0","","","","false","","","","","","","","","","null","","1117.1000000238419","","0","0","null","null","arrowup","[0.85,0.15,0.675,0.325]","","",""
"sailing-trial","273","1101919","0.0-11.0-238.0","","","","false","","","","","","","","","","656.8999999761581","","215.20000004768372","","2","1","arrowright","1","arrowleft","[0.85,0.15,0.675,0.325]","","",""
"sailing-trial","274","1104714","0.0-11.0-239.0","","","","false","","","","","","","","","","null","","1150.2999999523163","","0","0","null","null","arrowup","[0.85,0.15,0.675,0.325]","","",""
"sailing-trial","275","1107915","0.0-11.0-240.0","","","","false","","","","","","","","","","416.3000000715256","","116.5","","0","0","arrowleft","0","arrowleft","[0.85,0.15,0.675,0.325]","","",""
"sailing-trial","276","1110966","0.0-11.0-241.0","","","","false","","","","","","","","","","null","","1373","","3","0","null","null","arrowup","[0.85,0.15,0.675,0.325]","","",""
"sailing-trial","277","1114833","0.0-11.0-242.0","","","","false","","","","","","","","","","567.5","","731.5","","0","0","arrowleft","0","arrowleft","[0.85,0.15,0.675,0.325]","","",""
"sailing-trial","278","1118602","0.0-11.0-243.0","","","","false","","","","","","","","","","null","","1840.7000000476837","","0","1","null","null","arrowup","[0.85,0.15,0.675,0.325]","","",""
"sailing-trial","279","1121934","0.0-11.0-244.0","","","","false","","","","","","","","","","413","","26.699999928474426","","2","1","arrowright","1","arrowleft","[0.85,0.15,0.675,0.325]","","",""
"sailing-trial","280","1125912","0.0-11.0-245.0","","","","false","","","","","","","","","","null","","2159.6999999284744","","0","1","null","null","arrowup","[0.85,0.15,0.675,0.325]","","",""
"sailing-trial","281","1129461","0.0-11.0-246.0","","","","false","","","","","","","","","","313","","398.5","","0","1","arrowleft","0","arrowleft","[0.85,0.15,0.675,0.325]","","",""
"sailing-trial","282","1131716","0.0-11.0-247.0","","","","false","","","","","","","","","","null","","873","","3","0","null","null","arrowup","[0.85,0.15,0.675,0.325]","","",""
"sailing-trial","283","1134912","0.0-11.0-248.0","","","","false","","","","","","","","","","636.1000000238419","","77.89999997615814","","2","0","arrowright","1","arrowleft","[0.85,0.15,0.675,0.325]","","",""
"sailing-trial","284","1137435","0.0-11.0-249.0","","","","false","","","","","","","","","","null","","766.5","","1","1","null","null","arrowup","[0.85,0.15,0.675,0.325]","","",""
"sailing-trial","285","1141216","0.0-11.0-250.0","","","","false","","","","","","","","","","417.60000002384186","","513.2999999523163","","2","1","arrowright","1","arrowleft","[0.85,0.15,0.675,0.325]","","",""
"sailing-trial","286","1145210","0.0-11.0-251.0","","","","false","","","","","","","","","","null","","2060.0999999046326","","3","1","null","null","arrowup","[0.85,0.15,0.675,0.325]","","",""
"sailing-trial","287","1149840","0.0-11.0-252.0","","","","false","","","","","","","","","","661","","996.7000000476837","","0","1","arrowleft","0","arrowleft","[0.675,0.325,0.85,0.15]","","",""
"sailing-trial","288","1152291","0.0-11.0-253.0","","","","false","","","","","","","","","","null","","993.3000000715256","","3","0","null","null","arrowup","[0.675,0.325,0.85,0.15]","","",""
"sailing-trial","289","1156649","0.0-11.0-254.0","","","","false","","","","","","","","","","632.3999999761581","","909.5","","0","1","arrowleft","0","arrowleft","[0.675,0.325,0.85,0.15]","","",""
"sailing-trial","290","1158487","0.0-11.0-255.0","","","","false","","","","","","","","","","null","","581","","0","0","null","null","arrowup","[0.675,0.325,0.85,0.15]","","",""
"sailing-trial","291","1162079","0.0-11.0-256.0","","","","false","","","","","","","","","","388.2000000476837","","187","","2","1","arrowright","1","arrowleft","[0.675,0.325,0.85,0.15]","","",""
"sailing-trial","292","1164757","0.0-11.0-257.0","","","","false","","","","","","","","","","null","","546.7999999523163","","3","1","null","null","arrowup","[0.675,0.325,0.85,0.15]","","",""
"sailing-trial","293","1168454","0.0-11.0-258.0","","","","false","","","","","","","","","","392","","474.3000000715256","","0","1","arrowleft","0","arrowleft","[0.675,0.325,0.85,0.15]","","",""
"sailing-trial","294","1171120","0.0-11.0-259.0","","","","false","","","","","","","","","","null","","726.8000000715256","","0","1","null","null","arrowup","[0.675,0.325,0.85,0.15]","","",""
"sailing-trial","295","1175363","0.0-11.0-260.0","","","","false","","","","","","","","","","458.7000000476837","","967.7999999523163","","2","1","arrowright","1","arrowleft","[0.675,0.325,0.85,0.15]","","",""
"sailing-trial","296","1178030","0.0-11.0-261.0","","","","false","","","","","","","","","","null","","1131.8000000715256","","1","0","null","null","arrowup","[0.675,0.325,0.85,0.15]","","",""
"sailing-trial","297","1181675","0.0-11.0-262.0","","","","false","","","","","","","","","","550","","332.5","","0","1","arrowleft","0","arrowleft","[0.675,0.325,0.85,0.15]","","",""
"sailing-trial","298","1183937","0.0-11.0-263.0","","","","false","","","","","","","","","","null","","989.6999999284744","","1","0","null","null","arrowup","[0.675,0.325,0.85,0.15]","","",""
"sailing-trial","299","1187319","0.0-11.0-264.0","","","","false","","","","","","","","","","476.2000000476837","","77.60000002384186","","2","1","arrowright","1","arrowleft","[0.675,0.325,0.85,0.15]","","",""
"sailing-trial","300","1189484","0.0-11.0-265.0","","","","false","","","","","","","","","","null","","401.10000002384186","","2","1","null","null","arrowup","[0.675,0.325,0.85,0.15]","","",""
"sailing-trial","301","1192780","0.0-11.0-266.0","","","","false","","","","","","","","","","245.39999997615814","","273.90000009536743","","0","1","arrowleft","0","arrowleft","[0.675,0.325,0.85,0.15]","","",""
"sailing-trial","302","1195135","0.0-11.0-267.0","","","","false","","","","","","","","","","null","","1131.6000000238419","","1","0","null","null","arrowup","[0.675,0.325,0.85,0.15]","","",""
"sailing-trial","303","1198692","0.0-11.0-268.0","","","","false","","","","","","","","","","419.60000002384186","","317.5","","2","1","arrowright","1","arrowleft","[0.675,0.325,0.85,0.15]","","",""
"sailing-trial","304","1201506","0.0-11.0-269.0","","","","false","","","","","","","","","","null","","1062","","0","1","null","null","arrowup","[0.675,0.325,0.85,0.15]","","",""
"sailing-trial","305","1206001","0.0-11.0-270.0","","","","false","","","","","","","","","","436","","1201","","0","1","arrowleft","0","arrowleft","[0.85,0.15,0.675,0.325]","","",""
"sailing-trial","306","1209464","0.0-11.0-271.0","","","","false","","","","","","","","","","null","","1655","","0","1","null","null","arrowup","[0.85,0.15,0.675,0.325]","","",""
"sailing-trial","307","1213660","0.0-11.0-272.0","","","","false","","","","","","","","","","529.6000000238419","","756","","2","1","arrowright","1","arrowleft","[0.85,0.15,0.675,0.325]","","",""
"sailing-trial","308","1216591","0.0-11.0-273.0","","","","false","","","","","","","","","","null","","777.1000000238419","","3","1","null","null","arrowup","[0.85,0.15,0.675,0.325]","","",""
"sailing-trial","309","1220621","0.0-11.0-274.0","","","","false","","","","","","","","","","583.5999999046326","","405.3000000715256","","0","1","arrowleft","0","arrowleft","[0.85,0.15,0.675,0.325]","","",""
"sailing-trial","310","1223487","0.0-11.0-275.0","","","","false","","","","","","","","","","null","","915.3999999761581","","1","0","null","null","arrowup","[0.85,0.15,0.675,0.325]","","",""
"sailing-trial","311","1227080","0.0-11.0-276.0","","","","false","","","","","","","","","","542.7000000476837","","100","","2","1","arrowright","1","arrowleft","[0.85,0.15,0.675,0.325]","","",""
"sailing-trial","312","1229318","0.0-11.0-277.0","","","","false","","","","","","","","","","null","","778.9000000953674","","3","0","null","null","arrowup","[0.85,0.15,0.675,0.325]","","",""
"sailing-trial","313","1232708","0.0-11.0-278.0","","","","false","","","","","","","","","","568.5","","62.800000071525574","","0","1","arrowleft","0","arrowleft","[0.85,0.15,0.675,0.325]","","",""
"sailing-trial","314","1235339","0.0-11.0-279.0","","","","false","","","","","","","","","","null","","889.5","","2","1","null","null","arrowup","[0.85,0.15,0.675,0.325]","","",""
"sailing-trial","315","1238736","0.0-11.0-280.0","","","","false","","","","","","","","","","512.1999999284744","","75.79999995231628","","2","1","arrowright","1","arrowleft","[0.85,0.15,0.675,0.325]","","",""
"sailing-trial","316","1241467","0.0-11.0-281.0","","","","false","","","","","","","","","","null","","905.8000000715256","","2","1","null","null","arrowup","[0.85,0.15,0.675,0.325]","","",""
"sailing-trial","317","1244697","0.0-11.0-282.0","","","","false","","","","","","","","","","383.7999999523163","","67.5","","0","1","arrowleft","0","arrowleft","[0.85,0.15,0.675,0.325]","","",""
"sailing-trial","318","1246972","0.0-11.0-283.0","","","","false","","","","","","","","","","null","","867.3999999761581","","1","0","null","null","arrowup","[0.85,0.15,0.675,0.325]","","",""
"sailing-trial","319","1249923","0.0-11.0-284.0","","","","false","","","","","","","","","","358.5","","291.60000002384186","","2","0","arrowright","1","arrowleft","[0.85,0.15,0.675,0.325]","","",""
"sailing-trial","320","1252462","0.0-11.0-285.0","","","","false","","","","","","","","","","null","","824.5","","3","0","null","null","arrowup","[0.85,0.15,0.675,0.325]","","",""
"sailing-trial","321","1256066","0.0-11.0-286.0","","","","false","","","","","","","","","","401.5","","221","","0","0","arrowleft","0","arrowleft","[0.85,0.15,0.675,0.325]","","",""
"sailing-trial","322","1258948","0.0-11.0-287.0","","","","false","","","","","","","","","","null","","854.2999999523163","","1","0","null","null","arrowup","[0.85,0.15,0.675,0.325]","","",""
"sailing-trial","323","1262881","0.0-11.0-288.0","","","","false","","","","","","","","","","434.7999999523163","","406.89999997615814","","2","1","arrowright","1","arrowleft","[0.85,0.15,0.675,0.325]","","",""
"sailing-trial","324","1266311","0.0-11.0-289.0","","","","false","","","","","","","","","","null","","559.8999999761581","","3","1","null","null","arrowup","[0.85,0.15,0.675,0.325]","","",""
"sailing-trial","325","1269843","0.0-11.0-290.0","","","","false","","","","","","","","","","495","","233.5","","0","0","arrowleft","0","arrowleft","[0.675,0.325,0.85,0.15]","","",""
"sailing-trial","326","1272137","0.0-11.0-291.0","","","","false","","","","","","","","","","null","","581.3999999761581","","2","1","null","null","arrowup","[0.675,0.325,0.85,0.15]","","",""
"sailing-trial","327","1276520","0.0-11.0-292.0","","","","false","","","","","","","","","","1766","","6.100000023841858","","3","0","arrowright","1","arrowright","[0.675,0.325,0.85,0.15]","","",""
"sailing-trial","328","1279646","0.0-11.0-293.0","","","","false","","","","","","","","","","null","","550.3000000715256","","1","1","null","null","arrowup","[0.675,0.325,0.85,0.15]","","",""
"sailing-trial","329","1282835","0.0-11.0-294.0","","","","false","","","","","","","","","","404.8000000715256","","120.39999997615814","","1","0","arrowleft","0","arrowright","[0.675,0.325,0.85,0.15]","","",""
"sailing-trial","330","1285102","0.0-11.0-295.0","","","","false","","","","","","","","","","null","","968.1000000238419","","0","0","null","null","arrowup","[0.675,0.325,0.85,0.15]","","",""
"sailing-trial","331","1288171","0.0-11.0-296.0","","","","false","","","","","","","","","","463.10000002384186","","222.39999997615814","","1","0","arrowleft","0","arrowright","[0.675,0.325,0.85,0.15]","","",""
"sailing-trial","332","1290869","0.0-11.0-297.0","","","","false","","","","","","","","","","null","","872.2000000476837","","2","1","null","null","arrowup","[0.675,0.325,0.85,0.15]","","",""
"sailing-trial","333","1293810","0.0-11.0-298.0","","","","false","","","","","","","","","","341.39999997615814","","291.40000009536743","","3","0","arrowright","1","arrowright","[0.675,0.325,0.85,0.15]","","",""
"sailing-trial","334","1296496","0.0-11.0-299.0","","","","false","","","","","","","","","","null","","777","","0","1","null","null","arrowup","[0.675,0.325,0.85,0.15]","","",""
"sailing-trial","335","1300293","0.0-11.0-300.0","","","","false","","","","","","","","","","860.1000000238419","","325.10000002384186","","2","1","arrowright","1","arrowleft","[0.675,0.325,0.85,0.15]","","",""
"sailing-trial","336","1303025","0.0-11.0-301.0","","","","false","","","","","","","","","","null","","855","","0","1","null","null","arrowup","[0.675,0.325,0.85,0.15]","","",""
"sailing-trial","337","1307103","0.0-11.0-302.0","","","","false","","","","","","","","","","598.7000000476837","","719.9000000953674","","2","1","arrowright","1","arrowleft","[0.675,0.325,0.85,0.15]","","",""
"sailing-trial","338","1311983","0.0-11.0-303.0","","","","false","","","","","","","","","","null","","3015.1999999284744","","1","1","null","null","arrowup","[0.675,0.325,0.85,0.15]","","",""
"sailing-trial","339","1316127","0.0-11.0-304.0","","","","false","","","","","","","","","","595","","760.3000000715256","","0","1","arrowleft","0","arrowleft","[0.675,0.325,0.85,0.15]","","",""
"sailing-trial","340","1319190","0.0-11.0-305.0","","","","false","","","","","","","","","","null","","1311","","0","1","null","null","arrowup","[0.675,0.325,0.85,0.15]","","",""
"sailing-trial","341","1322268","0.0-11.0-306.0","","","","false","","","","","","","","","","433","","283.2999999523163","","2","0","arrowright","1","arrowleft","[0.85,0.15,0.675,0.325]","","",""
"sailing-trial","342","1327217","0.0-11.0-307.0","","","","false","","","","","","","","","","null","","2765.899999976158","","3","1","null","null","arrowup","[0.85,0.15,0.675,0.325]","","",""
"sailing-trial","343","1331028","0.0-11.0-308.0","","","","false","","","","","","","","","","1134.1000000238419","","313.7999999523163","","1","0","arrowleft","0","arrowright","[0.85,0.15,0.675,0.325]","","",""
"sailing-trial","344","1333426","0.0-11.0-309.0","","","","false","","","","","","","","","","null","","492.2000000476837","","0","1","null","null","arrowup","[0.85,0.15,0.675,0.325]","","",""
"sailing-trial","345","1337073","0.0-11.0-310.0","","","","false","","","","","","","","","","849.2999999523163","","0.7999999523162842","","2","1","arrowright","1","arrowleft","[0.85,0.15,0.675,0.325]","","",""
"sailing-trial","346","1340038","0.0-11.0-311.0","","","","false","","","","","","","","","","null","","1097.6000000238419","","0","1","null","null","arrowup","[0.85,0.15,0.675,0.325]","","",""
"sailing-trial","347","1344066","0.0-11.0-312.0","","","","false","","","","","","","","","","1030.5","","128","","0","1","arrowleft","0","arrowleft","[0.85,0.15,0.675,0.325]","","",""
"sailing-trial","348","1348108","0.0-11.0-313.0","","","","false","","","","","","","","","","null","","2155","","3","0","null","null","arrowup","[0.85,0.15,0.675,0.325]","","",""
"sailing-trial","349","1351946","0.0-11.0-314.0","","","","false","","","","","","","","","","875","","496.89999997615814","","0","0","arrowleft","0","arrowleft","[0.85,0.15,0.675,0.325]","","",""
"sailing-trial","350","1354590","0.0-11.0-315.0","","","","false","","","","","","","","","","null","","826.2999999523163","","2","1","null","null","arrowup","[0.85,0.15,0.675,0.325]","","",""
"sailing-trial","351","1357696","0.0-11.0-316.0","","","","false","","","","","","","","","","650.1000000238419","","55.799999952316284","","2","0","arrowright","1","arrowleft","[0.85,0.15,0.675,0.325]","","",""
"sailing-trial","352","1360086","0.0-11.0-317.0","","","","false","","","","","","","","","","null","","1077","","3","0","null","null","arrowup","[0.85,0.15,0.675,0.325]","","",""
"sailing-trial","353","1363583","0.0-11.0-318.0","","","","false","","","","","","","","","","587.6999999284744","","124","","0","1","arrowleft","0","arrowleft","[0.85,0.15,0.675,0.325]","","",""
"sailing-trial","354","1365654","0.0-11.0-319.0","","","","false","","","","","","","","","","null","","771.3000000715256","","2","0","null","null","arrowup","[0.85,0.15,0.675,0.325]","","",""
"sailing-trial","355","1368921","0.0-11.0-320.0","","","","false","","","","","","","","","","729.3999999761581","","149.20000004768372","","3","0","arrowright","1","arrowright","[0.85,0.15,0.675,0.325]","","",""
"sailing-trial","356","1371705","0.0-11.0-321.0","","","","false","","","","","","","","","","null","","930.1000000238419","","0","1","null","null","arrowup","[0.85,0.15,0.675,0.325]","","",""
"sailing-trial","357","1376552","0.0-11.0-322.0","","","","false","","","","","","","","","","1778.8000000715256","","307.39999997615814","","0","1","arrowleft","0","arrowleft","[0.85,0.15,0.675,0.325]","","",""
"sailing-trial","358","1379124","0.0-11.0-323.0","","","","false","","","","","","","","","","null","","1220","","1","0","null","null","arrowup","[0.85,0.15,0.675,0.325]","","",""
"sailing-trial","359","1382988","0.0-11.0-324.0","","","","false","","","","","","","","","","683.1999999284744","","925","","0","0","arrowleft","0","arrowleft","[0.675,0.325,0.85,0.15]","","",""
"sailing-trial","360","1385626","0.0-11.0-325.0","","","","false","","","","","","","","","","null","","652.8999999761581","","2","1","null","null","arrowup","[0.675,0.325,0.85,0.15]","","",""
"sailing-trial","361","1389288","0.0-11.0-326.0","","","","false","","","","","","","","","","646.7000000476837","","65.59999990463257","","2","1","arrowright","1","arrowleft","[0.675,0.325,0.85,0.15]","","",""
"sailing-trial","362","1393518","0.0-11.0-327.0","","","","false","","","","","","","","","","null","","1995.7000000476837","","0","1","null","null","arrowup","[0.675,0.325,0.85,0.15]","","",""
"sailing-trial","363","1397666","0.0-11.0-328.0","","","","false","","","","","","","","","","862.7999999523163","","429.2000000476837","","2","1","arrowright","1","arrowleft","[0.675,0.325,0.85,0.15]","","",""
"sailing-trial","364","1400529","0.0-11.0-329.0","","","","false","","","","","","","","","","null","","930.7000000476837","","0","1","null","null","arrowup","[0.675,0.325,0.85,0.15]","","",""
"sailing-trial","365","1405259","0.0-11.0-330.0","","","","false","","","","","","","","","","1658.2999999523163","","228.19999992847443","","2","1","arrowright","1","arrowleft","[0.675,0.325,0.85,0.15]","","",""
"sailing-trial","366","1407896","0.0-11.0-331.0","","","","false","","","","","","","","","","null","","644.4000000953674","","3","0","null","null","arrowup","[0.675,0.325,0.85,0.15]","","",""
"sailing-trial","367","1411584","0.0-11.0-332.0","","","","false","","","","","","","","","","591.2000000476837","","232.79999995231628","","2","1","arrowright","1","arrowleft","[0.675,0.325,0.85,0.15]","","",""
"sailing-trial","368","1414631","0.0-11.0-333.0","","","","false","","","","","","","","","","null","","1128.7999999523163","","3","1","null","null","arrowup","[0.675,0.325,0.85,0.15]","","",""
"sailing-trial","369","1418494","0.0-11.0-334.0","","","","false","","","","","","","","","","981.4000000953674","","33.299999952316284","","0","1","arrowleft","0","arrowleft","[0.675,0.325,0.85,0.15]","","",""
"sailing-trial","370","1421492","0.0-11.0-335.0","","","","false","","","","","","","","","","null","","1069.2999999523163","","2","1","null","null","arrowup","[0.675,0.325,0.85,0.15]","","",""
"sailing-trial","371","1426053","0.0-11.0-336.0","","","","false","","","","","","","","","","1276","","339.5","","2","1","arrowright","1","arrowleft","[0.675,0.325,0.85,0.15]","","",""
"sailing-trial","372","1429468","0.0-11.0-337.0","","","","false","","","","","","","","","","null","","1626.7000000476837","","0","1","null","null","arrowup","[0.675,0.325,0.85,0.15]","","",""
"sailing-trial","373","1432897","0.0-11.0-338.0","","","","false","","","","","","","","","","429","","141.60000002384186","","0","1","arrowleft","0","arrowleft","[0.675,0.325,0.85,0.15]","","",""
"sailing-trial","374","1435727","0.0-11.0-339.0","","","","false","","","","","","","","","","null","","884.5999999046326","","2","1","null","null","arrowup","[0.675,0.325,0.85,0.15]","","",""
"sailing-trial","375","1439123","0.0-11.0-340.0","","","","false","","","","","","","","","","421.89999997615814","","103.70000004768372","","2","1","arrowright","1","arrowleft","[0.675,0.325,0.85,0.15]","","",""
"sailing-trial","376","1441740","0.0-11.0-341.0","","","","false","","","","","","","","","","null","","1122.2000000476837","","1","0","null","null","arrowup","[0.675,0.325,0.85,0.15]","","",""
"sailing-trial","377","1445155","0.0-11.0-342.0","","","","false","","","","","","","","","","452.60000002384186","","368.60000002384186","","0","0","arrowleft","0","arrowleft","[0.15,0.85,0.325,0.675]","","",""
"sailing-trial","378","1448447","0.0-11.0-343.0","","","","false","","","","","","","","","","null","","1027.2999999523163","","2","1","null","null","arrowup","[0.15,0.85,0.325,0.675]","","",""
"sailing-trial","379","1451797","0.0-11.0-344.0","","","","false","","","","","","","","","","385.6999999284744","","393.7999999523163","","2","0","arrowright","1","arrowleft","[0.15,0.85,0.325,0.675]","","",""
"sailing-trial","380","1454844","0.0-11.0-345.0","","","","false","","","","","","","","","","null","","1043.5","","3","1","null","null","arrowup","[0.15,0.85,0.325,0.675]","","",""
"sailing-trial","381","1458346","0.0-11.0-346.0","","","","false","","","","","","","","","","515.9000000953674","","549.3999999761581","","0","0","arrowleft","0","arrowleft","[0.15,0.85,0.325,0.675]","","",""
"sailing-trial","382","1461369","0.0-11.0-347.0","","","","false","","","","","","","","","","null","","1276.5","","2","1","null","null","arrowup","[0.15,0.85,0.325,0.675]","","",""
"sailing-trial","383","1466897","0.0-11.0-348.0","","","","false","","","","","","","","","","2235.2000000476837","","815.6000000238419","","0","0","arrowleft","0","arrowleft","[0.15,0.85,0.325,0.675]","","",""
"sailing-trial","384","1469207","0.0-11.0-349.0","","","","false","","","","","","","","","","null","","896.1000000238419","","0","0","null","null","arrowup","[0.15,0.85,0.325,0.675]","","",""
"sailing-trial","385","1473057","0.0-11.0-350.0","","","","false","","","","","","","","","","325.60000002384186","","736.1000000238419","","2","1","arrowright","1","arrowleft","[0.15,0.85,0.325,0.675]","","",""
"sailing-trial","386","1476321","0.0-11.0-351.0","","","","false","","","","","","","","","","null","","933.6999999284744","","2","1","null","null","arrowup","[0.15,0.85,0.325,0.675]","","",""
"sailing-trial","387","1479472","0.0-11.0-352.0","","","","false","","","","","","","","","","407.39999997615814","","120","","2","0","arrowright","1","arrowleft","[0.15,0.85,0.325,0.675]","","",""
"sailing-trial","388","1481583","0.0-11.0-353.0","","","","false","","","","","","","","","","null","","575.7000000476837","","3","0","null","null","arrowup","[0.15,0.85,0.325,0.675]","","",""
"sailing-trial","389","1484698","0.0-11.0-354.0","","","","false","","","","","","","","","","566.8999999761581","","67.39999997615814","","0","0","arrowleft","0","arrowleft","[0.15,0.85,0.325,0.675]","","",""
"sailing-trial","390","1486809","0.0-11.0-355.0","","","","false","","","","","","","","","","null","","534.6000000238419","","1","0","null","null","arrowup","[0.15,0.85,0.325,0.675]","","",""
"sailing-trial","391","1489987","0.0-11.0-356.0","","","","false","","","","","","","","","","641","","144.5","","2","0","arrowright","1","arrowleft","[0.15,0.85,0.325,0.675]","","",""
"sailing-trial","392","1492093","0.0-11.0-357.0","","","","false","","","","","","","","","","null","","763.7000000476837","","0","0","null","null","arrowup","[0.15,0.85,0.325,0.675]","","",""
"sailing-trial","393","1497417","0.0-11.0-358.0","","","","false","","","","","","","","","","2460.899999976158","","90.5","","3","1","arrowright","1","arrowright","[0.15,0.85,0.325,0.675]","","",""
"sailing-trial","394","1499816","0.0-11.0-359.0","","","","false","","","","","","","","","","null","","485.59999990463257","","2","1","null","null","arrowup","[0.15,0.85,0.325,0.675]","","",""
"sailing-trial","395","1503336","0.0-11.0-360.0","","","","false","","","","","","","","","","641.8999999761581","","294.40000009536743","","3","0","arrowright","1","arrowright","[0.675,0.325,0.85,0.15]","","",""
"sailing-trial","396","1505742","0.0-11.0-361.0","","","","false","","","","","","","","","","null","","472.10000002384186","","2","1","null","null","arrowup","[0.675,0.325,0.85,0.15]","","",""
"sailing-trial","397","1509345","0.0-11.0-362.0","","","","false","","","","","","","","","","360.39999997615814","","326.8000000715256","","0","0","arrowleft","0","arrowleft","[0.675,0.325,0.85,0.15]","","",""
"sailing-trial","398","1512324","0.0-11.0-363.0","","","","false","","","","","","","","","","null","","589.5999999046326","","3","0","null","null","arrowup","[0.675,0.325,0.85,0.15]","","",""
"sailing-trial","399","1515952","0.0-11.0-364.0","","","","false","","","","","","","","","","1146.0999999046326","","58.699999928474426","","1","0","arrowleft","0","arrowright","[0.675,0.325,0.85,0.15]","","",""
"sailing-trial","400","1518729","0.0-11.0-365.0","","","","false","","","","","","","","","","null","","931.8999999761581","","0","1","null","null","arrowup","[0.675,0.325,0.85,0.15]","","",""
"sailing-trial","401","1522042","0.0-11.0-366.0","","","","false","","","","","","","","","","319.59999990463257","","200","","2","1","arrowright","1","arrowleft","[0.675,0.325,0.85,0.15]","","",""
"sailing-trial","402","1525124","0.0-11.0-367.0","","","","false","","","","","","","","","","null","","1139.1999999284744","","1","1","null","null","arrowup","[0.675,0.325,0.85,0.15]","","",""
"sailing-trial","403","1528470","0.0-11.0-368.0","","","","false","","","","","","","","","","568.3000000715256","","17.299999952316284","","2","1","arrowright","1","arrowleft","[0.675,0.325,0.85,0.15]","","",""
"sailing-trial","404","1530749","0.0-11.0-369.0","","","","false","","","","","","","","","","null","","621.9000000953674","","0","0","null","null","arrowup","[0.675,0.325,0.85,0.15]","","",""
"sailing-trial","405","1533830","0.0-11.0-370.0","","","","false","","","","","","","","","","393.60000002384186","","57.800000071525574","","2","0","arrowright","1","arrowleft","[0.675,0.325,0.85,0.15]","","",""
"sailing-trial","406","1535860","0.0-11.0-371.0","","","","false","","","","","","","","","","null","","557.3999999761581","","3","0","null","null","arrowup","[0.675,0.325,0.85,0.15]","","",""
"sailing-trial","407","1539043","0.0-11.0-372.0","","","","false","","","","","","","","","","443.60000002384186","","34.799999952316284","","2","1","arrowright","1","arrowleft","[0.675,0.325,0.85,0.15]","","",""
"sailing-trial","408","1541675","0.0-11.0-373.0","","","","false","","","","","","","","","","null","","782.4000000953674","","0","1","null","null","arrowup","[0.675,0.325,0.85,0.15]","","",""
"sailing-trial","409","1544966","0.0-11.0-374.0","","","","false","","","","","","","","","","535.2000000476837","","322.1999999284744","","2","0","arrowright","1","arrowleft","[0.675,0.325,0.85,0.15]","","",""
"sailing-trial","410","1547783","0.0-11.0-375.0","","","","false","","","","","","","","","","null","","531.4000000953674","","1","1","null","null","arrowup","[0.675,0.325,0.85,0.15]","","",""
"sailing-trial","411","1550838","0.0-11.0-376.0","","","","false","","","","","","","","","","416.2999999523163","","327.10000002384186","","1","0","arrowleft","0","arrowright","[0.675,0.325,0.85,0.15]","","",""
"sailing-trial","412","1553092","0.0-11.0-377.0","","","","false","","","","","","","","","","null","","873.1000000238419","","0","0","null","null","arrowup","[0.675,0.325,0.85,0.15]","","",""
"sailing-trial","413","1557226","0.0-11.0-378.0","","","","false","","","","","","","","","","781.0999999046326","","128.39999997615814","","1","1","arrowleft","0","arrowright","[0.675,0.325,0.85,0.15]","","",""
"sailing-trial","414","1560121","0.0-11.0-379.0","","","","false","","","","","","","","","","null","","1052.1000000238419","","2","1","null","null","arrowup","[0.675,0.325,0.85,0.15]","","",""
"sailing-trial","415","1563185","0.0-11.0-380.0","","","","false","","","","","","","","","","571","","83.40000009536743","","2","0","arrowright","1","arrowleft","[0.85,0.15,0.675,0.325]","","",""
"sailing-trial","416","1565637","0.0-11.0-381.0","","","","false","","","","","","","","","","null","","1128.0999999046326","","2","0","null","null","arrowup","[0.85,0.15,0.675,0.325]","","",""
"sailing-trial","417","1568791","0.0-11.0-382.0","","","","false","","","","","","","","","","320.10000002384186","","241.89999997615814","","1","0","arrowleft","0","arrowright","[0.85,0.15,0.675,0.325]","","",""
"sailing-trial","418","1571677","0.0-11.0-383.0","","","","false","","","","","","","","","","null","","743.5","","1","1","null","null","arrowup","[0.85,0.15,0.675,0.325]","","",""
"sailing-trial","419","1575259","0.0-11.0-384.0","","","","false","","","","","","","","","","271","","508.90000009536743","","0","1","arrowleft","0","arrowleft","[0.85,0.15,0.675,0.325]","","",""
"sailing-trial","420","1578137","0.0-11.0-385.0","","","","false","","","","","","","","","","null","","984.6999999284744","","0","1","null","null","arrowup","[0.85,0.15,0.675,0.325]","","",""
"sailing-trial","421","1582817","0.0-11.0-386.0","","","","false","","","","","","","","","","574.1000000238419","","465.40000009536743","","0","1","arrowleft","0","arrowleft","[0.85,0.15,0.675,0.325]","","",""
"sailing-trial","422","1585516","0.0-11.0-387.0","","","","false","","","","","","","","","","null","","833.8999999761581","","2","1","null","null","arrowup","[0.85,0.15,0.675,0.325]","","",""
"sailing-trial","423","1589259","0.0-11.0-388.0","","","","false","","","","","","","","","","431.10000002384186","","408.60000002384186","","0","1","arrowleft","0","arrowleft","[0.85,0.15,0.675,0.325]","","",""
"sailing-trial","424","1592293","0.0-11.0-389.0","","","","false","","","","","","","","","","null","","948.1000000238419","","1","0","null","null","arrowup","[0.85,0.15,0.675,0.325]","","",""
"sailing-trial","425","1596288","0.0-11.0-390.0","","","","false","","","","","","","","","","328.5","","611.6000000238419","","0","1","arrowleft","0","arrowleft","[0.85,0.15,0.675,0.325]","","",""
"sailing-trial","426","1599046","0.0-11.0-391.0","","","","false","","","","","","","","","","null","","1145.5","","0","0","null","null","arrowup","[0.85,0.15,0.675,0.325]","","",""
"sailing-trial","427","1602465","0.0-11.0-392.0","","","","false","","","","","","","","","","626.2000000476837","","18.700000047683716","","2","1","arrowright","1","arrowleft","[0.85,0.15,0.675,0.325]","","",""
"sailing-trial","428","1605028","0.0-11.0-393.0","","","","false","","","","","","","","","","null","","774.7999999523163","","3","0","null","null","arrowup","[0.85,0.15,0.675,0.325]","","",""
"sailing-trial","429","1608394","0.0-11.0-394.0","","","","false","","","","","","","","","","482","","17.799999952316284","","0","1","arrowleft","0","arrowleft","[0.85,0.15,0.675,0.325]","","",""
"sailing-trial","430","1611389","0.0-11.0-395.0","","","","false","","","","","","","","","","null","","1196.2000000476837","","0","1","null","null","arrowup","[0.85,0.15,0.675,0.325]","","",""
"sailing-trial","431","1614620","0.0-11.0-396.0","","","","false","","","","","","","","","","320.8000000715256","","34.199999928474426","","0","1","arrowleft","0","arrowleft","[0.85,0.15,0.675,0.325]","","",""
"sailing-trial","432","1616951","0.0-11.0-397.0","","","","false","","","","","","","","","","null","","623.2999999523163","","1","0","null","null","arrowup","[0.85,0.15,0.675,0.325]","","",""
"sailing-trial","433","1620443","0.0-11.0-398.0","","","","false","","","","","","","","","","845.0999999046326","","202.89999997615814","","2","0","arrowright","1","arrowleft","[0.85,0.15,0.675,0.325]","","",""
"sailing-trial","434","1622877","0.0-11.0-399.0","","","","false","","","","","","","","","","null","","736.6000000238419","","1","0","null","null","arrowup","[0.85,0.15,0.675,0.325]","","",""
"instructions","435","1628468","0.0-12.0","","","","","","","","","","5589.100000023842","","","","","","","","","","","","","","","","[{""page_index"":0,""viewing_time"":5587.800000071526}]"
"survey-debrief","436","1653940","0.0-13.0","","","","","","","","","","25467.300000071526","","","","","","","","","","","","","","{""difficulty"":""5"",""fun"":""2"",""clarity"":""5"",""strategy"":""No"",""feedback"":""No""}","",""
