"trial_type","trial_index","time_elapsed","internal_node_id","value","metadata","success","timeout","failed_images","failed_audio","failed_video","browser_interaction","low_quality","rt","stimulus","response","button_pressed","island_rt","island_response","boat_rt","boat_response","boat","reward","island_key","island","boat_key","reward_probabilities","responses","num_errors","view_history"
"pavlovia","0","5","0.0-0.0","","","","","","","","","","","","","","","","","","","","","","","","","",""
"call-function","1","6","0.0-1.0","","{""task_version"":""sailing_part1_v1"",""task_condition"":""good"",""boats"":[""B"",""D"",""C"",""A""],""boats_demo"":[""E"",""G"",""H"",""F""],""islands"":[""B"",""A""],""subject_id"":""14048"",""age"":""14"",""gender"":""Male""}","","","","","","","","","","","","","","","","","","","","","","","",""
"preload","2","5292","0.0-2.0","","","true","false","[]","[]","[]","[{""event"":""fullscreenenter"",""trial"":3,""time"":6634}]","false","","","","","","","","","","","","","","","","",""
"fullscreen","3","7594","0.0-3.0","","","true","","","","","","","","","","","","","","","","","","","","","","",""
"audio-keyboard-response","4","10176","0.0-4.0-0.0","","","","","","","","","","2485.333333333333","audio/beep_loop.wav"," ","","","","","","","","","","","","","",""
"audio-test","5","12360","0.0-4.0-1.0","","","","","","","","","","null","audio/turtle.mp3","","3","","","","","","","","","","","","",""
"audio-test","6","15103","0.0-4.0-2.0","","","","","","","","","","null","audio/shark.mp3","","2","","","","","","","","","","","","",""
"sailing-instructions","7","43992","0.0-5.0-0.0-0.0","","","","","","","","","","","","","","null","null","null","null","null","null","","","","","","",""
"sailing-trial","8","50571","0.0-5.0-0.0-1.0-0.0","","","","false","","","","","","","","","","5448.100000023842","","null","","null","null","arrowleft","0","null","null","","",""
"sailing-trial","9","52768","0.0-5.0-0.0-1.0-1.0","","","","false","","","","","","","","","","1075.1000000238419","","null","","null","null","arrowright","1","null","null","","",""
"sailing-trial","10","55482","0.0-5.0-0.0-1.0-2.0","","","","false","","","","","","","","","","1581.5","","null","","null","null","arrowleft","0","null","null","","",""
"sailing-instructions","11","96035","0.0-5.0-0.0-2.0","","","","","","","","","","","","","","null","null","null","null","0","null","","","","","","",""
"sailing-trial","12","100422","0.0-5.0-0.0-3.0-0.0","","","","false","","","","","","","","","","null","","338.5","","2","1","null","null","arrowleft","[1,1,1,1]","","",""
"sailing-trial","13","104417","0.0-5.0-0.0-3.0-1.0","","","","false","","","","","","","","","","null","","1594.6000000238419","","3","1","null","null","arrowright","[1,1,1,1]","","",""
"sailing-trial","14","108996","0.0-5.0-0.0-3.0-2.0","","","","false","","","","","","","","","","null","","1023.3999999761581","","2","0","null","null","arrowleft","[0,0,0,0]","","",""
"sailing-instructions","15","116767","0.0-5.0-0.0-4.0","","","","","","","","","","","","","","null","null","null","null","null","null","","","","","","",""
"sailing-comprehension","16","156485","0.0-5.0-0.0-5.0","","","","","","","","","","31680","","","","","","","","","","","","","","[""true"",""false"",""false"",""true""]","1",""
"sailing-instructions","17","183709","0.0-5.0-0.1-0.1","","","","","","","","","","","","","","null","null","null","null","null","null","","","","","","",""
"sailing-trial","18","185651","0.0-5.0-0.1-1.1-0.1","","","","false","","","","","","","","","","826.8999999761581","","null","","null","null","arrowleft","0","null","null","","",""
"sailing-trial","19","186984","0.0-5.0-0.1-1.1-1.1","","","","false","","","","","","","","","","191.10000002384186","","null","","null","null","arrowright","1","null","null","","",""
"sailing-trial","20","188300","0.0-5.0-0.1-1.1-2.1","","","","false","","","","","","","","","","150.30000007152557","","null","","null","null","arrowright","1","null","null","","",""
"sailing-instructions","21","233724","0.0-5.0-0.1-2.1","","","","","","","","","","","","","","null","null","null","null","0","null","","","","","","",""
"sailing-trial","22","236835","0.0-5.0-0.1-3.1-0.1","","","","false","","","","","","","","","","null","","54.699999928474426","","2","1","null","null","arrowleft","[1,1,1,1]","","",""
"sailing-trial","23","240000","0.0-5.0-0.1-3.1-1.1","","","","false","","","","","","","","","","null","","864.7999999523163","","3","1","null","null","arrowright","[1,1,1,1]","","",""
"sailing-trial","24","241898","0.0-5.0-0.1-3.1-2.1","","","","false","","","","","","","","","","null","","120.10000002384186","","3","0","null","null","arrowright","[0,0,0,0]","","",""
"sailing-instructions","25","249320","0.0-5.0-0.1-4.1","","","","","","","","","","","","","","null","null","null","null","null","null","","","","","","",""
"sailing-comprehension","26","260051","0.0-5.0-0.1-5.1","","","","","","","","","","8751.100000023842","","","","","","","","","","","","","","[""true"",""true"",""false"",""true""]","0",""
"sailing-instructions","27","322814","0.0-6.0-0.0-0.0","","","","","","","","","","","","","","null","null","null","null","null","null","","","","","","",""
"sailing-comprehension","28","334668","0.0-6.0-0.0-1.0","","","","","","","","","","9568.899999976158","","","","","","","","","","","","","","[""true"",""false"",""true""]","0",""
"sailing-instructions","29","348405","0.0-7.0-0.0-0.0","","","","","","","","","","","","","","null","null","null","null","null","null","","","","","","",""
"sailing-trial","30","353969","0.0-7.0-0.0-1.0-0.0","","","","false","","","","","","","","","","null","","2486.399999976158","","0","1","null","null","arrowup","[0.2,0.8,0.2,0.8]","","",""
"sailing-trial","31","357816","0.0-7.0-0.0-1.0-1.0","","","","false","","","","","","","","","","null","","1775.7000000476837","","1","1","null","null","arrowup","[0.2,0.8,0.2,0.8]","","",""
"sailing-trial","32","360595","0.0-7.0-0.0-1.0-2.0","","","","false","","","","","","","","","","null","","585.9000000953674","","2","0","null","null","arrowup","[0.2,0.8,0.2,0.8]","","",""
"sailing-trial","33","363293","0.0-7.0-0.0-1.0-3.0","","","","false","","","","","","","","","","null","","673.7999999523163","","3","1","null","null","arrowup","[0.2,0.8,0.2,0.8]","","",""
"sailing-comprehension","34","370535","0.0-7.0-0.0-2.0","","","","","","","","","","4554","","","","","","","","","","","","","","[""false""]","0",""
"sailing-instructions","35","380358","0.0-8.0-0.0-0.0","","","","","","","","","","","","","","null","null","null","null","null","null","","","","","","",""
"sailing-comprehension","36","387669","0.0-8.0-0.0-1.0","","","","","","","","","","5416.5","","","","","","","","","","","","","","[""true""]","0",""
"sailing-instructions","37","415087","0.0-9.0-0.0-0.0","","","","","","","","","","","","","","null","null","null","null","null","null","","","","","","",""
"sailing-trial","38","421252","0.0-9.0-0.0-1.0-0.0","","","","false","","","","","","","","","","1164.6999999284744","","300.7999999523163","","0","0","arrowleft","0","arrowleft","[0.2,0.8,0.2,0.8]","","",""
"sailing-trial","39","426480","0.0-9.0-0.0-1.0-1.0","","","","false","","","","","","","","","","966.1999999284744","","1213","","1","1","arrowleft","0","arrowright","[0.2,0.8,0.2,0.8]","","",""
"sailing-trial","40","430276","0.0-9.0-0.0-1.0-2.0","","","","false","","","","","","","","","","null","","1967.9000000953674","","0","0","null","null","arrowup","[0.2,0.8,0.2,0.8]","","",""
"sailing-trial","41","435588","0.0-9.0-0.0-1.0-3.0","","","","false","","","","","","","","","","819.7999999523163","","1499.8999999761581","","1","1","arrowleft","0","arrowright","[0.2,0.8,0.2,0.8]","","",""
"sailing-trial","42","438869","0.0-9.0-0.0-1.0-4.0","","","","false","","","","","","","","","","null","","1167.6999999284744","","3","1","null","null","arrowup","[0.2,0.8,0.2,0.8]","","",""
"sailing-trial","43","442930","0.0-9.0-0.0-1.0-5.0","","","","false","","","","","","","","","","639","","625.7000000476837","","1","0","arrowleft","0","arrowright","[0.2,0.8,0.2,0.8]","","",""
"sailing-instructions","44","467128","0.0-10.0","","","","","","","","","","","","","","null","null","null","null","null","null","","","","","","",""
"sailing-trial","45","471520","0.0-11.0-0.0","","","","false","","","","","","","","","","1132.2999999523163","","170.89999997615814","","0","1","arrowleft","0","arrowleft","[0.85,0.15,0.675,0.325]","","",""
"sailing-trial","46","475614","0.0-11.0-1.0","","","","false","","","","","","","","","","null","","1057","","0","0","null","null","arrowup","[0.85,0.15,0.675,0.325]","","",""
"sailing-trial","47","479377","0.0-11.0-2.0","","","","false","","","","","","","","","","446.5","","387.5","","0","1","arrowleft","0","arrowleft","[0.85,0.15,0.675,0.325]","","",""
"sailing-trial","48","483010","0.0-11.0-3.0","","","","false","","","","","","","","","","null","","1290.7000000476837","","3","1","null","null","arrowup","[0.85,0.15,0.675,0.325]","","",""
"sailing-trial","49","486803","0.0-11.0-4.0","","","","false","","","","","","","","","","499","","440.1999999284744","","0","1","arrowleft","0","arrowleft","[0.85,0.15,0.675,0.325]","","",""
"sailing-trial","50","490749","0.0-11.0-5.0","","","","false","","","","","","","","","","null","","903.6000000238419","","2","0","null","null","arrowup","[0.85,0.15,0.675,0.325]","","",""
"sailing-trial","51","494379","0.0-11.0-6.0","","","","false","","","","","","","","","","690.1999999284744","","49.89999997615814","","0","1","arrowleft","0","arrowleft","[0.85,0.15,0.675,0.325]","","",""
"sailing-trial","52","497230","0.0-11.0-7.0","","","","false","","","","","","","","","","null","","774.4000000953674","","3","0","null","null","arrowup","[0.85,0.15,0.675,0.325]","","",""
"sailing-trial","53","500809","0.0-11.0-8.0","","","","false","","","","","","","","","","529.3999999761581","","266.5","","0","1","arrowleft","0","arrowleft","[0.85,0.15,0.675,0.325]","","",""
"sailing-trial","54","503904","0.0-11.0-9.0","","","","false","","","","","","","","","","null","","1079.3999999761581","","3","1","null","null","arrowup","[0.85,0.15,0.675,0.325]","","",""
"sailing-trial","55","507218","0.0-11.0-10.0","","","","false","","","","","","","","","","420.7999999523163","","245.80000007152557","","0","1","arrowleft","0","arrowleft","[0.85,0.15,0.675,0.325]","","",""
"sailing-trial","56","509482","0.0-11.0-11.0","","","","false","","","","","","","","","","null","","694.2000000476837","","3","0","null","null","arrowup","[0.85,0.15,0.675,0.325]","","",""
"sailing-trial","57","512714","0.0-11.0-12.0","","","","false","","","","","","","","","","472.7999999523163","","74.20000004768372","","0","1","arrowleft","0","arrowleft","[0.85,0.15,0.675,0.325]","","",""
"sailing-trial","58","515876","0.0-11.0-13.0","","","","false","","","","","","","","","","null","","972.1999999284744","","1","1","null","null","arrowup","[0.85,0.15,0.675,0.325]","","",""
"sailing-trial","59","520722","0.0-11.0-14.0","","","","false","","","","","","","","","","442.7000000476837","","1551.8999999761581","","0","1","arrowleft","0","arrowleft","[0.85,0.15,0.675,0.325]","","",""
"sailing-trial","60","524406","0.0-11.0-15.0","","","","false","","","","","","","","","","null","","922","","2","0","null","null","arrowup","[0.85,0.15,0.675,0.325]","","",""
"sailing-trial","61","529126","0.0-11.0-16.0","","","","false","","","","","","","","","","519.2000000476837","","441.39999997615814","","0","0","arrowleft","0","arrowleft","[0.675,0.325,0.85,0.15]","","",""
"sailing-trial","62","532962","0.0-11.0-17.0","","","","false","","","","","","","","","","null","","822.5","","1","0","null","null","arrowup","[0.675,0.325,0.85,0.15]","","",""
"sailing-trial","63","537379","0.0-11.0-18.0","","","","false","","","","","","","","","","1038.1999999284744","","189","","3","0","arrowright","1","arrowright","[0.675,0.325,0.85,0.15]","","",""
"sailing-trial","64","539953","0.0-11.0-19.0","","","","false","","","","","","","","","","null","","781.7000000476837","","2","1","null","null","arrowup","[0.675,0.325,0.85,0.15]","","",""
"sailing-trial","65","544068","0.0-11.0-20.0","","","","false","","","","","","","","","","951.6000000238419","","174.10000002384186","","1","0","arrowleft","0","arrowright","[0.675,0.325,0.85,0.15]","","",""
"sailing-trial","66","546713","0.0-11.0-21.0","","","","false","","","","","","","","","","null","","883.7999999523163","","0","1","null","null","arrowup","[0.675,0.325,0.85,0.15]","","",""
"sailing-trial","67","550603","0.0-11.0-22.0","","","","false","","","","","","","","","","1154.1000000238419","","355","","2","0","arrowright","1","arrowleft","[0.675,0.325,0.85,0.15]","","",""
"sailing-trial","68","552807","0.0-11.0-23.0","","","","false","","","","","","","","","","null","","941.8999999761581","","3","0","null","null","arrowup","[0.675,0.325,0.85,0.15]","","",""
"sailing-trial","69","556582","0.0-11.0-24.0","","","","false","","","","","","","","","","572.3999999761581","","436.10000002384186","","1","0","arrowleft","0","arrowright","[0.675,0.325,0.85,0.15]","","",""
"sailing-trial","70","559466","0.0-11.0-25.0","","","","false","","","","","","","","","","null","","1097","","1","0","null","null","arrowup","[0.675,0.325,0.85,0.15]","","",""
"sailing-trial","71","563196","0.0-11.0-26.0","","","","false","","","","","","","","","","487.6999999284744","","410.40000009536743","","0","1","arrowleft","0","arrowleft","[0.675,0.325,0.85,0.15]","","",""
"sailing-trial","72","565927","0.0-11.0-27.0","","","","false","","","","","","","","","","null","","843.7000000476837","","2","1","null","null","arrowup","[0.675,0.325,0.85,0.15]","","",""
"sailing-trial","73","569087","0.0-11.0-28.0","","","","false","","","","","","","","","","533.1000000238419","","266.5","","0","0","arrowleft","0","arrowleft","[0.675,0.325,0.85,0.15]","","",""
"sailing-trial","74","571839","0.0-11.0-29.0","","","","false","","","","","","","","","","null","","982.1999999284744","","0","1","null","null","arrowup","[0.675,0.325,0.85,0.15]","","",""
"sailing-trial","75","575517","0.0-11.0-30.0","","","","false","","","","","","","","","","511.39999997615814","","350.40000009536743","","0","1","arrowleft","0","arrowleft","[0.675,0.325,0.85,0.15]","","",""
"sailing-trial","76","577616","0.0-11.0-31.0","","","","false","","","","","","","","","","null","","841.8999999761581","","1","0","null","null","arrowup","[0.675,0.325,0.85,0.15]","","",""
"sailing-trial","77","581679","0.0-11.0-32.0","","","","false","","","","","","","","","","459.2999999523163","","733.6999999284744","","0","1","arrowleft","0","arrowleft","[0.85,0.15,0.675,0.325]","","",""
"sailing-trial","78","584374","0.0-11.0-33.0","","","","false","","","","","","","","","","null","","855.8999999761581","","0","1","null","null","arrowup","[0.85,0.15,0.675,0.325]","","",""
"sailing-trial","79","587639","0.0-11.0-34.0","","","","false","","","","","","","","","","507.60000002384186","","8.700000047683716","","0","1","arrowleft","0","arrowleft","[0.85,0.15,0.675,0.325]","","",""
"sailing-trial","80","590152","0.0-11.0-35.0","","","","false","","","","","","","","","","null","","794.8000000715256","","2","1","null","null","arrowup","[0.85,0.15,0.675,0.325]","","",""
"sailing-trial","81","593850","0.0-11.0-36.0","","","","false","","","","","","","","","","389.2999999523163","","492.6999999284744","","2","1","arrowright","1","arrowleft","[0.85,0.15,0.675,0.325]","","",""
"sailing-trial","82","595896","0.0-11.0-37.0","","","","false","","","","","","","","","","null","","826.8000000715256","","0","0","null","null","arrowup","[0.85,0.15,0.675,0.325]","","",""
"sailing-trial","83","599992","0.0-11.0-38.0","","","","false","","","","","","","","","","693.6000000238419","","595.5","","2","1","arrowright","1","arrowleft","[0.85,0.15,0.675,0.325]","","",""
"sailing-trial","84","602165","0.0-11.0-39.0","","","","false","","","","","","","","","","null","","915.8999999761581","","1","0","null","null","arrowup","[0.85,0.15,0.675,0.325]","","",""
"sailing-trial","85","605188","0.0-11.0-40.0","","","","false","","","","","","","","","","546.1000000238419","","210.60000002384186","","2","0","arrowright","1","arrowleft","[0.85,0.15,0.675,0.325]","","",""
"sailing-trial","86","608103","0.0-11.0-41.0","","","","false","","","","","","","","","","null","","1106.2000000476837","","2","1","null","null","arrowup","[0.85,0.15,0.675,0.325]","","",""
"sailing-trial","87","611557","0.0-11.0-42.0","","","","false","","","","","","","","","","444.2999999523163","","300.90000009536743","","2","0","arrowright","1","arrowleft","[0.85,0.15,0.675,0.325]","","",""
"sailing-trial","88","614278","0.0-11.0-43.0","","","","false","","","","","","","","","","null","","912.7999999523163","","3","1","null","null","arrowup","[0.85,0.15,0.675,0.325]","","",""
"sailing-trial","89","617949","0.0-11.0-44.0","","","","false","","","","","","","","","","582.8999999761581","","739","","3","0","arrowright","1","arrowright","[0.85,0.15,0.675,0.325]","","",""
"sailing-trial","90","620640","0.0-11.0-45.0","","","","false","","","","","","","","","","null","","908.6000000238419","","3","1","null","null","arrowup","[0.85,0.15,0.675,0.325]","","",""
"sailing-trial","91","623943","0.0-11.0-46.0","","","","false","","","","","","","","","","529.6000000238419","","371.8000000715256","","3","0","arrowright","1","arrowright","[0.85,0.15,0.675,0.325]","","",""
"sailing-trial","92","626634","0.0-11.0-47.0","","","","false","","","","","","","","","","null","","881.6000000238419","","2","1","null","null","arrowup","[0.85,0.15,0.675,0.325]","","",""
"sailing-trial","93","629617","0.0-11.0-48.0","","","","false","","","","","","","","","","507.6999999284744","","60","","2","0","arrowright","1","arrowleft","[0.85,0.15,0.675,0.325]","","",""
"sailing-trial","94","632309","0.0-11.0-49.0","","","","false","","","","","","","","","","null","","947.7999999523163","","3","1","null","null","arrowup","[0.85,0.15,0.675,0.325]","","",""
"sailing-trial","95","635924","0.0-11.0-50.0","","","","false","","","","","","","","","","490.5","","312.5","","0","1","arrowleft","0","arrowleft","[0.675,0.325,0.85,0.15]","","",""
"sailing-trial","96","637834","0.0-11.0-51.0","","","","false","","","","","","","","","","null","","687.5999999046326","","3","0","null","null","arrowup","[0.675,0.325,0.85,0.15]","","",""
"sailing-trial","97","641500","0.0-11.0-52.0","","","","false","","","","","","","","","","599.2999999523163","","259.39999997615814","","0","1","arrowleft","0","arrowleft","[0.675,0.325,0.85,0.15]","","",""
"sailing-trial","98","643999","0.0-11.0-53.0","","","","false","","","","","","","","","","null","","742.7999999523163","","1","1","null","null","arrowup","[0.675,0.325,0.85,0.15]","","",""
"sailing-trial","99","647546","0.0-11.0-54.0","","","","false","","","","","","","","","","533.7000000476837","","259.10000002384186","","0","1","arrowleft","0","arrowleft","[0.675,0.325,0.85,0.15]","","",""
"sailing-trial","100","649657","0.0-11.0-55.0","","","","false","","","","","","","","","","null","","775.5","","3","0","null","null","arrowup","[0.675,0.325,0.85,0.15]","","",""
"sailing-trial","101","653140","0.0-11.0-56.0","","","","false","","","","","","","","","","522","","33.200000047683716","","0","1","arrowleft","0","arrowleft","[0.675,0.325,0.85,0.15]","","",""
"sailing-trial","102","655736","0.0-11.0-57.0","","","","false","","","","","","","","","","null","","843.3000000715256","","3","1","null","null","arrowup","[0.675,0.325,0.85,0.15]","","",""
"sailing-trial","103","659882","0.0-11.0-58.0","","","","false","","","","","","","","","","452.7000000476837","","938.7999999523163","","0","1","arrowleft","0","arrowleft","[0.675,0.325,0.85,0.15]","","",""
"sailing-trial","104","662414","0.0-11.0-59.0","","","","false","","","","","","","","","","null","","824.6999999284744","","0","1","null","null","arrowup","[0.675,0.325,0.85,0.15]","","",""
"sailing-trial","105","665367","0.0-11.0-60.0","","","","false","","","","","","","","","","531.8000000715256","","145.70000004768372","","0","0","arrowleft","0","arrowleft","[0.675,0.325,0.85,0.15]","","",""
"sailing-trial","106","667410","0.0-11.0-61.0","","","","false","","","","","","","","","","null","","813.2999999523163","","3","0","null","null","arrowup","[0.675,0.325,0.85,0.15]","","",""
"sailing-trial","107","671222","0.0-11.0-62.0","","","","false","","","","","","","","","","506","","546.2999999523163","","0","1","arrowleft","0","arrowleft","[0.675,0.325,0.85,0.15]","","",""
"sailing-trial","108","673735","0.0-11.0-63.0","","","","false","","","","","","","","","","null","","847.3999999761581","","0","1","null","null","arrowup","[0.675,0.325,0.85,0.15]","","",""
"sailing-trial","109","676845","0.0-11.0-64.0","","","","false","","","","","","","","","","505.7999999523163","","338.60000002384186","","0","0","arrowleft","0","arrowleft","[0.675,0.325,0.85,0.15]","","",""
"sailing-trial","110","679462","0.0-11.0-65.0","","","","false","","","","","","","","","","null","","903.3000000715256","","0","1","null","null","arrowup","[0.675,0.325,0.85,0.15]","","",""
"sailing-trial","111","682975","0.0-11.0-66.0","","","","false","","","","","","","","","","498.59999990463257","","218.5","","0","1","arrowleft","0","arrowleft","[0.675,0.325,0.85,0.15]","","",""
"sailing-trial","112","685657","0.0-11.0-67.0","","","","false","","","","","","","","","","null","","841.7999999523163","","0","1","null","null","arrowup","[0.675,0.325,0.85,0.15]","","",""
"sailing-trial","113","688871","0.0-11.0-68.0","","","","false","","","","","","","","","","406.5","","42","","0","1","arrowleft","0","arrowleft","[0.675,0.325,0.85,0.15]","","",""
"sailing-trial","114","691055","0.0-11.0-69.0","","","","false","","","","","","","","","","null","","950.5","","1","0","null","null","arrowup","[0.675,0.325,0.85,0.15]","","",""
"sailing-trial","115","694856","0.0-11.0-70.0","","","","false","","","","","","","","","","581.5","","104.10000002384186","","0","0","arrowleft","0","arrowleft","[0.325,0.675,0.15,0.85]","","",""
"sailing-trial","116","699393","0.0-11.0-71.0","","","","false","","","","","","","","","","null","","2712.2000000476837","","2","1","null","null","arrowup","[0.325,0.675,0.15,0.85]","","",""
"sailing-trial","117","702443","0.0-11.0-72.0","","","","false","","","","","","","","","","410.89999997615814","","95.79999995231628","","2","0","arrowright","1","arrowleft","[0.325,0.675,0.15,0.85]","","",""
"sailing-trial","118","704937","0.0-11.0-73.0","","","","false","","","","","","","","","","null","","902.3999999761581","","0","0","null","null","arrowup","[0.325,0.675,0.15,0.85]","","",""
"sailing-trial","119","708274","0.0-11.0-74.0","","","","false","","","","","","","","","","461.40000009536743","","355.2999999523163","","0","0","arrowleft","0","arrowleft","[0.325,0.675,0.15,0.85]","","",""
"sailing-trial","120","710373","0.0-11.0-75.0","","","","false","","","","","","","","","","null","","837.6000000238419","","3","0","null","null","arrowup","[0.325,0.675,0.15,0.85]","","",""
"sailing-trial","121","714177","0.0-11.0-76.0","","","","false","","","","","","","","","","393.7999999523163","","992","","0","0","arrowleft","0","arrowleft","[0.325,0.675,0.15,0.85]","","",""
"sailing-trial","122","718176","0.0-11.0-77.0","","","","false","","","","","","","","","","null","","2283.5","","1","0","null","null","arrowup","[0.325,0.675,0.15,0.85]","","",""
"sailing-trial","123","722170","0.0-11.0-78.0","","","","false","","","","","","","","","","1040.5999999046326","","44.10000002384186","","1","1","arrowleft","0","arrowright","[0.325,0.675,0.15,0.85]","","",""
"sailing-trial","124","725101","0.0-11.0-79.0","","","","false","","","","","","","","","","null","","1143.8000000715256","","1","1","null","null","arrowup","[0.325,0.675,0.15,0.85]","","",""
"sailing-trial","125","728205","0.0-11.0-80.0","","","","false","","","","","","","","","","557","","313.8000000715256","","1","0","arrowleft","0","arrowright","[0.325,0.675,0.15,0.85]","","",""
"sailing-trial","126","730510","0.0-11.0-81.0","","","","false","","","","","","","","","","null","","1001.7000000476837","","3","0","null","null","arrowup","[0.325,0.675,0.15,0.85]","","",""
"sailing-trial","127","733783","0.0-11.0-82.0","","","","false","","","","","","","","","","527.7000000476837","","368.7000000476837","","1","0","arrowleft","0","arrowright","[0.325,0.675,0.15,0.85]","","",""
"sailing-trial","128","736690","0.0-11.0-83.0","","","","false","","","","","","","","","","null","","988.8999999761581","","1","1","null","null","arrowup","[0.325,0.675,0.15,0.85]","","",""
"sailing-trial","129","740718","0.0-11.0-84.0","","","","false","","","","","","","","","","493.89999997615814","","480.3000000715256","","1","1","arrowleft","0","arrowright","[0.325,0.675,0.15,0.85]","","",""
"sailing-trial","130","743048","0.0-11.0-85.0","","","","false","","","","","","","","","","null","","967.0999999046326","","2","0","null","null","arrowup","[0.325,0.675,0.15,0.85]","","",""
"sailing-trial","131","747047","0.0-11.0-86.0","","","","false","","","","","","","","","","575.3000000715256","","380.7000000476837","","0","1","arrowleft","0","arrowleft","[0.325,0.675,0.15,0.85]","","",""
"sailing-trial","132","749677","0.0-11.0-87.0","","","","false","","","","","","","","","","null","","780.8000000715256","","1","1","null","null","arrowup","[0.325,0.675,0.15,0.85]","","",""
"sailing-trial","133","755134","0.0-11.0-88.0","","","","false","","","","","","","","","","2133.5","","975.1999999284744","","0","0","arrowleft","0","arrowleft","[0.325,0.675,0.15,0.85]","","",""
"sailing-trial","134","757389","0.0-11.0-89.0","","","","false","","","","","","","","","","null","","818.2000000476837","","0","0","null","null","arrowup","[0.325,0.675,0.15,0.85]","","",""
"sailing-trial","135","760608","0.0-11.0-90.0","","","","false","","","","","","","","","","509.39999997615814","","52.700000047683716","","0","0","arrowleft","0","arrowleft","[0.15,0.85,0.325,0.675]","","",""
"sailing-trial","136","762987","0.0-11.0-91.0","","","","false","","","","","","","","","","null","","1141.6000000238419","","3","0","null","null","arrowup","[0.15,0.85,0.325,0.675]","","",""
"sailing-trial","137","766677","0.0-11.0-92.0","","","","false","","","","","","","","","","708.1000000238419","","314.7999999523163","","1","1","arrowleft","0","arrowright","[0.15,0.85,0.325,0.675]","","",""
"sailing-trial","138","768708","0.0-11.0-93.0","","","","false","","","","","","","","","","null","","876.5","","2","0","null","null","arrowup","[0.15,0.85,0.325,0.675]","","",""
"sailing-trial","139","772536","0.0-11.0-94.0","","","","false","","","","","","","","","","731.1999999284744","","281.1999999284744","","1","1","arrowleft","0","arrowright","[0.15,0.85,0.325,0.675]","","",""
"sailing-trial","140","775151","0.0-11.0-95.0","","","","false","","","","","","","","","","null","","861","","1","1","null","null","arrowup","[0.15,0.85,0.325,0.675]","","",""
"sailing-trial","141","778980","0.0-11.0-96.0","","","","false","","","","","","","","","","596","","383","","1","1","arrowleft","0","arrowright","[0.15,0.85,0.325,0.675]","","",""
"sailing-trial","142","781295","0.0-11.0-97.0","","","","false","","","","","","","","","","null","","737","","2","1","null","null","arrowup","[0.15,0.85,0.325,0.675]","","",""
"sailing-trial","143","784743","0.0-11.0-98.0","","","","false","","","","","","","","","","455.89999997615814","","387.39999997615814","","1","1","arrowleft","0","arrowright","[0.15,0.85,0.325,0.675]","","",""
"sailing-trial","144","786704","0.0-11.0-99.0","","","","false","","","","","","","","","","null","","707.2999999523163","","3","0","null","null","arrowup","[0.15,0.85,0.325,0.675]","","",""
"sailing-trial","145","790121","0.0-11.0-100.0","","","","false","","","","","","","","","","394.39999997615814","","27.600000023841858","","1","1","arrowleft","0","arrowright","[0.15,0.85,0.325,0.675]","","",""
"sailing-trial","146","792046","0.0-11.0-101.0","","","","false","","","","","","","","","","null","","861.7999999523163","","2","0","null","null","arrowup","[0.15,0.85,0.325,0.675]","","",""
"sailing-trial","147","795766","0.0-11.0-102.0","","","","false","","","","","","","","","","511.7999999523163","","349.2000000476837","","1","1","arrowleft","0","arrowright","[0.15,0.85,0.325,0.675]","","",""
"sailing-trial","148","798446","0.0-11.0-103.0","","","","false","","","","","","","","","","null","","833.5999999046326","","3","1","null","null","arrowup","[0.15,0.85,0.325,0.675]","","",""
"sailing-trial","149","802175","0.0-11.0-104.0","","","","false","","","","","","","","","","445.39999997615814","","361.1999999284744","","1","1","arrowleft","0","arrowright","[0.15,0.85,0.325,0.675]","","",""
"sailing-trial","150","803880","0.0-11.0-105.0","","","","false","","","","","","","","","","null","","639.7000000476837","","0","0","null","null","arrowup","[0.15,0.85,0.325,0.675]","","",""
"sailing-trial","151","807586","0.0-11.0-106.0","","","","false","","","","","","","","","","523.6000000238419","","385","","1","1","arrowleft","0","arrowright","[0.15,0.85,0.325,0.675]","","",""
"sailing-trial","152","810150","0.0-11.0-107.0","","","","false","","","","","","","","","","null","","819.1000000238419","","3","1","null","null","arrowup","[0.15,0.85,0.325,0.675]","","",""
"sailing-trial","153","814262","0.0-11.0-108.0","","","","false","","","","","","","","","","438.6999999284744","","823.8999999761581","","1","1","arrowleft","0","arrowright","[0.325,0.675,0.15,0.85]","","",""
"sailing-trial","154","816644","0.0-11.0-109.0","","","","false","","","","","","","","","","null","","720.2000000476837","","1","1","null","null","arrowup","[0.325,0.675,0.15,0.85]","","",""
"sailing-trial","155","820256","0.0-11.0-110.0","","","","false","","","","","","","","","","368.10000002384186","","478","","1","1","arrowleft","0","arrowright","[0.325,0.675,0.15,0.85]","","",""
"sailing-trial","156","822622","0.0-11.0-111.0","","","","false","","","","","","","","","","null","","630.9000000953674","","0","1","null","null","arrowup","[0.325,0.675,0.15,0.85]","","",""
"sailing-trial","157","825961","0.0-11.0-112.0","","","","false","","","","","","","","","","397.2000000476837","","405.2000000476837","","1","0","arrowleft","0","arrowright","[0.325,0.675,0.15,0.85]","","",""
"sailing-trial","158","828517","0.0-11.0-113.0","","","","false","","","","","","","","","","null","","813.3999999761581","","1","1","null","null","arrowup","[0.325,0.675,0.15,0.85]","","",""
"sailing-trial","159","832429","0.0-11.0-114.0","","","","false","","","","","","","","","","487","","412.7000000476837","","1","1","arrowleft","0","arrowright","[0.325,0.675,0.15,0.85]","","",""
"sailing-trial","160","834926","0.0-11.0-115.0","","","","false","","","","","","","","","","null","","886.0999999046326","","0","1","null","null","arrowup","[0.325,0.675,0.15,0.85]","","",""
"sailing-trial","161","838455","0.0-11.0-116.0","","","","false","","","","","","","","","","485.90000009536743","","384.40000009536743","","1","1","arrowleft","0","arrowright","[0.325,0.675,0.15,0.85]","","",""
"sailing-trial","162","841020","0.0-11.0-117.0","","","","false","","","","","","","","","","null","","840.2999999523163","","1","1","null","null","arrowup","[0.325,0.675,0.15,0.85]","","",""
"sailing-trial","163","844201","0.0-11.0-118.0","","","","false","","","","","","","","","","317","","6.899999976158142","","1","1","arrowleft","0","arrowright","[0.325,0.675,0.15,0.85]","","",""
"sailing-trial","164","846431","0.0-11.0-119.0","","","","false","","","","","","","","","","null","","586.3999999761581","","1","1","null","null","arrowup","[0.325,0.675,0.15,0.85]","","",""
"sailing-trial","165","849928","0.0-11.0-120.0","","","","false","","","","","","","","","","375.5","","487.60000002384186","","1","1","arrowleft","0","arrowright","[0.325,0.675,0.15,0.85]","","",""
"sailing-trial","166","852791","0.0-11.0-121.0","","","","false","","","","","","","","","","null","","1195.8000000715256","","2","1","null","null","arrowup","[0.325,0.675,0.15,0.85]","","",""
"sailing-trial","167","855828","0.0-11.0-122.0","","","","false","","","","","","","","","","536.3000000715256","","316.90000009536743","","1","0","arrowleft","0","arrowright","[0.325,0.675,0.15,0.85]","","",""
"sailing-trial","168","858404","0.0-11.0-123.0","","","","false","","","","","","","","","","null","","882.8999999761581","","3","1","null","null","arrowup","[0.325,0.675,0.15,0.85]","","",""
"sailing-trial","169","861849","0.0-11.0-124.0","","","","false","","","","","","","","","","300.89999997615814","","226.70000004768372","","1","1","arrowleft","0","arrowright","[0.15,0.85,0.325,0.675]","","",""
"sailing-trial","170","863943","0.0-11.0-125.0","","","","false","","","","","","","","","","null","","777.5","","2","0","null","null","arrowup","[0.15,0.85,0.325,0.675]","","",""
"sailing-trial","171","867609","0.0-11.0-126.0","","","","false","","","","","","","","","","497.09999990463257","","196.69999992847443","","1","1","arrowleft","0","arrowright","[0.15,0.85,0.325,0.675]","","",""
"sailing-trial","172","869941","0.0-11.0-127.0","","","","false","","","","","","","","","","null","","778.2999999523163","","1","1","null","null","arrowup","[0.15,0.85,0.325,0.675]","","",""
"sailing-trial","173","873103","0.0-11.0-128.0","","","","false","","","","","","","","","","272.39999997615814","","179.60000002384186","","1","1","arrowleft","0","arrowright","[0.15,0.85,0.325,0.675]","","",""
"sailing-trial","174","875175","0.0-11.0-129.0","","","","false","","","","","","","","","","null","","854.0999999046326","","0","0","null","null","arrowup","[0.15,0.85,0.325,0.675]","","",""
"sailing-trial","175","878382","0.0-11.0-130.0","","","","false","","","","","","","","","","360.10000002384186","","71.60000002384186","","1","1","arrowleft","0","arrowright","[0.15,0.85,0.325,0.675]","","",""
"sailing-trial","176","882024","0.0-11.0-131.0","","","","false","","","","","","","","","","null","","1954.7000000476837","","1","1","null","null","arrowup","[0.15,0.85,0.325,0.675]","","",""
"sailing-trial","177","885140","0.0-11.0-132.0","","","","false","","","","","","","","","","245.10000002384186","","230.69999992847443","","1","1","arrowleft","0","arrowright","[0.15,0.85,0.325,0.675]","","",""
"sailing-trial","178","887624","0.0-11.0-133.0","","","","false","","","","","","","","","","null","","727.8000000715256","","3","1","null","null","arrowup","[0.15,0.85,0.325,0.675]","","",""
"sailing-trial","179","890852","0.0-11.0-134.0","","","","false","","","","","","","","","","298.60000002384186","","186.10000002384186","","1","1","arrowleft","0","arrowright","[0.15,0.85,0.325,0.675]","","",""
"sailing-trial","180","893367","0.0-11.0-135.0","","","","false","","","","","","","","","","null","","849.4000000953674","","1","1","null","null","arrowup","[0.15,0.85,0.325,0.675]","","",""
"sailing-trial","181","896764","0.0-11.0-136.0","","","","false","","","","","","","","","","388.3000000715256","","225.89999997615814","","1","1","arrowleft","0","arrowright","[0.15,0.85,0.325,0.675]","","",""
"sailing-trial","182","898709","0.0-11.0-137.0","","","","false","","","","","","","","","","null","","834.1999999284744","","3","0","null","null","arrowup","[0.15,0.85,0.325,0.675]","","",""
"sailing-trial","183","902274","0.0-11.0-138.0","","","","false","","","","","","","","","","586.5","","198.5","","1","1","arrowleft","0","arrowright","[0.15,0.85,0.325,0.675]","","",""
"sailing-trial","184","904789","0.0-11.0-139.0","","","","false","","","","","","","","","","null","","905.1000000238419","","2","1","null","null","arrowup","[0.15,0.85,0.325,0.675]","","",""
"sailing-trial","185","907714","0.0-11.0-140.0","","","","false","","","","","","","","","","507.59999990463257","","219","","1","0","arrowleft","0","arrowright","[0.675,0.325,0.85,0.15]","","",""
"sailing-trial","186","909841","0.0-11.0-141.0","","","","false","","","","","","","","","","null","","922.3000000715256","","0","0","null","null","arrowup","[0.675,0.325,0.85,0.15]","","",""
"sailing-trial","187","913896","0.0-11.0-142.0","","","","false","","","","","","","","","","669.1999999284744","","438","","0","1","arrowleft","0","arrowleft","[0.675,0.325,0.85,0.15]","","",""
"sailing-trial","188","916509","0.0-11.0-143.0","","","","false","","","","","","","","","","null","","954.8999999761581","","0","1","null","null","arrowup","[0.675,0.325,0.85,0.15]","","",""
"sailing-trial","189","920208","0.0-11.0-144.0","","","","false","","","","","","","","","","547.6000000238419","","273","","0","1","arrowleft","0","arrowleft","[0.675,0.325,0.85,0.15]","","",""
"sailing-trial","190","922722","0.0-11.0-145.0","","","","false","","","","","","","","","","null","","878.4000000953674","","0","1","null","null","arrowup","[0.675,0.325,0.85,0.15]","","",""
"sailing-trial","191","926034","0.0-11.0-146.0","","","","false","","","","","","","","","","439.09999990463257","","267.8000000715256","","0","1","arrowleft","0","arrowleft","[0.675,0.325,0.85,0.15]","","",""
"sailing-trial","192","928350","0.0-11.0-147.0","","","","false","","","","","","","","","","null","","626.2000000476837","","2","1","null","null","arrowup","[0.675,0.325,0.85,0.15]","","",""
"sailing-trial","193","932245","0.0-11.0-148.0","","","","false","","","","","","","","","","526.5","","636.8000000715256","","0","1","arrowleft","0","arrowleft","[0.675,0.325,0.85,0.15]","","",""
"sailing-trial","194","934434","0.0-11.0-149.0","","","","false","","","","","","","","","","null","","948.6000000238419","","1","0","null","null","arrowup","[0.675,0.325,0.85,0.15]","","",""
"sailing-trial","195","937990","0.0-11.0-150.0","","","","false","","","","","","","","","","683.3999999761581","","143.10000002384186","","0","1","arrowleft","0","arrowleft","[0.675,0.325,0.85,0.15]","","",""
"sailing-trial","196","940502","0.0-11.0-151.0","","","","false","","","","","","","","","","null","","773.6000000238419","","1","1","null","null","arrowup","[0.675,0.325,0.85,0.15]","","",""
"sailing-trial","197","943441","0.0-11.0-152.0","","","","false","","","","","","","","","","400","","298.39999997615814","","0","0","arrowleft","0","arrowleft","[0.675,0.325,0.85,0.15]","","",""
"sailing-trial","198","945699","0.0-11.0-153.0","","","","false","","","","","","","","","","null","","1136.3999999761581","","3","0","null","null","arrowup","[0.675,0.325,0.85,0.15]","","",""
"sailing-trial","199","948554","0.0-11.0-154.0","","","","false","","","","","","","","","","449.7000000476837","","66.10000002384186","","0","0","arrowleft","0","arrowleft","[0.675,0.325,0.85,0.15]","","",""
"sailing-trial","200","951709","0.0-11.0-155.0","","","","false","","","","","","","","","","null","","937.8999999761581","","0","1","null","null","arrowup","[0.675,0.325,0.85,0.15]","","",""
"sailing-trial","201","954580","0.0-11.0-156.0","","","","false","","","","","","","","","","470","","169.09999990463257","","0","0","arrowleft","0","arrowleft","[0.675,0.325,0.85,0.15]","","",""
"sailing-trial","202","957070","0.0-11.0-157.0","","","","false","","","","","","","","","","null","","822.3999999761581","","0","1","null","null","arrowup","[0.675,0.325,0.85,0.15]","","",""
"sailing-trial","203","959762","0.0-11.0-158.0","","","","false","","","","","","","","","","350.6999999284744","","51.199999928474426","","3","0","arrowright","1","arrowright","[0.675,0.325,0.85,0.15]","","",""
"sailing-trial","204","962633","0.0-11.0-159.0","","","","false","","","","","","","","","","null","","1074.6999999284744","","1","1","null","null","arrowup","[0.675,0.325,0.85,0.15]","","",""
"sailing-trial","205","965490","0.0-11.0-160.0","","","","false","","","","","","","","","","430.59999990463257","","217.90000009536743","","1","0","arrowleft","0","arrowright","[0.675,0.325,0.85,0.15]","","",""
"sailing-trial","206","968042","0.0-11.0-161.0","","","","false","","","","","","","","","","null","","1011.6000000238419","","2","1","null","null","arrowup","[0.675,0.325,0.85,0.15]","","",""
"sailing-trial","207","971356","0.0-11.0-162.0","","","","false","","","","","","","","","","361.2000000476837","","184.29999995231628","","2","1","arrowright","1","arrowleft","[0.675,0.325,0.85,0.15]","","",""
"sailing-trial","208","973631","0.0-11.0-163.0","","","","false","","","","","","","","","","null","","912.8999999761581","","3","0","null","null","arrowup","[0.675,0.325,0.85,0.15]","","",""
"sailing-trial","209","977067","0.0-11.0-164.0","","","","false","","","","","","","","","","528.6000000238419","","246.29999995231628","","2","1","arrowright","1","arrowleft","[0.85,0.15,0.675,0.325]","","",""
"sailing-trial","210","979373","0.0-11.0-165.0","","","","false","","","","","","","","","","null","","917.2999999523163","","1","0","null","null","arrowup","[0.85,0.15,0.675,0.325]","","",""
"sailing-trial","211","982547","0.0-11.0-166.0","","","","false","","","","","","","","","","518.2000000476837","","273.5","","2","0","arrowright","1","arrowleft","[0.85,0.15,0.675,0.325]","","",""
"sailing-trial","212","984814","0.0-11.0-167.0","","","","false","","","","","","","","","","null","","942.7000000476837","","1","0","null","null","arrowup","[0.85,0.15,0.675,0.325]","","",""
"sailing-trial","213","988439","0.0-11.0-168.0","","","","false","","","","","","","","","","491.39999997615814","","307.90000009536743","","2","1","arrowright","1","arrowleft","[0.85,0.15,0.675,0.325]","","",""
"sailing-trial","214","990720","0.0-11.0-169.0","","","","false","","","","","","","","","","null","","628.5","","2","1","null","null","arrowup","[0.85,0.15,0.675,0.325]","","",""
"sailing-trial","215","994118","0.0-11.0-170.0","","","","false","","","","","","","","","","453.60000002384186","","237.60000002384186","","2","1","arrowright","1","arrowleft","[0.85,0.15,0.675,0.325]","","",""
"sailing-trial","216","996532","0.0-11.0-171.0","","","","false","","","","","","","","","","null","","538.8000000715256","","2","1","null","null","arrowup","[0.85,0.15,0.675,0.325]","","",""
"sailing-trial","217","999927","0.0-11.0-172.0","","","","false","","","","","","","","","","544.8000000715256","","183.89999997615814","","2","1","arrowright","1","arrowleft","[0.85,0.15,0.675,0.325]","","",""
"sailing-trial","218","1002002","0.0-11.0-173.0","","","","false","","","","","","","","","","null","","935","","2","0","null","null","arrowup","[0.85,0.15,0.675,0.325]","","",""
"sailing-trial","219","1005456","0.0-11.0-174.0","","","","false","","","","","","","","","","522.9000000953674","","312.5","","2","1","arrowright","1","arrowleft","[0.85,0.15,0.675,0.325]","","",""
"sailing-trial","220","1007575","0.0-11.0-175.0","","","","false","","","","","","","","","","null","","860.2999999523163","","1","0","null","null","arrowup","[0.85,0.15,0.675,0.325]","","",""
"sailing-trial","221","1010479","0.0-11.0-176.0","","","","false","","","","","","","","","","474.10000002384186","","122.09999990463257","","2","0","arrowright","1","arrowleft","[0.85,0.15,0.675,0.325]","","",""
"sailing-trial","222","1013046","0.0-11.0-177.0","","","","false","","","","","","","","","","null","","890.3000000715256","","0","1","null","null","arrowup","[0.85,0.15,0.675,0.325]","","",""
"sailing-trial","223","1016128","0.0-11.0-178.0","","","","false","","","","","","","","","","371.39999997615814","","44.09999990463257","","2","1","arrowright","1","arrowleft","[0.85,0.15,0.675,0.325]","","",""
"sailing-trial","224","1018118","0.0-11.0-179.0","","","","false","","","","","","","","","","null","","773.3999999761581","","1","0","null","null","arrowup","[0.85,0.15,0.675,0.325]","","",""
"sailing-trial","225","1021490","0.0-11.0-180.0","","","","false","","","","","","","","","","535.6000000238419","","174.29999995231628","","2","1","arrowright","1","arrowleft","[0.85,0.15,0.675,0.325]","","",""
"sailing-trial","226","1023456","0.0-11.0-181.0","","","","false","","","","","","","","","","null","","630","","0","0","null","null","arrowup","[0.85,0.15,0.675,0.325]","","",""
"sailing-trial","227","1026746","0.0-11.0-182.0","","","","false","","","","","","","","","","559.5","","429.89999997615814","","2","0","arrowright","1","arrowleft","[0.85,0.15,0.675,0.325]","","",""
"sailing-trial","228","1028759","0.0-11.0-183.0","","","","false","","","","","","","","","","null","","863.7000000476837","","2","0","null","null","arrowup","[0.85,0.15,0.675,0.325]","","",""
"sailing-trial","229","1032345","0.0-11.0-184.0","","","","false","","","","","","","","","","493","","331.7999999523163","","0","1","arrowleft","0","arrowleft","[0.675,0.325,0.85,0.15]","","",""
"sailing-trial","230","1034218","0.0-11.0-185.0","","","","false","","","","","","","","","","null","","749.3999999761581","","3","0","null","null","arrowup","[0.675,0.325,0.85,0.15]","","",""
"sailing-trial","231","1037474","0.0-11.0-186.0","","","","false","","","","","","","","","","477.5","","211.5","","0","1","arrowleft","0","arrowleft","[0.675,0.325,0.85,0.15]","","",""
"sailing-trial","232","1039482","0.0-11.0-187.0","","","","false","","","","","","","","","","null","","556.1999999284744","","3","0","null","null","arrowup","[0.675,0.325,0.85,0.15]","","",""
"sailing-trial","233","1042735","0.0-11.0-188.0","","","","false","","","","","","","","","","464.2999999523163","","184.20000004768372","","0","1","arrowleft","0","arrowleft","[0.675,0.325,0.85,0.15]","","",""
"sailing-trial","234","1044802","0.0-11.0-189.0","","","","false","","","","","","","","","","null","","623.2000000476837","","3","0","null","null","arrowup","[0.675,0.325,0.85,0.15]","","",""
"sailing-trial","235","1047996","0.0-11.0-190.0","","","","false","","","","","","","","","","431.90000009536743","","51","","0","1","arrowleft","0","arrowleft","[0.675,0.325,0.85,0.15]","","",""
"sailing-trial","236","1049771","0.0-11.0-191.0","","","","false","","","","","","","","","","null","","708.8000000715256","","3","0","null","null","arrowup","[0.675,0.325,0.85,0.15]","","",""
"sailing-trial","237","1053175","0.0-11.0-192.0","","","","false","","","","","","","","","","395.6999999284744","","30.200000047683716","","0","1","arrowleft","0","arrowleft","[0.675,0.325,0.85,0.15]","","",""
"sailing-trial","238","1055772","0.0-11.0-193.0","","","","false","","","","","","","","","","null","","767.1000000238419","","2","1","null","null","arrowup","[0.675,0.325,0.85,0.15]","","",""
"sailing-trial","239","1059102","0.0-11.0-194.0","","","","false","","","","","","","","","","383.2999999523163","","136.60000002384186","","0","1","arrowleft","0","arrowleft","[0.675,0.325,0.85,0.15]","","",""
"sailing-trial","240","1060855","0.0-11.0-195.0","","","","false","","","","","","","","","","null","","688","","2","0","null","null","arrowup","[0.675,0.325,0.85,0.15]","","",""
"sailing-trial","241","1063932","0.0-11.0-196.0","","","","false","","","","","","","","","","544.7999999523163","","279.1999999284744","","0","0","arrowleft","0","arrowleft","[0.675,0.325,0.85,0.15]","","",""
"sailing-trial","242","1065823","0.0-11.0-197.0","","","","false","","","","","","","","","","null","","762.5","","1","0","null","null","arrowup","[0.675,0.325,0.85,0.15]","","",""
"sailing-trial","243","1069682","0.0-11.0-198.0","","","","false","","","","","","","","","","525.8000000715256","","1082","","1","0","arrowleft","0","arrowright","[0.675,0.325,0.85,0.15]","","",""
"sailing-trial","244","1071642","0.0-11.0-199.0","","","","false","","","","","","","","","","null","","740.3999999761581","","3","0","null","null","arrowup","[0.675,0.325,0.85,0.15]","","",""
"sailing-trial","245","1075368","0.0-11.0-200.0","","","","false","","","","","","","","","","411","","500.2999999523163","","0","1","arrowleft","0","arrowleft","[0.675,0.325,0.85,0.15]","","",""
"sailing-trial","246","1077137","0.0-11.0-201.0","","","","false","","","","","","","","","","null","","745.6000000238419","","2","0","null","null","arrowup","[0.675,0.325,0.85,0.15]","","",""
"sailing-trial","247","1080648","0.0-11.0-202.0","","","","false","","","","","","","","","","534.4000000953674","","224.39999997615814","","0","1","arrowleft","0","arrowleft","[0.325,0.675,0.15,0.85]","","",""
"sailing-trial","248","1082771","0.0-11.0-203.0","","","","false","","","","","","","","","","null","","956.2000000476837","","2","0","null","null","arrowup","[0.325,0.675,0.15,0.85]","","",""
"sailing-trial","249","1085616","0.0-11.0-204.0","","","","false","","","","","","","","","","448.10000002384186","","300.8000000715256","","0","0","arrowleft","0","arrowleft","[0.325,0.675,0.15,0.85]","","",""
"sailing-trial","250","1087794","0.0-11.0-205.0","","","","false","","","","","","","","","","null","","1145.8999999761581","","0","0","null","null","arrowup","[0.325,0.675,0.15,0.85]","","",""
"sailing-trial","251","1091104","0.0-11.0-206.0","","","","false","","","","","","","","","","513.2999999523163","","153.10000002384186","","3","1","arrowright","1","arrowright","[0.325,0.675,0.15,0.85]","","",""
"sailing-trial","252","1092972","0.0-11.0-207.0","","","","false","","","","","","","","","","null","","787.6999999284744","","2","0","null","null","arrowup","[0.325,0.675,0.15,0.85]","","",""
"sailing-trial","253","1096399","0.0-11.0-208.0","","","","false","","","","","","","","","","426","","199.79999995231628","","3","1","arrowright","1","arrowright","[0.325,0.675,0.15,0.85]","","",""
"sailing-trial","254","1098635","0.0-11.0-209.0","","","","false","","","","","","","","","","null","","974.3999999761581","","1","0","null","null","arrowup","[0.325,0.675,0.15,0.85]","","",""
"sailing-trial","255","1102158","0.0-11.0-210.0","","","","false","","","","","","","","","","593.7000000476837","","355.6999999284744","","3","1","arrowright","1","arrowright","[0.325,0.675,0.15,0.85]","","",""
"sailing-trial","256","1103988","0.0-11.0-211.0","","","","false","","","","","","","","","","null","","575.3000000715256","","3","0","null","null","arrowup","[0.325,0.675,0.15,0.85]","","",""
"sailing-trial","257","1107587","0.0-11.0-212.0","","","","false","","","","","","","","","","642.6000000238419","","213.89999997615814","","3","1","arrowright","1","arrowright","[0.325,0.675,0.15,0.85]","","",""
"sailing-trial","258","1110119","0.0-11.0-213.0","","","","false","","","","","","","","","","null","","960.2999999523163","","1","1","null","null","arrowup","[0.325,0.675,0.15,0.85]","","",""
"sailing-trial","259","1113215","0.0-11.0-214.0","","","","false","","","","","","","","","","125.70000004768372","","282.7000000476837","","3","1","arrowright","1","arrowright","[0.325,0.675,0.15,0.85]","","",""
"sailing-trial","260","1114984","0.0-11.0-215.0","","","","false","","","","","","","","","","null","","517.6000000238419","","2","0","null","null","arrowup","[0.325,0.675,0.15,0.85]","","",""
"sailing-trial","261","1117944","0.0-11.0-216.0","","","","false","","","","","","","","","","254.5","","24.600000023841858","","3","1","arrowright","1","arrowright","[0.325,0.675,0.15,0.85]","","",""
"sailing-trial","262","1120692","0.0-11.0-217.0","","","","false","","","","","","","","","","null","","825.6999999284744","","0","1","null","null","arrowup","[0.325,0.675,0.15,0.85]","","",""
"sailing-trial","263","1123772","0.0-11.0-218.0","","","","false","","","","","","","","","","200.5","","80.60000002384186","","3","1","arrowright","1","arrowright","[0.15,0.85,0.325,0.675]","","",""
"sailing-trial","264","1125719","0.0-11.0-219.0","","","","false","","","","","","","","","","null","","814.8000000715256","","0","0","null","null","arrowup","[0.15,0.85,0.325,0.675]","","",""
"sailing-trial","265","1128851","0.0-11.0-220.0","","","","false","","","","","","","","","","318","","120.29999995231628","","3","1","arrowright","1","arrowright","[0.15,0.85,0.325,0.675]","","",""
"sailing-trial","266","1130848","0.0-11.0-221.0","","","","false","","","","","","","","","","null","","752.2000000476837","","2","0","null","null","arrowup","[0.15,0.85,0.325,0.675]","","",""
"sailing-trial","267","1134094","0.0-11.0-222.0","","","","false","","","","","","","","","","482.10000002384186","","52.5","","3","1","arrowright","1","arrowright","[0.15,0.85,0.325,0.675]","","",""
"sailing-trial","268","1136376","0.0-11.0-223.0","","","","false","","","","","","","","","","null","","394.2999999523163","","1","1","null","null","arrowup","[0.15,0.85,0.325,0.675]","","",""
"sailing-trial","269","1139724","0.0-11.0-224.0","","","","false","","","","","","","","","","240.20000004768372","","266.8000000715256","","3","1","arrowright","1","arrowright","[0.15,0.85,0.325,0.675]","","",""
"sailing-trial","270","1142355","0.0-11.0-225.0","","","","false","","","","","","","","","","null","","730.4000000953674","","1","1","null","null","arrowup","[0.15,0.85,0.325,0.675]","","",""
"sailing-trial","271","1145468","0.0-11.0-226.0","","","","false","","","","","","","","","","303.60000002384186","","172","","3","1","arrowright","1","arrowright","[0.15,0.85,0.325,0.675]","","",""
"sailing-trial","272","1148013","0.0-11.0-227.0","","","","false","","","","","","","","","","null","","794.6999999284744","","1","1","null","null","arrowup","[0.15,0.85,0.325,0.675]","","",""
"sailing-trial","273","1150764","0.0-11.0-228.0","","","","false","","","","","","","","","","283.89999997615814","","309.60000002384186","","3","0","arrowright","1","arrowright","[0.15,0.85,0.325,0.675]","","",""
"sailing-trial","274","1152737","0.0-11.0-229.0","","","","false","","","","","","","","","","null","","882","","2","0","null","null","arrowup","[0.15,0.85,0.325,0.675]","","",""
"sailing-trial","275","1155825","0.0-11.0-230.0","","","","false","","","","","","","","","","390.5","","89.79999995231628","","1","1","arrowleft","0","arrowright","[0.15,0.85,0.325,0.675]","","",""
"sailing-trial","276","1158355","0.0-11.0-231.0","","","","false","","","","","","","","","","null","","746.5","","2","1","null","null","arrowup","[0.15,0.85,0.325,0.675]","","",""
"sailing-trial","277","1161683","0.0-11.0-232.0","","","","false","","","","","","","","","","299.8000000715256","","220","","1","1","arrowleft","0","arrowright","[0.15,0.85,0.325,0.675]","","",""
"sailing-trial","278","1164149","0.0-11.0-233.0","","","","false","","","","","","","","","","null","","706.5","","3","1","null","null","arrowup","[0.15,0.85,0.325,0.675]","","",""
"sailing-trial","279","1167246","0.0-11.0-234.0","","","","false","","","","","","","","","","243.60000002384186","","54.699999928474426","","1","1","arrowleft","0","arrowright","[0.15,0.85,0.325,0.675]","","",""
"sailing-trial","280","1169510","0.0-11.0-235.0","","","","false","","","","","","","","","","null","","647","","1","1","null","null","arrowup","[0.15,0.85,0.325,0.675]","","",""
"sailing-trial","281","1172524","0.0-11.0-236.0","","","","false","","","","","","","","","","188.20000004768372","","136.39999997615814","","1","1","arrowleft","0","arrowright","[0.325,0.675,0.15,0.85]","","",""
"sailing-trial","282","1174503","0.0-11.0-237.0","","","","false","","","","","","","","","","null","","417.2000000476837","","1","1","null","null","arrowup","[0.325,0.675,0.15,0.85]","","",""
"sailing-trial","283","1176987","0.0-11.0-238.0","","","","false","","","","","","","","","","45","","242.89999997615814","","1","0","arrowleft","0","arrowright","[0.325,0.675,0.15,0.85]","","",""
"sailing-trial","284","1178859","0.0-11.0-239.0","","","","false","","","","","","","","","","null","","756.1000000238419","","0","0","null","null","arrowup","[0.325,0.675,0.15,0.85]","","",""
"sailing-trial","285","1182029","0.0-11.0-240.0","","","","false","","","","","","","","","","414.89999997615814","","131.89999997615814","","3","1","arrowright","1","arrowright","[0.325,0.675,0.15,0.85]","","",""
"sailing-trial","286","1183698","0.0-11.0-241.0","","","","false","","","","","","","","","","null","","672.6999999284744","","0","0","null","null","arrowup","[0.325,0.675,0.15,0.85]","","",""
"sailing-trial","287","1186975","0.0-11.0-242.0","","","","false","","","","","","","","","","444.2000000476837","","155.89999997615814","","3","1","arrowright","1","arrowright","[0.325,0.675,0.15,0.85]","","",""
"sailing-trial","288","1189639","0.0-11.0-243.0","","","","false","","","","","","","","","","null","","794.1000000238419","","1","1","null","null","arrowup","[0.325,0.675,0.15,0.85]","","",""
"sailing-trial","289","1192536","0.0-11.0-244.0","","","","false","","","","","","","","","","106.79999995231628","","13","","3","1","arrowright","1","arrowright","[0.325,0.675,0.15,0.85]","","",""
"sailing-trial","290","1194275","0.0-11.0-245.0","","","","false","","","","","","","","","","null","","696.2999999523163","","2","0","null","null","arrowup","[0.325,0.675,0.15,0.85]","","",""
"sailing-trial","291","1197415","0.0-11.0-246.0","","","","false","","","","","","","","","","249.30000007152557","","20.799999952316284","","3","1","arrowright","1","arrowright","[0.325,0.675,0.15,0.85]","","",""
"sailing-trial","292","1199224","0.0-11.0-247.0","","","","false","","","","","","","","","","null","","563.8999999761581","","1","0","null","null","arrowup","[0.325,0.675,0.15,0.85]","","",""
"sailing-trial","293","1202560","0.0-11.0-248.0","","","","false","","","","","","","","","","426.2000000476837","","88.89999997615814","","3","1","arrowright","1","arrowright","[0.325,0.675,0.15,0.85]","","",""
"sailing-trial","294","1204559","0.0-11.0-249.0","","","","false","","","","","","","","","","null","","954.7999999523163","","3","0","null","null","arrowup","[0.325,0.675,0.15,0.85]","","",""
"sailing-trial","295","1207553","0.0-11.0-250.0","","","","false","","","","","","","","","","266.6999999284744","","19.700000047683716","","3","1","arrowright","1","arrowright","[0.325,0.675,0.15,0.85]","","",""
"sailing-trial","296","1209787","0.0-11.0-251.0","","","","false","","","","","","","","","","null","","670.5","","2","1","null","null","arrowup","[0.325,0.675,0.15,0.85]","","",""
"sailing-trial","297","1212237","0.0-11.0-252.0","","","","false","","","","","","","","","","111.10000002384186","","201.69999992847443","","3","0","arrowright","1","arrowright","[0.15,0.85,0.325,0.675]","","",""
"sailing-trial","298","1214897","0.0-11.0-253.0","","","","false","","","","","","","","","","null","","905.2000000476837","","1","1","null","null","arrowup","[0.15,0.85,0.325,0.675]","","",""
"sailing-trial","299","1218177","0.0-11.0-254.0","","","","false","","","","","","","","","","77.80000007152557","","302.7000000476837","","1","1","arrowleft","0","arrowright","[0.15,0.85,0.325,0.675]","","",""
"sailing-trial","300","1220369","0.0-11.0-255.0","","","","false","","","","","","","","","","null","","980.7000000476837","","2","0","null","null","arrowup","[0.15,0.85,0.325,0.675]","","",""
"sailing-trial","301","1223721","0.0-11.0-256.0","","","","false","","","","","","","","","","370.6999999284744","","164.79999995231628","","1","1","arrowleft","0","arrowright","[0.15,0.85,0.325,0.675]","","",""
"sailing-trial","302","1226185","0.0-11.0-257.0","","","","false","","","","","","","","","","null","","884.8999999761581","","2","1","null","null","arrowup","[0.15,0.85,0.325,0.675]","","",""
"sailing-trial","303","1229166","0.0-11.0-258.0","","","","false","","","","","","","","","","283.3000000715256","","103.60000002384186","","1","1","arrowleft","0","arrowright","[0.15,0.85,0.325,0.675]","","",""
"sailing-trial","304","1230931","0.0-11.0-259.0","","","","false","","","","","","","","","","null","","696","","3","0","null","null","arrowup","[0.15,0.85,0.325,0.675]","","",""
"sailing-trial","305","1234261","0.0-11.0-260.0","","","","false","","","","","","","","","","403","","155.59999990463257","","1","1","arrowleft","0","arrowright","[0.15,0.85,0.325,0.675]","","",""
"sailing-trial","306","1237026","0.0-11.0-261.0","","","","false","","","","","","","","","","null","","691.5","","2","1","null","null","arrowup","[0.15,0.85,0.325,0.675]","","",""
"sailing-trial","307","1239958","0.0-11.0-262.0","","","","false","","","","","","","","","","6.899999976158142","","214.60000002384186","","1","1","arrowleft","0","arrowright","[0.15,0.85,0.325,0.675]","","",""
"sailing-trial","308","1241832","0.0-11.0-263.0","","","","false","","","","","","","","","","null","","840.2000000476837","","2","0","null","null","arrowup","[0.15,0.85,0.325,0.675]","","",""
"sailing-trial","309","1244539","0.0-11.0-264.0","","","","false","","","","","","","","","","337.1999999284744","","40.699999928474426","","1","0","arrowleft","0","arrowright","[0.15,0.85,0.325,0.675]","","",""
"sailing-trial","310","1246750","0.0-11.0-265.0","","","","false","","","","","","","","","","null","","825.1000000238419","","2","0","null","null","arrowup","[0.15,0.85,0.325,0.675]","","",""
"sailing-trial","311","1250295","0.0-11.0-266.0","","","","false","","","","","","","","","","732.6999999284744","","55","","1","1","arrowleft","0","arrowright","[0.15,0.85,0.325,0.675]","","",""
"sailing-trial","312","1252659","0.0-11.0-267.0","","","","false","","","","","","","","","","null","","756.1000000238419","","0","0","null","null","arrowup","[0.15,0.85,0.325,0.675]","","",""
"sailing-trial","313","1255727","0.0-11.0-268.0","","","","false","","","","","","","","","","797.6999999284744","","108.5","","1","0","arrowleft","0","arrowright","[0.15,0.85,0.325,0.675]","","",""
"sailing-trial","314","1258116","0.0-11.0-269.0","","","","false","","","","","","","","","","null","","831.6000000238419","","0","0","null","null","arrowup","[0.15,0.85,0.325,0.675]","","",""
"sailing-trial","315","1261103","0.0-11.0-270.0","","","","false","","","","","","","","","","188.89999997615814","","19.100000023841858","","3","1","arrowright","1","arrowright","[0.15,0.85,0.325,0.675]","","",""
"sailing-trial","316","1262955","0.0-11.0-271.0","","","","false","","","","","","","","","","null","","801","","0","0","null","null","arrowup","[0.15,0.85,0.325,0.675]","","",""
"sailing-trial","317","1267222","0.0-11.0-272.0","","","","false","","","","","","","","","","444.89999997615814","","1400.0999999046326","","3","0","arrowright","1","arrowright","[0.15,0.85,0.325,0.675]","","",""
"sailing-trial","318","1269610","0.0-11.0-273.0","","","","false","","","","","","","","","","null","","795.1000000238419","","0","1","null","null","arrowup","[0.15,0.85,0.325,0.675]","","",""
"sailing-trial","319","1272582","0.0-11.0-274.0","","","","false","","","","","","","","","","608.5","","176.79999995231628","","2","0","arrowright","1","arrowleft","[0.325,0.675,0.15,0.85]","","",""
"sailing-trial","320","1275437","0.0-11.0-275.0","","","","false","","","","","","","","","","null","","1302.7999999523163","","0","1","null","null","arrowup","[0.325,0.675,0.15,0.85]","","",""
"sailing-trial","321","1278628","0.0-11.0-276.0","","","","false","","","","","","","","","","467.7000000476837","","442.10000002384186","","0","0","arrowleft","0","arrowleft","[0.325,0.675,0.15,0.85]","","",""
"sailing-trial","322","1280546","0.0-11.0-277.0","","","","false","","","","","","","","","","null","","736.7000000476837","","0","0","null","null","arrowup","[0.325,0.675,0.15,0.85]","","",""
"sailing-trial","323","1283548","0.0-11.0-278.0","","","","false","","","","","","","","","","533.6000000238419","","179.30000007152557","","2","0","arrowright","1","arrowleft","[0.325,0.675,0.15,0.85]","","",""
"sailing-trial","324","1286161","0.0-11.0-279.0","","","","false","","","","","","","","","","null","","984.4000000953674","","0","1","null","null","arrowup","[0.325,0.675,0.15,0.85]","","",""
"sailing-trial","325","1288974","0.0-11.0-280.0","","","","false","","","","","","","","","","315.10000002384186","","61.299999952316284","","0","0","arrowleft","0","arrowleft","[0.325,0.675,0.15,0.85]","","",""
"sailing-trial","326","1291372","0.0-11.0-281.0","","","","false","","","","","","","","","","null","","687.8000000715256","","3","1","null","null","arrowup","[0.325,0.675,0.15,0.85]","","",""
"sailing-trial","327","1294933","0.0-11.0-282.0","","","","false","","","","","","","","","","672.6999999284744","","224.20000004768372","","3","1","arrowright","1","arrowright","[0.325,0.675,0.15,0.85]","","",""
"sailing-trial","328","1297848","0.0-11.0-283.0","","","","false","","","","","","","","","","null","","1043.8999999761581","","3","1","null","null","arrowup","[0.325,0.675,0.15,0.85]","","",""
"sailing-trial","329","1301327","0.0-11.0-284.0","","","","false","","","","","","","","","","627.5999999046326","","169.90000009536743","","3","1","arrowright","1","arrowright","[0.325,0.675,0.15,0.85]","","",""
"sailing-trial","330","1303190","0.0-11.0-285.0","","","","false","","","","","","","","","","null","","614","","2","0","null","null","arrowup","[0.325,0.675,0.15,0.85]","","",""
"sailing-trial","331","1306422","0.0-11.0-286.0","","","","false","","","","","","","","","","471.90000009536743","","124.70000004768372","","3","1","arrowright","1","arrowright","[0.325,0.675,0.15,0.85]","","",""
"sailing-trial","332","1309086","0.0-11.0-287.0","","","","false","","","","","","","","","","null","","1052.3999999761581","","3","1","null","null","arrowup","[0.325,0.675,0.15,0.85]","","",""
"sailing-trial","333","1311984","0.0-11.0-288.0","","","","false","","","","","","","","","","284.7999999523163","","1.399999976158142","","3","1","arrowright","1","arrowright","[0.325,0.675,0.15,0.85]","","",""
"sailing-trial","334","1313840","0.0-11.0-289.0","","","","false","","","","","","","","","","null","","793.6000000238419","","0","0","null","null","arrowup","[0.325,0.675,0.15,0.85]","","",""
"sailing-trial","335","1317128","0.0-11.0-290.0","","","","false","","","","","","","","","","544.2000000476837","","236.5","","3","0","arrowright","1","arrowright","[0.15,0.85,0.325,0.675]","","",""
"sailing-trial","336","1319460","0.0-11.0-291.0","","","","false","","","","","","","","","","null","","788.8999999761581","","1","1","null","null","arrowup","[0.15,0.85,0.325,0.675]","","",""
"sailing-trial","337","1322940","0.0-11.0-292.0","","","","false","","","","","","","","","","54.800000071525574","","185.70000004768372","","3","1","arrowright","1","arrowright","[0.15,0.85,0.325,0.675]","","",""
"sailing-trial","338","1325620","0.0-11.0-293.0","","","","false","","","","","","","","","","null","","821.1000000238419","","3","1","null","null","arrowup","[0.15,0.85,0.325,0.675]","","",""
"sailing-trial","339","1328585","0.0-11.0-294.0","","","","false","","","","","","","","","","63.5","","235.10000002384186","","3","1","arrowright","1","arrowright","[0.15,0.85,0.325,0.675]","","",""
"sailing-trial","340","1331016","0.0-11.0-295.0","","","","false","","","","","","","","","","null","","874.3999999761581","","1","1","null","null","arrowup","[0.15,0.85,0.325,0.675]","","",""
"sailing-trial","341","1333994","0.0-11.0-296.0","","","","false","","","","","","","","","","150.5","","21.5","","3","1","arrowright","1","arrowright","[0.15,0.85,0.325,0.675]","","",""
"sailing-trial","342","1336477","0.0-11.0-297.0","","","","false","","","","","","","","","","null","","859.5","","1","1","null","null","arrowup","[0.15,0.85,0.325,0.675]","","",""
"sailing-trial","343","1338816","0.0-11.0-298.0","","","","false","","","","","","","","","","137.89999997615814","","28.600000023841858","","3","0","arrowright","1","arrowright","[0.15,0.85,0.325,0.675]","","",""
"sailing-trial","344","1341371","0.0-11.0-299.0","","","","false","","","","","","","","","","null","","720.7000000476837","","1","1","null","null","arrowup","[0.15,0.85,0.325,0.675]","","",""
"sailing-trial","345","1344501","0.0-11.0-300.0","","","","false","","","","","","","","","","9.5","","319.10000002384186","","3","1","arrowright","1","arrowright","[0.15,0.85,0.325,0.675]","","",""
"sailing-trial","346","1346590","0.0-11.0-301.0","","","","false","","","","","","","","","","null","","592.8000000715256","","3","0","null","null","arrowup","[0.15,0.85,0.325,0.675]","","",""
"sailing-trial","347","1349530","0.0-11.0-302.0","","","","false","","","","","","","","","","67.39999997615814","","160.5","","3","1","arrowright","1","arrowright","[0.15,0.85,0.325,0.675]","","",""
"sailing-trial","348","1351586","0.0-11.0-303.0","","","","false","","","","","","","","","","null","","797.5","","0","0","null","null","arrowup","[0.15,0.85,0.325,0.675]","","",""
"sailing-trial","349","1354624","0.0-11.0-304.0","","","","false","","","","","","","","","","265.59999990463257","","6.599999904632568","","3","1","arrowright","1","arrowright","[0.15,0.85,0.325,0.675]","","",""
"sailing-trial","350","1356954","0.0-11.0-305.0","","","","false","","","","","","","","","","null","","844.6000000238419","","1","0","null","null","arrowup","[0.15,0.85,0.325,0.675]","","",""
"sailing-trial","351","1360021","0.0-11.0-306.0","","","","false","","","","","","","","","","255.60000002384186","","221","","3","1","arrowright","1","arrowright","[0.15,0.85,0.325,0.675]","","",""
"sailing-trial","352","1362023","0.0-11.0-307.0","","","","false","","","","","","","","","","null","","921.7999999523163","","3","0","null","null","arrowup","[0.15,0.85,0.325,0.675]","","",""
"sailing-trial","353","1365215","0.0-11.0-308.0","","","","false","","","","","","","","","","299.7999999523163","","18.5","","3","1","arrowright","1","arrowright","[0.15,0.85,0.325,0.675]","","",""
"sailing-trial","354","1367027","0.0-11.0-309.0","","","","false","","","","","","","","","","null","","675.6000000238419","","0","0","null","null","arrowup","[0.15,0.85,0.325,0.675]","","",""
"sailing-trial","355","1369758","0.0-11.0-310.0","","","","false","","","","","","","","","","360","","235.39999997615814","","3","0","arrowright","1","arrowright","[0.15,0.85,0.325,0.675]","","",""
"sailing-trial","356","1372340","0.0-11.0-311.0","","","","false","","","","","","","","","","null","","1006","","2","1","null","null","arrowup","[0.15,0.85,0.325,0.675]","","",""
"sailing-trial","357","1374956","0.0-11.0-312.0","","","","false","","","","","","","","","","163.39999997615814","","81.80000007152557","","0","0","arrowleft","0","arrowleft","[0.325,0.675,0.15,0.85]","","",""
"sailing-trial","358","1376797","0.0-11.0-313.0","","","","false","","","","","","","","","","null","","742.5","","2","0","null","null","arrowup","[0.325,0.675,0.15,0.85]","","",""
"sailing-trial","359","1379837","0.0-11.0-314.0","","","","false","","","","","","","","","","562.8000000715256","","184.39999997615814","","1","0","arrowleft","0","arrowright","[0.325,0.675,0.15,0.85]","","",""
"sailing-trial","360","1381759","0.0-11.0-315.0","","","","false","","","","","","","","","","null","","755.6000000238419","","2","0","null","null","arrowup","[0.325,0.675,0.15,0.85]","","",""
"sailing-trial","361","1385327","0.0-11.0-316.0","","","","false","","","","","","","","","","418.3000000715256","","297","","1","1","arrowleft","0","arrowright","[0.325,0.675,0.15,0.85]","","",""
"sailing-trial","362","1387291","0.0-11.0-317.0","","","","false","","","","","","","","","","null","","682.5","","0","0","null","null","arrowup","[0.325,0.675,0.15,0.85]","","",""
"sailing-trial","363","1389905","0.0-11.0-318.0","","","","false","","","","","","","","","","324.3000000715256","","26","","1","0","arrowleft","0","arrowright","[0.325,0.675,0.15,0.85]","","",""
"sailing-trial","364","1392838","0.0-11.0-319.0","","","","false","","","","","","","","","","null","","955.8999999761581","","1","1","null","null","arrowup","[0.325,0.675,0.15,0.85]","","",""
"sailing-trial","365","1395016","0.0-11.0-320.0","","","","false","","","","","","","","","","30.09999990463257","","4","","1","0","arrowleft","0","arrowright","[0.325,0.675,0.15,0.85]","","",""
"sailing-trial","366","1397583","0.0-11.0-321.0","","","","false","","","","","","","","","","null","","947.1000000238419","","3","1","null","null","arrowup","[0.325,0.675,0.15,0.85]","","",""
"sailing-trial","367","1400878","0.0-11.0-322.0","","","","false","","","","","","","","","","191.60000002384186","","312.59999990463257","","3","1","arrowright","1","arrowright","[0.325,0.675,0.15,0.85]","","",""
"sailing-trial","368","1402909","0.0-11.0-323.0","","","","false","","","","","","","","","","null","","755.1999999284744","","0","0","null","null","arrowup","[0.325,0.675,0.15,0.85]","","",""
"sailing-trial","369","1406058","0.0-11.0-324.0","","","","false","","","","","","","","","","357.10000002384186","","17","","3","1","arrowright","1","arrowright","[0.325,0.675,0.15,0.85]","","",""
"sailing-trial","370","1408772","0.0-11.0-325.0","","","","false","","","","","","","","","","null","","964.3999999761581","","3","1","null","null","arrowup","[0.325,0.675,0.15,0.85]","","",""
"sailing-trial","371","1411909","0.0-11.0-326.0","","","","false","","","","","","","","","","730.7999999523163","","154.19999992847443","","0","0","arrowleft","0","arrowleft","[0.325,0.675,0.15,0.85]","","",""
"sailing-trial","372","1414333","0.0-11.0-327.0","","","","false","","","","","","","","","","null","","822.8999999761581","","3","0","null","null","arrowup","[0.325,0.675,0.15,0.85]","","",""
"sailing-trial","373","1417496","0.0-11.0-328.0","","","","false","","","","","","","","","","187.5","","25.200000047683716","","3","1","arrowright","1","arrowright","[0.325,0.675,0.15,0.85]","","",""
"sailing-trial","374","1419595","0.0-11.0-329.0","","","","false","","","","","","","","","","null","","916","","2","0","null","null","arrowup","[0.325,0.675,0.15,0.85]","","",""
"sailing-trial","375","1422791","0.0-11.0-330.0","","","","false","","","","","","","","","","481.7000000476837","","104.59999990463257","","3","1","arrowright","1","arrowright","[0.85,0.15,0.675,0.325]","","",""
"sailing-trial","376","1425220","0.0-11.0-331.0","","","","false","","","","","","","","","","null","","839.5","","0","1","null","null","arrowup","[0.85,0.15,0.675,0.325]","","",""
"sailing-trial","377","1428256","0.0-11.0-332.0","","","","false","","","","","","","","","","421.7000000476837","","424.3000000715256","","3","0","arrowright","1","arrowright","[0.85,0.15,0.675,0.325]","","",""
"sailing-trial","378","1430831","0.0-11.0-333.0","","","","false","","","","","","","","","","null","","726.8000000715256","","0","1","null","null","arrowup","[0.85,0.15,0.675,0.325]","","",""
"sailing-trial","379","1433962","0.0-11.0-334.0","","","","false","","","","","","","","","","253.90000009536743","","86.70000004768372","","3","1","arrowright","1","arrowright","[0.85,0.15,0.675,0.325]","","",""
"sailing-trial","380","1436553","0.0-11.0-335.0","","","","false","","","","","","","","","","null","","1070.7000000476837","","3","0","null","null","arrowup","[0.85,0.15,0.675,0.325]","","",""
"sailing-trial","381","1439423","0.0-11.0-336.0","","","","false","","","","","","","","","","455.89999997615814","","239.69999992847443","","3","0","arrowright","1","arrowright","[0.85,0.15,0.675,0.325]","","",""
"sailing-trial","382","1441415","0.0-11.0-337.0","","","","false","","","","","","","","","","null","","786.3999999761581","","3","0","null","null","arrowup","[0.85,0.15,0.675,0.325]","","",""
"sailing-trial","383","1444686","0.0-11.0-338.0","","","","false","","","","","","","","","","529.2000000476837","","132.60000002384186","","3","1","arrowright","1","arrowright","[0.85,0.15,0.675,0.325]","","",""
"sailing-trial","384","1448216","0.0-11.0-339.0","","","","false","","","","","","","","","","null","","1881","","0","1","null","null","arrowup","[0.85,0.15,0.675,0.325]","","",""
"sailing-trial","385","1451662","0.0-11.0-340.0","","","","false","","","","","","","","","","726","","7.5","","0","1","arrowleft","0","arrowleft","[0.85,0.15,0.675,0.325]","","",""
"sailing-trial","386","1454060","0.0-11.0-341.0","","","","false","","","","","","","","","","null","","760","","0","1","null","null","arrowup","[0.85,0.15,0.675,0.325]","","",""
"sailing-trial","387","1456895","0.0-11.0-342.0","","","","false","","","","","","","","","","260.10000002384186","","407.7999999523163","","0","0","arrowleft","0","arrowleft","[0.85,0.15,0.675,0.325]","","",""
"sailing-trial","388","1459304","0.0-11.0-343.0","","","","false","","","","","","","","","","null","","755.5","","2","1","null","null","arrowup","[0.85,0.15,0.675,0.325]","","",""
"sailing-trial","389","1462569","0.0-11.0-344.0","","","","false","","","","","","","","","","268.7999999523163","","277.40000009536743","","0","1","arrowleft","0","arrowleft","[0.85,0.15,0.675,0.325]","","",""
"sailing-trial","390","1465433","0.0-11.0-345.0","","","","false","","","","","","","","","","null","","814.1999999284744","","1","1","null","null","arrowup","[0.85,0.15,0.675,0.325]","","",""
"sailing-trial","391","1468668","0.0-11.0-346.0","","","","false","","","","","","","","","","356.60000002384186","","87.69999992847443","","0","0","arrowleft","0","arrowleft","[0.15,0.85,0.325,0.675]","","",""
"sailing-trial","392","1470834","0.0-11.0-347.0","","","","false","","","","","","","","","","null","","781.3999999761581","","2","0","null","null","arrowup","[0.15,0.85,0.325,0.675]","","",""
"sailing-trial","393","1473721","0.0-11.0-348.0","","","","false","","","","","","","","","","246.60000002384186","","380.89999997615814","","0","0","arrowleft","0","arrowleft","[0.15,0.85,0.325,0.675]","","",""
"sailing-trial","394","1476520","0.0-11.0-349.0","","","","false","","","","","","","","","","null","","861.8999999761581","","2","1","null","null","arrowup","[0.15,0.85,0.325,0.675]","","",""
"sailing-trial","395","1479450","0.0-11.0-350.0","","","","false","","","","","","","","","","465.7999999523163","","181.70000004768372","","2","0","arrowright","1","arrowleft","[0.15,0.85,0.325,0.675]","","",""
"sailing-trial","396","1482180","0.0-11.0-351.0","","","","false","","","","","","","","","","null","","929.2999999523163","","3","1","null","null","arrowup","[0.15,0.85,0.325,0.675]","","",""
"sailing-trial","397","1484618","0.0-11.0-352.0","","","","false","","","","","","","","","","246.60000002384186","","83.89999997615814","","3","0","arrowright","1","arrowright","[0.15,0.85,0.325,0.675]","","",""
"sailing-trial","398","1486994","0.0-11.0-353.0","","","","false","","","","","","","","","","null","","791.2999999523163","","1","1","null","null","arrowup","[0.15,0.85,0.325,0.675]","","",""
"sailing-trial","399","1490090","0.0-11.0-354.0","","","","false","","","","","","","","","","177.30000007152557","","186.5","","3","1","arrowright","1","arrowright","[0.15,0.85,0.325,0.675]","","",""
"sailing-trial","400","1491933","0.0-11.0-355.0","","","","false","","","","","","","","","","null","","750.1000000238419","","3","0","null","null","arrowup","[0.15,0.85,0.325,0.675]","","",""
"sailing-trial","401","1495070","0.0-11.0-356.0","","","","false","","","","","","","","","","168.20000004768372","","190.19999992847443","","3","1","arrowright","1","arrowright","[0.15,0.85,0.325,0.675]","","",""
"sailing-trial","402","1497434","0.0-11.0-357.0","","","","false","","","","","","","","","","null","","656","","2","1","null","null","arrowup","[0.15,0.85,0.325,0.675]","","",""
"sailing-trial","403","1500515","0.0-11.0-358.0","","","","false","","","","","","","","","","212.20000004768372","","85.30000007152557","","3","1","arrowright","1","arrowright","[0.15,0.85,0.325,0.675]","","",""
"sailing-trial","404","1502813","0.0-11.0-359.0","","","","false","","","","","","","","","","null","","670.5","","2","1","null","null","arrowup","[0.15,0.85,0.325,0.675]","","",""
"sailing-trial","405","1505930","0.0-11.0-360.0","","","","false","","","","","","","","","","78.5","","792.7000000476837","","3","0","arrowright","1","arrowright","[0.15,0.85,0.325,0.675]","","",""
"sailing-trial","406","1507752","0.0-11.0-361.0","","","","false","","","","","","","","","","null","","738.2999999523163","","0","0","null","null","arrowup","[0.15,0.85,0.325,0.675]","","",""
"sailing-trial","407","1510398","0.0-11.0-362.0","","","","false","","","","","","","","","","108","","146","","3","0","arrowright","1","arrowright","[0.675,0.325,0.85,0.15]","","",""
"sailing-trial","408","1512530","0.0-11.0-363.0","","","","false","","","","","","","","","","null","","885.3999999761581","","1","0","null","null","arrowup","[0.675,0.325,0.85,0.15]","","",""
"sailing-trial","409","1515980","0.0-11.0-364.0","","","","false","","","","","","","","","","591.2000000476837","","126.29999995231628","","2","1","arrowright","1","arrowleft","[0.675,0.325,0.85,0.15]","","",""
"sailing-trial","410","1517877","0.0-11.0-365.0","","","","false","","","","","","","","","","null","","848.1000000238419","","1","0","null","null","arrowup","[0.675,0.325,0.85,0.15]","","",""
"sailing-trial","411","1521394","0.0-11.0-366.0","","","","false","","","","","","","","","","463.39999997615814","","228.20000004768372","","2","1","arrowright","1","arrowleft","[0.675,0.325,0.85,0.15]","","",""
"sailing-trial","412","1523840","0.0-11.0-367.0","","","","false","","","","","","","","","","null","","744.1000000238419","","2","1","null","null","arrowup","[0.675,0.325,0.85,0.15]","","",""
"sailing-trial","413","1526972","0.0-11.0-368.0","","","","false","","","","","","","","","","302.7000000476837","","126.39999997615814","","2","1","arrowright","1","arrowleft","[0.675,0.325,0.85,0.15]","","",""
"sailing-trial","414","1529817","0.0-11.0-369.0","","","","false","","","","","","","","","","null","","1219.2999999523163","","0","1","null","null","arrowup","[0.675,0.325,0.85,0.15]","","",""
"sailing-trial","415","1532034","0.0-11.0-370.0","","","","false","","","","","","","","","","42.5","","122.60000002384186","","2","0","arrowright","1","arrowleft","[0.675,0.325,0.85,0.15]","","",""
"sailing-trial","416","1534747","0.0-11.0-371.0","","","","false","","","","","","","","","","null","","748.3999999761581","","0","1","null","null","arrowup","[0.675,0.325,0.85,0.15]","","",""
"sailing-trial","417","1537543","0.0-11.0-372.0","","","","false","","","","","","","","","","8.100000023841858","","70.39999997615814","","2","1","arrowright","1","arrowleft","[0.675,0.325,0.85,0.15]","","",""
"sailing-trial","418","1539936","0.0-11.0-373.0","","","","false","","","","","","","","","","null","","801.9000000953674","","3","0","null","null","arrowup","[0.675,0.325,0.85,0.15]","","",""
"sailing-trial","419","1543354","0.0-11.0-374.0","","","","false","","","","","","","","","","708.7999999523163","","75","","2","1","arrowright","1","arrowleft","[0.675,0.325,0.85,0.15]","","",""
"sailing-trial","420","1545472","0.0-11.0-375.0","","","","false","","","","","","","","","","null","","886.3999999761581","","0","0","null","null","arrowup","[0.675,0.325,0.85,0.15]","","",""
"sailing-trial","421","1548815","0.0-11.0-376.0","","","","false","","","","","","","","","","384.10000002384186","","323.5","","2","1","arrowright","1","arrowleft","[0.675,0.325,0.85,0.15]","","",""
"sailing-trial","422","1550714","0.0-11.0-377.0","","","","false","","","","","","","","","","null","","752","","1","0","null","null","arrowup","[0.675,0.325,0.85,0.15]","","",""
"sailing-trial","423","1554142","0.0-11.0-378.0","","","","false","","","","","","","","","","298","","360.10000002384186","","2","1","arrowright","1","arrowleft","[0.675,0.325,0.85,0.15]","","",""
"sailing-trial","424","1556174","0.0-11.0-379.0","","","","false","","","","","","","","","","null","","801.7999999523163","","3","0","null","null","arrowup","[0.675,0.325,0.85,0.15]","","",""
"sailing-trial","425","1559478","0.0-11.0-380.0","","","","false","","","","","","","","","","465.39999997615814","","199.5","","2","0","arrowright","1","arrowleft","[0.675,0.325,0.85,0.15]","","",""
"sailing-trial","426","1561505","0.0-11.0-381.0","","","","false","","","","","","","","","","null","","763.8999999761581","","3","0","null","null","arrowup","[0.675,0.325,0.85,0.15]","","",""
"sailing-trial","427","1564565","0.0-11.0-382.0","","","","false","","","","","","","","","","365.89999997615814","","25.90000009536743","","2","1","arrowright","1","arrowleft","[0.85,0.15,0.675,0.325]","","",""
"sailing-trial","428","1566295","0.0-11.0-383.0","","","","false","","","","","","","","","","null","","534.6000000238419","","0","0","null","null","arrowup","[0.85,0.15,0.675,0.325]","","",""
"sailing-trial","429","1569258","0.0-11.0-384.0","","","","false","","","","","","","","","","441.2999999523163","","201.19999992847443","","2","0","arrowright","1","arrowleft","[0.85,0.15,0.675,0.325]","","",""
"sailing-trial","430","1572260","0.0-11.0-385.0","","","","false","","","","","","","","","","null","","1115.2999999523163","","3","1","null","null","arrowup","[0.85,0.15,0.675,0.325]","","",""
"sailing-trial","431","1575423","0.0-11.0-386.0","","","","false","","","","","","","","","","245.70000004768372","","234.10000002384186","","3","1","arrowright","1","arrowright","[0.85,0.15,0.675,0.325]","","",""
"sailing-trial","432","1577458","0.0-11.0-387.0","","","","false","","","","","","","","","","null","","1018.6999999284744","","2","0","null","null","arrowup","[0.85,0.15,0.675,0.325]","","",""
"sailing-trial","433","1580454","0.0-11.0-388.0","","","","false","","","","","","","","","","531.3000000715256","","264.5","","3","0","arrowright","1","arrowright","[0.85,0.15,0.675,0.325]","","",""
"sailing-trial","434","1582308","0.0-11.0-389.0","","","","false","","","","","","","","","","null","","645.5","","2","0","null","null","arrowup","[0.85,0.15,0.675,0.325]","","",""
"sailing-trial","435","1585711","0.0-11.0-390.0","","","","false","","","","","","","","","","428.39999997615814","","181.30000007152557","","3","1","arrowright","1","arrowright","[0.85,0.15,0.675,0.325]","","",""
"sailing-trial","436","1587976","0.0-11.0-391.0","","","","false","","","","","","","","","","null","","467.2000000476837","","0","1","null","null","arrowup","[0.85,0.15,0.675,0.325]","","",""
"sailing-trial","437","1590990","0.0-11.0-392.0","","","","false","","","","","","","","","","490.39999997615814","","306.2999999523163","","3","0","arrowright","1","arrowright","[0.85,0.15,0.675,0.325]","","",""
"sailing-trial","438","1593000","0.0-11.0-393.0","","","","false","","","","","","","","","","null","","816.9000000953674","","3","0","null","null","arrowup","[0.85,0.15,0.675,0.325]","","",""
"sailing-trial","439","1596252","0.0-11.0-394.0","","","","false","","","","","","","","","","193","","186.80000007152557","","0","1","arrowleft","0","arrowleft","[0.85,0.15,0.675,0.325]","","",""
"sailing-trial","440","1598224","0.0-11.0-395.0","","","","false","","","","","","","","","","null","","792.6000000238419","","1","0","null","null","arrowup","[0.85,0.15,0.675,0.325]","","",""
"sailing-trial","441","1601597","0.0-11.0-396.0","","","","false","","","","","","","","","","424.2000000476837","","294.39999997615814","","0","1","arrowleft","0","arrowleft","[0.85,0.15,0.675,0.325]","","",""
"sailing-trial","442","1603491","0.0-11.0-397.0","","","","false","","","","","","","","","","null","","851.0999999046326","","1","0","null","null","arrowup","[0.85,0.15,0.675,0.325]","","",""
"sailing-trial","443","1607856","0.0-11.0-398.0","","","","false","","","","","","","","","","666.2000000476837","","224","","0","1","arrowleft","0","arrowleft","[0.85,0.15,0.675,0.325]","","",""
"sailing-trial","444","1611271","0.0-11.0-399.0","","","","false","","","","","","","","","","null","","788.8000000715256","","0","1","null","null","arrowup","[0.85,0.15,0.675,0.325]","","",""
"instructions","445","1619594","0.0-12.0","","","","","","","","","","8322.200000047684","","","","","","","","","","","","","","","","[{""page_index"":0,""viewing_time"":8322}]"
"survey-debrief","446","1689421","0.0-13.0","","","","","","","","","","69825.59999990463","","","","","","","","","","","","","","{""difficulty"":""5"",""fun"":""2"",""clarity"":""5"",""strategy"":""when you get a lot of treasure from a store I kept on getting from that store but stoped after getting xed 3x"",""feedback"":""no""}","",""
