"trial_type","trial_index","time_elapsed","internal_node_id","value","metadata","success","timeout","failed_images","failed_audio","failed_video","browser_interaction","low_quality","rt","stimulus","response","button_pressed","island_rt","island_response","boat_rt","boat_response","boat","reward","island_key","island","boat_key","reward_probabilities","responses","num_errors","view_history"
"pavlovia","0","8","0.0-0.0","","","","","","","","","","","","","","","","","","","","","","","","","",""
"call-function","1","9","0.0-1.0","","{""task_version"":""sailing_part1_v1"",""task_condition"":""good"",""boats"":[""C"",""B"",""D"",""A""],""boats_demo"":[""H"",""E"",""G"",""F""],""islands"":[""A"",""B""],""subject_id"":""15183"",""age"":""10"",""gender"":""Male""}","","","","","","","","","","","","","","","","","","","","","","","",""
"preload","2","3349","0.0-2.0","","","true","false","[]","[]","[]","[{""event"":""fullscreenenter"",""trial"":3,""time"":5247}]","false","","","","","","","","","","","","","","","","",""
"fullscreen","3","6227","0.0-3.0","","","true","","","","","","","","","","","","","","","","","","","","","","",""
"audio-keyboard-response","4","12317","0.0-4.0-0.0","","","","","","","","","","5770.666666666667","audio/beep_loop.wav"," ","","","","","","","","","","","","","",""
"audio-test","5","17467","0.0-4.0-1.0","","","","","","","","","","null","audio/turtle.mp3","","3","","","","","","","","","","","","",""
"audio-test","6","20251","0.0-4.0-2.0","","","","","","","","","","null","audio/shark.mp3","","2","","","","","","","","","","","","",""
"sailing-instructions","7","48851","0.0-5.0-0.0-0.0","","","","","","","","","","","","","","null","null","null","null","null","null","","","","","","",""
"sailing-trial","8","51109","0.0-5.0-0.0-1.0-0.0","","","","false","","","","","","","","","","1117.300000011921","","null","","null","null","arrowleft","0","null","null","","",""
"sailing-trial","9","52982","0.0-5.0-0.0-1.0-1.0","","","","false","","","","","","","","","","753.4000000357628","","null","","null","null","arrowright","1","null","null","","",""
"sailing-trial","10","56038","0.0-5.0-0.0-1.0-2.0","","","","false","","","","","","","","","","1938.5","","null","","null","null","arrowright","1","null","null","","",""
"sailing-instructions","11","94931","0.0-5.0-0.0-2.0","","","","","","","","","","","","","","null","null","null","null","0","null","","","","","","",""
"sailing-trial","12","99445","0.0-5.0-0.0-3.0-0.0","","","","false","","","","","","","","","","null","","1704.5","","2","1","null","null","arrowleft","[1,1,1,1]","","",""
"sailing-trial","13","102721","0.0-5.0-0.0-3.0-1.0","","","","false","","","","","","","","","","null","","758.8999999761581","","3","1","null","null","arrowright","[1,1,1,1]","","",""
"sailing-trial","14","106558","0.0-5.0-0.0-3.0-2.0","","","","false","","","","","","","","","","null","","977.3000000119209","","2","0","null","null","arrowleft","[0,0,0,0]","","",""
"sailing-instructions","15","113739","0.0-5.0-0.0-4.0","","","","","","","","","","","","","","null","null","null","null","null","null","","","","","","",""
"sailing-comprehension","16","132693","0.0-5.0-0.0-5.0","","","","","","","","","","16109.199999988079","","","","","","","","","","","","","","[""true"",""true"",""false"",""true""]","0",""
"sailing-instructions","17","191219","0.0-6.0-0.0-0.0","","","","","","","","","","","","","","null","null","null","null","null","null","","","","","","",""
"sailing-comprehension","18","202219","0.0-6.0-0.0-1.0","","","","","","","","","","10317.599999964237","","","","","","","","","","","","","","[""true"",""false"",""true""]","0",""
"sailing-instructions","19","217299","0.0-7.0-0.0-0.0","","","","","","","","","","","","","","null","null","null","null","null","null","","","","","","",""
"sailing-trial","20","222084","0.0-7.0-0.0-1.0-0.0","","","","false","","","","","","","","","","null","","2399.2999999523163","","0","0","null","null","arrowup","[0.2,0.8,0.2,0.8]","","",""
"sailing-trial","21","225754","0.0-7.0-0.0-1.0-1.0","","","","false","","","","","","","","","","null","","1441","","1","1","null","null","arrowup","[0.2,0.8,0.2,0.8]","","",""
"sailing-trial","22","228725","0.0-7.0-0.0-1.0-2.0","","","","false","","","","","","","","","","null","","890.8000000119209","","2","0","null","null","arrowup","[0.2,0.8,0.2,0.8]","","",""
"sailing-trial","23","235387","0.0-7.0-0.0-1.0-3.0","","","","false","","","","","","","","","","null","","973.7999999523163","","3","1","null","null","arrowup","[0.2,0.8,0.2,0.8]","","",""
"sailing-comprehension","24","240308","0.0-7.0-0.0-2.0","","","","","","","","","","4087.699999988079","","","","","","","","","","","","","","[""false""]","0",""
"sailing-instructions","25","249987","0.0-8.0-0.0-0.0","","","","","","","","","","","","","","null","null","null","null","null","null","","","","","","",""
"sailing-comprehension","26","254171","0.0-8.0-0.0-1.0","","","","","","","","[{""event"":""fullscreenenter"",""trial"":3,""time"":5247},{""event"":""fullscreenexit"",""trial"":27,""time"":295941}]","false","2510.099999964237","","","","","","","","","","","","","","[""true""]","0",""
"sailing-instructions","27","343739","0.0-9.0-0.0-0.0","","","","","","","","","","","","","","null","null","null","null","null","null","","","","","","",""
"sailing-trial","28","348456","0.0-9.0-0.0-1.0-0.0","","","","false","","","","","","","","","","976.3000000119209","","256.10000002384186","","2","0","arrowright","1","arrowleft","[0.2,0.8,0.2,0.8]","","",""
"sailing-trial","29","352514","0.0-9.0-0.0-1.0-1.0","","","","false","","","","","","","","","","564.6999999880791","","357.89999997615814","","3","1","arrowright","1","arrowright","[0.2,0.8,0.2,0.8]","","",""
"sailing-trial","30","354869","0.0-9.0-0.0-1.0-2.0","","","","false","","","","","","","","","","null","","1050","","0","0","null","null","arrowup","[0.2,0.8,0.2,0.8]","","",""
"sailing-trial","31","359072","0.0-9.0-0.0-1.0-3.0","","","","false","","","","","","","","","","806.8000000119209","","397.2000000476837","","1","0","arrowleft","0","arrowright","[0.2,0.8,0.2,0.8]","","",""
"sailing-trial","32","362513","0.0-9.0-0.0-1.0-4.0","","","","false","","","","","","","","","","null","","1220.5","","3","1","null","null","arrowup","[0.2,0.8,0.2,0.8]","","",""
"sailing-trial","33","366020","0.0-9.0-0.0-1.0-5.0","","","","false","","","","","","","","","","298.30000001192093","","268.60000002384186","","3","1","arrowright","1","arrowright","[0.2,0.8,0.2,0.8]","","",""
"sailing-instructions","34","391019","0.0-10.0","","","","","","","","","","","","","","null","null","null","null","null","null","","","","","","",""
"sailing-trial","35","396761","0.0-11.0-0.0","","","","false","","","","","","","","","","1175.6000000238419","","316.69999998807907","","1","0","arrowleft","0","arrowright","[0.85,0.15,0.325,0.675]","","",""
"sailing-trial","36","399881","0.0-11.0-1.0","","","","false","","","","","","","","","","null","","1202.699999988079","","2","1","null","null","arrowup","[0.85,0.15,0.325,0.675]","","",""
"sailing-trial","37","404008","0.0-11.0-2.0","","","","false","","","","","","","","","","883.1000000238419","","21","","3","1","arrowright","1","arrowright","[0.85,0.15,0.325,0.675]","","",""
"sailing-trial","38","407002","0.0-11.0-3.0","","","","false","","","","","","","","","","null","","1036.0999999642372","","1","1","null","null","arrowup","[0.85,0.15,0.325,0.675]","","",""
"sailing-trial","39","411761","0.0-11.0-4.0","","","","false","","","","","","","","","","855.5999999642372","","934.3000000119209","","3","1","arrowright","1","arrowright","[0.85,0.15,0.325,0.675]","","",""
"sailing-trial","40","414214","0.0-11.0-5.0","","","","false","","","","","","","","","","null","","1098.699999988079","","1","0","null","null","arrowup","[0.85,0.15,0.325,0.675]","","",""
"sailing-trial","41","417934","0.0-11.0-6.0","","","","false","","","","","","","","","","694.6999999880791","","158","","3","1","arrowright","1","arrowright","[0.85,0.15,0.325,0.675]","","",""
"sailing-trial","42","420848","0.0-11.0-7.0","","","","false","","","","","","","","","","null","","1044.1000000238419","","3","1","null","null","arrowup","[0.85,0.15,0.325,0.675]","","",""
"sailing-trial","43","424790","0.0-11.0-8.0","","","","false","","","","","","","","","","651.0999999642372","","300.69999998807907","","3","1","arrowright","1","arrowright","[0.85,0.15,0.325,0.675]","","",""
"sailing-trial","44","427855","0.0-11.0-9.0","","","","false","","","","","","","","","","null","","1142.2999999523163","","0","1","null","null","arrowup","[0.85,0.15,0.325,0.675]","","",""
"sailing-trial","45","432714","0.0-11.0-10.0","","","","false","","","","","","","","","","621.8000000119209","","501.89999997615814","","3","0","arrowright","1","arrowright","[0.85,0.15,0.325,0.675]","","",""
"sailing-trial","46","435486","0.0-11.0-11.0","","","","false","","","","","","","","","","null","","891.5","","2","1","null","null","arrowup","[0.85,0.15,0.325,0.675]","","",""
"sailing-trial","47","439673","0.0-11.0-12.0","","","","false","","","","","","","","","","582.8000000119209","","532","","3","1","arrowright","1","arrowright","[0.85,0.15,0.325,0.675]","","",""
"sailing-trial","48","441912","0.0-11.0-13.0","","","","false","","","","","","","","","","null","","923.6999999880791","","2","0","null","null","arrowup","[0.85,0.15,0.325,0.675]","","",""
"sailing-trial","49","445976","0.0-11.0-14.0","","","","false","","","","","","","","","","476.69999998807907","","81.39999997615814","","3","0","arrowright","1","arrowright","[0.85,0.15,0.325,0.675]","","",""
"sailing-trial","50","448392","0.0-11.0-15.0","","","","false","","","","","","","","","","null","","1034.8999999761581","","1","0","null","null","arrowup","[0.85,0.15,0.325,0.675]","","",""
"sailing-trial","51","451770","0.0-11.0-16.0","","","","false","","","","","","","","","","459.30000001192093","","96.19999998807907","","0","1","arrowleft","0","arrowleft","[0.85,0.15,0.325,0.675]","","",""
"sailing-trial","52","454017","0.0-11.0-17.0","","","","false","","","","","","","","","","null","","954.8000000119209","","2","0","null","null","arrowup","[0.85,0.15,0.325,0.675]","","",""
"sailing-trial","53","458411","0.0-11.0-18.0","","","","false","","","","","","","","","","1315.199999988079","","282.39999997615814","","0","1","arrowleft","0","arrowleft","[0.85,0.15,0.325,0.675]","","",""
"sailing-trial","54","461576","0.0-11.0-19.0","","","","false","","","","","","","","","","null","","1487.8999999761581","","2","0","null","null","arrowup","[0.85,0.15,0.325,0.675]","","",""
"sailing-trial","55","465449","0.0-11.0-20.0","","","","false","","","","","","","","","","556.5","","135.5","","0","0","arrowleft","0","arrowleft","[0.675,0.325,0.15,0.85]","","",""
"sailing-trial","56","467689","0.0-11.0-21.0","","","","false","","","","","","","","","","null","","1083.300000011921","","1","0","null","null","arrowup","[0.675,0.325,0.15,0.85]","","",""
"sailing-trial","57","471726","0.0-11.0-22.0","","","","false","","","","","","","","","","508","","374.60000002384186","","3","1","arrowright","1","arrowright","[0.675,0.325,0.15,0.85]","","",""
"sailing-trial","58","474696","0.0-11.0-23.0","","","","false","","","","","","","","","","null","","1412.9000000357628","","3","1","null","null","arrowup","[0.675,0.325,0.15,0.85]","","",""
"sailing-trial","59","478232","0.0-11.0-24.0","","","","false","","","","","","","","","","436.2000000476837","","298.5","","3","1","arrowright","1","arrowright","[0.675,0.325,0.15,0.85]","","",""
"sailing-trial","60","480760","0.0-11.0-25.0","","","","false","","","","","","","","","","null","","884.5","","2","1","null","null","arrowup","[0.675,0.325,0.15,0.85]","","",""
"sailing-trial","61","484287","0.0-11.0-26.0","","","","false","","","","","","","","","","436.80000001192093","","292.19999998807907","","3","1","arrowright","1","arrowright","[0.675,0.325,0.15,0.85]","","",""
"sailing-trial","62","486966","0.0-11.0-27.0","","","","false","","","","","","","","","","null","","1005","","3","1","null","null","arrowup","[0.675,0.325,0.15,0.85]","","",""
"sailing-trial","63","490279","0.0-11.0-28.0","","","","false","","","","","","","","","","374.60000002384186","","299.80000001192093","","3","1","arrowright","1","arrowright","[0.675,0.325,0.15,0.85]","","",""
"sailing-trial","64","492737","0.0-11.0-29.0","","","","false","","","","","","","","","","null","","1077.5","","3","0","null","null","arrowup","[0.675,0.325,0.15,0.85]","","",""
"sailing-trial","65","495432","0.0-11.0-30.0","","","","false","","","","","","","","","","364","","277.69999998807907","","3","0","arrowright","1","arrowright","[0.675,0.325,0.15,0.85]","","",""
"sailing-trial","66","499176","0.0-11.0-31.0","","","","false","","","","","","","","","","null","","907","","3","0","null","null","arrowup","[0.675,0.325,0.15,0.85]","","",""
"sailing-trial","67","502047","0.0-11.0-32.0","","","","false","","","","","","","","","","347.80000001192093","","229.80000001192093","","0","0","arrowleft","0","arrowleft","[0.675,0.325,0.15,0.85]","","",""
"sailing-trial","68","505114","0.0-11.0-33.0","","","","false","","","","","","","","","","null","","1068.6000000238419","","3","1","null","null","arrowup","[0.675,0.325,0.15,0.85]","","",""
"sailing-trial","69","508145","0.0-11.0-34.0","","","","false","","","","","","","","","","698.6999999880791","","4.099999964237213","","2","0","arrowright","1","arrowleft","[0.675,0.325,0.15,0.85]","","",""
"sailing-trial","70","510563","0.0-11.0-35.0","","","","false","","","","","","","","","","null","","1258.7000000476837","","1","0","null","null","arrowup","[0.675,0.325,0.15,0.85]","","",""
"sailing-trial","71","514457","0.0-11.0-36.0","","","","false","","","","","","","","","","344.5","","1045.5","","3","0","arrowright","1","arrowright","[0.675,0.325,0.15,0.85]","","",""
"sailing-trial","72","516670","0.0-11.0-37.0","","","","false","","","","","","","","","","null","","1043.199999988079","","1","0","null","null","arrowup","[0.675,0.325,0.15,0.85]","","",""
"sailing-trial","73","519792","0.0-11.0-38.0","","","","false","","","","","","","","","","559.1000000238419","","242.80000001192093","","0","0","arrowleft","0","arrowleft","[0.85,0.15,0.325,0.675]","","",""
"sailing-trial","74","522184","0.0-11.0-39.0","","","","false","","","","","","","","","","null","","947.8999999761581","","1","0","null","null","arrowup","[0.85,0.15,0.325,0.675]","","",""
"sailing-trial","75","526633","0.0-11.0-40.0","","","","false","","","","","","","","","","1372.5999999642372","","230.60000002384186","","3","1","arrowright","1","arrowright","[0.85,0.15,0.325,0.675]","","",""
"sailing-trial","76","529227","0.0-11.0-41.0","","","","false","","","","","","","","","","null","","884","","0","1","null","null","arrowup","[0.85,0.15,0.325,0.675]","","",""
"sailing-trial","77","534238","0.0-11.0-42.0","","","","false","","","","","","","","","","896.8000000119209","","1.0999999642372131","","3","0","arrowright","1","arrowright","[0.85,0.15,0.325,0.675]","","",""
"sailing-trial","78","536965","0.0-11.0-43.0","","","","false","","","","","","","","","","null","","1054.3999999761581","","3","1","null","null","arrowup","[0.85,0.15,0.325,0.675]","","",""
"sailing-trial","79","540568","0.0-11.0-44.0","","","","false","","","","","","","","","","584.1999999880791","","486.30000001192093","","3","0","arrowright","1","arrowright","[0.85,0.15,0.325,0.675]","","",""
"sailing-trial","80","543101","0.0-11.0-45.0","","","","false","","","","","","","","","","null","","829","","0","1","null","null","arrowup","[0.85,0.15,0.325,0.675]","","",""
"sailing-trial","81","546682","0.0-11.0-46.0","","","","false","","","","","","","","","","311.10000002384186","","314.5999999642372","","0","1","arrowleft","0","arrowleft","[0.85,0.15,0.325,0.675]","","",""
"sailing-trial","82","549235","0.0-11.0-47.0","","","","false","","","","","","","","","","null","","954.8000000119209","","3","1","null","null","arrowup","[0.85,0.15,0.325,0.675]","","",""
"sailing-trial","83","552685","0.0-11.0-48.0","","","","false","","","","","","","","","","602.3000000119209","","34.5","","3","1","arrowright","1","arrowright","[0.85,0.15,0.325,0.675]","","",""
"sailing-trial","84","554952","0.0-11.0-49.0","","","","false","","","","","","","","","","null","","1102.5999999642372","","1","0","null","null","arrowup","[0.85,0.15,0.325,0.675]","","",""
"sailing-trial","85","558488","0.0-11.0-50.0","","","","false","","","","","","","","","","364.10000002384186","","353.89999997615814","","3","1","arrowright","1","arrowright","[0.85,0.15,0.325,0.675]","","",""
"sailing-trial","86","560712","0.0-11.0-51.0","","","","false","","","","","","","","","","null","","932.5","","1","0","null","null","arrowup","[0.85,0.15,0.325,0.675]","","",""
"sailing-trial","87","563809","0.0-11.0-52.0","","","","false","","","","","","","","","","420.89999997615814","","430.39999997615814","","3","0","arrowright","1","arrowright","[0.85,0.15,0.325,0.675]","","",""
"sailing-trial","88","566341","0.0-11.0-53.0","","","","false","","","","","","","","","","null","","979.5999999642372","","0","1","null","null","arrowup","[0.85,0.15,0.325,0.675]","","",""
"sailing-trial","89","570190","0.0-11.0-54.0","","","","false","","","","","","","","","","528.1000000238419","","451.0999999642372","","0","1","arrowleft","0","arrowleft","[0.675,0.325,0.15,0.85]","","",""
"sailing-trial","90","574724","0.0-11.0-55.0","","","","false","","","","","","","","","","null","","2580.899999976158","","3","1","null","null","arrowup","[0.675,0.325,0.15,0.85]","","",""
"sailing-trial","91","578650","0.0-11.0-56.0","","","","false","","","","","","","","","","943.6999999880791","","258.69999998807907","","0","1","arrowleft","0","arrowleft","[0.675,0.325,0.15,0.85]","","",""
"sailing-trial","92","581752","0.0-11.0-57.0","","","","false","","","","","","","","","","null","","1362.5","","0","1","null","null","arrowup","[0.675,0.325,0.15,0.85]","","",""
"sailing-trial","93","585144","0.0-11.0-58.0","","","","false","","","","","","","","","","949.9000000357628","","283.80000001192093","","3","0","arrowright","1","arrowright","[0.675,0.325,0.15,0.85]","","",""
"sailing-trial","94","587956","0.0-11.0-59.0","","","","false","","","","","","","","","","null","","991.2000000476837","","0","1","null","null","arrowup","[0.675,0.325,0.15,0.85]","","",""
"sailing-trial","95","591359","0.0-11.0-60.0","","","","false","","","","","","","","","","725","","35.09999996423721","","0","1","arrowleft","0","arrowleft","[0.675,0.325,0.15,0.85]","","",""
"sailing-trial","96","593616","0.0-11.0-61.0","","","","false","","","","","","","","","","null","","1036.7000000476837","","3","0","null","null","arrowup","[0.675,0.325,0.15,0.85]","","",""
"sailing-trial","97","596640","0.0-11.0-62.0","","","","false","","","","","","","","","","549.0999999642372","","176.60000002384186","","2","0","arrowright","1","arrowleft","[0.675,0.325,0.15,0.85]","","",""
"sailing-trial","98","598609","0.0-11.0-63.0","","","","false","","","","","","","","","","null","","787.8000000119209","","1","0","null","null","arrowup","[0.675,0.325,0.15,0.85]","","",""
"sailing-trial","99","601201","0.0-11.0-64.0","","","","false","","","","","","","","","","324.5999999642372","","84.19999998807907","","0","0","arrowleft","0","arrowleft","[0.675,0.325,0.15,0.85]","","",""
"sailing-trial","100","604107","0.0-11.0-65.0","","","","false","","","","","","","","","","null","","810.8999999761581","","1","1","null","null","arrowup","[0.675,0.325,0.15,0.85]","","",""
"sailing-trial","101","608563","0.0-11.0-66.0","","","","false","","","","","","","","","","1263.5999999642372","","419.5999999642372","","3","1","arrowright","1","arrowright","[0.675,0.325,0.15,0.85]","","",""
"sailing-trial","102","610730","0.0-11.0-67.0","","","","false","","","","","","","","","","null","","872.8999999761581","","1","0","null","null","arrowup","[0.675,0.325,0.15,0.85]","","",""
"sailing-trial","103","615029","0.0-11.0-68.0","","","","false","","","","","","","","","","555.3999999761581","","1087.2999999523163","","3","1","arrowright","1","arrowright","[0.675,0.325,0.15,0.85]","","",""
"sailing-trial","104","617479","0.0-11.0-69.0","","","","false","","","","","","","","","","null","","895.3999999761581","","3","1","null","null","arrowup","[0.675,0.325,0.15,0.85]","","",""
"sailing-trial","105","620815","0.0-11.0-70.0","","","","false","","","","","","","","","","581.8000000119209","","70.5","","0","1","arrowleft","0","arrowleft","[0.675,0.325,0.15,0.85]","","",""
"sailing-trial","106","623306","0.0-11.0-71.0","","","","false","","","","","","","","","","null","","870.5999999642372","","3","1","null","null","arrowup","[0.675,0.325,0.15,0.85]","","",""
"sailing-trial","107","626695","0.0-11.0-72.0","","","","false","","","","","","","","","","544.5","","204.69999998807907","","0","1","arrowleft","0","arrowleft","[0.85,0.15,0.325,0.675]","","",""
"sailing-trial","108","629350","0.0-11.0-73.0","","","","false","","","","","","","","","","null","","950","","0","1","null","null","arrowup","[0.85,0.15,0.325,0.675]","","",""
"sailing-trial","109","634071","0.0-11.0-74.0","","","","false","","","","","","","","","","733.8000000119209","","1032.699999988079","","0","1","arrowleft","0","arrowleft","[0.85,0.15,0.325,0.675]","","",""
"sailing-trial","110","636280","0.0-11.0-75.0","","","","false","","","","","","","","","","null","","909.3999999761581","","0","0","null","null","arrowup","[0.85,0.15,0.325,0.675]","","",""
"sailing-trial","111","639410","0.0-11.0-76.0","","","","false","","","","","","","","","","324.89999997615814","","13.599999964237213","","3","1","arrowright","1","arrowright","[0.85,0.15,0.325,0.675]","","",""
"sailing-trial","112","642179","0.0-11.0-77.0","","","","false","","","","","","","","","","null","","818.5","","0","1","null","null","arrowup","[0.85,0.15,0.325,0.675]","","",""
"sailing-trial","113","645612","0.0-11.0-78.0","","","","false","","","","","","","","","","593.3000000119209","","212.9000000357628","","0","1","arrowleft","0","arrowleft","[0.85,0.15,0.325,0.675]","","",""
"sailing-trial","114","647553","0.0-11.0-79.0","","","","false","","","","","","","","","","null","","841.5999999642372","","2","0","null","null","arrowup","[0.85,0.15,0.325,0.675]","","",""
"sailing-trial","115","650558","0.0-11.0-80.0","","","","false","","","","","","","","","","355.69999998807907","","40.39999997615814","","0","1","arrowleft","0","arrowleft","[0.85,0.15,0.325,0.675]","","",""
"sailing-trial","116","652672","0.0-11.0-81.0","","","","false","","","","","","","","","","null","","862.3999999761581","","1","0","null","null","arrowup","[0.85,0.15,0.325,0.675]","","",""
"sailing-trial","117","656193","0.0-11.0-82.0","","","","false","","","","","","","","","","437.39999997615814","","258.5","","0","1","arrowleft","0","arrowleft","[0.85,0.15,0.325,0.675]","","",""
"sailing-trial","118","658184","0.0-11.0-83.0","","","","false","","","","","","","","","","null","","802.1000000238419","","1","0","null","null","arrowup","[0.85,0.15,0.325,0.675]","","",""
"sailing-trial","119","661351","0.0-11.0-84.0","","","","false","","","","","","","","","","324.5999999642372","","225.89999997615814","","0","1","arrowleft","0","arrowleft","[0.85,0.15,0.325,0.675]","","",""
"sailing-trial","120","663851","0.0-11.0-85.0","","","","false","","","","","","","","","","null","","788.5","","3","1","null","null","arrowup","[0.85,0.15,0.325,0.675]","","",""
"sailing-trial","121","666943","0.0-11.0-86.0","","","","false","","","","","","","","","","352.39999997615814","","39.59999996423721","","0","1","arrowleft","0","arrowleft","[0.85,0.15,0.325,0.675]","","",""
"sailing-trial","122","669400","0.0-11.0-87.0","","","","false","","","","","","","","","","null","","780.3000000119209","","2","1","null","null","arrowup","[0.85,0.15,0.325,0.675]","","",""
"sailing-trial","123","672504","0.0-11.0-88.0","","","","false","","","","","","","","","","363","","539.0999999642372","","0","0","arrowleft","0","arrowleft","[0.15,0.85,0.675,0.325]","","",""
"sailing-trial","124","675308","0.0-11.0-89.0","","","","false","","","","","","","","","","null","","1453.7999999523163","","0","0","null","null","arrowup","[0.15,0.85,0.675,0.325]","","",""
"sailing-trial","125","678176","0.0-11.0-90.0","","","","false","","","","","","","","","","215","","2.699999988079071","","3","1","arrowright","1","arrowright","[0.15,0.85,0.675,0.325]","","",""
"sailing-trial","126","680953","0.0-11.0-91.0","","","","false","","","","","","","","","","null","","994.9000000357628","","2","1","null","null","arrowup","[0.15,0.85,0.675,0.325]","","",""
"sailing-trial","127","683863","0.0-11.0-92.0","","","","false","","","","","","","","","","698.3999999761581","","14.099999964237213","","3","0","arrowright","1","arrowright","[0.15,0.85,0.675,0.325]","","",""
"sailing-trial","128","685767","0.0-11.0-93.0","","","","false","","","","","","","","","","null","","821.5","","0","0","null","null","arrowup","[0.15,0.85,0.675,0.325]","","",""
"sailing-trial","129","689144","0.0-11.0-94.0","","","","false","","","","","","","","","","396.80000001192093","","232.10000002384186","","2","0","arrowright","1","arrowleft","[0.15,0.85,0.675,0.325]","","",""
"sailing-trial","130","690874","0.0-11.0-95.0","","","","false","","","","","","","","","","null","","611.5","","3","0","null","null","arrowup","[0.15,0.85,0.675,0.325]","","",""
"sailing-trial","131","693880","0.0-11.0-96.0","","","","false","","","","","","","","","","402.5","","340.10000002384186","","0","0","arrowleft","0","arrowleft","[0.15,0.85,0.675,0.325]","","",""
"sailing-trial","132","696332","0.0-11.0-97.0","","","","false","","","","","","","","","","null","","901","","1","1","null","null","arrowup","[0.15,0.85,0.675,0.325]","","",""
"sailing-trial","133","700216","0.0-11.0-98.0","","","","false","","","","","","","","","","519.8000000119209","","356.5999999642372","","1","1","arrowleft","0","arrowright","[0.15,0.85,0.675,0.325]","","",""
"sailing-trial","134","702740","0.0-11.0-99.0","","","","false","","","","","","","","","","null","","924.5","","3","1","null","null","arrowup","[0.15,0.85,0.675,0.325]","","",""
"sailing-trial","135","705807","0.0-11.0-100.0","","","","false","","","","","","","","","","304.5","","128.30000001192093","","1","1","arrowleft","0","arrowright","[0.15,0.85,0.675,0.325]","","",""
"sailing-trial","136","707904","0.0-11.0-101.0","","","","false","","","","","","","","","","null","","852.1000000238419","","3","0","null","null","arrowup","[0.15,0.85,0.675,0.325]","","",""
"sailing-trial","137","710934","0.0-11.0-102.0","","","","false","","","","","","","","","","348.5999999642372","","61.700000047683716","","1","1","arrowleft","0","arrowright","[0.15,0.85,0.675,0.325]","","",""
"sailing-trial","138","713113","0.0-11.0-103.0","","","","false","","","","","","","","","","null","","948.8999999761581","","0","0","null","null","arrowup","[0.15,0.85,0.675,0.325]","","",""
"sailing-trial","139","716232","0.0-11.0-104.0","","","","false","","","","","","","","","","267.80000001192093","","108.10000002384186","","1","1","arrowleft","0","arrowright","[0.675,0.325,0.15,0.85]","","",""
"sailing-trial","140","718753","0.0-11.0-105.0","","","","false","","","","","","","","","","null","","921.1999999880791","","3","1","null","null","arrowup","[0.675,0.325,0.15,0.85]","","",""
"sailing-trial","141","721464","0.0-11.0-106.0","","","","false","","","","","","","","","","434.5999999642372","","238.5","","1","0","arrowleft","0","arrowright","[0.675,0.325,0.15,0.85]","","",""
"sailing-trial","142","723849","0.0-11.0-107.0","","","","false","","","","","","","","","","null","","852.6000000238419","","0","1","null","null","arrowup","[0.675,0.325,0.15,0.85]","","",""
"sailing-trial","143","727198","0.0-11.0-108.0","","","","false","","","","","","","","","","187.20000004768372","","371.4000000357628","","0","1","arrowleft","0","arrowleft","[0.675,0.325,0.15,0.85]","","",""
"sailing-trial","144","729761","0.0-11.0-109.0","","","","false","","","","","","","","","","null","","973.8999999761581","","2","0","null","null","arrowup","[0.675,0.325,0.15,0.85]","","",""
"sailing-trial","145","733321","0.0-11.0-110.0","","","","false","","","","","","","","","","275.60000002384186","","1110.2000000476837","","0","0","arrowleft","0","arrowleft","[0.675,0.325,0.15,0.85]","","",""
"sailing-trial","146","735399","0.0-11.0-111.0","","","","false","","","","","","","","","","null","","875.1999999880791","","1","0","null","null","arrowup","[0.675,0.325,0.15,0.85]","","",""
"sailing-trial","147","738104","0.0-11.0-112.0","","","","false","","","","","","","","","","324.7999999523163","","153.69999998807907","","3","0","arrowright","1","arrowright","[0.675,0.325,0.15,0.85]","","",""
"sailing-trial","148","739975","0.0-11.0-113.0","","","","false","","","","","","","","","","null","","812.3999999761581","","2","0","null","null","arrowup","[0.675,0.325,0.15,0.85]","","",""
"sailing-trial","149","743088","0.0-11.0-114.0","","","","false","","","","","","","","","","300","","200.5","","3","1","arrowright","1","arrowright","[0.675,0.325,0.15,0.85]","","",""
"sailing-trial","150","745534","0.0-11.0-115.0","","","","false","","","","","","","","","","null","","835.8000000119209","","2","1","null","null","arrowup","[0.675,0.325,0.15,0.85]","","",""
"sailing-trial","151","748463","0.0-11.0-116.0","","","","false","","","","","","","","","","397.69999998807907","","287.19999998807907","","0","0","arrowleft","0","arrowleft","[0.675,0.325,0.15,0.85]","","",""
"sailing-trial","152","750850","0.0-11.0-117.0","","","","false","","","","","","","","","","null","","837.9000000357628","","3","1","null","null","arrowup","[0.675,0.325,0.15,0.85]","","",""
"sailing-trial","153","754404","0.0-11.0-118.0","","","","false","","","","","","","","","","417.9000000357628","","492.89999997615814","","3","1","arrowright","1","arrowright","[0.675,0.325,0.15,0.85]","","",""
"sailing-trial","154","756878","0.0-11.0-119.0","","","","false","","","","","","","","","","null","","839.2999999523163","","0","1","null","null","arrowup","[0.675,0.325,0.15,0.85]","","",""
"sailing-trial","155","760438","0.0-11.0-120.0","","","","false","","","","","","","","","","800.8000000119209","","71.20000004768372","","3","1","arrowright","1","arrowright","[0.675,0.325,0.15,0.85]","","",""
"sailing-trial","156","762424","0.0-11.0-121.0","","","","false","","","","","","","","","","null","","766.5999999642372","","0","0","null","null","arrowup","[0.675,0.325,0.15,0.85]","","",""
"sailing-trial","157","765848","0.0-11.0-122.0","","","","false","","","","","","","","","","404.39999997615814","","516.5","","3","0","arrowright","1","arrowright","[0.15,0.85,0.675,0.325]","","",""
"sailing-trial","158","768524","0.0-11.0-123.0","","","","false","","","","","","","","","","null","","1075.8999999761581","","1","1","null","null","arrowup","[0.15,0.85,0.675,0.325]","","",""
"sailing-trial","159","771950","0.0-11.0-124.0","","","","false","","","","","","","","","","551.5999999642372","","76.60000002384186","","1","1","arrowleft","0","arrowright","[0.15,0.85,0.675,0.325]","","",""
"sailing-trial","160","774359","0.0-11.0-125.0","","","","false","","","","","","","","","","null","","965.1000000238419","","3","0","null","null","arrowup","[0.15,0.85,0.675,0.325]","","",""
"sailing-trial","161","778673","0.0-11.0-126.0","","","","false","","","","","","","","","","1076.8999999761581","","291.30000001192093","","1","1","arrowleft","0","arrowright","[0.15,0.85,0.675,0.325]","","",""
"sailing-trial","162","781698","0.0-11.0-127.0","","","","false","","","","","","","","","","null","","762.1999999880791","","1","1","null","null","arrowup","[0.15,0.85,0.675,0.325]","","",""
"sailing-trial","163","785761","0.0-11.0-128.0","","","","false","","","","","","","","","","737.7999999523163","","168.19999998807907","","1","1","arrowleft","0","arrowright","[0.15,0.85,0.675,0.325]","","",""
"sailing-trial","164","789020","0.0-11.0-129.0","","","","false","","","","","","","","","","null","","1242","","2","1","null","null","arrowup","[0.15,0.85,0.675,0.325]","","",""
"sailing-trial","165","793252","0.0-11.0-130.0","","","","false","","","","","","","","","","1224.3999999761581","","333.0999999642372","","1","1","arrowleft","0","arrowright","[0.15,0.85,0.675,0.325]","","",""
"sailing-trial","166","795471","0.0-11.0-131.0","","","","false","","","","","","","","","","null","","663.8999999761581","","3","1","null","null","arrowup","[0.15,0.85,0.675,0.325]","","",""
"sailing-trial","167","798225","0.0-11.0-132.0","","","","false","","","","","","","","","","12.899999976158142","","38.799999952316284","","1","1","arrowleft","0","arrowright","[0.15,0.85,0.675,0.325]","","",""
"sailing-trial","168","800560","0.0-11.0-133.0","","","","false","","","","","","","","","","null","","873.8000000119209","","3","0","null","null","arrowup","[0.15,0.85,0.675,0.325]","","",""
"sailing-trial","169","803470","0.0-11.0-134.0","","","","false","","","","","","","","","","234.4000000357628","","3.199999988079071","","1","1","arrowleft","0","arrowright","[0.15,0.85,0.675,0.325]","","",""
"sailing-trial","170","806072","0.0-11.0-135.0","","","","false","","","","","","","","","","null","","524.6999999880791","","2","0","null","null","arrowup","[0.15,0.85,0.675,0.325]","","",""
"sailing-trial","171","809764","0.0-11.0-136.0","","","","false","","","","","","","","","","132.5999999642372","","576.3999999761581","","1","1","arrowleft","0","arrowright","[0.15,0.85,0.675,0.325]","","",""
"sailing-trial","172","811839","0.0-11.0-137.0","","","","false","","","","","","","","","","null","","969.1999999880791","","0","0","null","null","arrowup","[0.15,0.85,0.675,0.325]","","",""
"sailing-trial","173","814959","0.0-11.0-138.0","","","","false","","","","","","","","","","373.9000000357628","","50.60000002384186","","1","1","arrowleft","0","arrowright","[0.15,0.85,0.675,0.325]","","",""
"sailing-trial","174","817294","0.0-11.0-139.0","","","","false","","","","","","","","","","null","","781","","1","1","null","null","arrowup","[0.15,0.85,0.675,0.325]","","",""
"sailing-trial","175","821178","0.0-11.0-140.0","","","","false","","","","","","","","","","602.1000000238419","","218.10000002384186","","1","1","arrowleft","0","arrowright","[0.325,0.675,0.85,0.15]","","",""
"sailing-trial","176","823614","0.0-11.0-141.0","","","","false","","","","","","","","","","null","","690.5","","2","1","null","null","arrowup","[0.325,0.675,0.85,0.15]","","",""
"sailing-trial","177","827175","0.0-11.0-142.0","","","","false","","","","","","","","","","606.1999999880791","","258.19999998807907","","1","1","arrowleft","0","arrowright","[0.325,0.675,0.85,0.15]","","",""
"sailing-trial","178","829760","0.0-11.0-143.0","","","","false","","","","","","","","","","null","","846.3999999761581","","2","1","null","null","arrowup","[0.325,0.675,0.85,0.15]","","",""
"sailing-trial","179","833246","0.0-11.0-144.0","","","","false","","","","","","","","","","581.1999999880791","","125.89999997615814","","1","1","arrowleft","0","arrowright","[0.325,0.675,0.85,0.15]","","",""
"sailing-trial","180","836528","0.0-11.0-145.0","","","","false","","","","","","","","","","null","","944.6999999880791","","1","0","null","null","arrowup","[0.325,0.675,0.85,0.15]","","",""
"sailing-trial","181","839303","0.0-11.0-146.0","","","","false","","","","","","","","","","373","","315.7000000476837","","3","0","arrowright","1","arrowright","[0.325,0.675,0.85,0.15]","","",""
"sailing-trial","182","841768","0.0-11.0-147.0","","","","false","","","","","","","","","","null","","774","","1","1","null","null","arrowup","[0.325,0.675,0.85,0.15]","","",""
"sailing-trial","183","845497","0.0-11.0-148.0","","","","false","","","","","","","","","","883.6999999880791","","68.90000003576279","","1","1","arrowleft","0","arrowright","[0.325,0.675,0.85,0.15]","","",""
"sailing-trial","184","848688","0.0-11.0-149.0","","","","false","","","","","","","","","","null","","928.6999999880791","","3","0","null","null","arrowup","[0.325,0.675,0.85,0.15]","","",""
"sailing-trial","185","852867","0.0-11.0-150.0","","","","false","","","","","","","","","","501.4000000357628","","659.2999999523163","","1","1","arrowleft","0","arrowright","[0.325,0.675,0.85,0.15]","","",""
"sailing-trial","186","855984","0.0-11.0-151.0","","","","false","","","","","","","","","","null","","968.8999999761581","","0","0","null","null","arrowup","[0.325,0.675,0.85,0.15]","","",""
"sailing-trial","187","859482","0.0-11.0-152.0","","","","false","","","","","","","","","","746.7000000476837","","195.69999998807907","","2","1","arrowright","1","arrowleft","[0.325,0.675,0.85,0.15]","","",""
"sailing-trial","188","861904","0.0-11.0-153.0","","","","false","","","","","","","","","","null","","715","","1","1","null","null","arrowup","[0.325,0.675,0.85,0.15]","","",""
"sailing-trial","189","865967","0.0-11.0-154.0","","","","false","","","","","","","","","","1125.1000000238419","","80.39999997615814","","1","1","arrowleft","0","arrowright","[0.325,0.675,0.85,0.15]","","",""
"sailing-trial","190","868328","0.0-11.0-155.0","","","","false","","","","","","","","","","null","","1029.699999988079","","0","0","null","null","arrowup","[0.325,0.675,0.85,0.15]","","",""
"sailing-trial","191","872902","0.0-11.0-156.0","","","","false","","","","","","","","","","963.9000000357628","","992.3999999761581","","1","1","arrowleft","0","arrowright","[0.15,0.85,0.675,0.325]","","",""
"sailing-trial","192","876273","0.0-11.0-157.0","","","","false","","","","","","","","","","null","","1174","","1","1","null","null","arrowup","[0.15,0.85,0.675,0.325]","","",""
"sailing-trial","193","882437","0.0-11.0-158.0","","","","false","","","","","","","","","","2082.899999976158","","854.5","","1","1","arrowleft","0","arrowright","[0.15,0.85,0.675,0.325]","","",""
"sailing-trial","194","884360","0.0-11.0-159.0","","","","false","","","","","","","","","","null","","902.1999999880791","","3","0","null","null","arrowup","[0.15,0.85,0.675,0.325]","","",""
"sailing-trial","195","888041","0.0-11.0-160.0","","","","false","","","","","","","","","","908.9000000357628","","340.10000002384186","","1","0","arrowleft","0","arrowright","[0.15,0.85,0.675,0.325]","","",""
"sailing-trial","196","890808","0.0-11.0-161.0","","","","false","","","","","","","","","","null","","842.5999999642372","","2","1","null","null","arrowup","[0.15,0.85,0.675,0.325]","","",""
"sailing-trial","197","894672","0.0-11.0-162.0","","","","false","","","","","","","","","","603.6000000238419","","264","","1","1","arrowleft","0","arrowright","[0.15,0.85,0.675,0.325]","","",""
"sailing-trial","198","897270","0.0-11.0-163.0","","","","false","","","","","","","","","","null","","779.5","","1","1","null","null","arrowup","[0.15,0.85,0.675,0.325]","","",""
"sailing-trial","199","900767","0.0-11.0-164.0","","","","false","","","","","","","","","","702.5","","195.19999998807907","","1","1","arrowleft","0","arrowright","[0.15,0.85,0.675,0.325]","","",""
"sailing-trial","200","903544","0.0-11.0-165.0","","","","false","","","","","","","","","","null","","805.3999999761581","","3","0","null","null","arrowup","[0.15,0.85,0.675,0.325]","","",""
"sailing-trial","201","907609","0.0-11.0-166.0","","","","false","","","","","","","","","","820.6000000238419","","608.3999999761581","","1","1","arrowleft","0","arrowright","[0.15,0.85,0.675,0.325]","","",""
"sailing-trial","202","912020","0.0-11.0-167.0","","","","false","","","","","","","","","","null","","1404.699999988079","","2","0","null","null","arrowup","[0.15,0.85,0.675,0.325]","","",""
"sailing-trial","203","917063","0.0-11.0-168.0","","","","false","","","","","","","","","","728.3000000119209","","294.0999999642372","","1","0","arrowleft","0","arrowright","[0.15,0.85,0.675,0.325]","","",""
"sailing-trial","204","919000","0.0-11.0-169.0","","","","false","","","","","","","","","","null","","708.6999999880791","","3","0","null","null","arrowup","[0.15,0.85,0.675,0.325]","","",""
"sailing-trial","205","922641","0.0-11.0-170.0","","","","false","","","","","","","","","","525.1000000238419","","138.5","","2","1","arrowright","1","arrowleft","[0.15,0.85,0.675,0.325]","","",""
"sailing-trial","206","924704","0.0-11.0-171.0","","","","false","","","","","","","","","","null","","744.8000000119209","","0","0","null","null","arrowup","[0.15,0.85,0.675,0.325]","","",""
"sailing-trial","207","929882","0.0-11.0-172.0","","","","false","","","","","","","","","","731.3999999761581","","370.5999999642372","","2","0","arrowright","1","arrowleft","[0.15,0.85,0.675,0.325]","","",""
"sailing-trial","208","932743","0.0-11.0-173.0","","","","false","","","","","","","","","","null","","818.2999999523163","","3","1","null","null","arrowup","[0.15,0.85,0.675,0.325]","","",""
"sailing-trial","209","936200","0.0-11.0-174.0","","","","false","","","","","","","","","","612.1000000238419","","60.89999997615814","","1","1","arrowleft","0","arrowright","[0.15,0.85,0.675,0.325]","","",""
"sailing-trial","210","939275","0.0-11.0-175.0","","","","false","","","","","","","","","","null","","1499.3999999761581","","2","1","null","null","arrowup","[0.15,0.85,0.675,0.325]","","",""
"sailing-trial","211","943365","0.0-11.0-176.0","","","","false","","","","","","","","","","1257.4000000357628","","37.5","","1","1","arrowleft","0","arrowright","[0.15,0.85,0.675,0.325]","","",""
"sailing-trial","212","946308","0.0-11.0-177.0","","","","false","","","","","","","","","","null","","857.7999999523163","","1","1","null","null","arrowup","[0.15,0.85,0.675,0.325]","","",""
"sailing-trial","213","949969","0.0-11.0-178.0","","","","false","","","","","","","","","","526.3999999761581","","240.80000001192093","","1","1","arrowleft","0","arrowright","[0.15,0.85,0.675,0.325]","","",""
"sailing-trial","214","953175","0.0-11.0-179.0","","","","false","","","","","","","","","","null","","858.5","","2","0","null","null","arrowup","[0.15,0.85,0.675,0.325]","","",""
"sailing-trial","215","956891","0.0-11.0-180.0","","","","false","","","","","","","","","","925.2999999523163","","194.0999999642372","","1","1","arrowleft","0","arrowright","[0.325,0.675,0.85,0.15]","","",""
"sailing-trial","216","959276","0.0-11.0-181.0","","","","false","","","","","","","","","","null","","808.7999999523163","","2","1","null","null","arrowup","[0.325,0.675,0.85,0.15]","","",""
"sailing-trial","217","962640","0.0-11.0-182.0","","","","false","","","","","","","","","","704.3999999761581","","320","","3","0","arrowright","1","arrowright","[0.325,0.675,0.85,0.15]","","",""
"sailing-trial","218","964591","0.0-11.0-183.0","","","","false","","","","","","","","","","null","","787.6999999880791","","2","0","null","null","arrowup","[0.325,0.675,0.85,0.15]","","",""
"sailing-trial","219","968140","0.0-11.0-184.0","","","","false","","","","","","","","","","608.1000000238419","","155.70000004768372","","1","1","arrowleft","0","arrowright","[0.325,0.675,0.85,0.15]","","",""
"sailing-trial","220","970223","0.0-11.0-185.0","","","","false","","","","","","","","","","null","","1015.1000000238419","","0","0","null","null","arrowup","[0.325,0.675,0.85,0.15]","","",""
"sailing-trial","221","973684","0.0-11.0-186.0","","","","false","","","","","","","","","","405.2000000476837","","278.80000001192093","","1","1","arrowleft","0","arrowright","[0.325,0.675,0.85,0.15]","","",""
"sailing-trial","222","976251","0.0-11.0-187.0","","","","false","","","","","","","","","","null","","991.1999999880791","","2","1","null","null","arrowup","[0.325,0.675,0.85,0.15]","","",""
"sailing-trial","223","979215","0.0-11.0-188.0","","","","false","","","","","","","","","","488.30000001192093","","286.19999998807907","","1","0","arrowleft","0","arrowright","[0.325,0.675,0.85,0.15]","","",""
"sailing-trial","224","981520","0.0-11.0-189.0","","","","false","","","","","","","","","","null","","1076.800000011921","","3","0","null","null","arrowup","[0.325,0.675,0.85,0.15]","","",""
"sailing-trial","225","985322","0.0-11.0-190.0","","","","false","","","","","","","","","","731.8000000119209","","250.5","","1","1","arrowleft","0","arrowright","[0.325,0.675,0.85,0.15]","","",""
"sailing-trial","226","988256","0.0-11.0-191.0","","","","false","","","","","","","","","","null","","1001","","0","0","null","null","arrowup","[0.325,0.675,0.85,0.15]","","",""
"sailing-trial","227","991376","0.0-11.0-192.0","","","","false","","","","","","","","","","348.0999999642372","","59.89999997615814","","1","1","arrowleft","0","arrowright","[0.325,0.675,0.85,0.15]","","",""
"sailing-trial","228","993950","0.0-11.0-193.0","","","","false","","","","","","","","","","null","","923.8999999761581","","1","1","null","null","arrowup","[0.325,0.675,0.85,0.15]","","",""
"sailing-trial","229","997126","0.0-11.0-194.0","","","","false","","","","","","","","","","357.60000002384186","","177.89999997615814","","1","1","arrowleft","0","arrowright","[0.325,0.675,0.85,0.15]","","",""
"sailing-trial","230","998784","0.0-11.0-195.0","","","","false","","","","","","","","","","null","","13.5","","2","1","null","null","arrowup","[0.325,0.675,0.85,0.15]","","",""
"sailing-trial","231","1001687","0.0-11.0-196.0","","","","false","","","","","","","","","","20.399999976158142","","210.60000002384186","","1","1","arrowleft","0","arrowright","[0.325,0.675,0.85,0.15]","","",""
"sailing-trial","232","1003008","0.0-11.0-197.0","","","","false","","","","","","","","","","null","","154.89999997615814","","3","0","null","null","arrowup","[0.325,0.675,0.85,0.15]","","",""
"sailing-trial","233","1006443","0.0-11.0-198.0","","","","false","","","","","","","","","","395.80000001192093","","22.200000047683716","","1","1","arrowleft","0","arrowright","[0.325,0.675,0.85,0.15]","","",""
"sailing-trial","234","1007631","0.0-11.0-199.0","","","","false","","","","","","","","","","null","","71.60000002384186","","1","0","null","null","arrowup","[0.325,0.675,0.85,0.15]","","",""
"sailing-trial","235","1010733","0.0-11.0-200.0","","","","false","","","","","","","","","","421.60000002384186","","35.5","","1","1","arrowleft","0","arrowright","[0.15,0.85,0.675,0.325]","","",""
"sailing-trial","236","1012541","0.0-11.0-201.0","","","","false","","","","","","","","","","null","","124.30000001192093","","1","1","null","null","arrowup","[0.15,0.85,0.675,0.325]","","",""
"sailing-trial","237","1016012","0.0-11.0-202.0","","","","false","","","","","","","","","","246.69999998807907","","80.19999998807907","","1","1","arrowleft","0","arrowright","[0.15,0.85,0.675,0.325]","","",""
"sailing-trial","238","1017375","0.0-11.0-203.0","","","","false","","","","","","","","","","null","","127.60000002384186","","3","0","null","null","arrowup","[0.15,0.85,0.675,0.325]","","",""
"sailing-trial","239","1019800","0.0-11.0-204.0","","","","false","","","","","","","","","","189.9000000357628","","157.29999995231628","","1","0","arrowleft","0","arrowright","[0.15,0.85,0.675,0.325]","","",""
"sailing-trial","240","1021961","0.0-11.0-205.0","","","","false","","","","","","","","","","null","","444.5","","1","1","null","null","arrowup","[0.15,0.85,0.675,0.325]","","",""
"sailing-trial","241","1025254","0.0-11.0-206.0","","","","false","","","","","","","","","","225.10000002384186","","179.5","","1","1","arrowleft","0","arrowright","[0.15,0.85,0.675,0.325]","","",""
"sailing-trial","242","1026334","0.0-11.0-207.0","","","","false","","","","","","","","","","null","","0.30000001192092896","","0","0","null","null","arrowup","[0.15,0.85,0.675,0.325]","","",""
"sailing-trial","243","1029936","0.0-11.0-208.0","","","","false","","","","","","","","","","295.19999998807907","","22.899999976158142","","1","1","arrowleft","0","arrowright","[0.15,0.85,0.675,0.325]","","",""
"sailing-trial","244","1031695","0.0-11.0-209.0","","","","false","","","","","","","","","","null","","123.90000003576279","","1","1","null","null","arrowup","[0.15,0.85,0.675,0.325]","","",""
"sailing-trial","245","1034552","0.0-11.0-210.0","","","","false","","","","","","","","","","29.30000001192093","","107.19999998807907","","1","1","arrowleft","0","arrowright","[0.15,0.85,0.675,0.325]","","",""
"sailing-trial","246","1036065","0.0-11.0-211.0","","","","false","","","","","","","","","","null","","59.69999998807907","","3","0","null","null","arrowup","[0.15,0.85,0.675,0.325]","","",""
"sailing-trial","247","1039442","0.0-11.0-212.0","","","","false","","","","","","","","","","250.89999997615814","","63.799999952316284","","1","1","arrowleft","0","arrowright","[0.15,0.85,0.675,0.325]","","",""
"sailing-trial","248","1041196","0.0-11.0-213.0","","","","false","","","","","","","","","","null","","49.09999996423721","","1","1","null","null","arrowup","[0.15,0.85,0.675,0.325]","","",""
"sailing-trial","249","1043824","0.0-11.0-214.0","","","","false","","","","","","","","","","200.69999998807907","","272.69999998807907","","1","0","arrowleft","0","arrowright","[0.15,0.85,0.675,0.325]","","",""
"sailing-trial","250","1045824","0.0-11.0-215.0","","","","false","","","","","","","","","","null","","307.9000000357628","","3","0","null","null","arrowup","[0.15,0.85,0.675,0.325]","","",""
"sailing-trial","251","1049157","0.0-11.0-216.0","","","","false","","","","","","","","","","380","","208.0999999642372","","2","1","arrowright","1","arrowleft","[0.325,0.675,0.85,0.15]","","",""
"sailing-trial","252","1051577","0.0-11.0-217.0","","","","false","","","","","","","","","","null","","1002.3000000119209","","3","0","null","null","arrowup","[0.325,0.675,0.85,0.15]","","",""
"sailing-trial","253","1054830","0.0-11.0-218.0","","","","false","","","","","","","","","","386.5","","140","","2","1","arrowright","1","arrowleft","[0.325,0.675,0.85,0.15]","","",""
"sailing-trial","254","1057414","0.0-11.0-219.0","","","","false","","","","","","","","","","null","","886.2000000476837","","2","1","null","null","arrowup","[0.325,0.675,0.85,0.15]","","",""
"sailing-trial","255","1060527","0.0-11.0-220.0","","","","false","","","","","","","","","","253.4000000357628","","215.80000001192093","","2","1","arrowright","1","arrowleft","[0.325,0.675,0.85,0.15]","","",""
"sailing-trial","256","1062469","0.0-11.0-221.0","","","","false","","","","","","","","","","null","","85.5","","1","1","null","null","arrowup","[0.325,0.675,0.85,0.15]","","",""
"sailing-trial","257","1065910","0.0-11.0-222.0","","","","false","","","","","","","","","","423.5999999642372","","421.80000001192093","","1","1","arrowleft","0","arrowright","[0.325,0.675,0.85,0.15]","","",""
"sailing-trial","258","1068361","0.0-11.0-223.0","","","","false","","","","","","","","","","null","","918.1000000238419","","2","1","null","null","arrowup","[0.325,0.675,0.85,0.15]","","",""
"sailing-trial","259","1072117","0.0-11.0-224.0","","","","false","","","","","","","","","","490.19999998807907","","156.80000001192093","","1","1","arrowleft","0","arrowright","[0.325,0.675,0.85,0.15]","","",""
"sailing-trial","260","1073456","0.0-11.0-225.0","","","","false","","","","","","","","","","null","","94.40000003576279","","3","0","null","null","arrowup","[0.325,0.675,0.85,0.15]","","",""
"sailing-trial","261","1076408","0.0-11.0-226.0","","","","false","","","","","","","","","","115.10000002384186","","72.19999998807907","","1","1","arrowleft","0","arrowright","[0.325,0.675,0.85,0.15]","","",""
"sailing-trial","262","1077768","0.0-11.0-227.0","","","","false","","","","","","","","","","null","","107.90000003576279","","1","0","null","null","arrowup","[0.325,0.675,0.85,0.15]","","",""
"sailing-trial","263","1081020","0.0-11.0-228.0","","","","false","","","","","","","","","","100.39999997615814","","53.19999998807907","","1","1","arrowleft","0","arrowright","[0.325,0.675,0.85,0.15]","","",""
"sailing-trial","264","1082456","0.0-11.0-229.0","","","","false","","","","","","","","","","null","","200.5","","3","0","null","null","arrowup","[0.325,0.675,0.85,0.15]","","",""
"sailing-trial","265","1085622","0.0-11.0-230.0","","","","false","","","","","","","","","","67.29999995231628","","31.799999952316284","","1","1","arrowleft","0","arrowright","[0.325,0.675,0.85,0.15]","","",""
"sailing-trial","266","1087017","0.0-11.0-231.0","","","","false","","","","","","","","","","null","","109.90000003576279","","2","0","null","null","arrowup","[0.325,0.675,0.85,0.15]","","",""
"sailing-trial","267","1090023","0.0-11.0-232.0","","","","false","","","","","","","","","","218.10000002384186","","150.9000000357628","","2","1","arrowright","1","arrowleft","[0.325,0.675,0.85,0.15]","","",""
"sailing-trial","268","1092185","0.0-11.0-233.0","","","","false","","","","","","","","","","null","","766.2000000476837","","3","0","null","null","arrowup","[0.325,0.675,0.85,0.15]","","",""
"sailing-trial","269","1094705","0.0-11.0-234.0","","","","false","","","","","","","","","","259.30000001192093","","123","","1","0","arrowleft","0","arrowright","[0.15,0.85,0.675,0.325]","","",""
"sailing-trial","270","1097455","0.0-11.0-235.0","","","","false","","","","","","","","","","null","","811","","0","1","null","null","arrowup","[0.15,0.85,0.675,0.325]","","",""
"sailing-trial","271","1099919","0.0-11.0-236.0","","","","false","","","","","","","","","","189.9000000357628","","138","","0","0","arrowleft","0","arrowleft","[0.15,0.85,0.675,0.325]","","",""
"sailing-trial","272","1101954","0.0-11.0-237.0","","","","false","","","","","","","","","","null","","789.8000000119209","","1","0","null","null","arrowup","[0.15,0.85,0.675,0.325]","","",""
"sailing-trial","273","1106143","0.0-11.0-238.0","","","","false","","","","","","","","","","1346.800000011921","","90.19999998807907","","1","1","arrowleft","0","arrowright","[0.15,0.85,0.675,0.325]","","",""
"sailing-trial","274","1108072","0.0-11.0-239.0","","","","false","","","","","","","","","","null","","739.8999999761581","","1","0","null","null","arrowup","[0.15,0.85,0.675,0.325]","","",""
"sailing-trial","275","1111126","0.0-11.0-240.0","","","","false","","","","","","","","","","252.5999999642372","","117.19999998807907","","2","1","arrowright","1","arrowleft","[0.15,0.85,0.675,0.325]","","",""
"sailing-trial","276","1112851","0.0-11.0-241.0","","","","false","","","","","","","","","","null","","669.3999999761581","","0","0","null","null","arrowup","[0.15,0.85,0.675,0.325]","","",""
"sailing-trial","277","1116392","0.0-11.0-242.0","","","","false","","","","","","","","","","352.9000000357628","","131.20000004768372","","2","1","arrowright","1","arrowleft","[0.15,0.85,0.675,0.325]","","",""
"sailing-trial","278","1118369","0.0-11.0-243.0","","","","false","","","","","","","","","","null","","779.6000000238419","","0","0","null","null","arrowup","[0.15,0.85,0.675,0.325]","","",""
"sailing-trial","279","1121967","0.0-11.0-244.0","","","","false","","","","","","","","","","379.7000000476837","","290.89999997615814","","2","1","arrowright","1","arrowleft","[0.15,0.85,0.675,0.325]","","",""
"sailing-trial","280","1124412","0.0-11.0-245.0","","","","false","","","","","","","","","","null","","854.4000000357628","","2","1","null","null","arrowup","[0.15,0.85,0.675,0.325]","","",""
"sailing-trial","281","1128812","0.0-11.0-246.0","","","","false","","","","","","","","","","767.8000000119209","","975.3999999761581","","2","1","arrowright","1","arrowleft","[0.15,0.85,0.675,0.325]","","",""
"sailing-trial","282","1132060","0.0-11.0-247.0","","","","false","","","","","","","","","","null","","1672.5","","2","1","null","null","arrowup","[0.15,0.85,0.675,0.325]","","",""
"sailing-trial","283","1135620","0.0-11.0-248.0","","","","false","","","","","","","","","","783.5","","220.89999997615814","","2","1","arrowright","1","arrowleft","[0.15,0.85,0.675,0.325]","","",""
"sailing-trial","284","1138218","0.0-11.0-249.0","","","","false","","","","","","","","","","null","","735.5999999642372","","0","0","null","null","arrowup","[0.15,0.85,0.675,0.325]","","",""
"sailing-trial","285","1142487","0.0-11.0-250.0","","","","false","","","","","","","","","","667.3000000119209","","485.5999999642372","","1","1","arrowleft","0","arrowright","[0.325,0.675,0.85,0.15]","","",""
"sailing-trial","286","1146031","0.0-11.0-251.0","","","","false","","","","","","","","","","null","","1484.6000000238419","","0","1","null","null","arrowup","[0.325,0.675,0.85,0.15]","","",""
"sailing-trial","287","1150016","0.0-11.0-252.0","","","","false","","","","","","","","","","997.6999999880791","","86.30000001192093","","2","1","arrowright","1","arrowleft","[0.325,0.675,0.85,0.15]","","",""
"sailing-trial","288","1153253","0.0-11.0-253.0","","","","false","","","","","","","","","","null","","1484.1000000238419","","2","1","null","null","arrowup","[0.325,0.675,0.85,0.15]","","",""
"sailing-trial","289","1157401","0.0-11.0-254.0","","","","false","","","","","","","","","","1087.5","","339.9000000357628","","2","1","arrowright","1","arrowleft","[0.325,0.675,0.85,0.15]","","",""
"sailing-trial","290","1160487","0.0-11.0-255.0","","","","false","","","","","","","","","","null","","1192.800000011921","","2","1","null","null","arrowup","[0.325,0.675,0.85,0.15]","","",""
"sailing-trial","291","1164618","0.0-11.0-256.0","","","","false","","","","","","","","","","917.8999999761581","","391.9000000357628","","2","1","arrowright","1","arrowleft","[0.325,0.675,0.85,0.15]","","",""
"sailing-trial","292","1167367","0.0-11.0-257.0","","","","false","","","","","","","","","","null","","1297","","3","0","null","null","arrowup","[0.325,0.675,0.85,0.15]","","",""
"sailing-trial","293","1171020","0.0-11.0-258.0","","","","false","","","","","","","","","","973.5","","43.09999996423721","","2","1","arrowright","1","arrowleft","[0.325,0.675,0.85,0.15]","","",""
"sailing-trial","294","1173199","0.0-11.0-259.0","","","","false","","","","","","","","","","null","","1144.4000000357628","","3","0","null","null","arrowup","[0.325,0.675,0.85,0.15]","","",""
"sailing-trial","295","1176779","0.0-11.0-260.0","","","","false","","","","","","","","","","917.1999999880791","","83","","2","1","arrowright","1","arrowleft","[0.325,0.675,0.85,0.15]","","",""
"sailing-trial","296","1179852","0.0-11.0-261.0","","","","false","","","","","","","","","","null","","1184.800000011921","","2","1","null","null","arrowup","[0.325,0.675,0.85,0.15]","","",""
"sailing-trial","297","1183833","0.0-11.0-262.0","","","","false","","","","","","","","","","723.1000000238419","","362.30000001192093","","2","1","arrowright","1","arrowleft","[0.325,0.675,0.85,0.15]","","",""
"sailing-trial","298","1186946","0.0-11.0-263.0","","","","false","","","","","","","","","","null","","1163.4000000357628","","1","1","null","null","arrowup","[0.325,0.675,0.85,0.15]","","",""
"sailing-trial","299","1191127","0.0-11.0-264.0","","","","false","","","","","","","","","","731.1000000238419","","276.9000000357628","","2","1","arrowright","1","arrowleft","[0.325,0.675,0.85,0.15]","","",""
"sailing-trial","300","1194208","0.0-11.0-265.0","","","","false","","","","","","","","","","null","","1714.7999999523163","","0","0","null","null","arrowup","[0.325,0.675,0.85,0.15]","","",""
"sailing-trial","301","1197360","0.0-11.0-266.0","","","","false","","","","","","","","","","290.39999997615814","","276.7999999523163","","2","0","arrowright","1","arrowleft","[0.85,0.15,0.325,0.675]","","",""
"sailing-trial","302","1199808","0.0-11.0-267.0","","","","false","","","","","","","","","","null","","828.6999999880791","","0","1","null","null","arrowup","[0.85,0.15,0.325,0.675]","","",""
"sailing-trial","303","1202521","0.0-11.0-268.0","","","","false","","","","","","","","","","491.19999998807907","","62.5","","1","0","arrowleft","0","arrowright","[0.85,0.15,0.325,0.675]","","",""
"sailing-trial","304","1204960","0.0-11.0-269.0","","","","false","","","","","","","","","","null","","811.5999999642372","","0","1","null","null","arrowup","[0.85,0.15,0.325,0.675]","","",""
"sailing-trial","305","1207982","0.0-11.0-270.0","","","","false","","","","","","","","","","82.79999995231628","","151.5","","0","1","arrowleft","0","arrowleft","[0.85,0.15,0.325,0.675]","","",""
"sailing-trial","306","1209056","0.0-11.0-271.0","","","","false","","","","","","","","","","null","","20.69999998807907","","2","0","null","null","arrowup","[0.85,0.15,0.325,0.675]","","",""
"sailing-trial","307","1211957","0.0-11.0-272.0","","","","false","","","","","","","","","","148.80000001192093","","75.70000004768372","","0","1","arrowleft","0","arrowleft","[0.85,0.15,0.325,0.675]","","",""
"sailing-trial","308","1213705","0.0-11.0-273.0","","","","false","","","","","","","","","","null","","108.19999998807907","","0","1","null","null","arrowup","[0.85,0.15,0.325,0.675]","","",""
"sailing-trial","309","1216834","0.0-11.0-274.0","","","","false","","","","","","","","","","194.80000001192093","","116.09999996423721","","0","1","arrowleft","0","arrowleft","[0.85,0.15,0.325,0.675]","","",""
"sailing-trial","310","1218446","0.0-11.0-275.0","","","","false","","","","","","","","","","null","","0.19999998807907104","","3","1","null","null","arrowup","[0.85,0.15,0.325,0.675]","","",""
"sailing-trial","311","1221224","0.0-11.0-276.0","","","","false","","","","","","","","","","0.30000001192092896","","25","","0","1","arrowleft","0","arrowleft","[0.85,0.15,0.325,0.675]","","",""
"sailing-trial","312","1222999","0.0-11.0-277.0","","","","false","","","","","","","","","","null","","153.80000001192093","","1","1","null","null","arrowup","[0.85,0.15,0.325,0.675]","","",""
"sailing-trial","313","1225936","0.0-11.0-278.0","","","","false","","","","","","","","","","13.899999976158142","","208.30000001192093","","0","1","arrowleft","0","arrowleft","[0.85,0.15,0.325,0.675]","","",""
"sailing-trial","314","1227377","0.0-11.0-279.0","","","","false","","","","","","","","","","null","","195.79999995231628","","2","0","null","null","arrowup","[0.85,0.15,0.325,0.675]","","",""
"sailing-trial","315","1231195","0.0-11.0-280.0","","","","false","","","","","","","","","","347.5","","1.800000011920929","","0","1","arrowleft","0","arrowleft","[0.85,0.15,0.325,0.675]","","",""
"sailing-trial","316","1232957","0.0-11.0-281.0","","","","false","","","","","","","","","","null","","184.80000001192093","","2","1","null","null","arrowup","[0.85,0.15,0.325,0.675]","","",""
"sailing-trial","317","1236234","0.0-11.0-282.0","","","","false","","","","","","","","","","262.9000000357628","","148.80000001192093","","0","1","arrowleft","0","arrowleft","[0.85,0.15,0.325,0.675]","","",""
"sailing-trial","318","1237808","0.0-11.0-283.0","","","","false","","","","","","","","","","null","","378.39999997615814","","1","0","null","null","arrowup","[0.85,0.15,0.325,0.675]","","",""
"sailing-trial","319","1240394","0.0-11.0-284.0","","","","false","","","","","","","","","","228","","155.30000001192093","","0","0","arrowleft","0","arrowleft","[0.15,0.85,0.675,0.325]","","",""
"sailing-trial","320","1242270","0.0-11.0-285.0","","","","false","","","","","","","","","","null","","305.5","","3","1","null","null","arrowup","[0.15,0.85,0.675,0.325]","","",""
"sailing-trial","321","1244649","0.0-11.0-286.0","","","","false","","","","","","","","","","134.80000001192093","","151.10000002384186","","0","0","arrowleft","0","arrowleft","[0.15,0.85,0.675,0.325]","","",""
"sailing-trial","322","1246862","0.0-11.0-287.0","","","","false","","","","","","","","","","null","","483.69999998807907","","0","1","null","null","arrowup","[0.15,0.85,0.675,0.325]","","",""
"sailing-trial","323","1249168","0.0-11.0-288.0","","","","false","","","","","","","","","","132.69999998807907","","85.69999998807907","","0","0","arrowleft","0","arrowleft","[0.15,0.85,0.675,0.325]","","",""
"sailing-trial","324","1251314","0.0-11.0-289.0","","","","false","","","","","","","","","","null","","949.4000000357628","","3","0","null","null","arrowup","[0.15,0.85,0.675,0.325]","","",""
"sailing-trial","325","1254127","0.0-11.0-290.0","","","","false","","","","","","","","","","499.0999999642372","","45.299999952316284","","1","0","arrowleft","0","arrowright","[0.15,0.85,0.675,0.325]","","",""
"sailing-trial","326","1256584","0.0-11.0-291.0","","","","false","","","","","","","","","","null","","904.6000000238419","","0","1","null","null","arrowup","[0.15,0.85,0.675,0.325]","","",""
"sailing-trial","327","1259953","0.0-11.0-292.0","","","","false","","","","","","","","","","502.4000000357628","","75.90000003576279","","0","1","arrowleft","0","arrowleft","[0.15,0.85,0.675,0.325]","","",""
"sailing-trial","328","1262728","0.0-11.0-293.0","","","","false","","","","","","","","","","null","","1178.1000000238419","","2","0","null","null","arrowup","[0.15,0.85,0.675,0.325]","","",""
"sailing-trial","329","1265369","0.0-11.0-294.0","","","","false","","","","","","","","","","373.30000001192093","","116.39999997615814","","0","0","arrowleft","0","arrowleft","[0.15,0.85,0.675,0.325]","","",""
"sailing-trial","330","1267344","0.0-11.0-295.0","","","","false","","","","","","","","","","null","","867.6000000238419","","0","0","null","null","arrowup","[0.15,0.85,0.675,0.325]","","",""
"sailing-trial","331","1270389","0.0-11.0-296.0","","","","false","","","","","","","","","","236.70000004768372","","150.39999997615814","","2","1","arrowright","1","arrowleft","[0.15,0.85,0.675,0.325]","","",""
"sailing-trial","332","1272631","0.0-11.0-297.0","","","","false","","","","","","","","","","null","","966","","2","0","null","null","arrowup","[0.15,0.85,0.675,0.325]","","",""
"sailing-trial","333","1275946","0.0-11.0-298.0","","","","false","","","","","","","","","","382","","17.5","","3","1","arrowright","1","arrowright","[0.15,0.85,0.675,0.325]","","",""
"sailing-trial","334","1277904","0.0-11.0-299.0","","","","false","","","","","","","","","","null","","881.3000000119209","","0","0","null","null","arrowup","[0.15,0.85,0.675,0.325]","","",""
"sailing-trial","335","1280184","0.0-11.0-300.0","","","","false","","","","","","","","","","116.80000001192093","","53.80000001192093","","3","0","arrowright","1","arrowright","[0.15,0.85,0.675,0.325]","","",""
"sailing-trial","336","1281968","0.0-11.0-301.0","","","","false","","","","","","","","","","null","","740","","1","0","null","null","arrowup","[0.15,0.85,0.675,0.325]","","",""
"sailing-trial","337","1285116","0.0-11.0-302.0","","","","false","","","","","","","","","","821.3000000119209","","67.20000004768372","","1","0","arrowleft","0","arrowright","[0.15,0.85,0.675,0.325]","","",""
"sailing-trial","338","1287613","0.0-11.0-303.0","","","","false","","","","","","","","","","null","","793.6999999880791","","2","1","null","null","arrowup","[0.15,0.85,0.675,0.325]","","",""
"sailing-trial","339","1291299","0.0-11.0-304.0","","","","false","","","","","","","","","","856","","80.40000003576279","","2","1","arrowright","1","arrowleft","[0.15,0.85,0.675,0.325]","","",""
"sailing-trial","340","1293281","0.0-11.0-305.0","","","","false","","","","","","","","","","null","","762.1999999880791","","3","0","null","null","arrowup","[0.15,0.85,0.675,0.325]","","",""
"sailing-trial","341","1296397","0.0-11.0-306.0","","","","false","","","","","","","","","","219.30000001192093","","203.60000002384186","","2","1","arrowright","1","arrowleft","[0.325,0.675,0.85,0.15]","","",""
"sailing-trial","342","1299497","0.0-11.0-307.0","","","","false","","","","","","","","","","null","","1263.2999999523163","","1","1","null","null","arrowup","[0.325,0.675,0.85,0.15]","","",""
"sailing-trial","343","1302605","0.0-11.0-308.0","","","","false","","","","","","","","","","418.5","","27.80000001192093","","2","1","arrowright","1","arrowleft","[0.325,0.675,0.85,0.15]","","",""
"sailing-trial","344","1305033","0.0-11.0-309.0","","","","false","","","","","","","","","","null","","759.2999999523163","","0","0","null","null","arrowup","[0.325,0.675,0.85,0.15]","","",""
"sailing-trial","345","1308621","0.0-11.0-310.0","","","","false","","","","","","","","","","395.80000001192093","","4.200000047683716","","2","1","arrowright","1","arrowleft","[0.325,0.675,0.85,0.15]","","",""
"sailing-trial","346","1311798","0.0-11.0-311.0","","","","false","","","","","","","","","","null","","1167.300000011921","","1","1","null","null","arrowup","[0.325,0.675,0.85,0.15]","","",""
"sailing-trial","347","1314560","0.0-11.0-312.0","","","","false","","","","","","","","","","485.60000002384186","","121.80000001192093","","2","0","arrowright","1","arrowleft","[0.325,0.675,0.85,0.15]","","",""
"sailing-trial","348","1316881","0.0-11.0-313.0","","","","false","","","","","","","","","","null","","828.8000000119209","","0","0","null","null","arrowup","[0.325,0.675,0.85,0.15]","","",""
"sailing-trial","349","1320339","0.0-11.0-314.0","","","","false","","","","","","","","","","460.69999998807907","","295.19999998807907","","2","1","arrowright","1","arrowleft","[0.325,0.675,0.85,0.15]","","",""
"sailing-trial","350","1322246","0.0-11.0-315.0","","","","false","","","","","","","","","","null","","713.8999999761581","","0","0","null","null","arrowup","[0.325,0.675,0.85,0.15]","","",""
"sailing-trial","351","1324751","0.0-11.0-316.0","","","","false","","","","","","","","","","213.4000000357628","","30.099999964237213","","2","0","arrowright","1","arrowleft","[0.325,0.675,0.85,0.15]","","",""
"sailing-trial","352","1326216","0.0-11.0-317.0","","","","false","","","","","","","","","","null","","301.5","","0","0","null","null","arrowup","[0.325,0.675,0.85,0.15]","","",""
"sailing-trial","353","1329084","0.0-11.0-318.0","","","","false","","","","","","","","","","180.69999998807907","","56.59999996423721","","1","1","arrowleft","0","arrowright","[0.325,0.675,0.85,0.15]","","",""
"sailing-trial","354","1331497","0.0-11.0-319.0","","","","false","","","","","","","","","","null","","752.0999999642372","","2","1","null","null","arrowup","[0.325,0.675,0.85,0.15]","","",""
"sailing-trial","355","1334818","0.0-11.0-320.0","","","","false","","","","","","","","","","411.69999998807907","","165.60000002384186","","1","1","arrowleft","0","arrowright","[0.325,0.675,0.85,0.15]","","",""
"sailing-trial","356","1337160","0.0-11.0-321.0","","","","false","","","","","","","","","","null","","955.8000000119209","","0","0","null","null","arrowup","[0.325,0.675,0.85,0.15]","","",""
"sailing-trial","357","1340690","0.0-11.0-322.0","","","","false","","","","","","","","","","451.5","","108.5","","1","1","arrowleft","0","arrowright","[0.325,0.675,0.85,0.15]","","",""
"sailing-trial","358","1343516","0.0-11.0-323.0","","","","false","","","","","","","","","","null","","833.1000000238419","","2","1","null","null","arrowup","[0.325,0.675,0.85,0.15]","","",""
"sailing-trial","359","1346305","0.0-11.0-324.0","","","","false","","","","","","","","","","544.0999999642372","","55.5","","1","0","arrowleft","0","arrowright","[0.325,0.675,0.85,0.15]","","",""
"sailing-trial","360","1347912","0.0-11.0-325.0","","","","false","","","","","","","","","","null","","546.6999999880791","","0","0","null","null","arrowup","[0.325,0.675,0.85,0.15]","","",""
"sailing-trial","361","1350568","0.0-11.0-326.0","","","","false","","","","","","","","","","300.10000002384186","","154","","2","0","arrowright","1","arrowleft","[0.15,0.85,0.675,0.325]","","",""
"sailing-trial","362","1352496","0.0-11.0-327.0","","","","false","","","","","","","","","","null","","845.3999999761581","","2","0","null","null","arrowup","[0.15,0.85,0.675,0.325]","","",""
"sailing-trial","363","1355774","0.0-11.0-328.0","","","","false","","","","","","","","","","316.19999998807907","","276.5","","1","1","arrowleft","0","arrowright","[0.15,0.85,0.675,0.325]","","",""
"sailing-trial","364","1358128","0.0-11.0-329.0","","","","false","","","","","","","","","","null","","796.1999999880791","","2","1","null","null","arrowup","[0.15,0.85,0.675,0.325]","","",""
"sailing-trial","365","1361351","0.0-11.0-330.0","","","","false","","","","","","","","","","475","","25.899999976158142","","1","1","arrowleft","0","arrowright","[0.15,0.85,0.675,0.325]","","",""
"sailing-trial","366","1363167","0.0-11.0-331.0","","","","false","","","","","","","","","","null","","788.2999999523163","","2","0","null","null","arrowup","[0.15,0.85,0.675,0.325]","","",""
"sailing-trial","367","1367001","0.0-11.0-332.0","","","","false","","","","","","","","","","943.6999999880791","","634.5","","3","0","arrowright","1","arrowright","[0.15,0.85,0.675,0.325]","","",""
"sailing-trial","368","1369223","0.0-11.0-333.0","","","","false","","","","","","","","","","null","","981.5","","3","0","null","null","arrowup","[0.15,0.85,0.675,0.325]","","",""
"sailing-trial","369","1372303","0.0-11.0-334.0","","","","false","","","","","","","","","","228.19999998807907","","122.69999998807907","","1","1","arrowleft","0","arrowright","[0.15,0.85,0.675,0.325]","","",""
"sailing-trial","370","1374319","0.0-11.0-335.0","","","","false","","","","","","","","","","null","","730.8999999761581","","3","0","null","null","arrowup","[0.15,0.85,0.675,0.325]","","",""
"sailing-trial","371","1377818","0.0-11.0-336.0","","","","false","","","","","","","","","","188.19999998807907","","79.60000002384186","","1","1","arrowleft","0","arrowright","[0.15,0.85,0.675,0.325]","","",""
"sailing-trial","372","1381231","0.0-11.0-337.0","","","","false","","","","","","","","","","null","","1570.199999988079","","1","1","null","null","arrowup","[0.15,0.85,0.675,0.325]","","",""
"sailing-trial","373","1384887","0.0-11.0-338.0","","","","false","","","","","","","","","","397.89999997615814","","134.80000001192093","","1","1","arrowleft","0","arrowright","[0.15,0.85,0.675,0.325]","","",""
"sailing-trial","374","1387622","0.0-11.0-339.0","","","","false","","","","","","","","","","null","","773.1999999880791","","0","1","null","null","arrowup","[0.15,0.85,0.675,0.325]","","",""
"sailing-trial","375","1391588","0.0-11.0-340.0","","","","false","","","","","","","","","","646.5999999642372","","191.0999999642372","","1","1","arrowleft","0","arrowright","[0.15,0.85,0.675,0.325]","","",""
"sailing-trial","376","1394424","0.0-11.0-341.0","","","","false","","","","","","","","","","null","","760.5999999642372","","2","1","null","null","arrowup","[0.15,0.85,0.675,0.325]","","",""
"sailing-trial","377","1396802","0.0-11.0-342.0","","","","false","","","","","","","","","","51.5","","8.5","","1","0","arrowleft","0","arrowright","[0.325,0.675,0.85,0.15]","","",""
"sailing-trial","378","1399314","0.0-11.0-343.0","","","","false","","","","","","","","","","null","","1075.8999999761581","","0","0","null","null","arrowup","[0.325,0.675,0.85,0.15]","","",""
"sailing-trial","379","1401825","0.0-11.0-344.0","","","","false","","","","","","","","","","203.69999998807907","","163.30000001192093","","1","0","arrowleft","0","arrowright","[0.325,0.675,0.85,0.15]","","",""
"sailing-trial","380","1403744","0.0-11.0-345.0","","","","false","","","","","","","","","","null","","731","","0","0","null","null","arrowup","[0.325,0.675,0.85,0.15]","","",""
"sailing-trial","381","1406144","0.0-11.0-346.0","","","","false","","","","","","","","","","181.69999998807907","","88.80000001192093","","3","0","arrowright","1","arrowright","[0.325,0.675,0.85,0.15]","","",""
"sailing-trial","382","1408530","0.0-11.0-347.0","","","","false","","","","","","","","","","null","","788.1000000238419","","1","0","null","null","arrowup","[0.325,0.675,0.85,0.15]","","",""
"sailing-trial","383","1411154","0.0-11.0-348.0","","","","false","","","","","","","","","","307.10000002384186","","155.60000002384186","","2","0","arrowright","1","arrowleft","[0.325,0.675,0.85,0.15]","","",""
"sailing-trial","384","1413119","0.0-11.0-349.0","","","","false","","","","","","","","","","null","","747.7999999523163","","0","0","null","null","arrowup","[0.325,0.675,0.85,0.15]","","",""
"sailing-trial","385","1416423","0.0-11.0-350.0","","","","false","","","","","","","","","","452.69999998807907","","84.5","","1","1","arrowleft","0","arrowright","[0.325,0.675,0.85,0.15]","","",""
"sailing-trial","386","1418880","0.0-11.0-351.0","","","","false","","","","","","","","","","null","","870.4000000357628","","2","1","null","null","arrowup","[0.325,0.675,0.85,0.15]","","",""
"sailing-trial","387","1422445","0.0-11.0-352.0","","","","false","","","","","","","","","","772.1999999880791","","49.30000001192093","","1","1","arrowleft","0","arrowright","[0.325,0.675,0.85,0.15]","","",""
"sailing-trial","388","1424314","0.0-11.0-353.0","","","","false","","","","","","","","","","null","","790.6999999880791","","3","0","null","null","arrowup","[0.325,0.675,0.85,0.15]","","",""
"sailing-trial","389","1427737","0.0-11.0-354.0","","","","false","","","","","","","","","","267.10000002384186","","429.89999997615814","","1","1","arrowleft","0","arrowright","[0.325,0.675,0.85,0.15]","","",""
"sailing-trial","390","1429537","0.0-11.0-355.0","","","","false","","","","","","","","","","null","","785.8999999761581","","1","0","null","null","arrowup","[0.325,0.675,0.85,0.15]","","",""
"sailing-trial","391","1432017","0.0-11.0-356.0","","","","false","","","","","","","","","","322.60000002384186","","1.300000011920929","","1","0","arrowleft","0","arrowright","[0.325,0.675,0.85,0.15]","","",""
"sailing-trial","392","1434056","0.0-11.0-357.0","","","","false","","","","","","","","","","null","","772.8000000119209","","3","0","null","null","arrowup","[0.325,0.675,0.85,0.15]","","",""
"sailing-trial","393","1436537","0.0-11.0-358.0","","","","false","","","","","","","","","","212.30000001192093","","7.600000023841858","","2","0","arrowright","1","arrowleft","[0.325,0.675,0.85,0.15]","","",""
"sailing-trial","394","1438873","0.0-11.0-359.0","","","","false","","","","","","","","","","null","","739.4000000357628","","2","1","null","null","arrowup","[0.325,0.675,0.85,0.15]","","",""
"sailing-trial","395","1442408","0.0-11.0-360.0","","","","false","","","","","","","","","","515.1999999880791","","77.90000003576279","","2","1","arrowright","1","arrowleft","[0.325,0.675,0.85,0.15]","","",""
"sailing-trial","396","1445401","0.0-11.0-361.0","","","","false","","","","","","","","","","null","","957.2000000476837","","1","1","null","null","arrowup","[0.325,0.675,0.85,0.15]","","",""
"sailing-trial","397","1449034","0.0-11.0-362.0","","","","false","","","","","","","","","","955.0999999642372","","120.90000003576279","","2","1","arrowright","1","arrowleft","[0.325,0.675,0.85,0.15]","","",""
"sailing-trial","398","1451073","0.0-11.0-363.0","","","","false","","","","","","","","","","null","","832.8000000119209","","1","0","null","null","arrowup","[0.325,0.675,0.85,0.15]","","",""
"sailing-trial","399","1454461","0.0-11.0-364.0","","","","false","","","","","","","","","","211.60000002384186","","291.69999998807907","","2","1","arrowright","1","arrowleft","[0.675,0.325,0.15,0.85]","","",""
"sailing-trial","400","1456471","0.0-11.0-365.0","","","","false","","","","","","","","","","null","","821.6999999880791","","0","0","null","null","arrowup","[0.675,0.325,0.15,0.85]","","",""
"sailing-trial","401","1459064","0.0-11.0-366.0","","","","false","","","","","","","","","","284.4000000357628","","6.800000011920929","","2","0","arrowright","1","arrowleft","[0.675,0.325,0.15,0.85]","","",""
"sailing-trial","402","1461056","0.0-11.0-367.0","","","","false","","","","","","","","","","null","","844.6999999880791","","1","0","null","null","arrowup","[0.675,0.325,0.15,0.85]","","",""
"sailing-trial","403","1464461","0.0-11.0-368.0","","","","false","","","","","","","","","","451.5999999642372","","152.19999998807907","","0","1","arrowleft","0","arrowleft","[0.675,0.325,0.15,0.85]","","",""
"sailing-trial","404","1466929","0.0-11.0-369.0","","","","false","","","","","","","","","","null","","830.6000000238419","","3","1","null","null","arrowup","[0.675,0.325,0.15,0.85]","","",""
"sailing-trial","405","1470392","0.0-11.0-370.0","","","","false","","","","","","","","","","514.4000000357628","","317.5","","1","1","arrowleft","0","arrowright","[0.675,0.325,0.15,0.85]","","",""
"sailing-trial","406","1472328","0.0-11.0-371.0","","","","false","","","","","","","","","","null","","811.8999999761581","","0","0","null","null","arrowup","[0.675,0.325,0.15,0.85]","","",""
"sailing-trial","407","1475104","0.0-11.0-372.0","","","","false","","","","","","","","","","539.3000000119209","","133.39999997615814","","1","0","arrowleft","0","arrowright","[0.675,0.325,0.15,0.85]","","",""
"sailing-trial","408","1476991","0.0-11.0-373.0","","","","false","","","","","","","","","","null","","804.4000000357628","","2","0","null","null","arrowup","[0.675,0.325,0.15,0.85]","","",""
"sailing-trial","409","1480371","0.0-11.0-374.0","","","","false","","","","","","","","","","524.9000000357628","","274.10000002384186","","3","1","arrowright","1","arrowright","[0.675,0.325,0.15,0.85]","","",""
"sailing-trial","410","1482803","0.0-11.0-375.0","","","","false","","","","","","","","","","null","","880.1999999880791","","0","1","null","null","arrowup","[0.675,0.325,0.15,0.85]","","",""
"sailing-trial","411","1486589","0.0-11.0-376.0","","","","false","","","","","","","","","","680.6000000238419","","416.39999997615814","","3","1","arrowright","1","arrowright","[0.675,0.325,0.15,0.85]","","",""
"sailing-trial","412","1488456","0.0-11.0-377.0","","","","false","","","","","","","","","","null","","725.5999999642372","","0","0","null","null","arrowup","[0.675,0.325,0.15,0.85]","","",""
"sailing-trial","413","1491690","0.0-11.0-378.0","","","","false","","","","","","","","","","338.5","","9.800000011920929","","3","1","arrowright","1","arrowright","[0.675,0.325,0.15,0.85]","","",""
"sailing-trial","414","1494245","0.0-11.0-379.0","","","","false","","","","","","","","","","null","","889.3000000119209","","1","1","null","null","arrowup","[0.675,0.325,0.15,0.85]","","",""
"sailing-trial","415","1497701","0.0-11.0-380.0","","","","false","","","","","","","","","","582.8000000119209","","234.0999999642372","","3","1","arrowright","1","arrowright","[0.675,0.325,0.15,0.85]","","",""
"sailing-trial","416","1500546","0.0-11.0-381.0","","","","false","","","","","","","","","","null","","975","","1","1","null","null","arrowup","[0.675,0.325,0.15,0.85]","","",""
"sailing-trial","417","1503759","0.0-11.0-382.0","","","","false","","","","","","","","","","120.79999995231628","","55.5","","3","1","arrowright","1","arrowright","[0.675,0.325,0.15,0.85]","","",""
"sailing-trial","418","1506256","0.0-11.0-383.0","","","","false","","","","","","","","","","null","","867.3000000119209","","3","1","null","null","arrowup","[0.675,0.325,0.15,0.85]","","",""
"sailing-trial","419","1510040","0.0-11.0-384.0","","","","false","","","","","","","","","","860.5","","184","","3","1","arrowright","1","arrowright","[0.85,0.15,0.325,0.675]","","",""
"sailing-trial","420","1512771","0.0-11.0-385.0","","","","false","","","","","","","","","","null","","1170.8999999761581","","3","1","null","null","arrowup","[0.85,0.15,0.325,0.675]","","",""
"sailing-trial","421","1515160","0.0-11.0-386.0","","","","false","","","","","","","","","","193.39999997615814","","61.5","","3","0","arrowright","1","arrowright","[0.85,0.15,0.325,0.675]","","",""
"sailing-trial","422","1517192","0.0-11.0-387.0","","","","false","","","","","","","","","","null","","837.6000000238419","","3","0","null","null","arrowup","[0.85,0.15,0.325,0.675]","","",""
"sailing-trial","423","1519808","0.0-11.0-388.0","","","","false","","","","","","","","","","531.6999999880791","","10.100000023841858","","1","0","arrowleft","0","arrowright","[0.85,0.15,0.325,0.675]","","",""
"sailing-trial","424","1522168","0.0-11.0-389.0","","","","false","","","","","","","","","","null","","676.4000000357628","","1","1","null","null","arrowup","[0.85,0.15,0.325,0.675]","","",""
"sailing-trial","425","1525277","0.0-11.0-390.0","","","","false","","","","","","","","","","189.4000000357628","","165.30000001192093","","1","1","arrowleft","0","arrowright","[0.85,0.15,0.325,0.675]","","",""
"sailing-trial","426","1527844","0.0-11.0-391.0","","","","false","","","","","","","","","","null","","903.5","","3","1","null","null","arrowup","[0.85,0.15,0.325,0.675]","","",""
"sailing-trial","427","1530336","0.0-11.0-392.0","","","","false","","","","","","","","","","184.0999999642372","","195.80000001192093","","1","0","arrowleft","0","arrowright","[0.85,0.15,0.325,0.675]","","",""
"sailing-trial","428","1532901","0.0-11.0-393.0","","","","false","","","","","","","","","","null","","861.1999999880791","","0","1","null","null","arrowup","[0.85,0.15,0.325,0.675]","","",""
"sailing-trial","429","1536318","0.0-11.0-394.0","","","","false","","","","","","","","","","441.5","","108.80000001192093","","0","1","arrowleft","0","arrowleft","[0.85,0.15,0.325,0.675]","","",""
"sailing-trial","430","1538619","0.0-11.0-395.0","","","","false","","","","","","","","","","null","","589.9000000357628","","2","1","null","null","arrowup","[0.85,0.15,0.325,0.675]","","",""
"sailing-trial","431","1541088","0.0-11.0-396.0","","","","false","","","","","","","","","","31.899999976158142","","201.80000001192093","","0","0","arrowleft","0","arrowleft","[0.85,0.15,0.325,0.675]","","",""
"sailing-trial","432","1543428","0.0-11.0-397.0","","","","false","","","","","","","","","","null","","765.0999999642372","","2","1","null","null","arrowup","[0.85,0.15,0.325,0.675]","","",""
"sailing-trial","433","1545984","0.0-11.0-398.0","","","","false","","","","","","","","","","279.30000001192093","","117.5","","2","0","arrowright","1","arrowleft","[0.85,0.15,0.325,0.675]","","",""
"sailing-trial","434","1548128","0.0-11.0-399.0","","","","false","","","","","","","","","","null","","1092.800000011921","","2","0","null","null","arrowup","[0.85,0.15,0.325,0.675]","","",""
"instructions","435","1552421","0.0-12.0","","","","","","","","","","4290.699999988079","","","","","","","","","","","","","","","","[{""page_index"":0,""viewing_time"":4290.299999952316}]"
"survey-debrief","436","1580382","0.0-13.0","","","","","","","","","","27957.099999964237","","","","","","","","","","","","","","{""difficulty"":""4"",""fun"":""1"",""clarity"":""5"",""strategy"":"""",""feedback"":""""}","",""
