"trial_type","trial_index","time_elapsed","internal_node_id","value","metadata","success","timeout","failed_images","failed_audio","failed_video","browser_interaction","low_quality","rt","stimulus","response","button_pressed","island_rt","island_response","boat_rt","boat_response","boat","reward","island_key","island","boat_key","reward_probabilities","responses","num_errors","view_history"
"pavlovia","0","3","0.0-0.0","","","","","","","","","","","","","","","","","","","","","","","","","",""
"call-function","1","3","0.0-1.0","","{""task_version"":""sailing_part1_v1"",""task_condition"":""good"",""boats"":[""A"",""B"",""D"",""C""],""boats_demo"":[""G"",""H"",""F"",""E""],""islands"":[""B"",""A""],""subject_id"":""14367"",""age"":""9"",""gender"":""Female""}","","","","","","","","","","","","","","","","","","","","","","","",""
"preload","2","871","0.0-2.0","","","true","false","[]","[]","[]","[{""event"":""fullscreenenter"",""trial"":3,""time"":3275}]","false","","","","","","","","","","","","","","","","",""
"fullscreen","3","4253","0.0-3.0","","","true","","","","","","","","","","","","","","","","","","","","","","",""
"audio-keyboard-response","4","10722","0.0-4.0-0.0","","","","","","","","","","6336","audio/beep_loop.wav"," ","","","","","","","","","","","","","",""
"audio-test","5","14833","0.0-4.0-1.0","","","","","","","","","","null","audio/turtle.mp3","","3","","","","","","","","","","","","",""
"audio-test","6","17499","0.0-4.0-2.0","","","","","","","","","","null","audio/shark.mp3","","2","","","","","","","","","","","","",""
"sailing-instructions","7","50346","0.0-5.0-0.0-0.0","","","","","","","","","","","","","","null","null","null","null","null","null","","","","","","",""
"sailing-trial","8","55736","0.0-5.0-0.0-1.0-0.0","","","","false","","","","","","","","","","4257.70000000298","","null","","null","null","arrowleft","0","null","null","","",""
"sailing-trial","9","58204","0.0-5.0-0.0-1.0-1.0","","","","false","","","","","","","","","","1352.8999999910593","","null","","null","null","arrowright","1","null","null","","",""
"sailing-trial","10","61302","0.0-5.0-0.0-1.0-2.0","","","","false","","","","","","","","","","1971.9000000059605","","null","","null","null","arrowright","1","null","null","","",""
"sailing-instructions","11","103498","0.0-5.0-0.0-2.0","","","","","","","","","","","","","","null","null","null","null","0","null","","","","","","",""
"sailing-trial","12","109763","0.0-5.0-0.0-3.0-0.0","","","","false","","","","","","","","","","null","","2375.7999999970198","","2","1","null","null","arrowleft","[1,1,1,1]","","",""
"sailing-trial","13","112762","0.0-5.0-0.0-3.0-1.0","","","","false","","","","","","","","","","null","","327.19999998807907","","3","1","null","null","arrowright","[1,1,1,1]","","",""
"sailing-trial","14","115118","0.0-5.0-0.0-3.0-2.0","","","","false","","","","","","","","","","null","","398.70000000298023","","2","0","null","null","arrowleft","[0,0,0,0]","","",""
"sailing-instructions","15","123835","0.0-5.0-0.0-4.0","","","","","","","","","","","","","","null","null","null","null","null","null","","","","","","",""
"sailing-comprehension","16","171346","0.0-5.0-0.0-5.0","","","","","","","","","","30161.20000000298","","","","","","","","","","","","","","[""true"",""false"",""true"",""true""]","2",""
"sailing-instructions","17","202376","0.0-5.0-0.1-0.1","","","","","","","","","","","","","","null","null","null","null","null","null","","","","","","",""
"sailing-trial","18","207201","0.0-5.0-0.1-1.1-0.1","","","","false","","","","","","","","","","3701.699999988079","","null","","null","null","arrowleft","0","null","null","","",""
"sailing-trial","19","208831","0.0-5.0-0.1-1.1-1.1","","","","false","","","","","","","","","","504.29999999701977","","null","","null","null","arrowright","1","null","null","","",""
"sailing-trial","20","211349","0.0-5.0-0.1-1.1-2.1","","","","false","","","","","","","","","","1408.699999988079","","null","","null","null","arrowleft","0","null","null","","",""
"sailing-instructions","21","253696","0.0-5.0-0.1-2.1","","","","","","","","","","","","","","null","null","null","null","0","null","","","","","","",""
"sailing-trial","22","257931","0.0-5.0-0.1-3.1-0.1","","","","false","","","","","","","","","","null","","1408.5","","2","1","null","null","arrowleft","[1,1,1,1]","","",""
"sailing-trial","23","260730","0.0-5.0-0.1-3.1-1.1","","","","false","","","","","","","","","","null","","563.5999999940395","","3","1","null","null","arrowright","[1,1,1,1]","","",""
"sailing-trial","24","264543","0.0-5.0-0.1-3.1-2.1","","","","false","","","","","","","","","","null","","246.09999999403954","","2","0","null","null","arrowleft","[0,0,0,0]","","",""
"sailing-instructions","25","271585","0.0-5.0-0.1-4.1","","","","","","","","","","","","","","null","null","null","null","null","null","","","","","","",""
"sailing-comprehension","26","292215","0.0-5.0-0.1-5.1","","","","","","","","","","18312.09999999404","","","","","","","","","","","","","","[""true"",""true"",""false"",""true""]","0",""
"sailing-instructions","27","356071","0.0-6.0-0.0-0.0","","","","","","","","","","","","","","null","null","null","null","null","null","","","","","","",""
"sailing-comprehension","28","392481","0.0-6.0-0.0-1.0","","","","","","","","","","31523.5","","","","","","","","","","","","","","[""true"",""true"",""true""]","1",""
"sailing-instructions","29","451988","0.0-6.0-0.1-0.1","","","","","","","","","","","","","","null","null","null","null","null","null","","","","","","",""
"sailing-comprehension","30","463496","0.0-6.0-0.1-1.1","","","","","","","","","","10390.70000000298","","","","","","","","","","","","","","[""true"",""false"",""true""]","0",""
"sailing-instructions","31","476435","0.0-7.0-0.0-0.0","","","","","","","","","","","","","","null","null","null","null","null","null","","","","","","",""
"sailing-trial","32","482960","0.0-7.0-0.0-1.0-0.0","","","","false","","","","","","","","","","null","","3423.1000000089407","","0","1","null","null","arrowup","[0.2,0.8,0.2,0.8]","","",""
"sailing-trial","33","487812","0.0-7.0-0.0-1.0-1.0","","","","false","","","","","","","","","","null","","2361.2999999970198","","1","1","null","null","arrowup","[0.2,0.8,0.2,0.8]","","",""
"sailing-trial","34","491910","0.0-7.0-0.0-1.0-2.0","","","","false","","","","","","","","","","null","","2184","","2","1","null","null","arrowup","[0.2,0.8,0.2,0.8]","","",""
"sailing-trial","35","494962","0.0-7.0-0.0-1.0-3.0","","","","false","","","","","","","","","","null","","1197.7999999970198","","3","1","null","null","arrowup","[0.2,0.8,0.2,0.8]","","",""
"sailing-comprehension","36","505245","0.0-7.0-0.0-2.0","","","","","","","","","","8698.59999999404","","","","","","","","","","","","","","[""true""]","1",""
"sailing-instructions","37","525144","0.0-7.0-0.1-0.1","","","","","","","","","","","","","","null","null","null","null","null","null","","","","","","",""
"sailing-trial","38","529525","0.0-7.0-0.1-1.1-0.1","","","","false","","","","","","","","","","null","","1916.0999999940395","","0","0","null","null","arrowup","[0.2,0.8,0.2,0.8]","","",""
"sailing-trial","39","532829","0.0-7.0-0.1-1.1-1.1","","","","false","","","","","","","","","","null","","1363.7000000029802","","1","1","null","null","arrowup","[0.2,0.8,0.2,0.8]","","",""
"sailing-trial","40","535446","0.0-7.0-0.1-1.1-2.1","","","","false","","","","","","","","","","null","","579.1000000089407","","2","0","null","null","arrowup","[0.2,0.8,0.2,0.8]","","",""
"sailing-trial","41","537960","0.0-7.0-0.1-1.1-3.1","","","","false","","","","","","","","","","null","","652","","3","1","null","null","arrowup","[0.2,0.8,0.2,0.8]","","",""
"sailing-comprehension","42","542548","0.0-7.0-0.1-2.1","","","","","","","","","","3434.300000011921","","","","","","","","","","","","","","[""false""]","0",""
"sailing-instructions","43","554776","0.0-8.0-0.0-0.0","","","","","","","","","","","","","","null","null","null","null","null","null","","","","","","",""
"sailing-comprehension","44","560116","0.0-8.0-0.0-1.0","","","","","","","","","","4134.100000008941","","","","","","","","","","","","","","[""true""]","0",""
"sailing-instructions","45","589429","0.0-9.0-0.0-0.0","","","","","","","","","","","","","","null","null","null","null","null","null","","","","","","",""
"sailing-trial","46","597024","0.0-9.0-0.0-1.0-0.0","","","","false","","","","","","","","","","2260.7000000029802","","1734.5999999940395","","3","0","arrowright","1","arrowright","[0.2,0.8,0.2,0.8]","","",""
"sailing-trial","47","602608","0.0-9.0-0.0-1.0-1.0","","","","false","","","","","","","","","","778.2000000029802","","1237.800000011921","","1","1","arrowleft","0","arrowright","[0.2,0.8,0.2,0.8]","","",""
"sailing-trial","48","606658","0.0-9.0-0.0-1.0-2.0","","","","false","","","","","","","","","","null","","1954.2000000029802","","0","0","null","null","arrowup","[0.2,0.8,0.2,0.8]","","",""
"sailing-trial","49","611223","0.0-9.0-0.0-1.0-3.0","","","","false","","","","","","","","","","1331.7999999970198","","293.8999999910593","","2","0","arrowright","1","arrowleft","[0.2,0.8,0.2,0.8]","","",""
"sailing-trial","50","614528","0.0-9.0-0.0-1.0-4.0","","","","false","","","","","","","","","","null","","1324.5999999940395","","3","1","null","null","arrowup","[0.2,0.8,0.2,0.8]","","",""
"sailing-trial","51","618632","0.0-9.0-0.0-1.0-5.0","","","","false","","","","","","","","","","688","","82.3999999910593","","1","1","arrowleft","0","arrowright","[0.2,0.8,0.2,0.8]","","",""
"sailing-instructions","52","647729","0.0-10.0","","","","","","","","","","","","","","null","null","null","null","null","null","","","","","","",""
"sailing-trial","53","652408","0.0-11.0-0.0","","","","false","","","","","","","","","","1530.2000000029802","","105","","2","0","arrowright","1","arrowleft","[0.15,0.85,0.675,0.325]","","",""
"sailing-trial","54","655558","0.0-11.0-1.0","","","","false","","","","","","","","","","null","","1526.7999999970198","","0","0","null","null","arrowup","[0.15,0.85,0.675,0.325]","","",""
"sailing-trial","55","660127","0.0-11.0-2.0","","","","false","","","","","","","","","","900.5","","931","","0","0","arrowleft","0","arrowleft","[0.15,0.85,0.675,0.325]","","",""
"sailing-trial","56","662808","0.0-11.0-3.0","","","","false","","","","","","","","","","null","","1311.2000000029802","","2","0","null","null","arrowup","[0.15,0.85,0.675,0.325]","","",""
"sailing-trial","57","666977","0.0-11.0-4.0","","","","false","","","","","","","","","","601.5","","454.1000000089407","","2","1","arrowright","1","arrowleft","[0.15,0.85,0.675,0.325]","","",""
"sailing-trial","58","669844","0.0-11.0-5.0","","","","false","","","","","","","","","","null","","991.2000000029802","","2","1","null","null","arrowup","[0.15,0.85,0.675,0.325]","","",""
"sailing-trial","59","673263","0.0-11.0-6.0","","","","false","","","","","","","","","","513.8999999910593","","316.8999999910593","","3","0","arrowright","1","arrowright","[0.15,0.85,0.675,0.325]","","",""
"sailing-trial","60","676043","0.0-11.0-7.0","","","","false","","","","","","","","","","null","","1434.7999999970198","","2","0","null","null","arrowup","[0.15,0.85,0.675,0.325]","","",""
"sailing-trial","61","679490","0.0-11.0-8.0","","","","false","","","","","","","","","","483.3999999910593","","436.59999999403954","","1","0","arrowleft","0","arrowright","[0.15,0.85,0.675,0.325]","","",""
"sailing-trial","62","681553","0.0-11.0-9.0","","","","false","","","","","","","","","","null","","746.5999999940395","","3","0","null","null","arrowup","[0.15,0.85,0.675,0.325]","","",""
"sailing-trial","63","685312","0.0-11.0-10.0","","","","false","","","","","","","","","","753.6000000089407","","325.5","","0","0","arrowleft","0","arrowleft","[0.15,0.85,0.675,0.325]","","",""
"sailing-trial","64","687605","0.0-11.0-11.0","","","","false","","","","","","","","","","null","","724.9000000059605","","3","0","null","null","arrowup","[0.15,0.85,0.675,0.325]","","",""
"sailing-trial","65","691477","0.0-11.0-12.0","","","","false","","","","","","","","","","413.40000000596046","","342","","2","1","arrowright","1","arrowleft","[0.15,0.85,0.675,0.325]","","",""
"sailing-trial","66","693841","0.0-11.0-13.0","","","","false","","","","","","","","","","null","","574.5","","1","1","null","null","arrowup","[0.15,0.85,0.675,0.325]","","",""
"sailing-trial","67","697038","0.0-11.0-14.0","","","","false","","","","","","","","","","524.3000000119209","","266.3999999910593","","2","0","arrowright","1","arrowleft","[0.15,0.85,0.675,0.325]","","",""
"sailing-trial","68","699909","0.0-11.0-15.0","","","","false","","","","","","","","","","null","","996.7999999970198","","1","1","null","null","arrowup","[0.15,0.85,0.675,0.325]","","",""
"sailing-trial","69","703741","0.0-11.0-16.0","","","","false","","","","","","","","","","1203.7000000029802","","253.79999999701977","","3","0","arrowright","1","arrowright","[0.15,0.85,0.675,0.325]","","",""
"sailing-trial","70","706173","0.0-11.0-17.0","","","","false","","","","","","","","","","null","","880.5","","0","0","null","null","arrowup","[0.15,0.85,0.675,0.325]","","",""
"sailing-trial","71","710228","0.0-11.0-18.0","","","","false","","","","","","","","","","695.8999999910593","","322.40000000596046","","1","1","arrowleft","0","arrowright","[0.325,0.675,0.85,0.15]","","",""
"sailing-trial","72","712959","0.0-11.0-19.0","","","","false","","","","","","","","","","null","","951.7999999970198","","2","1","null","null","arrowup","[0.325,0.675,0.85,0.15]","","",""
"sailing-trial","73","716777","0.0-11.0-20.0","","","","false","","","","","","","","","","529.4000000059605","","345.59999999403954","","0","1","arrowleft","0","arrowleft","[0.325,0.675,0.85,0.15]","","",""
"sailing-trial","74","719130","0.0-11.0-21.0","","","","false","","","","","","","","","","null","","1026.0999999940395","","1","0","null","null","arrowup","[0.325,0.675,0.85,0.15]","","",""
"sailing-trial","75","723610","0.0-11.0-22.0","","","","false","","","","","","","","","","1008.2999999970198","","542.7999999970198","","3","1","arrowright","1","arrowright","[0.325,0.675,0.85,0.15]","","",""
"sailing-trial","76","726540","0.0-11.0-23.0","","","","false","","","","","","","","","","null","","1038","","2","1","null","null","arrowup","[0.325,0.675,0.85,0.15]","","",""
"sailing-trial","77","729775","0.0-11.0-24.0","","","","false","","","","","","","","","","400.8999999910593","","350.90000000596046","","1","0","arrowleft","0","arrowright","[0.325,0.675,0.85,0.15]","","",""
"sailing-trial","78","732878","0.0-11.0-25.0","","","","false","","","","","","","","","","null","","1068","","1","1","null","null","arrowup","[0.325,0.675,0.85,0.15]","","",""
"sailing-trial","79","736810","0.0-11.0-26.0","","","","false","","","","","","","","","","716.8999999910593","","205.3999999910593","","2","1","arrowright","1","arrowleft","[0.325,0.675,0.85,0.15]","","",""
"sailing-trial","80","739709","0.0-11.0-27.0","","","","false","","","","","","","","","","null","","1004.3999999910593","","2","1","null","null","arrowup","[0.325,0.675,0.85,0.15]","","",""
"sailing-trial","81","742756","0.0-11.0-28.0","","","","false","","","","","","","","","","506.59999999403954","","119.59999999403954","","0","0","arrowleft","0","arrowleft","[0.325,0.675,0.85,0.15]","","",""
"sailing-trial","82","745407","0.0-11.0-29.0","","","","false","","","","","","","","","","null","","1020.7999999970198","","3","0","null","null","arrowup","[0.325,0.675,0.85,0.15]","","",""
"sailing-trial","83","748906","0.0-11.0-30.0","","","","false","","","","","","","","","","497.5","","585.9000000059605","","3","0","arrowright","1","arrowright","[0.325,0.675,0.85,0.15]","","",""
"sailing-trial","84","751641","0.0-11.0-31.0","","","","false","","","","","","","","","","null","","839.4000000059605","","2","1","null","null","arrowup","[0.325,0.675,0.85,0.15]","","",""
"sailing-trial","85","755957","0.0-11.0-32.0","","","","false","","","","","","","","","","842.2999999970198","","351.5","","2","1","arrowright","1","arrowleft","[0.325,0.675,0.85,0.15]","","",""
"sailing-trial","86","758169","0.0-11.0-33.0","","","","false","","","","","","","","","","null","","842.2999999970198","","3","0","null","null","arrowup","[0.325,0.675,0.85,0.15]","","",""
"sailing-trial","87","761843","0.0-11.0-34.0","","","","false","","","","","","","","","","508","","285.40000000596046","","0","1","arrowleft","0","arrowleft","[0.85,0.15,0.325,0.675]","","",""
"sailing-trial","88","764624","0.0-11.0-35.0","","","","false","","","","","","","","","","null","","1444.5999999940395","","1","0","null","null","arrowup","[0.85,0.15,0.325,0.675]","","",""
"sailing-trial","89","768009","0.0-11.0-36.0","","","","false","","","","","","","","","","550.6999999880791","","2.2000000029802322","","3","1","arrowright","1","arrowright","[0.85,0.15,0.325,0.675]","","",""
"sailing-trial","90","770127","0.0-11.0-37.0","","","","false","","","","","","","","","","null","","892.8999999910593","","2","0","null","null","arrowup","[0.85,0.15,0.325,0.675]","","",""
"sailing-trial","91","773212","0.0-11.0-38.0","","","","false","","","","","","","","","","515.7999999970198","","354.59999999403954","","1","0","arrowleft","0","arrowright","[0.85,0.15,0.325,0.675]","","",""
"sailing-trial","92","775323","0.0-11.0-39.0","","","","false","","","","","","","","","","null","","916.7000000029802","","2","0","null","null","arrowup","[0.85,0.15,0.325,0.675]","","",""
"sailing-trial","93","778792","0.0-11.0-40.0","","","","false","","","","","","","","","","572.9000000059605","","41.79999999701977","","0","1","arrowleft","0","arrowleft","[0.85,0.15,0.325,0.675]","","",""
"sailing-trial","94","781759","0.0-11.0-41.0","","","","false","","","","","","","","","","null","","1120.9000000059605","","3","1","null","null","arrowup","[0.85,0.15,0.325,0.675]","","",""
"sailing-trial","95","785118","0.0-11.0-42.0","","","","false","","","","","","","","","","765.5","","320.09999999403954","","1","0","arrowleft","0","arrowright","[0.85,0.15,0.325,0.675]","","",""
"sailing-trial","96","787328","0.0-11.0-43.0","","","","false","","","","","","","","","","null","","947.4000000059605","","1","0","null","null","arrowup","[0.85,0.15,0.325,0.675]","","",""
"sailing-trial","97","791792","0.0-11.0-44.0","","","","false","","","","","","","","","","626.4000000059605","","855.7999999970198","","2","1","arrowright","1","arrowleft","[0.85,0.15,0.325,0.675]","","",""
"sailing-trial","98","794623","0.0-11.0-45.0","","","","false","","","","","","","","","","null","","978.4000000059605","","3","1","null","null","arrowup","[0.85,0.15,0.325,0.675]","","",""
"sailing-trial","99","797585","0.0-11.0-46.0","","","","false","","","","","","","","","","488.20000000298023","","11.099999994039536","","3","0","arrowright","1","arrowright","[0.85,0.15,0.325,0.675]","","",""
"sailing-trial","100","800641","0.0-11.0-47.0","","","","false","","","","","","","","","","null","","1129.699999988079","","1","1","null","null","arrowup","[0.85,0.15,0.325,0.675]","","",""
"sailing-trial","101","804207","0.0-11.0-48.0","","","","false","","","","","","","","","","420.19999998807907","","71.8999999910593","","0","1","arrowleft","0","arrowleft","[0.85,0.15,0.325,0.675]","","",""
"sailing-trial","102","806497","0.0-11.0-49.0","","","","false","","","","","","","","","","null","","925.2999999970198","","2","0","null","null","arrowup","[0.85,0.15,0.325,0.675]","","",""
"sailing-trial","103","810109","0.0-11.0-50.0","","","","false","","","","","","","","","","524.2000000029802","","13.5","","2","1","arrowright","1","arrowleft","[0.15,0.85,0.675,0.325]","","",""
"sailing-trial","104","812892","0.0-11.0-51.0","","","","false","","","","","","","","","","null","","920.2000000029802","","1","1","null","null","arrowup","[0.15,0.85,0.675,0.325]","","",""
"sailing-trial","105","815797","0.0-11.0-52.0","","","","false","","","","","","","","","","404.5","","91.8999999910593","","0","0","arrowleft","0","arrowleft","[0.15,0.85,0.675,0.325]","","",""
"sailing-trial","106","818024","0.0-11.0-53.0","","","","false","","","","","","","","","","null","","916.8999999910593","","0","0","null","null","arrowup","[0.15,0.85,0.675,0.325]","","",""
"sailing-trial","107","821560","0.0-11.0-54.0","","","","false","","","","","","","","","","433.70000000298023","","266.59999999403954","","3","1","arrowright","1","arrowright","[0.15,0.85,0.675,0.325]","","",""
"sailing-trial","108","823631","0.0-11.0-55.0","","","","false","","","","","","","","","","null","","890.1000000089407","","2","0","null","null","arrowup","[0.15,0.85,0.675,0.325]","","",""
"sailing-trial","109","827008","0.0-11.0-56.0","","","","false","","","","","","","","","","486.20000000298023","","222.59999999403954","","0","1","arrowleft","0","arrowleft","[0.15,0.85,0.675,0.325]","","",""
"sailing-trial","110","829003","0.0-11.0-57.0","","","","false","","","","","","","","","","null","","910.2000000029802","","1","0","null","null","arrowup","[0.15,0.85,0.675,0.325]","","",""
"sailing-trial","111","833309","0.0-11.0-58.0","","","","false","","","","","","","","","","929.9000000059605","","437.59999999403954","","1","1","arrowleft","0","arrowright","[0.15,0.85,0.675,0.325]","","",""
"sailing-trial","112","835429","0.0-11.0-59.0","","","","false","","","","","","","","","","null","","789.2999999970198","","1","0","null","null","arrowup","[0.15,0.85,0.675,0.325]","","",""
"sailing-trial","113","839125","0.0-11.0-60.0","","","","false","","","","","","","","","","588.2999999970198","","297.20000000298023","","2","1","arrowright","1","arrowleft","[0.15,0.85,0.675,0.325]","","",""
"sailing-trial","114","841168","0.0-11.0-61.0","","","","false","","","","","","","","","","null","","704.5999999940395","","1","0","null","null","arrowup","[0.15,0.85,0.675,0.325]","","",""
"sailing-trial","115","844665","0.0-11.0-62.0","","","","false","","","","","","","","","","472","","446.09999999403954","","3","0","arrowright","1","arrowright","[0.15,0.85,0.675,0.325]","","",""
"sailing-trial","116","846674","0.0-11.0-63.0","","","","false","","","","","","","","","","null","","876.1000000089407","","3","0","null","null","arrowup","[0.15,0.85,0.675,0.325]","","",""
"sailing-trial","117","849556","0.0-11.0-64.0","","","","false","","","","","","","","","","469.30000001192093","","107.80000001192093","","0","0","arrowleft","0","arrowleft","[0.15,0.85,0.675,0.325]","","",""
"sailing-trial","118","851737","0.0-11.0-65.0","","","","false","","","","","","","","","","null","","821.5","","3","0","null","null","arrowup","[0.15,0.85,0.675,0.325]","","",""
"sailing-trial","119","855108","0.0-11.0-66.0","","","","false","","","","","","","","","","347.80000001192093","","148","","2","1","arrowright","1","arrowleft","[0.15,0.85,0.675,0.325]","","",""
"sailing-trial","120","857478","0.0-11.0-67.0","","","","false","","","","","","","","","","null","","1087.800000011921","","3","0","null","null","arrowup","[0.15,0.85,0.675,0.325]","","",""
"sailing-trial","121","861725","0.0-11.0-68.0","","","","false","","","","","","","","","","922.6000000089407","","262.09999999403954","","0","1","arrowleft","0","arrowleft","[0.15,0.85,0.675,0.325]","","",""
"sailing-trial","122","865060","0.0-11.0-69.0","","","","false","","","","","","","","","","null","","1501.7999999970198","","3","1","null","null","arrowup","[0.15,0.85,0.675,0.325]","","",""
"sailing-trial","123","868821","0.0-11.0-70.0","","","","false","","","","","","","","","","844.8999999910593","","542.5","","0","0","arrowleft","0","arrowleft","[0.15,0.85,0.675,0.325]","","",""
"sailing-trial","124","870714","0.0-11.0-71.0","","","","false","","","","","","","","","","null","","851.3999999910593","","0","0","null","null","arrowup","[0.15,0.85,0.675,0.325]","","",""
"sailing-trial","125","874673","0.0-11.0-72.0","","","","false","","","","","","","","","","619.7000000029802","","396.8999999910593","","2","1","arrowright","1","arrowleft","[0.325,0.675,0.85,0.15]","","",""
"sailing-trial","126","877518","0.0-11.0-73.0","","","","false","","","","","","","","","","null","","1671.4000000059605","","3","0","null","null","arrowup","[0.325,0.675,0.85,0.15]","","",""
"sailing-trial","127","881744","0.0-11.0-74.0","","","","false","","","","","","","","","","1606.9000000059605","","532.5","","3","0","arrowright","1","arrowright","[0.325,0.675,0.85,0.15]","","",""
"sailing-trial","128","883747","0.0-11.0-75.0","","","","false","","","","","","","","","","null","","287.59999999403954","","3","0","null","null","arrowup","[0.325,0.675,0.85,0.15]","","",""
"sailing-trial","129","887542","0.0-11.0-76.0","","","","false","","","","","","","","","","732.9000000059605","","197.09999999403954","","1","1","arrowleft","0","arrowright","[0.325,0.675,0.85,0.15]","","",""
"sailing-trial","130","889425","0.0-11.0-77.0","","","","false","","","","","","","","","","null","","746.9000000059605","","1","0","null","null","arrowup","[0.325,0.675,0.85,0.15]","","",""
"sailing-trial","131","892725","0.0-11.0-78.0","","","","false","","","","","","","","","","415.3999999910593","","258.40000000596046","","0","1","arrowleft","0","arrowleft","[0.325,0.675,0.85,0.15]","","",""
"sailing-trial","132","894884","0.0-11.0-79.0","","","","false","","","","","","","","","","null","","980.8000000119209","","3","0","null","null","arrowup","[0.325,0.675,0.85,0.15]","","",""
"sailing-trial","133","897846","0.0-11.0-80.0","","","","false","","","","","","","","","","418.59999999403954","","158","","3","0","arrowright","1","arrowright","[0.325,0.675,0.85,0.15]","","",""
"sailing-trial","134","900374","0.0-11.0-81.0","","","","false","","","","","","","","","","null","","944.2000000029802","","1","1","null","null","arrowup","[0.325,0.675,0.85,0.15]","","",""
"sailing-trial","135","904691","0.0-11.0-82.0","","","","false","","","","","","","","","","1181","","217","","2","1","arrowright","1","arrowleft","[0.325,0.675,0.85,0.15]","","",""
"sailing-trial","136","907276","0.0-11.0-83.0","","","","false","","","","","","","","","","null","","836.6999999880791","","1","1","null","null","arrowup","[0.325,0.675,0.85,0.15]","","",""
"sailing-trial","137","910808","0.0-11.0-84.0","","","","false","","","","","","","","","","308.1000000089407","","282","","1","1","arrowleft","0","arrowright","[0.325,0.675,0.85,0.15]","","",""
"sailing-trial","138","913423","0.0-11.0-85.0","","","","false","","","","","","","","","","null","","911.5999999940395","","1","1","null","null","arrowup","[0.325,0.675,0.85,0.15]","","",""
"sailing-trial","139","917240","0.0-11.0-86.0","","","","false","","","","","","","","","","777.2000000029802","","207.79999999701977","","1","1","arrowleft","0","arrowright","[0.325,0.675,0.85,0.15]","","",""
"sailing-trial","140","919463","0.0-11.0-87.0","","","","false","","","","","","","","","","null","","850.7999999970198","","0","0","null","null","arrowup","[0.325,0.675,0.85,0.15]","","",""
"sailing-trial","141","923040","0.0-11.0-88.0","","","","false","","","","","","","","","","528.1999999880791","","214.20000000298023","","1","1","arrowleft","0","arrowright","[0.325,0.675,0.85,0.15]","","",""
"sailing-trial","142","925673","0.0-11.0-89.0","","","","false","","","","","","","","","","null","","1018.5999999940395","","2","1","null","null","arrowup","[0.325,0.675,0.85,0.15]","","",""
"sailing-trial","143","928641","0.0-11.0-90.0","","","","false","","","","","","","","","","361.80000001192093","","305.29999999701977","","1","0","arrowleft","0","arrowright","[0.15,0.85,0.675,0.325]","","",""
"sailing-trial","144","930892","0.0-11.0-91.0","","","","false","","","","","","","","","","null","","655.6000000089407","","1","1","null","null","arrowup","[0.15,0.85,0.675,0.325]","","",""
"sailing-trial","145","933796","0.0-11.0-92.0","","","","false","","","","","","","","","","232.69999998807907","","291.09999999403954","","0","0","arrowleft","0","arrowleft","[0.15,0.85,0.675,0.325]","","",""
"sailing-trial","146","936674","0.0-11.0-93.0","","","","false","","","","","","","","","","null","","855.5999999940395","","1","1","null","null","arrowup","[0.15,0.85,0.675,0.325]","","",""
"sailing-trial","147","939781","0.0-11.0-94.0","","","","false","","","","","","","","","","538.5999999940395","","371.29999999701977","","2","0","arrowright","1","arrowleft","[0.15,0.85,0.675,0.325]","","",""
"sailing-trial","148","942558","0.0-11.0-95.0","","","","false","","","","","","","","","","null","","1114.5","","1","1","null","null","arrowup","[0.15,0.85,0.675,0.325]","","",""
"sailing-trial","149","946292","0.0-11.0-96.0","","","","false","","","","","","","","","","715.5","","471.79999999701977","","3","0","arrowright","1","arrowright","[0.15,0.85,0.675,0.325]","","",""
"sailing-trial","150","948481","0.0-11.0-97.0","","","","false","","","","","","","","","","null","","926.3000000119209","","1","0","null","null","arrowup","[0.15,0.85,0.675,0.325]","","",""
"sailing-trial","151","951974","0.0-11.0-98.0","","","","false","","","","","","","","","","661.7999999970198","","326.69999998807907","","0","0","arrowleft","0","arrowleft","[0.15,0.85,0.675,0.325]","","",""
"sailing-trial","152","954610","0.0-11.0-99.0","","","","false","","","","","","","","","","null","","969.9000000059605","","0","1","null","null","arrowup","[0.15,0.85,0.675,0.325]","","",""
"sailing-trial","153","958662","0.0-11.0-100.0","","","","false","","","","","","","","","","646.7000000029802","","187.8999999910593","","3","0","arrowright","1","arrowright","[0.15,0.85,0.675,0.325]","","",""
"sailing-trial","154","960707","0.0-11.0-101.0","","","","false","","","","","","","","","","null","","867.5","","0","0","null","null","arrowup","[0.15,0.85,0.675,0.325]","","",""
"sailing-trial","155","964305","0.0-11.0-102.0","","","","false","","","","","","","","","","554.2000000029802","","125.6000000089407","","1","1","arrowleft","0","arrowright","[0.15,0.85,0.675,0.325]","","",""
"sailing-trial","156","966772","0.0-11.0-103.0","","","","false","","","","","","","","","","null","","772.2999999970198","","2","1","null","null","arrowup","[0.15,0.85,0.675,0.325]","","",""
"sailing-trial","157","971190","0.0-11.0-104.0","","","","false","","","","","","","","","","1553.2999999970198","","9.200000002980232","","0","1","arrowleft","0","arrowleft","[0.15,0.85,0.675,0.325]","","",""
"sailing-trial","158","973372","0.0-11.0-105.0","","","","false","","","","","","","","","","null","","949.7000000029802","","3","0","null","null","arrowup","[0.15,0.85,0.675,0.325]","","",""
"sailing-trial","159","977807","0.0-11.0-106.0","","","","false","","","","","","","","","","855.7000000029802","","497.70000000298023","","2","1","arrowright","1","arrowleft","[0.325,0.675,0.85,0.15]","","",""
"sailing-trial","160","980110","0.0-11.0-107.0","","","","false","","","","","","","","","","null","","978","","0","0","null","null","arrowup","[0.325,0.675,0.85,0.15]","","",""
"sailing-trial","161","983656","0.0-11.0-108.0","","","","false","","","","","","","","","","397.09999999403954","","378.1000000089407","","2","1","arrowright","1","arrowleft","[0.325,0.675,0.85,0.15]","","",""
"sailing-trial","162","986640","0.0-11.0-109.0","","","","false","","","","","","","","","","null","","1130.0999999940395","","1","1","null","null","arrowup","[0.325,0.675,0.85,0.15]","","",""
"sailing-trial","163","989805","0.0-11.0-110.0","","","","false","","","","","","","","","","733.7999999970198","","262","","2","0","arrowright","1","arrowleft","[0.325,0.675,0.85,0.15]","","",""
"sailing-trial","164","992036","0.0-11.0-111.0","","","","false","","","","","","","","","","null","","1006.2999999970198","","0","0","null","null","arrowup","[0.325,0.675,0.85,0.15]","","",""
"sailing-trial","165","995724","0.0-11.0-112.0","","","","false","","","","","","","","","","475.20000000298023","","267.59999999403954","","1","1","arrowleft","0","arrowright","[0.325,0.675,0.85,0.15]","","",""
"sailing-trial","166","998579","0.0-11.0-113.0","","","","false","","","","","","","","","","null","","1466.199999988079","","3","0","null","null","arrowup","[0.325,0.675,0.85,0.15]","","",""
"sailing-trial","167","1001533","0.0-11.0-114.0","","","","false","","","","","","","","","","474.5","","200.90000000596046","","3","0","arrowright","1","arrowright","[0.325,0.675,0.85,0.15]","","",""
"sailing-trial","168","1004037","0.0-11.0-115.0","","","","false","","","","","","","","","","null","","1138.7999999970198","","2","0","null","null","arrowup","[0.325,0.675,0.85,0.15]","","",""
"sailing-trial","169","1007955","0.0-11.0-116.0","","","","false","","","","","","","","","","665.2000000029802","","555.5999999940395","","0","0","arrowleft","0","arrowleft","[0.325,0.675,0.85,0.15]","","",""
"sailing-trial","170","1010726","0.0-11.0-117.0","","","","false","","","","","","","","","","null","","1009.9000000059605","","0","1","null","null","arrowup","[0.325,0.675,0.85,0.15]","","",""
"sailing-trial","171","1014091","0.0-11.0-118.0","","","","false","","","","","","","","","","560","","82.5","","2","1","arrowright","1","arrowleft","[0.325,0.675,0.85,0.15]","","",""
"sailing-trial","172","1017040","0.0-11.0-119.0","","","","false","","","","","","","","","","null","","1083.5","","0","1","null","null","arrowup","[0.325,0.675,0.85,0.15]","","",""
"sailing-trial","173","1020826","0.0-11.0-120.0","","","","false","","","","","","","","","","692.7000000029802","","426.90000000596046","","3","1","arrowright","1","arrowright","[0.325,0.675,0.85,0.15]","","",""
"sailing-trial","174","1023626","0.0-11.0-121.0","","","","false","","","","","","","","","","null","","1103.5999999940395","","3","1","null","null","arrowup","[0.325,0.675,0.85,0.15]","","",""
"sailing-trial","175","1027625","0.0-11.0-122.0","","","","false","","","","","","","","","","712.7999999970198","","324.6000000089407","","2","1","arrowright","1","arrowleft","[0.15,0.85,0.675,0.325]","","",""
"sailing-trial","176","1030077","0.0-11.0-123.0","","","","false","","","","","","","","","","null","","1164.199999988079","","0","0","null","null","arrowup","[0.15,0.85,0.675,0.325]","","",""
"sailing-trial","177","1033541","0.0-11.0-124.0","","","","false","","","","","","","","","","483.1000000089407","","95","","1","1","arrowleft","0","arrowright","[0.15,0.85,0.675,0.325]","","",""
"sailing-trial","178","1035837","0.0-11.0-125.0","","","","false","","","","","","","","","","null","","1051.2000000029802","","3","0","null","null","arrowup","[0.15,0.85,0.675,0.325]","","",""
"sailing-trial","179","1039086","0.0-11.0-126.0","","","","false","","","","","","","","","","516.2999999970198","","303.79999999701977","","0","0","arrowleft","0","arrowleft","[0.15,0.85,0.675,0.325]","","",""
"sailing-trial","180","1041969","0.0-11.0-127.0","","","","false","","","","","","","","","","null","","1529.5999999940395","","3","0","null","null","arrowup","[0.15,0.85,0.675,0.325]","","",""
"sailing-trial","181","1045138","0.0-11.0-128.0","","","","false","","","","","","","","","","517.5","","313.1000000089407","","2","0","arrowright","1","arrowleft","[0.15,0.85,0.675,0.325]","","",""
"sailing-trial","182","1047640","0.0-11.0-129.0","","","","false","","","","","","","","","","null","","827.9000000059605","","2","1","null","null","arrowup","[0.15,0.85,0.675,0.325]","","",""
"sailing-trial","183","1051792","0.0-11.0-130.0","","","","false","","","","","","","","","","438.79999999701977","","767.5","","3","1","arrowright","1","arrowright","[0.15,0.85,0.675,0.325]","","",""
"sailing-trial","184","1054325","0.0-11.0-131.0","","","","false","","","","","","","","","","null","","873.2000000029802","","2","1","null","null","arrowup","[0.15,0.85,0.675,0.325]","","",""
"sailing-trial","185","1057584","0.0-11.0-132.0","","","","false","","","","","","","","","","656.2000000029802","","49.599999994039536","","0","0","arrowleft","0","arrowleft","[0.15,0.85,0.675,0.325]","","",""
"sailing-trial","186","1059537","0.0-11.0-133.0","","","","false","","","","","","","","","","null","","782","","0","0","null","null","arrowup","[0.15,0.85,0.675,0.325]","","",""
"sailing-trial","187","1062454","0.0-11.0-134.0","","","","false","","","","","","","","","","487.70000000298023","","33","","3","0","arrowright","1","arrowright","[0.15,0.85,0.675,0.325]","","",""
"sailing-trial","188","1064837","0.0-11.0-135.0","","","","false","","","","","","","","","","null","","905.7999999970198","","0","0","null","null","arrowup","[0.15,0.85,0.675,0.325]","","",""
"sailing-trial","189","1068575","0.0-11.0-136.0","","","","false","","","","","","","","","","505.09999999403954","","250.5","","0","1","arrowleft","0","arrowleft","[0.15,0.85,0.675,0.325]","","",""
"sailing-trial","190","1070838","0.0-11.0-137.0","","","","false","","","","","","","","","","null","","708.8999999910593","","1","1","null","null","arrowup","[0.15,0.85,0.675,0.325]","","",""
"sailing-trial","191","1074858","0.0-11.0-138.0","","","","false","","","","","","","","","","457.5","","513.3999999910593","","1","1","arrowleft","0","arrowright","[0.15,0.85,0.675,0.325]","","",""
"sailing-trial","192","1076961","0.0-11.0-139.0","","","","false","","","","","","","","","","null","","775.5999999940395","","3","0","null","null","arrowup","[0.15,0.85,0.675,0.325]","","",""
"sailing-trial","193","1080506","0.0-11.0-140.0","","","","false","","","","","","","","","","529.1999999880791","","172.90000000596046","","1","1","arrowleft","0","arrowright","[0.325,0.675,0.85,0.15]","","",""
"sailing-trial","194","1083224","0.0-11.0-141.0","","","","false","","","","","","","","","","null","","1231.6000000089407","","3","0","null","null","arrowup","[0.325,0.675,0.85,0.15]","","",""
"sailing-trial","195","1086890","0.0-11.0-142.0","","","","false","","","","","","","","","","510.90000000596046","","282.5","","1","1","arrowleft","0","arrowright","[0.325,0.675,0.85,0.15]","","",""
"sailing-trial","196","1089416","0.0-11.0-143.0","","","","false","","","","","","","","","","null","","1369.699999988079","","0","0","null","null","arrowup","[0.325,0.675,0.85,0.15]","","",""
"sailing-trial","197","1092808","0.0-11.0-144.0","","","","false","","","","","","","","","","431.5","","51.900000005960464","","1","1","arrowleft","0","arrowright","[0.325,0.675,0.85,0.15]","","",""
"sailing-trial","198","1095689","0.0-11.0-145.0","","","","false","","","","","","","","","","null","","1096.5","","2","1","null","null","arrowup","[0.325,0.675,0.85,0.15]","","",""
"sailing-trial","199","1099340","0.0-11.0-146.0","","","","false","","","","","","","","","","508.20000000298023","","381.29999999701977","","1","1","arrowleft","0","arrowright","[0.325,0.675,0.85,0.15]","","",""
"sailing-trial","200","1101774","0.0-11.0-147.0","","","","false","","","","","","","","","","null","","759.0999999940395","","0","1","null","null","arrowup","[0.325,0.675,0.85,0.15]","","",""
"sailing-trial","201","1105156","0.0-11.0-148.0","","","","false","","","","","","","","","","332.90000000596046","","110.30000001192093","","1","1","arrowleft","0","arrowright","[0.325,0.675,0.85,0.15]","","",""
"sailing-trial","202","1106921","0.0-11.0-149.0","","","","false","","","","","","","","","","null","","581.7000000029802","","0","0","null","null","arrowup","[0.325,0.675,0.85,0.15]","","",""
"sailing-trial","203","1110171","0.0-11.0-150.0","","","","false","","","","","","","","","","492.20000000298023","","304.70000000298023","","1","0","arrowleft","0","arrowright","[0.325,0.675,0.85,0.15]","","",""
"sailing-trial","204","1113059","0.0-11.0-151.0","","","","false","","","","","","","","","","null","","1129.2999999970198","","1","1","null","null","arrowup","[0.325,0.675,0.85,0.15]","","",""
"sailing-trial","205","1116974","0.0-11.0-152.0","","","","false","","","","","","","","","","723","","337.70000000298023","","0","1","arrowleft","0","arrowleft","[0.325,0.675,0.85,0.15]","","",""
"sailing-trial","206","1119355","0.0-11.0-153.0","","","","false","","","","","","","","","","null","","813.1999999880791","","2","1","null","null","arrowup","[0.325,0.675,0.85,0.15]","","",""
"sailing-trial","207","1123054","0.0-11.0-154.0","","","","false","","","","","","","","","","705.9000000059605","","719.2999999970198","","2","0","arrowright","1","arrowleft","[0.325,0.675,0.85,0.15]","","",""
"sailing-trial","208","1125440","0.0-11.0-155.0","","","","false","","","","","","","","","","null","","674.8999999910593","","3","1","null","null","arrowup","[0.325,0.675,0.85,0.15]","","",""
"sailing-trial","209","1128458","0.0-11.0-156.0","","","","false","","","","","","","","","","343.40000000596046","","367.70000000298023","","3","0","arrowright","1","arrowright","[0.325,0.675,0.85,0.15]","","",""
"sailing-trial","210","1130563","0.0-11.0-157.0","","","","false","","","","","","","","","","null","","944","","3","0","null","null","arrowup","[0.325,0.675,0.85,0.15]","","",""
"sailing-trial","211","1134257","0.0-11.0-158.0","","","","false","","","","","","","","","","871.3999999910593","","581.7000000029802","","0","0","arrowleft","0","arrowleft","[0.15,0.85,0.675,0.325]","","",""
"sailing-trial","212","1138341","0.0-11.0-159.0","","","","false","","","","","","","","","","null","","2359.5","","1","1","null","null","arrowup","[0.15,0.85,0.675,0.325]","","",""
"sailing-trial","213","1142172","0.0-11.0-160.0","","","","false","","","","","","","","","","593.5","","415.40000000596046","","1","1","arrowleft","0","arrowright","[0.15,0.85,0.675,0.325]","","",""
"sailing-trial","214","1146440","0.0-11.0-161.0","","","","false","","","","","","","","","","null","","2395.7000000029802","","2","1","null","null","arrowup","[0.15,0.85,0.675,0.325]","","",""
"sailing-trial","215","1150673","0.0-11.0-162.0","","","","false","","","","","","","","","","1156.5","","265.70000000298023","","2","1","arrowright","1","arrowleft","[0.15,0.85,0.675,0.325]","","",""
"sailing-trial","216","1153000","0.0-11.0-163.0","","","","false","","","","","","","","","","null","","1201.8999999910593","","0","0","null","null","arrowup","[0.15,0.85,0.675,0.325]","","",""
"sailing-trial","217","1156573","0.0-11.0-164.0","","","","false","","","","","","","","","","661.2999999970198","","25","","1","1","arrowleft","0","arrowright","[0.15,0.85,0.675,0.325]","","",""
"sailing-trial","218","1158954","0.0-11.0-165.0","","","","false","","","","","","","","","","null","","1151.7999999970198","","0","0","null","null","arrowup","[0.15,0.85,0.675,0.325]","","",""
"sailing-trial","219","1163637","0.0-11.0-166.0","","","","false","","","","","","","","","","1454.2000000029802","","549.5","","3","0","arrowright","1","arrowright","[0.15,0.85,0.675,0.325]","","",""
"sailing-trial","220","1165770","0.0-11.0-167.0","","","","false","","","","","","","","","","null","","1090.3999999910593","","0","0","null","null","arrowup","[0.15,0.85,0.675,0.325]","","",""
"sailing-trial","221","1169521","0.0-11.0-168.0","","","","false","","","","","","","","","","481.69999998807907","","503.29999999701977","","1","1","arrowleft","0","arrowright","[0.15,0.85,0.675,0.325]","","",""
"sailing-trial","222","1172274","0.0-11.0-169.0","","","","false","","","","","","","","","","null","","1567.7000000029802","","3","0","null","null","arrowup","[0.15,0.85,0.675,0.325]","","",""
"sailing-trial","223","1176344","0.0-11.0-170.0","","","","false","","","","","","","","","","561.2999999970198","","401.5","","0","0","arrowleft","0","arrowleft","[0.15,0.85,0.675,0.325]","","",""
"sailing-trial","224","1181904","0.0-11.0-171.0","","","","false","","","","","","","","","","null","","3767.2000000029802","","2","1","null","null","arrowup","[0.15,0.85,0.675,0.325]","","",""
"sailing-trial","225","1187472","0.0-11.0-172.0","","","","false","","","","","","","","","","1379.7000000029802","","438.20000000298023","","2","1","arrowright","1","arrowleft","[0.15,0.85,0.675,0.325]","","",""
"sailing-trial","226","1191387","0.0-11.0-173.0","","","","false","","","","","","","","","","null","","2743.7999999970198","","0","0","null","null","arrowup","[0.15,0.85,0.675,0.325]","","",""
"sailing-trial","227","1195039","0.0-11.0-174.0","","","","false","","","","","","","","","","453.59999999403954","","381.29999999701977","","3","1","arrowright","1","arrowright","[0.15,0.85,0.675,0.325]","","",""
"sailing-trial","228","1198104","0.0-11.0-175.0","","","","false","","","","","","","","","","null","","884.7999999970198","","0","1","null","null","arrowup","[0.15,0.85,0.675,0.325]","","",""
"sailing-trial","229","1201823","0.0-11.0-176.0","","","","false","","","","","","","","","","771.6999999880791","","117.09999999403954","","1","1","arrowleft","0","arrowright","[0.15,0.85,0.675,0.325]","","",""
"sailing-trial","230","1204454","0.0-11.0-177.0","","","","false","","","","","","","","","","null","","917.7000000029802","","1","1","null","null","arrowup","[0.15,0.85,0.675,0.325]","","",""
"sailing-trial","231","1207971","0.0-11.0-178.0","","","","false","","","","","","","","","","504.6000000089407","","515.0999999940395","","0","0","arrowleft","0","arrowleft","[0.15,0.85,0.675,0.325]","","",""
"sailing-trial","232","1210880","0.0-11.0-179.0","","","","false","","","","","","","","","","null","","1542.7000000029802","","0","0","null","null","arrowup","[0.15,0.85,0.675,0.325]","","",""
"sailing-trial","233","1214837","0.0-11.0-180.0","","","","false","","","","","","","","","","720.2000000029802","","223.59999999403954","","2","1","arrowright","1","arrowleft","[0.15,0.85,0.675,0.325]","","",""
"sailing-trial","234","1217506","0.0-11.0-181.0","","","","false","","","","","","","","","","null","","885.3999999910593","","2","1","null","null","arrowup","[0.15,0.85,0.675,0.325]","","",""
"sailing-trial","235","1220651","0.0-11.0-182.0","","","","false","","","","","","","","","","740.5999999940395","","64.79999999701977","","3","0","arrowright","1","arrowright","[0.325,0.675,0.85,0.15]","","",""
"sailing-trial","236","1224009","0.0-11.0-183.0","","","","false","","","","","","","","","","null","","923.1000000089407","","3","1","null","null","arrowup","[0.325,0.675,0.85,0.15]","","",""
"sailing-trial","237","1227361","0.0-11.0-184.0","","","","false","","","","","","","","","","926.2000000029802","","129.79999999701977","","0","0","arrowleft","0","arrowleft","[0.325,0.675,0.85,0.15]","","",""
"sailing-trial","238","1230572","0.0-11.0-185.0","","","","false","","","","","","","","","","null","","1054.3999999910593","","1","1","null","null","arrowup","[0.325,0.675,0.85,0.15]","","",""
"sailing-trial","239","1235718","0.0-11.0-186.0","","","","false","","","","","","","","","","1805.4000000059605","","861.7999999970198","","2","0","arrowright","1","arrowleft","[0.325,0.675,0.85,0.15]","","",""
"sailing-trial","240","1238650","0.0-11.0-187.0","","","","false","","","","","","","","","","null","","1626.6000000089407","","1","0","null","null","arrowup","[0.325,0.675,0.85,0.15]","","",""
"sailing-trial","241","1242187","0.0-11.0-188.0","","","","false","","","","","","","","","","629.5999999940395","","124.79999999701977","","0","1","arrowleft","0","arrowleft","[0.325,0.675,0.85,0.15]","","",""
"sailing-trial","242","1244856","0.0-11.0-189.0","","","","false","","","","","","","","","","null","","922.2999999970198","","1","1","null","null","arrowup","[0.325,0.675,0.85,0.15]","","",""
"sailing-trial","243","1248440","0.0-11.0-190.0","","","","false","","","","","","","","","","735.0999999940395","","318.5","","2","0","arrowright","1","arrowleft","[0.325,0.675,0.85,0.15]","","",""
"sailing-trial","244","1250625","0.0-11.0-191.0","","","","false","","","","","","","","","","null","","890.6000000089407","","3","0","null","null","arrowup","[0.325,0.675,0.85,0.15]","","",""
"sailing-trial","245","1253537","0.0-11.0-192.0","","","","false","","","","","","","","","","570.7000000029802","","9.599999994039536","","1","0","arrowleft","0","arrowright","[0.325,0.675,0.85,0.15]","","",""
"sailing-trial","246","1256571","0.0-11.0-193.0","","","","false","","","","","","","","","","null","","965.2000000029802","","2","1","null","null","arrowup","[0.325,0.675,0.85,0.15]","","",""
"sailing-trial","247","1260159","0.0-11.0-194.0","","","","false","","","","","","","","","","703.1999999880791","","501.29999999701977","","3","0","arrowright","1","arrowright","[0.325,0.675,0.85,0.15]","","",""
"sailing-trial","248","1263257","0.0-11.0-195.0","","","","false","","","","","","","","","","null","","1308.7999999970198","","2","1","null","null","arrowup","[0.325,0.675,0.85,0.15]","","",""
"sailing-trial","249","1267102","0.0-11.0-196.0","","","","false","","","","","","","","","","920.6000000089407","","506.8999999910593","","0","0","arrowleft","0","arrowleft","[0.325,0.675,0.85,0.15]","","",""
"sailing-trial","250","1269689","0.0-11.0-197.0","","","","false","","","","","","","","","","null","","1247.2000000029802","","3","0","null","null","arrowup","[0.325,0.675,0.85,0.15]","","",""
"sailing-trial","251","1274340","0.0-11.0-198.0","","","","false","","","","","","","","","","1032.1000000089407","","798.7999999970198","","3","1","arrowright","1","arrowright","[0.85,0.15,0.325,0.675]","","",""
"sailing-trial","252","1276421","0.0-11.0-199.0","","","","false","","","","","","","","","","null","","864.7999999970198","","2","0","null","null","arrowup","[0.85,0.15,0.325,0.675]","","",""
"sailing-trial","253","1280922","0.0-11.0-200.0","","","","false","","","","","","","","","","998","","430.20000000298023","","0","1","arrowleft","0","arrowleft","[0.85,0.15,0.325,0.675]","","",""
"sailing-trial","254","1283922","0.0-11.0-201.0","","","","false","","","","","","","","","","null","","1244.7000000029802","","0","1","null","null","arrowup","[0.85,0.15,0.325,0.675]","","",""
"sailing-trial","255","1287394","0.0-11.0-202.0","","","","false","","","","","","","","","","1090.2999999970198","","246.5","","2","0","arrowright","1","arrowleft","[0.85,0.15,0.325,0.675]","","",""
"sailing-trial","256","1290772","0.0-11.0-203.0","","","","false","","","","","","","","","","null","","1811.1000000089407","","0","1","null","null","arrowup","[0.85,0.15,0.325,0.675]","","",""
"sailing-trial","257","1294799","0.0-11.0-204.0","","","","false","","","","","","","","","","1044.800000011921","","664.5999999940395","","2","0","arrowright","1","arrowleft","[0.85,0.15,0.325,0.675]","","",""
"sailing-trial","258","1298320","0.0-11.0-205.0","","","","false","","","","","","","","","","null","","1072.5999999940395","","0","1","null","null","arrowup","[0.85,0.15,0.325,0.675]","","",""
"sailing-trial","259","1303304","0.0-11.0-206.0","","","","false","","","","","","","","","","1887","","641","","2","0","arrowright","1","arrowleft","[0.85,0.15,0.325,0.675]","","",""
"sailing-trial","260","1305653","0.0-11.0-207.0","","","","false","","","","","","","","","","null","","1006.7000000029802","","2","0","null","null","arrowup","[0.85,0.15,0.325,0.675]","","",""
"sailing-trial","261","1310950","0.0-11.0-208.0","","","","false","","","","","","","","","","1452.5999999940395","","669.7000000029802","","1","0","arrowleft","0","arrowright","[0.85,0.15,0.325,0.675]","","",""
"sailing-trial","262","1313180","0.0-11.0-209.0","","","","false","","","","","","","","","","null","","946.3999999910593","","3","0","null","null","arrowup","[0.85,0.15,0.325,0.675]","","",""
"sailing-trial","263","1317040","0.0-11.0-210.0","","","","false","","","","","","","","","","541.4000000059605","","280.1000000089407","","0","1","arrowleft","0","arrowleft","[0.85,0.15,0.325,0.675]","","",""
"sailing-trial","264","1319323","0.0-11.0-211.0","","","","false","","","","","","","","","","null","","693.4000000059605","","0","1","null","null","arrowup","[0.85,0.15,0.325,0.675]","","",""
"sailing-trial","265","1322187","0.0-11.0-212.0","","","","false","","","","","","","","","","460.5","","129.1000000089407","","2","0","arrowright","1","arrowleft","[0.85,0.15,0.325,0.675]","","",""
"sailing-trial","266","1324523","0.0-11.0-213.0","","","","false","","","","","","","","","","null","","761.0999999940395","","3","1","null","null","arrowup","[0.85,0.15,0.325,0.675]","","",""
"sailing-trial","267","1328655","0.0-11.0-214.0","","","","false","","","","","","","","","","840.5","","403.90000000596046","","3","1","arrowright","1","arrowright","[0.675,0.325,0.15,0.85]","","",""
"sailing-trial","268","1331988","0.0-11.0-215.0","","","","false","","","","","","","","","","null","","1332.0999999940395","","3","1","null","null","arrowup","[0.675,0.325,0.15,0.85]","","",""
"sailing-trial","269","1335838","0.0-11.0-216.0","","","","false","","","","","","","","","","680.2999999970198","","387.70000000298023","","0","1","arrowleft","0","arrowleft","[0.675,0.325,0.15,0.85]","","",""
"sailing-trial","270","1337982","0.0-11.0-217.0","","","","false","","","","","","","","","","null","","878","","0","0","null","null","arrowup","[0.675,0.325,0.15,0.85]","","",""
"sailing-trial","271","1342356","0.0-11.0-218.0","","","","false","","","","","","","","","","846.1000000089407","","593.5","","3","1","arrowright","1","arrowright","[0.675,0.325,0.15,0.85]","","",""
"sailing-trial","272","1345331","0.0-11.0-219.0","","","","false","","","","","","","","","","null","","1630.5999999940395","","1","0","null","null","arrowup","[0.675,0.325,0.15,0.85]","","",""
"sailing-trial","273","1349172","0.0-11.0-220.0","","","","false","","","","","","","","","","925","","92.20000000298023","","0","1","arrowleft","0","arrowleft","[0.675,0.325,0.15,0.85]","","",""
"sailing-trial","274","1351167","0.0-11.0-221.0","","","","false","","","","","","","","","","null","","766.7999999970198","","0","0","null","null","arrowup","[0.675,0.325,0.15,0.85]","","",""
"sailing-trial","275","1355493","0.0-11.0-222.0","","","","false","","","","","","","","","","799.7999999970198","","280.90000000596046","","2","0","arrowright","1","arrowleft","[0.675,0.325,0.15,0.85]","","",""
"sailing-trial","276","1357989","0.0-11.0-223.0","","","","false","","","","","","","","","","null","","771.5","","3","1","null","null","arrowup","[0.675,0.325,0.15,0.85]","","",""
"sailing-trial","277","1362121","0.0-11.0-224.0","","","","false","","","","","","","","","","635.8000000119209","","284.79999999701977","","1","1","arrowleft","0","arrowright","[0.675,0.325,0.15,0.85]","","",""
"sailing-trial","278","1365301","0.0-11.0-225.0","","","","false","","","","","","","","","","null","","1772.0999999940395","","0","0","null","null","arrowup","[0.675,0.325,0.15,0.85]","","",""
"sailing-trial","279","1369240","0.0-11.0-226.0","","","","false","","","","","","","","","","1575.3999999910593","","110.29999999701977","","3","0","arrowright","1","arrowright","[0.675,0.325,0.15,0.85]","","",""
"sailing-trial","280","1371114","0.0-11.0-227.0","","","","false","","","","","","","","","","null","","790.1999999880791","","2","0","null","null","arrowup","[0.675,0.325,0.15,0.85]","","",""
"sailing-trial","281","1374893","0.0-11.0-228.0","","","","false","","","","","","","","","","455","","596.7000000029802","","1","0","arrowleft","0","arrowright","[0.675,0.325,0.15,0.85]","","",""
"sailing-trial","282","1377490","0.0-11.0-229.0","","","","false","","","","","","","","","","null","","806","","3","1","null","null","arrowup","[0.675,0.325,0.15,0.85]","","",""
"sailing-trial","283","1381555","0.0-11.0-230.0","","","","false","","","","","","","","","","634.5","","625.4000000059605","","0","1","arrowleft","0","arrowleft","[0.85,0.15,0.325,0.675]","","",""
"sailing-trial","284","1386279","0.0-11.0-231.0","","","","false","","","","","","","","","","null","","3427","","3","0","null","null","arrowup","[0.85,0.15,0.325,0.675]","","",""
"sailing-trial","285","1391689","0.0-11.0-232.0","","","","false","","","","","","","","","","1170.5999999940395","","921.4000000059605","","3","1","arrowright","1","arrowright","[0.85,0.15,0.325,0.675]","","",""
"sailing-trial","286","1394224","0.0-11.0-233.0","","","","false","","","","","","","","","","null","","1171.7000000029802","","2","0","null","null","arrowup","[0.85,0.15,0.325,0.675]","","",""
"sailing-trial","287","1397983","0.0-11.0-234.0","","","","false","","","","","","","","","","1028.7000000029802","","349.30000001192093","","1","0","arrowleft","0","arrowright","[0.85,0.15,0.325,0.675]","","",""
"sailing-trial","288","1401071","0.0-11.0-235.0","","","","false","","","","","","","","","","null","","1242.0999999940395","","0","1","null","null","arrowup","[0.85,0.15,0.325,0.675]","","",""
"sailing-trial","289","1407088","0.0-11.0-236.0","","","","false","","","","","","","","","","3085.5","","92","","2","1","arrowright","1","arrowleft","[0.85,0.15,0.325,0.675]","","",""
"sailing-trial","290","1410388","0.0-11.0-237.0","","","","false","","","","","","","","","","null","","1366.4000000059605","","2","1","null","null","arrowup","[0.85,0.15,0.325,0.675]","","",""
"sailing-trial","291","1413654","0.0-11.0-238.0","","","","false","","","","","","","","","","755.7999999970198","","124.30000001192093","","1","0","arrowleft","0","arrowright","[0.85,0.15,0.325,0.675]","","",""
"sailing-trial","292","1416172","0.0-11.0-239.0","","","","false","","","","","","","","","","null","","999","","2","0","null","null","arrowup","[0.85,0.15,0.325,0.675]","","",""
"sailing-trial","293","1420430","0.0-11.0-240.0","","","","false","","","","","","","","","","539.1000000089407","","366.70000000298023","","0","0","arrowleft","0","arrowleft","[0.85,0.15,0.325,0.675]","","",""
"sailing-trial","294","1422859","0.0-11.0-241.0","","","","false","","","","","","","","","","null","","863.3999999910593","","2","1","null","null","arrowup","[0.85,0.15,0.325,0.675]","","",""
"sailing-trial","295","1426699","0.0-11.0-242.0","","","","false","","","","","","","","","","669.5","","314.5","","3","1","arrowright","1","arrowright","[0.85,0.15,0.325,0.675]","","",""
"sailing-trial","296","1430461","0.0-11.0-243.0","","","","false","","","","","","","","","","null","","2499.199999988079","","1","0","null","null","arrowup","[0.85,0.15,0.325,0.675]","","",""
"sailing-trial","297","1434489","0.0-11.0-244.0","","","","false","","","","","","","","","","936.3000000119209","","382.09999999403954","","0","1","arrowleft","0","arrowleft","[0.85,0.15,0.325,0.675]","","",""
"sailing-trial","298","1436759","0.0-11.0-245.0","","","","false","","","","","","","","","","null","","975.2000000029802","","1","0","null","null","arrowup","[0.85,0.15,0.325,0.675]","","",""
"sailing-trial","299","1439692","0.0-11.0-246.0","","","","false","","","","","","","","","","647.4000000059605","","27.5","","1","0","arrowleft","0","arrowright","[0.85,0.15,0.325,0.675]","","",""
"sailing-trial","300","1442761","0.0-11.0-247.0","","","","false","","","","","","","","","","null","","946.9000000059605","","0","1","null","null","arrowup","[0.85,0.15,0.325,0.675]","","",""
"sailing-trial","301","1445929","0.0-11.0-248.0","","","","false","","","","","","","","","","837","","190.6000000089407","","3","0","arrowright","1","arrowright","[0.325,0.675,0.85,0.15]","","",""
"sailing-trial","302","1448119","0.0-11.0-249.0","","","","false","","","","","","","","","","null","","911.6000000089407","","1","0","null","null","arrowup","[0.325,0.675,0.85,0.15]","","",""
"sailing-trial","303","1451461","0.0-11.0-250.0","","","","false","","","","","","","","","","658.1999999880791","","358.70000000298023","","1","0","arrowleft","0","arrowright","[0.325,0.675,0.85,0.15]","","",""
"sailing-trial","304","1453530","0.0-11.0-251.0","","","","false","","","","","","","","","","null","","840.7000000029802","","0","0","null","null","arrowup","[0.325,0.675,0.85,0.15]","","",""
"sailing-trial","305","1456419","0.0-11.0-252.0","","","","false","","","","","","","","","","529.5","","78","","1","0","arrowleft","0","arrowright","[0.325,0.675,0.85,0.15]","","",""
"sailing-trial","306","1459264","0.0-11.0-253.0","","","","false","","","","","","","","","","null","","1093.9000000059605","","0","1","null","null","arrowup","[0.325,0.675,0.85,0.15]","","",""
"sailing-trial","307","1462039","0.0-11.0-254.0","","","","false","","","","","","","","","","536.2999999970198","","6.399999991059303","","0","0","arrowleft","0","arrowleft","[0.325,0.675,0.85,0.15]","","",""
"sailing-trial","308","1464002","0.0-11.0-255.0","","","","false","","","","","","","","","","null","","917.7999999970198","","1","0","null","null","arrowup","[0.325,0.675,0.85,0.15]","","",""
"sailing-trial","309","1467315","0.0-11.0-256.0","","","","false","","","","","","","","","","556.2999999970198","","130.90000000596046","","2","1","arrowright","1","arrowleft","[0.325,0.675,0.85,0.15]","","",""
"sailing-trial","310","1471750","0.0-11.0-257.0","","","","false","","","","","","","","","","null","","2842.5","","0","1","null","null","arrowup","[0.325,0.675,0.85,0.15]","","",""
"sailing-trial","311","1475269","0.0-11.0-258.0","","","","false","","","","","","","","","","697.1999999880791","","236.1000000089407","","3","0","arrowright","1","arrowright","[0.325,0.675,0.85,0.15]","","",""
"sailing-trial","312","1478366","0.0-11.0-259.0","","","","false","","","","","","","","","","null","","1118.2000000029802","","0","1","null","null","arrowup","[0.325,0.675,0.85,0.15]","","",""
"sailing-trial","313","1481884","0.0-11.0-260.0","","","","false","","","","","","","","","","671.7999999970198","","76.3999999910593","","1","1","arrowleft","0","arrowright","[0.325,0.675,0.85,0.15]","","",""
"sailing-trial","314","1484666","0.0-11.0-261.0","","","","false","","","","","","","","","","null","","978","","0","1","null","null","arrowup","[0.325,0.675,0.85,0.15]","","",""
"sailing-trial","315","1487888","0.0-11.0-262.0","","","","false","","","","","","","","","","724.3000000119209","","289.20000000298023","","1","0","arrowleft","0","arrowright","[0.325,0.675,0.85,0.15]","","",""
"sailing-trial","316","1490784","0.0-11.0-263.0","","","","false","","","","","","","","","","null","","1078.7999999970198","","2","1","null","null","arrowup","[0.325,0.675,0.85,0.15]","","",""
"sailing-trial","317","1494718","0.0-11.0-264.0","","","","false","","","","","","","","","","638.2000000029802","","331.20000000298023","","2","1","arrowright","1","arrowleft","[0.325,0.675,0.85,0.15]","","",""
"sailing-trial","318","1497403","0.0-11.0-265.0","","","","false","","","","","","","","","","null","","1583.3999999910593","","0","0","null","null","arrowup","[0.325,0.675,0.85,0.15]","","",""
"sailing-trial","319","1500868","0.0-11.0-266.0","","","","false","","","","","","","","","","969.4000000059605","","197.90000000596046","","0","0","arrowleft","0","arrowleft","[0.325,0.675,0.85,0.15]","","",""
"sailing-trial","320","1504100","0.0-11.0-267.0","","","","false","","","","","","","","","","null","","1360.7999999970198","","2","1","null","null","arrowup","[0.325,0.675,0.85,0.15]","","",""
"sailing-trial","321","1507287","0.0-11.0-268.0","","","","false","","","","","","","","","","929.2000000029802","","62","","2","0","arrowright","1","arrowleft","[0.675,0.325,0.15,0.85]","","",""
"sailing-trial","322","1510000","0.0-11.0-269.0","","","","false","","","","","","","","","","null","","991.3999999910593","","0","1","null","null","arrowup","[0.675,0.325,0.15,0.85]","","",""
"sailing-trial","323","1514319","0.0-11.0-270.0","","","","false","","","","","","","","","","656.7999999970198","","268.5","","3","1","arrowright","1","arrowright","[0.675,0.325,0.15,0.85]","","",""
"sailing-trial","324","1516818","0.0-11.0-271.0","","","","false","","","","","","","","","","null","","805.3999999910593","","1","1","null","null","arrowup","[0.675,0.325,0.15,0.85]","","",""
"sailing-trial","325","1520635","0.0-11.0-272.0","","","","false","","","","","","","","","","960.0999999940395","","202","","0","1","arrowleft","0","arrowleft","[0.675,0.325,0.15,0.85]","","",""
"sailing-trial","326","1523469","0.0-11.0-273.0","","","","false","","","","","","","","","","null","","1042.9000000059605","","3","1","null","null","arrowup","[0.675,0.325,0.15,0.85]","","",""
"sailing-trial","327","1527450","0.0-11.0-274.0","","","","false","","","","","","","","","","806.7999999970198","","428.09999999403954","","3","1","arrowright","1","arrowright","[0.675,0.325,0.15,0.85]","","",""
"sailing-trial","328","1529850","0.0-11.0-275.0","","","","false","","","","","","","","","","null","","753.0999999940395","","0","1","null","null","arrowup","[0.675,0.325,0.15,0.85]","","",""
"sailing-trial","329","1532759","0.0-11.0-276.0","","","","false","","","","","","","","","","415.90000000596046","","189.09999999403954","","3","0","arrowright","1","arrowright","[0.675,0.325,0.15,0.85]","","",""
"sailing-trial","330","1534797","0.0-11.0-277.0","","","","false","","","","","","","","","","null","","802.1999999880791","","2","0","null","null","arrowup","[0.675,0.325,0.15,0.85]","","",""
"sailing-trial","331","1538817","0.0-11.0-278.0","","","","false","","","","","","","","","","613.7999999970198","","337.40000000596046","","0","1","arrowleft","0","arrowleft","[0.675,0.325,0.15,0.85]","","",""
"sailing-trial","332","1542116","0.0-11.0-279.0","","","","false","","","","","","","","","","null","","1239.2000000029802","","2","0","null","null","arrowup","[0.675,0.325,0.15,0.85]","","",""
"sailing-trial","333","1547386","0.0-11.0-280.0","","","","false","","","","","","","","","","2324.199999988079","","26","","2","1","arrowright","1","arrowleft","[0.675,0.325,0.15,0.85]","","",""
"sailing-trial","334","1550405","0.0-11.0-281.0","","","","false","","","","","","","","","","null","","1769.6000000089407","","1","0","null","null","arrowup","[0.675,0.325,0.15,0.85]","","",""
"sailing-trial","335","1554161","0.0-11.0-282.0","","","","false","","","","","","","","","","841.2000000029802","","414.59999999403954","","1","0","arrowleft","0","arrowright","[0.675,0.325,0.15,0.85]","","",""
"sailing-trial","336","1557219","0.0-11.0-283.0","","","","false","","","","","","","","","","null","","918.7999999970198","","1","1","null","null","arrowup","[0.675,0.325,0.15,0.85]","","",""
"sailing-trial","337","1562369","0.0-11.0-284.0","","","","false","","","","","","","","","","1185.4000000059605","","994.9000000059605","","3","1","arrowright","1","arrowright","[0.675,0.325,0.15,0.85]","","",""
"sailing-trial","338","1564656","0.0-11.0-285.0","","","","false","","","","","","","","","","null","","1071.8999999910593","","1","0","null","null","arrowup","[0.675,0.325,0.15,0.85]","","",""
"sailing-trial","339","1568265","0.0-11.0-286.0","","","","false","","","","","","","","","","1056.7000000029802","","414.09999999403954","","0","0","arrowleft","0","arrowleft","[0.675,0.325,0.15,0.85]","","",""
"sailing-trial","340","1570986","0.0-11.0-287.0","","","","false","","","","","","","","","","null","","1095.7000000029802","","3","1","null","null","arrowup","[0.675,0.325,0.15,0.85]","","",""
"sailing-trial","341","1576170","0.0-11.0-288.0","","","","false","","","","","","","","","","1504.2999999970198","","837.0999999940395","","2","1","arrowright","1","arrowleft","[0.85,0.15,0.325,0.675]","","",""
"sailing-trial","342","1578903","0.0-11.0-289.0","","","","false","","","","","","","","","","null","","1174","","1","0","null","null","arrowup","[0.85,0.15,0.325,0.675]","","",""
"sailing-trial","343","1583968","0.0-11.0-290.0","","","","false","","","","","","","","","","1980.2999999970198","","294.20000000298023","","2","1","arrowright","1","arrowleft","[0.85,0.15,0.325,0.675]","","",""
"sailing-trial","344","1587284","0.0-11.0-291.0","","","","false","","","","","","","","","","null","","1929.2999999970198","","3","0","null","null","arrowup","[0.85,0.15,0.325,0.675]","","",""
"sailing-trial","345","1590318","0.0-11.0-292.0","","","","false","","","","","","","","","","715.8000000119209","","60.20000000298023","","1","0","arrowleft","0","arrowright","[0.85,0.15,0.325,0.675]","","",""
"sailing-trial","346","1592716","0.0-11.0-293.0","","","","false","","","","","","","","","","null","","1030.5999999940395","","3","0","null","null","arrowup","[0.85,0.15,0.325,0.675]","","",""
"sailing-trial","347","1596951","0.0-11.0-294.0","","","","false","","","","","","","","","","868.3999999910593","","405.6000000089407","","0","1","arrowleft","0","arrowleft","[0.85,0.15,0.325,0.675]","","",""
"sailing-trial","348","1600253","0.0-11.0-295.0","","","","false","","","","","","","","","","null","","1085.7000000029802","","3","1","null","null","arrowup","[0.85,0.15,0.325,0.675]","","",""
"sailing-trial","349","1604253","0.0-11.0-296.0","","","","false","","","","","","","","","","1361.4000000059605","","243.5","","2","0","arrowright","1","arrowleft","[0.85,0.15,0.325,0.675]","","",""
"sailing-trial","350","1607903","0.0-11.0-297.0","","","","false","","","","","","","","","","null","","1917","","2","1","null","null","arrowup","[0.85,0.15,0.325,0.675]","","",""
"sailing-trial","351","1612334","0.0-11.0-298.0","","","","false","","","","","","","","","","1685.300000011921","","468.79999999701977","","3","0","arrowright","1","arrowright","[0.85,0.15,0.325,0.675]","","",""
"sailing-trial","352","1615865","0.0-11.0-299.0","","","","false","","","","","","","","","","null","","1199.2999999970198","","2","0","null","null","arrowup","[0.85,0.15,0.325,0.675]","","",""
"sailing-trial","353","1619215","0.0-11.0-300.0","","","","false","","","","","","","","","","1050.199999988079","","149.90000000596046","","1","0","arrowleft","0","arrowright","[0.85,0.15,0.325,0.675]","","",""
"sailing-trial","354","1621921","0.0-11.0-301.0","","","","false","","","","","","","","","","null","","958.7999999970198","","3","1","null","null","arrowup","[0.85,0.15,0.325,0.675]","","",""
"sailing-trial","355","1625768","0.0-11.0-302.0","","","","false","","","","","","","","","","530","","300.20000000298023","","0","1","arrowleft","0","arrowleft","[0.85,0.15,0.325,0.675]","","",""
"sailing-trial","356","1628968","0.0-11.0-303.0","","","","false","","","","","","","","","","null","","1497.4000000059605","","3","1","null","null","arrowup","[0.85,0.15,0.325,0.675]","","",""
"sailing-trial","357","1633235","0.0-11.0-304.0","","","","false","","","","","","","","","","1504.5","","61","","2","1","arrowright","1","arrowleft","[0.85,0.15,0.325,0.675]","","",""
"sailing-trial","358","1635345","0.0-11.0-305.0","","","","false","","","","","","","","","","null","","968.6000000089407","","1","0","null","null","arrowup","[0.85,0.15,0.325,0.675]","","",""
"sailing-trial","359","1638375","0.0-11.0-306.0","","","","false","","","","","","","","","","584.1000000089407","","249.59999999403954","","3","0","arrowright","1","arrowright","[0.85,0.15,0.325,0.675]","","",""
"sailing-trial","360","1640737","0.0-11.0-307.0","","","","false","","","","","","","","","","null","","778.5999999940395","","3","1","null","null","arrowup","[0.85,0.15,0.325,0.675]","","",""
"sailing-trial","361","1645018","0.0-11.0-308.0","","","","false","","","","","","","","","","649.9000000059605","","885.6999999880791","","1","1","arrowleft","0","arrowright","[0.15,0.85,0.675,0.325]","","",""
"sailing-trial","362","1647743","0.0-11.0-309.0","","","","false","","","","","","","","","","null","","1654.199999988079","","0","0","null","null","arrowup","[0.15,0.85,0.675,0.325]","","",""
"sailing-trial","363","1651765","0.0-11.0-310.0","","","","false","","","","","","","","","","1424.8999999910593","","370.59999999403954","","0","0","arrowleft","0","arrowleft","[0.15,0.85,0.675,0.325]","","",""
"sailing-trial","364","1654154","0.0-11.0-311.0","","","","false","","","","","","","","","","null","","804.2999999970198","","0","1","null","null","arrowup","[0.15,0.85,0.675,0.325]","","",""
"sailing-trial","365","1657989","0.0-11.0-312.0","","","","false","","","","","","","","","","544.7000000029802","","506.20000000298023","","2","1","arrowright","1","arrowleft","[0.15,0.85,0.675,0.325]","","",""
"sailing-trial","366","1660521","0.0-11.0-313.0","","","","false","","","","","","","","","","null","","860.7999999970198","","2","1","null","null","arrowup","[0.15,0.85,0.675,0.325]","","",""
"sailing-trial","367","1664221","0.0-11.0-314.0","","","","false","","","","","","","","","","557.1000000089407","","231.29999999701977","","1","0","arrowleft","0","arrowright","[0.15,0.85,0.675,0.325]","","",""
"sailing-trial","368","1666223","0.0-11.0-315.0","","","","false","","","","","","","","","","null","","872.5","","2","0","null","null","arrowup","[0.15,0.85,0.675,0.325]","","",""
"sailing-trial","369","1670087","0.0-11.0-316.0","","","","false","","","","","","","","","","895.2999999970198","","74.70000000298023","","2","1","arrowright","1","arrowleft","[0.15,0.85,0.675,0.325]","","",""
"sailing-trial","370","1672576","0.0-11.0-317.0","","","","false","","","","","","","","","","null","","936.2000000029802","","0","0","null","null","arrowup","[0.15,0.85,0.675,0.325]","","",""
"sailing-trial","371","1675726","0.0-11.0-318.0","","","","false","","","","","","","","","","872.9000000059605","","22","","3","0","arrowright","1","arrowright","[0.15,0.85,0.675,0.325]","","",""
"sailing-trial","372","1678486","0.0-11.0-319.0","","","","false","","","","","","","","","","null","","996.7999999970198","","3","0","null","null","arrowup","[0.15,0.85,0.675,0.325]","","",""
"sailing-trial","373","1682839","0.0-11.0-320.0","","","","false","","","","","","","","","","1077.199999988079","","437.5","","1","1","arrowleft","0","arrowright","[0.15,0.85,0.675,0.325]","","",""
"sailing-trial","374","1685570","0.0-11.0-321.0","","","","false","","","","","","","","","","null","","946.5999999940395","","2","1","null","null","arrowup","[0.15,0.85,0.675,0.325]","","",""
"sailing-trial","375","1688969","0.0-11.0-322.0","","","","false","","","","","","","","","","733.7999999970198","","59.79999999701977","","0","0","arrowleft","0","arrowleft","[0.15,0.85,0.675,0.325]","","",""
"sailing-trial","376","1690947","0.0-11.0-323.0","","","","false","","","","","","","","","","null","","875.9000000059605","","0","0","null","null","arrowup","[0.15,0.85,0.675,0.325]","","",""
"sailing-trial","377","1694321","0.0-11.0-324.0","","","","false","","","","","","","","","","657.2999999970198","","9.400000005960464","","2","1","arrowright","1","arrowleft","[0.325,0.675,0.85,0.15]","","",""
"sailing-trial","378","1697086","0.0-11.0-325.0","","","","false","","","","","","","","","","null","","1112.9000000059605","","1","1","null","null","arrowup","[0.325,0.675,0.85,0.15]","","",""
"sailing-trial","379","1701052","0.0-11.0-326.0","","","","false","","","","","","","","","","403.40000000596046","","424.29999999701977","","2","1","arrowright","1","arrowleft","[0.325,0.675,0.85,0.15]","","",""
"sailing-trial","380","1703502","0.0-11.0-327.0","","","","false","","","","","","","","","","null","","879.2999999970198","","1","1","null","null","arrowup","[0.325,0.675,0.85,0.15]","","",""
"sailing-trial","381","1706971","0.0-11.0-328.0","","","","false","","","","","","","","","","184.8999999910593","","289.79999999701977","","2","1","arrowright","1","arrowleft","[0.325,0.675,0.85,0.15]","","",""
"sailing-trial","382","1709300","0.0-11.0-329.0","","","","false","","","","","","","","","","null","","1171.300000011921","","2","0","null","null","arrowup","[0.325,0.675,0.85,0.15]","","",""
"sailing-trial","383","1712397","0.0-11.0-330.0","","","","false","","","","","","","","","","671.5","","126.1000000089407","","3","0","arrowright","1","arrowright","[0.325,0.675,0.85,0.15]","","",""
"sailing-trial","384","1714805","0.0-11.0-331.0","","","","false","","","","","","","","","","null","","793.2000000029802","","2","1","null","null","arrowup","[0.325,0.675,0.85,0.15]","","",""
"sailing-trial","385","1717876","0.0-11.0-332.0","","","","false","","","","","","","","","","367.20000000298023","","513.2000000029802","","1","0","arrowleft","0","arrowright","[0.325,0.675,0.85,0.15]","","",""
"sailing-trial","386","1721003","0.0-11.0-333.0","","","","false","","","","","","","","","","null","","1036.2999999970198","","1","1","null","null","arrowup","[0.325,0.675,0.85,0.15]","","",""
"sailing-trial","387","1724134","0.0-11.0-334.0","","","","false","","","","","","","","","","517.4000000059605","","388.70000000298023","","0","0","arrowleft","0","arrowleft","[0.325,0.675,0.85,0.15]","","",""
"sailing-trial","388","1726631","0.0-11.0-335.0","","","","false","","","","","","","","","","null","","857.2999999970198","","0","0","null","null","arrowup","[0.325,0.675,0.85,0.15]","","",""
"sailing-trial","389","1732005","0.0-11.0-336.0","","","","false","","","","","","","","","","2320.800000011921","","65.90000000596046","","2","1","arrowright","1","arrowleft","[0.325,0.675,0.85,0.15]","","",""
"sailing-trial","390","1735022","0.0-11.0-337.0","","","","false","","","","","","","","","","null","","1021.5","","3","1","null","null","arrowup","[0.325,0.675,0.85,0.15]","","",""
"sailing-trial","391","1738512","0.0-11.0-338.0","","","","false","","","","","","","","","","796.0999999940395","","488.59999999403954","","2","0","arrowright","1","arrowleft","[0.325,0.675,0.85,0.15]","","",""
"sailing-trial","392","1740781","0.0-11.0-339.0","","","","false","","","","","","","","","","null","","1114.9000000059605","","2","0","null","null","arrowup","[0.325,0.675,0.85,0.15]","","",""
"sailing-trial","393","1745204","0.0-11.0-340.0","","","","false","","","","","","","","","","387.5","","1027.300000011921","","3","1","arrowright","1","arrowright","[0.15,0.85,0.675,0.325]","","",""
"sailing-trial","394","1748051","0.0-11.0-341.0","","","","false","","","","","","","","","","null","","1552.5","","2","0","null","null","arrowup","[0.15,0.85,0.675,0.325]","","",""
"sailing-trial","395","1751989","0.0-11.0-342.0","","","","false","","","","","","","","","","1112.5","","176.29999999701977","","1","1","arrowleft","0","arrowright","[0.15,0.85,0.675,0.325]","","",""
"sailing-trial","396","1754803","0.0-11.0-343.0","","","","false","","","","","","","","","","null","","971.4000000059605","","1","1","null","null","arrowup","[0.15,0.85,0.675,0.325]","","",""
"sailing-trial","397","1758205","0.0-11.0-344.0","","","","false","","","","","","","","","","822.5","","4.5","","0","0","arrowleft","0","arrowleft","[0.15,0.85,0.675,0.325]","","",""
"sailing-trial","398","1760800","0.0-11.0-345.0","","","","false","","","","","","","","","","null","","1486.4000000059605","","3","0","null","null","arrowup","[0.15,0.85,0.675,0.325]","","",""
"sailing-trial","399","1764066","0.0-11.0-346.0","","","","false","","","","","","","","","","608","","253.70000000298023","","1","0","arrowleft","0","arrowright","[0.15,0.85,0.675,0.325]","","",""
"sailing-trial","400","1766805","0.0-11.0-347.0","","","","false","","","","","","","","","","null","","959.4000000059605","","2","1","null","null","arrowup","[0.15,0.85,0.675,0.325]","","",""
"sailing-trial","401","1771506","0.0-11.0-348.0","","","","false","","","","","","","","","","1598.9000000059605","","338.70000000298023","","2","1","arrowright","1","arrowleft","[0.15,0.85,0.675,0.325]","","",""
"sailing-trial","402","1773927","0.0-11.0-349.0","","","","false","","","","","","","","","","null","","1232.300000011921","","0","0","null","null","arrowup","[0.15,0.85,0.675,0.325]","","",""
"sailing-trial","403","1777389","0.0-11.0-350.0","","","","false","","","","","","","","","","658.7999999970198","","75.3999999910593","","3","1","arrowright","1","arrowright","[0.15,0.85,0.675,0.325]","","",""
"sailing-trial","404","1779566","0.0-11.0-351.0","","","","false","","","","","","","","","","null","","923","","3","0","null","null","arrowup","[0.15,0.85,0.675,0.325]","","",""
"sailing-trial","405","1783753","0.0-11.0-352.0","","","","false","","","","","","","","","","831","","564.5","","0","1","arrowleft","0","arrowleft","[0.15,0.85,0.675,0.325]","","",""
"sailing-trial","406","1787239","0.0-11.0-353.0","","","","false","","","","","","","","","","null","","1863.7999999970198","","3","1","null","null","arrowup","[0.15,0.85,0.675,0.325]","","",""
"sailing-trial","407","1791222","0.0-11.0-354.0","","","","false","","","","","","","","","","1295.5","","80","","2","1","arrowright","1","arrowleft","[0.15,0.85,0.675,0.325]","","",""
"sailing-trial","408","1793772","0.0-11.0-355.0","","","","false","","","","","","","","","","null","","901.7999999970198","","2","1","null","null","arrowup","[0.15,0.85,0.675,0.325]","","",""
"sailing-trial","409","1796672","0.0-11.0-356.0","","","","false","","","","","","","","","","729.5","","56.900000005960464","","2","0","arrowright","1","arrowleft","[0.15,0.85,0.675,0.325]","","",""
"sailing-trial","410","1798994","0.0-11.0-357.0","","","","false","","","","","","","","","","null","","720.4000000059605","","0","0","null","null","arrowup","[0.15,0.85,0.675,0.325]","","",""
"sailing-trial","411","1803520","0.0-11.0-358.0","","","","false","","","","","","","","","","1349.4000000059605","","323.1000000089407","","3","1","arrowright","1","arrowright","[0.325,0.675,0.85,0.15]","","",""
"sailing-trial","412","1805578","0.0-11.0-359.0","","","","false","","","","","","","","","","null","","748.5999999940395","","3","0","null","null","arrowup","[0.325,0.675,0.85,0.15]","","",""
"sailing-trial","413","1808905","0.0-11.0-360.0","","","","false","","","","","","","","","","347.5","","258.69999998807907","","1","1","arrowleft","0","arrowright","[0.325,0.675,0.85,0.15]","","",""
"sailing-trial","414","1811688","0.0-11.0-361.0","","","","false","","","","","","","","","","null","","743.7999999970198","","2","1","null","null","arrowup","[0.325,0.675,0.85,0.15]","","",""
"sailing-trial","415","1815197","0.0-11.0-362.0","","","","false","","","","","","","","","","1030.0999999940395","","376.29999999701977","","0","0","arrowleft","0","arrowleft","[0.325,0.675,0.85,0.15]","","",""
"sailing-trial","416","1817570","0.0-11.0-363.0","","","","false","","","","","","","","","","null","","748.2000000029802","","2","1","null","null","arrowup","[0.325,0.675,0.85,0.15]","","",""
"sailing-trial","417","1820616","0.0-11.0-364.0","","","","false","","","","","","","","","","402.40000000596046","","239.80000001192093","","3","0","arrowright","1","arrowright","[0.325,0.675,0.85,0.15]","","",""
"sailing-trial","418","1822875","0.0-11.0-365.0","","","","false","","","","","","","","","","null","","979.9000000059605","","1","0","null","null","arrowup","[0.325,0.675,0.85,0.15]","","",""
"sailing-trial","419","1826437","0.0-11.0-366.0","","","","false","","","","","","","","","","728.7999999970198","","138.80000001192093","","1","1","arrowleft","0","arrowright","[0.325,0.675,0.85,0.15]","","",""
"sailing-trial","420","1829555","0.0-11.0-367.0","","","","false","","","","","","","","","","null","","1157.4000000059605","","3","1","null","null","arrowup","[0.325,0.675,0.85,0.15]","","",""
"sailing-trial","421","1832952","0.0-11.0-368.0","","","","false","","","","","","","","","","494.20000000298023","","42.900000005960464","","0","0","arrowleft","0","arrowleft","[0.325,0.675,0.85,0.15]","","",""
"sailing-trial","422","1835686","0.0-11.0-369.0","","","","false","","","","","","","","","","null","","883.5","","1","1","null","null","arrowup","[0.325,0.675,0.85,0.15]","","",""
"sailing-trial","423","1839328","0.0-11.0-370.0","","","","false","","","","","","","","","","998","","361.90000000596046","","3","0","arrowright","1","arrowright","[0.325,0.675,0.85,0.15]","","",""
"sailing-trial","424","1842039","0.0-11.0-371.0","","","","false","","","","","","","","","","null","","966","","0","1","null","null","arrowup","[0.325,0.675,0.85,0.15]","","",""
"sailing-trial","425","1845719","0.0-11.0-372.0","","","","false","","","","","","","","","","615.2999999970198","","363.79999999701977","","1","1","arrowleft","0","arrowright","[0.325,0.675,0.85,0.15]","","",""
"sailing-trial","426","1848571","0.0-11.0-373.0","","","","false","","","","","","","","","","null","","937.5999999940395","","0","1","null","null","arrowup","[0.325,0.675,0.85,0.15]","","",""
"sailing-trial","427","1852488","0.0-11.0-374.0","","","","false","","","","","","","","","","856.7999999970198","","98.5","","2","1","arrowright","1","arrowleft","[0.325,0.675,0.85,0.15]","","",""
"sailing-trial","428","1855236","0.0-11.0-375.0","","","","false","","","","","","","","","","null","","1025","","2","1","null","null","arrowup","[0.325,0.675,0.85,0.15]","","",""
"sailing-trial","429","1858370","0.0-11.0-376.0","","","","false","","","","","","","","","","602.2999999970198","","401.1000000089407","","3","0","arrowright","1","arrowright","[0.325,0.675,0.85,0.15]","","",""
"sailing-trial","430","1861241","0.0-11.0-377.0","","","","false","","","","","","","","","","null","","895.9000000059605","","1","1","null","null","arrowup","[0.325,0.675,0.85,0.15]","","",""
"sailing-trial","431","1864157","0.0-11.0-378.0","","","","false","","","","","","","","","","511.40000000596046","","190.1000000089407","","0","0","arrowleft","0","arrowleft","[0.15,0.85,0.675,0.325]","","",""
"sailing-trial","432","1867304","0.0-11.0-379.0","","","","false","","","","","","","","","","null","","1313.5","","1","1","null","null","arrowup","[0.15,0.85,0.675,0.325]","","",""
"sailing-trial","433","1870853","0.0-11.0-380.0","","","","false","","","","","","","","","","749.7000000029802","","70","","2","1","arrowright","1","arrowleft","[0.15,0.85,0.675,0.325]","","",""
"sailing-trial","434","1874739","0.0-11.0-381.0","","","","false","","","","","","","","","","null","","1670.8999999910593","","1","1","null","null","arrowup","[0.15,0.85,0.675,0.325]","","",""
"sailing-trial","435","1879357","0.0-11.0-382.0","","","","false","","","","","","","","","","2191.2000000029802","","185.70000000298023","","3","0","arrowright","1","arrowright","[0.15,0.85,0.675,0.325]","","",""
"sailing-trial","436","1882169","0.0-11.0-383.0","","","","false","","","","","","","","","","null","","970.7999999970198","","2","1","null","null","arrowup","[0.15,0.85,0.675,0.325]","","",""
"sailing-trial","437","1886019","0.0-11.0-384.0","","","","false","","","","","","","","","","724.2000000029802","","15.300000011920929","","1","1","arrowleft","0","arrowright","[0.15,0.85,0.675,0.325]","","",""
"sailing-trial","438","1889287","0.0-11.0-385.0","","","","false","","","","","","","","","","null","","1162.2999999970198","","2","1","null","null","arrowup","[0.15,0.85,0.675,0.325]","","",""
"sailing-trial","439","1892402","0.0-11.0-386.0","","","","false","","","","","","","","","","779.6999999880791","","108.5","","0","0","arrowleft","0","arrowleft","[0.15,0.85,0.675,0.325]","","",""
"sailing-trial","440","1895450","0.0-11.0-387.0","","","","false","","","","","","","","","","null","","535.7000000029802","","3","0","null","null","arrowup","[0.15,0.85,0.675,0.325]","","",""
"sailing-trial","441","1898434","0.0-11.0-388.0","","","","false","","","","","","","","","","686.7000000029802","","119.5","","3","0","arrowright","1","arrowright","[0.15,0.85,0.675,0.325]","","",""
"sailing-trial","442","1901222","0.0-11.0-389.0","","","","false","","","","","","","","","","null","","637.2000000029802","","1","1","null","null","arrowup","[0.15,0.85,0.675,0.325]","","",""
"sailing-trial","443","1904970","0.0-11.0-390.0","","","","false","","","","","","","","","","622.7000000029802","","389.30000001192093","","1","1","arrowleft","0","arrowright","[0.15,0.85,0.675,0.325]","","",""
"sailing-trial","444","1907572","0.0-11.0-391.0","","","","false","","","","","","","","","","null","","957.2999999970198","","1","1","null","null","arrowup","[0.15,0.85,0.675,0.325]","","",""
"sailing-trial","445","1911054","0.0-11.0-392.0","","","","false","","","","","","","","","","523.4000000059605","","291.90000000596046","","1","1","arrowleft","0","arrowright","[0.15,0.85,0.675,0.325]","","",""
"sailing-trial","446","1914055","0.0-11.0-393.0","","","","false","","","","","","","","","","null","","1895.4000000059605","","0","0","null","null","arrowup","[0.15,0.85,0.675,0.325]","","",""
"sailing-trial","447","1917126","0.0-11.0-394.0","","","","false","","","","","","","","","","573.3999999910593","","253","","0","0","arrowleft","0","arrowleft","[0.15,0.85,0.675,0.325]","","",""
"sailing-trial","448","1919525","0.0-11.0-395.0","","","","false","","","","","","","","","","null","","756.7999999970198","","3","0","null","null","arrowup","[0.15,0.85,0.675,0.325]","","",""
"sailing-trial","449","1922303","0.0-11.0-396.0","","","","false","","","","","","","","","","451.79999999701977","","114.1000000089407","","2","0","arrowright","1","arrowleft","[0.15,0.85,0.675,0.325]","","",""
"sailing-trial","450","1925404","0.0-11.0-397.0","","","","false","","","","","","","","","","null","","988.3000000119209","","3","1","null","null","arrowup","[0.15,0.85,0.675,0.325]","","",""
"sailing-trial","451","1930572","0.0-11.0-398.0","","","","false","","","","","","","","","","1397.2000000029802","","747.3999999910593","","2","1","arrowright","1","arrowleft","[0.15,0.85,0.675,0.325]","","",""
"sailing-trial","452","1933505","0.0-11.0-399.0","","","","false","","","","","","","","","","null","","1104.7999999970198","","1","1","null","null","arrowup","[0.15,0.85,0.675,0.325]","","",""
"instructions","453","1939444","0.0-12.0","","","","","","","","","","5934.79999999702","","","","","","","","","","","","","","","","[{""page_index"":0,""viewing_time"":5931.9000000059605}]"
"survey-debrief","454","1982978","0.0-13.0","","","","","","","","","","43529.29999999702","","","","","","","","","","","","","","{""difficulty"":""5"",""fun"":""5"",""clarity"":""5"",""strategy"":""no i did not"",""feedback"":""no""}","",""
