"trial_type","trial_index","time_elapsed","internal_node_id","value","metadata","success","timeout","failed_images","failed_audio","failed_video","browser_interaction","low_quality","rt","stimulus","response","button_pressed","island_rt","island_response","boat_rt","boat_response","boat","reward","island_key","island","boat_key","reward_probabilities","responses","num_errors","view_history"
"pavlovia","0","5","0.0-0.0","","","","","","","","","","","","","","","","","","","","","","","","","",""
"call-function","1","6","0.0-1.0","","{""task_version"":""sailing_part1_v1"",""task_condition"":""good"",""boats"":[""D"",""C"",""B"",""A""],""boats_demo"":[""E"",""F"",""H"",""G""],""islands"":[""B"",""A""],""subject_id"":""13823"",""age"":""10"",""gender"":""Male""}","","","","","","","","","","","","","","","","","","","","","","","",""
"preload","2","3730","0.0-2.0","","","true","false","[]","[]","[]","[{""event"":""fullscreenenter"",""trial"":3,""time"":6679}]","false","","","","","","","","","","","","","","","","",""
"fullscreen","3","7622","0.0-3.0","","","true","","","","","","","","","","","","","","","","","","","","","","",""
"audio-keyboard-response","4","9304","0.0-4.0-0.0","","","","","","","","","","520","audio/beep_loop.wav","audiovolumeup","","","","","","","","","","","","","",""
"audio-test","5","11858","0.0-4.0-1.0","","","","","","","","","","null","audio/turtle.mp3","","3","","","","","","","","","","","","",""
"audio-test","6","19722","0.0-4.0-2.0","","","","","","","","","","null","audio/shark.mp3","","2","","","","","","","","","","","","",""
"sailing-instructions","7","58659","0.0-5.0-0.0-0.0","","","","","","","","","","","","","","null","null","null","null","null","null","","","","","","",""
"sailing-trial","8","62972","0.0-5.0-0.0-1.0-0.0","","","","false","","","","","","","","","","3189","","null","","null","null","arrowleft","0","null","null","","",""
"sailing-trial","9","65449","0.0-5.0-0.0-1.0-1.0","","","","false","","","","","","","","","","1361.5","","null","","null","null","arrowright","1","null","null","","",""
"sailing-trial","10","69977","0.0-5.0-0.0-1.0-2.0","","","","false","","","","","","","","","","3410.2000007629395","","null","","null","null","arrowright","1","null","null","","",""
"sailing-instructions","11","127546","0.0-5.0-0.0-2.0","","","","","","","","","","","","","","null","null","null","null","0","null","","","","","","",""
"sailing-trial","12","134216","0.0-5.0-0.0-3.0-0.0","","","","false","","","","","","","","","","null","","2723.199998855591","","2","1","null","null","arrowleft","[1,1,1,1]","","",""
"sailing-trial","13","138981","0.0-5.0-0.0-3.0-1.0","","","","false","","","","","","","","","","null","","1290.8999996185303","","3","1","null","null","arrowright","[1,1,1,1]","","",""
"sailing-trial","14","144225","0.0-5.0-0.0-3.0-2.0","","","","false","","","","","","","","","","null","","1880.900001525879","","3","0","null","null","arrowright","[0,0,0,0]","","",""
"sailing-instructions","15","151718","0.0-5.0-0.0-4.0","","","","","","","","","","","","","","null","null","null","null","null","null","","","","","","",""
"sailing-comprehension","16","183438","0.0-5.0-0.0-5.0","","","","","","","","","","27056.39999961853","","","","","","","","","","","","","","[""true"",""false"",""false"",""true""]","1",""
"sailing-instructions","17","217544","0.0-5.0-0.1-0.1","","","","","","","","","","","","","","null","null","null","null","null","null","","","","","","",""
"sailing-trial","18","220704","0.0-5.0-0.1-1.1-0.1","","","","false","","","","","","","","","","2056.2000007629395","","null","","null","null","arrowleft","0","null","null","","",""
"sailing-trial","19","222984","0.0-5.0-0.1-1.1-1.1","","","","false","","","","","","","","","","1169.1999988555908","","null","","null","null","arrowright","1","null","null","","",""
"sailing-trial","20","225735","0.0-5.0-0.1-1.1-2.1","","","","false","","","","","","","","","","1637.2000007629395","","null","","null","null","arrowleft","0","null","null","","",""
"sailing-instructions","21","268176","0.0-5.0-0.1-2.1","","","","","","","","","","","","","","null","null","null","null","0","null","","","","","","",""
"sailing-trial","22","273389","0.0-5.0-0.1-3.1-0.1","","","","false","","","","","","","","","","null","","1339.6000003814697","","2","1","null","null","arrowleft","[1,1,1,1]","","",""
"sailing-trial","23","276154","0.0-5.0-0.1-3.1-1.1","","","","false","","","","","","","","","","null","","95.89999961853027","","3","1","null","null","arrowright","[1,1,1,1]","","",""
"sailing-trial","24","279389","0.0-5.0-0.1-3.1-2.1","","","","false","","","","","","","","","","null","","1024.6999988555908","","2","0","null","null","arrowleft","[0,0,0,0]","","",""
"sailing-instructions","25","287238","0.0-5.0-0.1-4.1","","","","","","","","","","","","","","null","null","null","null","null","null","","","","","","",""
"sailing-comprehension","26","337119","0.0-5.0-0.1-5.1","","","","","","","","","","41098.30000114441","","","","","","","","","","","","","","[""true"",""false"",""true"",""true""]","2",""
"sailing-instructions","27","401577","0.0-6.0-0.0-0.0","","","","","","","","","","","","","","null","null","null","null","null","null","","","","","","",""
"sailing-comprehension","28","426775","0.0-6.0-0.0-1.0","","","","","","","","","","15186.70000076294","","","","","","","","","","","","","","[""true"",""false"",""false""]","1",""
"sailing-instructions","29","488236","0.0-6.0-0.1-0.1","","","","","","","","","","","","","","null","null","null","null","null","null","","","","","","",""
"sailing-comprehension","30","506618","0.0-6.0-0.1-1.1","","","","","","","","","","16109.60000038147","","","","","","","","","","","","","","[""true"",""false"",""true""]","0",""
"sailing-instructions","31","520940","0.0-7.0-0.0-0.0","","","","","","","","","","","","","","null","null","null","null","null","null","","","","","","",""
"sailing-trial","32","527549","0.0-7.0-0.0-1.0-0.0","","","","false","","","","","","","","","","null","","3577.8999996185303","","0","0","null","null","arrowup","[0.2,0.8,0.2,0.8]","","",""
"sailing-trial","33","531898","0.0-7.0-0.0-1.0-1.0","","","","false","","","","","","","","","","null","","1995","","1","0","null","null","arrowup","[0.2,0.8,0.2,0.8]","","",""
"sailing-trial","34","536589","0.0-7.0-0.0-1.0-2.0","","","","false","","","","","","","","","","null","","2040.2999992370605","","2","1","null","null","arrowup","[0.2,0.8,0.2,0.8]","","",""
"sailing-trial","35","539866","0.0-7.0-0.0-1.0-3.0","","","","false","","","","","","","","","","null","","1173.5","","3","0","null","null","arrowup","[0.2,0.8,0.2,0.8]","","",""
"sailing-comprehension","36","560860","0.0-7.0-0.0-2.0","","","","","","","","","","19643.10000038147","","","","","","","","","","","","","","[""false""]","0",""
"sailing-instructions","37","572691","0.0-8.0-0.0-0.0","","","","","","","","","","","","","","null","null","null","null","null","null","","","","","","",""
"sailing-comprehension","38","577975","0.0-8.0-0.0-1.0","","","","","","","","","","4124.200000762939","","","","","","","","","","","","","","[""true""]","0",""
"sailing-instructions","39","600211","0.0-9.0-0.0-0.0","","","","","","","","","","","","","","null","null","null","null","null","null","","","","","","",""
"sailing-trial","40","606872","0.0-9.0-0.0-1.0-0.0","","","","false","","","","","","","","","","1173.2999992370605","","1506.3999996185303","","0","0","arrowleft","0","arrowleft","[0.2,0.8,0.2,0.8]","","",""
"sailing-trial","41","612069","0.0-9.0-0.0-1.0-1.0","","","","false","","","","","","","","","","871.1000003814697","","498.3000011444092","","1","1","arrowleft","0","arrowright","[0.2,0.8,0.2,0.8]","","",""
"sailing-trial","42","616338","0.0-9.0-0.0-1.0-2.0","","","","false","","","","","","","","","","null","","1673.3000011444092","","0","0","null","null","arrowup","[0.2,0.8,0.2,0.8]","","",""
"sailing-trial","43","622436","0.0-9.0-0.0-1.0-3.0","","","","false","","","","","","","","","","1491.599998474121","","1178","","1","1","arrowleft","0","arrowright","[0.2,0.8,0.2,0.8]","","",""
"sailing-trial","44","629040","0.0-9.0-0.0-1.0-4.0","","","","false","","","","","","","","","","null","","3924.2999992370605","","3","1","null","null","arrowup","[0.2,0.8,0.2,0.8]","","",""
"sailing-trial","45","633144","0.0-9.0-0.0-1.0-5.0","","","","false","","","","","","","","","","625.2999992370605","","409.20000076293945","","2","0","arrowright","1","arrowleft","[0.2,0.8,0.2,0.8]","","",""
"sailing-instructions","46","658004","0.0-10.0","","","","","","","","","","","","","","null","null","null","null","null","null","","","","","","",""
"sailing-trial","47","663893","0.0-11.0-0.0","","","","false","","","","","","","","","","1862.1999988555908","","370.3999996185303","","3","1","arrowright","1","arrowright","[0.325,0.675,0.15,0.85]","","",""
"sailing-trial","48","668933","0.0-11.0-1.0","","","","false","","","","","","","","","","null","","2014.2000007629395","","2","0","null","null","arrowup","[0.325,0.675,0.15,0.85]","","",""
"sailing-trial","49","673572","0.0-11.0-2.0","","","","false","","","","","","","","","","991.5","","388.5","","3","1","arrowright","1","arrowright","[0.325,0.675,0.15,0.85]","","",""
"sailing-trial","50","678245","0.0-11.0-3.0","","","","false","","","","","","","","","","null","","2334","","3","1","null","null","arrowup","[0.325,0.675,0.15,0.85]","","",""
"sailing-trial","51","682641","0.0-11.0-4.0","","","","false","","","","","","","","","","714","","506.20000076293945","","1","1","arrowleft","0","arrowright","[0.325,0.675,0.15,0.85]","","",""
"sailing-trial","52","687613","0.0-11.0-5.0","","","","false","","","","","","","","","","null","","1957.2000007629395","","1","0","null","null","arrowup","[0.325,0.675,0.15,0.85]","","",""
"sailing-trial","53","692761","0.0-11.0-6.0","","","","false","","","","","","","","","","613.2999992370605","","518.2000007629395","","0","0","arrowleft","0","arrowleft","[0.325,0.675,0.15,0.85]","","",""
"sailing-trial","54","696386","0.0-11.0-7.0","","","","false","","","","","","","","","","null","","1289","","3","1","null","null","arrowup","[0.325,0.675,0.15,0.85]","","",""
"sailing-trial","55","701794","0.0-11.0-8.0","","","","false","","","","","","","","","","788.5","","627.9000015258789","","1","0","arrowleft","0","arrowright","[0.325,0.675,0.15,0.85]","","",""
"sailing-trial","56","706047","0.0-11.0-9.0","","","","false","","","","","","","","","","null","","1432.8999996185303","","1","1","null","null","arrowup","[0.325,0.675,0.15,0.85]","","",""
"sailing-trial","57","710828","0.0-11.0-10.0","","","","false","","","","","","","","","","613.2999992370605","","889.1000003814697","","3","1","arrowright","1","arrowright","[0.325,0.675,0.15,0.85]","","",""
"sailing-trial","58","716444","0.0-11.0-11.0","","","","false","","","","","","","","","","null","","3161.6000003814697","","3","1","null","null","arrowup","[0.325,0.675,0.15,0.85]","","",""
"sailing-trial","59","721096","0.0-11.0-12.0","","","","false","","","","","","","","","","642.4000015258789","","778.2000007629395","","1","1","arrowleft","0","arrowright","[0.325,0.675,0.15,0.85]","","",""
"sailing-trial","60","724545","0.0-11.0-13.0","","","","false","","","","","","","","","","null","","1272.5","","0","1","null","null","arrowup","[0.325,0.675,0.15,0.85]","","",""
"sailing-trial","61","728192","0.0-11.0-14.0","","","","false","","","","","","","","","","657.8999996185303","","278.5","","1","1","arrowleft","0","arrowright","[0.325,0.675,0.15,0.85]","","",""
"sailing-trial","62","731606","0.0-11.0-15.0","","","","false","","","","","","","","","","null","","1208.1000003814697","","0","1","null","null","arrowup","[0.325,0.675,0.15,0.85]","","",""
"sailing-trial","63","736466","0.0-11.0-16.0","","","","false","","","","","","","","","","544.7000007629395","","294","","0","0","arrowleft","0","arrowleft","[0.15,0.85,0.325,0.675]","","",""
"sailing-trial","64","740643","0.0-11.0-17.0","","","","false","","","","","","","","","","null","","1168.8000011444092","","0","0","null","null","arrowup","[0.15,0.85,0.325,0.675]","","",""
"sailing-trial","65","744970","0.0-11.0-18.0","","","","false","","","","","","","","","","738.2000007629395","","406.8000011444092","","3","1","arrowright","1","arrowright","[0.15,0.85,0.325,0.675]","","",""
"sailing-trial","66","748950","0.0-11.0-19.0","","","","false","","","","","","","","","","null","","1588.400001525879","","2","1","null","null","arrowup","[0.15,0.85,0.325,0.675]","","",""
"sailing-trial","67","752803","0.0-11.0-20.0","","","","false","","","","","","","","","","801.6000003814697","","75.0999984741211","","1","1","arrowleft","0","arrowright","[0.15,0.85,0.325,0.675]","","",""
"sailing-trial","68","756990","0.0-11.0-21.0","","","","false","","","","","","","","","","null","","1991.1000003814697","","1","1","null","null","arrowup","[0.15,0.85,0.325,0.675]","","",""
"sailing-trial","69","762148","0.0-11.0-22.0","","","","false","","","","","","","","","","597.2999992370605","","1288.2000007629395","","3","0","arrowright","1","arrowright","[0.15,0.85,0.325,0.675]","","",""
"sailing-trial","70","766214","0.0-11.0-23.0","","","","false","","","","","","","","","","null","","1625.5","","3","1","null","null","arrowup","[0.15,0.85,0.325,0.675]","","",""
"sailing-trial","71","770022","0.0-11.0-24.0","","","","false","","","","","","","","","","638.8999996185303","","76","","1","1","arrowleft","0","arrowright","[0.15,0.85,0.325,0.675]","","",""
"sailing-trial","72","774642","0.0-11.0-25.0","","","","false","","","","","","","","","","null","","1610.2000007629395","","3","0","null","null","arrowup","[0.15,0.85,0.325,0.675]","","",""
"sailing-trial","73","778594","0.0-11.0-26.0","","","","false","","","","","","","","","","1368.7999992370605","","15.80000114440918","","2","0","arrowright","1","arrowleft","[0.15,0.85,0.325,0.675]","","",""
"sailing-trial","74","782760","0.0-11.0-27.0","","","","false","","","","","","","","","","null","","1155.2999992370605","","0","0","null","null","arrowup","[0.15,0.85,0.325,0.675]","","",""
"sailing-trial","75","786974","0.0-11.0-28.0","","","","false","","","","","","","","","","735.4000015258789","","411.8999996185303","","1","1","arrowleft","0","arrowright","[0.15,0.85,0.325,0.675]","","",""
"sailing-trial","76","790083","0.0-11.0-29.0","","","","false","","","","","","","","","","null","","1219.7000007629395","","1","1","null","null","arrowup","[0.15,0.85,0.325,0.675]","","",""
"sailing-trial","77","793987","0.0-11.0-30.0","","","","false","","","","","","","","","","673","","170.5","","1","1","arrowleft","0","arrowright","[0.15,0.85,0.325,0.675]","","",""
"sailing-trial","78","797766","0.0-11.0-31.0","","","","false","","","","","","","","","","null","","1431.7000007629395","","3","1","null","null","arrowup","[0.15,0.85,0.325,0.675]","","",""
"sailing-trial","79","802648","0.0-11.0-32.0","","","","false","","","","","","","","","","687.8000011444092","","1039.5","","1","1","arrowleft","0","arrowright","[0.325,0.675,0.15,0.85]","","",""
"sailing-trial","80","805827","0.0-11.0-33.0","","","","false","","","","","","","","","","null","","1171.8000011444092","","3","1","null","null","arrowup","[0.325,0.675,0.15,0.85]","","",""
"sailing-trial","81","810108","0.0-11.0-34.0","","","","false","","","","","","","","","","704.7999992370605","","367.8999996185303","","3","1","arrowright","1","arrowright","[0.325,0.675,0.15,0.85]","","",""
"sailing-trial","82","815734","0.0-11.0-35.0","","","","false","","","","","","","","","","null","","2622","","2","0","null","null","arrowup","[0.325,0.675,0.15,0.85]","","",""
"sailing-trial","83","820137","0.0-11.0-36.0","","","","false","","","","","","","","","","776.3999996185303","","652.8999996185303","","1","1","arrowleft","0","arrowright","[0.325,0.675,0.15,0.85]","","",""
"sailing-trial","84","824662","0.0-11.0-37.0","","","","false","","","","","","","","","","null","","1515.6000003814697","","3","0","null","null","arrowup","[0.325,0.675,0.15,0.85]","","",""
"sailing-trial","85","829591","0.0-11.0-38.0","","","","false","","","","","","","","","","542","","354.8999996185303","","0","0","arrowleft","0","arrowleft","[0.325,0.675,0.15,0.85]","","",""
"sailing-trial","86","833692","0.0-11.0-39.0","","","","false","","","","","","","","","","null","","1091.5","","2","0","null","null","arrowup","[0.325,0.675,0.15,0.85]","","",""
"sailing-trial","87","837512","0.0-11.0-40.0","","","","false","","","","","","","","","","492.8999996185303","","301.0999984741211","","1","1","arrowleft","0","arrowright","[0.325,0.675,0.15,0.85]","","",""
"sailing-trial","88","840514","0.0-11.0-41.0","","","","false","","","","","","","","","","null","","1114.5","","3","1","null","null","arrowup","[0.325,0.675,0.15,0.85]","","",""
"sailing-trial","89","845653","0.0-11.0-42.0","","","","false","","","","","","","","","","624.3999996185303","","501.5","","1","0","arrowleft","0","arrowright","[0.325,0.675,0.15,0.85]","","",""
"sailing-trial","90","848826","0.0-11.0-43.0","","","","false","","","","","","","","","","null","","1074.8999996185303","","3","1","null","null","arrowup","[0.325,0.675,0.15,0.85]","","",""
"sailing-trial","91","854542","0.0-11.0-44.0","","","","false","","","","","","","","","","1501.2000007629395","","199.4000015258789","","2","0","arrowright","1","arrowleft","[0.325,0.675,0.15,0.85]","","",""
"sailing-trial","92","857961","0.0-11.0-45.0","","","","false","","","","","","","","","","null","","1091.7000007629395","","3","1","null","null","arrowup","[0.325,0.675,0.15,0.85]","","",""
"sailing-trial","93","861615","0.0-11.0-46.0","","","","false","","","","","","","","","","591.5","","366.1000003814697","","3","1","arrowright","1","arrowright","[0.325,0.675,0.15,0.85]","","",""
"sailing-trial","94","865633","0.0-11.0-47.0","","","","false","","","","","","","","","","null","","1006.6000003814697","","1","0","null","null","arrowup","[0.325,0.675,0.15,0.85]","","",""
"sailing-trial","95","869323","0.0-11.0-48.0","","","","false","","","","","","","","","","571.8000011444092","","70.5999984741211","","3","1","arrowright","1","arrowright","[0.325,0.675,0.15,0.85]","","",""
"sailing-trial","96","872635","0.0-11.0-49.0","","","","false","","","","","","","","","","null","","1168.400001525879","","1","1","null","null","arrowup","[0.325,0.675,0.15,0.85]","","",""
"sailing-trial","97","877753","0.0-11.0-50.0","","","","false","","","","","","","","","","645.1000003814697","","449.79999923706055","","0","0","arrowleft","0","arrowleft","[0.15,0.85,0.325,0.675]","","",""
"sailing-trial","98","880517","0.0-11.0-51.0","","","","false","","","","","","","","","","null","","985.0999984741211","","1","1","null","null","arrowup","[0.15,0.85,0.325,0.675]","","",""
"sailing-trial","99","885138","0.0-11.0-52.0","","","","false","","","","","","","","","","541.4000015258789","","48.10000038146973","","3","0","arrowright","1","arrowright","[0.15,0.85,0.325,0.675]","","",""
"sailing-trial","100","889231","0.0-11.0-53.0","","","","false","","","","","","","","","","null","","1081.599998474121","","0","0","null","null","arrowup","[0.15,0.85,0.325,0.675]","","",""
"sailing-trial","101","893111","0.0-11.0-54.0","","","","false","","","","","","","","","","553.5","","235.5","","3","1","arrowright","1","arrowright","[0.15,0.85,0.325,0.675]","","",""
"sailing-trial","102","896295","0.0-11.0-55.0","","","","false","","","","","","","","","","null","","1180.2999992370605","","1","1","null","null","arrowup","[0.15,0.85,0.325,0.675]","","",""
"sailing-trial","103","900435","0.0-11.0-56.0","","","","false","","","","","","","","","","724.1000003814697","","523.4000015258789","","1","1","arrowleft","0","arrowright","[0.15,0.85,0.325,0.675]","","",""
"sailing-trial","104","904493","0.0-11.0-57.0","","","","false","","","","","","","","","","null","","1049.099998474121","","0","0","null","null","arrowup","[0.15,0.85,0.325,0.675]","","",""
"sailing-trial","105","908686","0.0-11.0-58.0","","","","false","","","","","","","","","","1291.6999988555908","","26.5","","1","1","arrowleft","0","arrowright","[0.15,0.85,0.325,0.675]","","",""
"sailing-trial","106","911260","0.0-11.0-59.0","","","","false","","","","","","","","","","null","","1065.5","","0","0","null","null","arrowup","[0.15,0.85,0.325,0.675]","","",""
"sailing-trial","107","916779","0.0-11.0-60.0","","","","false","","","","","","","","","","1156.8999996185303","","352.8999996185303","","3","0","arrowright","1","arrowright","[0.15,0.85,0.325,0.675]","","",""
"sailing-trial","108","920765","0.0-11.0-61.0","","","","false","","","","","","","","","","null","","971.2999992370605","","2","0","null","null","arrowup","[0.15,0.85,0.325,0.675]","","",""
"sailing-trial","109","925015","0.0-11.0-62.0","","","","false","","","","","","","","","","534.8999996185303","","557.7999992370605","","3","1","arrowright","1","arrowright","[0.15,0.85,0.325,0.675]","","",""
"sailing-trial","110","928017","0.0-11.0-63.0","","","","false","","","","","","","","","","null","","988.1999988555908","","1","1","null","null","arrowup","[0.15,0.85,0.325,0.675]","","",""
"sailing-trial","111","931486","0.0-11.0-64.0","","","","false","","","","","","","","","","600.5","","218.70000076293945","","3","1","arrowright","1","arrowright","[0.15,0.85,0.325,0.675]","","",""
"sailing-trial","112","934506","0.0-11.0-65.0","","","","false","","","","","","","","","","null","","1127.3000011444092","","1","1","null","null","arrowup","[0.15,0.85,0.325,0.675]","","",""
"sailing-trial","113","938255","0.0-11.0-66.0","","","","false","","","","","","","","","","580.8999996185303","","307.6000003814697","","3","1","arrowright","1","arrowright","[0.15,0.85,0.325,0.675]","","",""
"sailing-trial","114","941505","0.0-11.0-67.0","","","","false","","","","","","","","","","null","","1412","","1","1","null","null","arrowup","[0.15,0.85,0.325,0.675]","","",""
"sailing-trial","115","945692","0.0-11.0-68.0","","","","false","","","","","","","","","","822.3999996185303","","278.8999996185303","","1","1","arrowleft","0","arrowright","[0.15,0.85,0.325,0.675]","","",""
"sailing-trial","116","950754","0.0-11.0-69.0","","","","false","","","","","","","","","","null","","2051.5","","0","0","null","null","arrowup","[0.15,0.85,0.325,0.675]","","",""
"sailing-trial","117","954774","0.0-11.0-70.0","","","","false","","","","","","","","","","442.20000076293945","","496.79999923706055","","1","1","arrowleft","0","arrowright","[0.15,0.85,0.325,0.675]","","",""
"sailing-trial","118","958170","0.0-11.0-71.0","","","","false","","","","","","","","","","null","","1185.3999996185303","","2","1","null","null","arrowup","[0.15,0.85,0.325,0.675]","","",""
"sailing-trial","119","963151","0.0-11.0-72.0","","","","false","","","","","","","","","","724.6000003814697","","244.19999885559082","","2","0","arrowright","1","arrowleft","[0.15,0.85,0.325,0.675]","","",""
"sailing-trial","120","968215","0.0-11.0-73.0","","","","false","","","","","","","","","","null","","2034.7000007629395","","3","0","null","null","arrowup","[0.15,0.85,0.325,0.675]","","",""
"sailing-trial","121","973172","0.0-11.0-74.0","","","","false","","","","","","","","","","801.2999992370605","","115.5","","0","0","arrowleft","0","arrowleft","[0.325,0.675,0.15,0.85]","","",""
"sailing-trial","122","977248","0.0-11.0-75.0","","","","false","","","","","","","","","","null","","1068.3999996185303","","2","0","null","null","arrowup","[0.325,0.675,0.15,0.85]","","",""
"sailing-trial","123","981057","0.0-11.0-76.0","","","","false","","","","","","","","","","445.5","","358.3999996185303","","1","0","arrowleft","0","arrowright","[0.325,0.675,0.15,0.85]","","",""
"sailing-trial","124","985098","0.0-11.0-77.0","","","","false","","","","","","","","","","null","","1031","","2","0","null","null","arrowup","[0.325,0.675,0.15,0.85]","","",""
"sailing-trial","125","990243","0.0-11.0-78.0","","","","false","","","","","","","","","","474.6999988555908","","633.7000007629395","","1","0","arrowleft","0","arrowright","[0.325,0.675,0.15,0.85]","","",""
"sailing-trial","126","995082","0.0-11.0-79.0","","","","false","","","","","","","","","","null","","1821.8999996185303","","2","0","null","null","arrowup","[0.325,0.675,0.15,0.85]","","",""
"sailing-trial","127","999258","0.0-11.0-80.0","","","","false","","","","","","","","","","623","","444.8000011444092","","3","1","arrowright","1","arrowright","[0.325,0.675,0.15,0.85]","","",""
"sailing-trial","128","1002188","0.0-11.0-81.0","","","","false","","","","","","","","","","null","","996.2000007629395","","3","1","null","null","arrowup","[0.325,0.675,0.15,0.85]","","",""
"sailing-trial","129","1005990","0.0-11.0-82.0","","","","false","","","","","","","","","","527","","288.1000003814697","","3","1","arrowright","1","arrowright","[0.325,0.675,0.15,0.85]","","",""
"sailing-trial","130","1010285","0.0-11.0-83.0","","","","false","","","","","","","","","","null","","1283","","3","0","null","null","arrowup","[0.325,0.675,0.15,0.85]","","",""
"sailing-trial","131","1015280","0.0-11.0-84.0","","","","false","","","","","","","","","","651.2000007629395","","326.9000015258789","","1","0","arrowleft","0","arrowright","[0.325,0.675,0.15,0.85]","","",""
"sailing-trial","132","1018812","0.0-11.0-85.0","","","","false","","","","","","","","","","null","","1449.400001525879","","3","1","null","null","arrowup","[0.325,0.675,0.15,0.85]","","",""
"sailing-trial","133","1022586","0.0-11.0-86.0","","","","false","","","","","","","","","","563.1999988555908","","171.10000038146973","","3","1","arrowright","1","arrowright","[0.325,0.675,0.15,0.85]","","",""
"sailing-trial","134","1027206","0.0-11.0-87.0","","","","false","","","","","","","","","","null","","1760.6000003814697","","3","1","null","null","arrowup","[0.325,0.675,0.15,0.85]","","",""
"sailing-trial","135","1031198","0.0-11.0-88.0","","","","false","","","","","","","","","","776.1000003814697","","415.1999988555908","","3","1","arrowright","1","arrowright","[0.325,0.675,0.15,0.85]","","",""
"sailing-trial","136","1035186","0.0-11.0-89.0","","","","false","","","","","","","","","","null","","1788.6000003814697","","2","1","null","null","arrowup","[0.325,0.675,0.15,0.85]","","",""
"sailing-trial","137","1040159","0.0-11.0-90.0","","","","false","","","","","","","","","","627.2999992370605","","330.6000003814697","","2","0","arrowright","1","arrowleft","[0.15,0.85,0.325,0.675]","","",""
"sailing-trial","138","1043986","0.0-11.0-91.0","","","","false","","","","","","","","","","null","","1047.3999996185303","","1","1","null","null","arrowup","[0.15,0.85,0.325,0.675]","","",""
"sailing-trial","139","1049480","0.0-11.0-92.0","","","","false","","","","","","","","","","1427.3999996185303","","320.8000011444092","","1","1","arrowleft","0","arrowright","[0.15,0.85,0.325,0.675]","","",""
"sailing-trial","140","1052466","0.0-11.0-93.0","","","","false","","","","","","","","","","null","","1141.6000003814697","","1","1","null","null","arrowup","[0.15,0.85,0.325,0.675]","","",""
"sailing-trial","141","1057111","0.0-11.0-94.0","","","","false","","","","","","","","","","496.79999923706055","","1275.6000003814697","","1","1","arrowleft","0","arrowright","[0.15,0.85,0.325,0.675]","","",""
"sailing-trial","142","1060088","0.0-11.0-95.0","","","","false","","","","","","","","","","null","","1144.099998474121","","3","1","null","null","arrowup","[0.15,0.85,0.325,0.675]","","",""
"sailing-trial","143","1064803","0.0-11.0-96.0","","","","false","","","","","","","","","","459.79999923706055","","244.5","","0","0","arrowleft","0","arrowleft","[0.15,0.85,0.325,0.675]","","",""
"sailing-trial","144","1067985","0.0-11.0-97.0","","","","false","","","","","","","","","","null","","1077.7999992370605","","3","1","null","null","arrowup","[0.15,0.85,0.325,0.675]","","",""
"sailing-trial","145","1072462","0.0-11.0-98.0","","","","false","","","","","","","","","","599.8999996185303","","834.8999996185303","","3","1","arrowright","1","arrowright","[0.15,0.85,0.325,0.675]","","",""
"sailing-trial","146","1075777","0.0-11.0-99.0","","","","false","","","","","","","","","","null","","1330.6000003814697","","2","1","null","null","arrowup","[0.15,0.85,0.325,0.675]","","",""
"sailing-trial","147","1079424","0.0-11.0-100.0","","","","false","","","","","","","","","","589.9000015258789","","241.10000038146973","","3","1","arrowright","1","arrowright","[0.15,0.85,0.325,0.675]","","",""
"sailing-trial","148","1084105","0.0-11.0-101.0","","","","false","","","","","","","","","","null","","2496.1000003814697","","1","1","null","null","arrowup","[0.15,0.85,0.325,0.675]","","",""
"sailing-trial","149","1088323","0.0-11.0-102.0","","","","false","","","","","","","","","","1015.9000015258789","","141.19999885559082","","3","1","arrowright","1","arrowright","[0.15,0.85,0.325,0.675]","","",""
"sailing-trial","150","1093028","0.0-11.0-103.0","","","","false","","","","","","","","","","null","","1694.400001525879","","0","0","null","null","arrowup","[0.15,0.85,0.325,0.675]","","",""
"sailing-trial","151","1097382","0.0-11.0-104.0","","","","false","","","","","","","","","","935.6999988555908","","379.6000003814697","","1","1","arrowleft","0","arrowright","[0.15,0.85,0.325,0.675]","","",""
"sailing-trial","152","1101946","0.0-11.0-105.0","","","","false","","","","","","","","","","null","","1562.5","","2","0","null","null","arrowup","[0.15,0.85,0.325,0.675]","","",""
"sailing-trial","153","1107059","0.0-11.0-106.0","","","","false","","","","","","","","","","665.3999996185303","","428.5","","3","0","arrowright","1","arrowright","[0.15,0.85,0.325,0.675]","","",""
"sailing-trial","154","1111233","0.0-11.0-107.0","","","","false","","","","","","","","","","null","","1161.7999992370605","","0","0","null","null","arrowup","[0.15,0.85,0.325,0.675]","","",""
"sailing-trial","155","1116521","0.0-11.0-108.0","","","","false","","","","","","","","","","801","","475.8000011444092","","3","0","arrowright","1","arrowright","[0.15,0.85,0.325,0.675]","","",""
"sailing-trial","156","1119806","0.0-11.0-109.0","","","","false","","","","","","","","","","null","","1195.8999996185303","","3","1","null","null","arrowup","[0.15,0.85,0.325,0.675]","","",""
"sailing-trial","157","1123848","0.0-11.0-110.0","","","","false","","","","","","","","","","704.8999996185303","","389.3000011444092","","3","1","arrowright","1","arrowright","[0.325,0.675,0.15,0.85]","","",""
"sailing-trial","158","1128750","0.0-11.0-111.0","","","","false","","","","","","","","","","null","","1889.6999988555908","","0","0","null","null","arrowup","[0.325,0.675,0.15,0.85]","","",""
"sailing-trial","159","1134057","0.0-11.0-112.0","","","","false","","","","","","","","","","723.7000007629395","","547.5","","3","0","arrowright","1","arrowright","[0.325,0.675,0.15,0.85]","","",""
"sailing-trial","160","1138061","0.0-11.0-113.0","","","","false","","","","","","","","","","null","","995.7000007629395","","2","0","null","null","arrowup","[0.325,0.675,0.15,0.85]","","",""
"sailing-trial","161","1141716","0.0-11.0-114.0","","","","false","","","","","","","","","","550.2999992370605","","255.60000038146973","","1","1","arrowleft","0","arrowright","[0.325,0.675,0.15,0.85]","","",""
"sailing-trial","162","1144926","0.0-11.0-115.0","","","","false","","","","","","","","","","null","","1024","","3","1","null","null","arrowup","[0.325,0.675,0.15,0.85]","","",""
"sailing-trial","163","1148705","0.0-11.0-116.0","","","","false","","","","","","","","","","580.6999988555908","","358.20000076293945","","1","1","arrowleft","0","arrowright","[0.325,0.675,0.15,0.85]","","",""
"sailing-trial","164","1151885","0.0-11.0-117.0","","","","false","","","","","","","","","","null","","1059.8999996185303","","3","1","null","null","arrowup","[0.325,0.675,0.15,0.85]","","",""
"sailing-trial","165","1156052","0.0-11.0-118.0","","","","false","","","","","","","","","","609.3000011444092","","219.60000038146973","","1","1","arrowleft","0","arrowright","[0.325,0.675,0.15,0.85]","","",""
"sailing-trial","166","1160275","0.0-11.0-119.0","","","","false","","","","","","","","","","null","","1200.3999996185303","","0","0","null","null","arrowup","[0.325,0.675,0.15,0.85]","","",""
"sailing-trial","167","1163750","0.0-11.0-120.0","","","","false","","","","","","","","","","446.6999988555908","","82.9000015258789","","1","1","arrowleft","0","arrowright","[0.325,0.675,0.15,0.85]","","",""
"sailing-trial","168","1168142","0.0-11.0-121.0","","","","false","","","","","","","","","","null","","1386.1000003814697","","0","0","null","null","arrowup","[0.325,0.675,0.15,0.85]","","",""
"sailing-trial","169","1173365","0.0-11.0-122.0","","","","false","","","","","","","","","","847.2000007629395","","345","","1","0","arrowleft","0","arrowright","[0.325,0.675,0.15,0.85]","","",""
"sailing-trial","170","1177375","0.0-11.0-123.0","","","","false","","","","","","","","","","null","","1271.6000003814697","","2","1","null","null","arrowup","[0.325,0.675,0.15,0.85]","","",""
"sailing-trial","171","1182013","0.0-11.0-124.0","","","","false","","","","","","","","","","608.5","","2.6000003814697266","","2","0","arrowright","1","arrowleft","[0.325,0.675,0.15,0.85]","","",""
"sailing-trial","172","1186012","0.0-11.0-125.0","","","","false","","","","","","","","","","null","","989.6999988555908","","0","0","null","null","arrowup","[0.325,0.675,0.15,0.85]","","",""
"sailing-trial","173","1190841","0.0-11.0-126.0","","","","false","","","","","","","","","","589","","182.20000076293945","","3","1","arrowright","1","arrowright","[0.325,0.675,0.15,0.85]","","",""
"sailing-trial","174","1196066","0.0-11.0-127.0","","","","false","","","","","","","","","","null","","2639.2000007629395","","1","1","null","null","arrowup","[0.325,0.675,0.15,0.85]","","",""
"sailing-trial","175","1200313","0.0-11.0-128.0","","","","false","","","","","","","","","","873.5999984741211","","362.8000011444092","","3","1","arrowright","1","arrowright","[0.325,0.675,0.15,0.85]","","",""
"sailing-trial","176","1203227","0.0-11.0-129.0","","","","false","","","","","","","","","","null","","1069.5","","1","1","null","null","arrowup","[0.325,0.675,0.15,0.85]","","",""
"sailing-trial","177","1206947","0.0-11.0-130.0","","","","false","","","","","","","","","","651.7000007629395","","194.5","","1","1","arrowleft","0","arrowright","[0.15,0.85,0.325,0.675]","","",""
"sailing-trial","178","1211049","0.0-11.0-131.0","","","","false","","","","","","","","","","null","","1091.6000003814697","","0","0","null","null","arrowup","[0.15,0.85,0.325,0.675]","","",""
"sailing-trial","179","1214755","0.0-11.0-132.0","","","","false","","","","","","","","","","535.4000015258789","","257.5","","3","1","arrowright","1","arrowright","[0.15,0.85,0.325,0.675]","","",""
"sailing-trial","180","1218327","0.0-11.0-133.0","","","","false","","","","","","","","","","null","","559.3000011444092","","0","0","null","null","arrowup","[0.15,0.85,0.325,0.675]","","",""
"sailing-trial","181","1223286","0.0-11.0-134.0","","","","false","","","","","","","","","","608.3999996185303","","316.5","","3","0","arrowright","1","arrowright","[0.15,0.85,0.325,0.675]","","",""
"sailing-trial","182","1227210","0.0-11.0-135.0","","","","false","","","","","","","","","","null","","916.1000003814697","","2","0","null","null","arrowup","[0.15,0.85,0.325,0.675]","","",""
"sailing-trial","183","1231179","0.0-11.0-136.0","","","","false","","","","","","","","","","517.5","","549.7000007629395","","1","1","arrowleft","0","arrowright","[0.15,0.85,0.325,0.675]","","",""
"sailing-trial","184","1233908","0.0-11.0-137.0","","","","false","","","","","","","","","","null","","902.6999988555908","","1","1","null","null","arrowup","[0.15,0.85,0.325,0.675]","","",""
"sailing-trial","185","1238872","0.0-11.0-138.0","","","","false","","","","","","","","","","727.3000011444092","","221.70000076293945","","1","0","arrowleft","0","arrowright","[0.15,0.85,0.325,0.675]","","",""
"sailing-trial","186","1241463","0.0-11.0-139.0","","","","false","","","","","","","","","","null","","813.5","","1","1","null","null","arrowup","[0.15,0.85,0.325,0.675]","","",""
"sailing-trial","187","1245335","0.0-11.0-140.0","","","","false","","","","","","","","","","511.20000076293945","","363.29999923706055","","1","1","arrowleft","0","arrowright","[0.15,0.85,0.325,0.675]","","",""
"sailing-trial","188","1248711","0.0-11.0-141.0","","","","false","","","","","","","","","","null","","1271.5","","3","1","null","null","arrowup","[0.15,0.85,0.325,0.675]","","",""
"sailing-trial","189","1252567","0.0-11.0-142.0","","","","false","","","","","","","","","","790.2999992370605","","181.20000076293945","","1","1","arrowleft","0","arrowright","[0.15,0.85,0.325,0.675]","","",""
"sailing-trial","190","1256838","0.0-11.0-143.0","","","","false","","","","","","","","","","null","","1247.8999996185303","","2","0","null","null","arrowup","[0.15,0.85,0.325,0.675]","","",""
"sailing-trial","191","1260706","0.0-11.0-144.0","","","","false","","","","","","","","","","815.7999992370605","","227.19999885559082","","1","1","arrowleft","0","arrowright","[0.15,0.85,0.325,0.675]","","",""
"sailing-trial","192","1263846","0.0-11.0-145.0","","","","false","","","","","","","","","","null","","1104.1999988555908","","3","1","null","null","arrowup","[0.15,0.85,0.325,0.675]","","",""
"sailing-trial","193","1269546","0.0-11.0-146.0","","","","false","","","","","","","","","","748.8999996185303","","1954.2000007629395","","1","1","arrowleft","0","arrowright","[0.15,0.85,0.325,0.675]","","",""
"sailing-trial","194","1273714","0.0-11.0-147.0","","","","false","","","","","","","","","","null","","2162.8999996185303","","1","1","null","null","arrowup","[0.15,0.85,0.325,0.675]","","",""
"sailing-trial","195","1277830","0.0-11.0-148.0","","","","false","","","","","","","","","","748.4000015258789","","191.19999885559082","","3","1","arrowright","1","arrowright","[0.15,0.85,0.325,0.675]","","",""
"sailing-trial","196","1282977","0.0-11.0-149.0","","","","false","","","","","","","","","","null","","2131.3999996185303","","0","0","null","null","arrowup","[0.15,0.85,0.325,0.675]","","",""
"sailing-trial","197","1288515","0.0-11.0-150.0","","","","false","","","","","","","","","","1138.2000007629395","","1291.8999996185303","","1","1","arrowleft","0","arrowright","[0.15,0.85,0.325,0.675]","","",""
"sailing-trial","198","1291771","0.0-11.0-151.0","","","","false","","","","","","","","","","null","","1058.7999992370605","","0","1","null","null","arrowup","[0.15,0.85,0.325,0.675]","","",""
"sailing-trial","199","1295387","0.0-11.0-152.0","","","","false","","","","","","","","","","567.6999988555908","","31.900001525878906","","0","1","arrowleft","0","arrowleft","[0.675,0.325,0.85,0.15]","","",""
"sailing-trial","200","1299060","0.0-11.0-153.0","","","","false","","","","","","","","","","null","","1115.5","","1","1","null","null","arrowup","[0.675,0.325,0.85,0.15]","","",""
"sailing-trial","201","1303087","0.0-11.0-154.0","","","","false","","","","","","","","","","455.3000011444092","","663.6000003814697","","0","1","arrowleft","0","arrowleft","[0.675,0.325,0.85,0.15]","","",""
"sailing-trial","202","1307086","0.0-11.0-155.0","","","","false","","","","","","","","","","null","","989.7999992370605","","1","0","null","null","arrowup","[0.675,0.325,0.85,0.15]","","",""
"sailing-trial","203","1312021","0.0-11.0-156.0","","","","false","","","","","","","","","","543.6000003814697","","357.1000003814697","","3","0","arrowright","1","arrowright","[0.675,0.325,0.85,0.15]","","",""
"sailing-trial","204","1315099","0.0-11.0-157.0","","","","false","","","","","","","","","","null","","975.5","","2","1","null","null","arrowup","[0.675,0.325,0.85,0.15]","","",""
"sailing-trial","205","1318993","0.0-11.0-158.0","","","","false","","","","","","","","","","528.2000007629395","","333.1999988555908","","2","1","arrowright","1","arrowleft","[0.675,0.325,0.85,0.15]","","",""
"sailing-trial","206","1323845","0.0-11.0-159.0","","","","false","","","","","","","","","","null","","1854.8999996185303","","1","0","null","null","arrowup","[0.675,0.325,0.85,0.15]","","",""
"sailing-trial","207","1328405","0.0-11.0-160.0","","","","false","","","","","","","","","","464.6999988555908","","77.5","","0","0","arrowleft","0","arrowleft","[0.675,0.325,0.85,0.15]","","",""
"sailing-trial","208","1332421","0.0-11.0-161.0","","","","false","","","","","","","","","","null","","1000.6999988555908","","3","0","null","null","arrowup","[0.675,0.325,0.85,0.15]","","",""
"sailing-trial","209","1335916","0.0-11.0-162.0","","","","false","","","","","","","","","","523.1999988555908","","15.600000381469727","","2","1","arrowright","1","arrowleft","[0.675,0.325,0.85,0.15]","","",""
"sailing-trial","210","1339942","0.0-11.0-163.0","","","","false","","","","","","","","","","null","","1013.2000007629395","","3","0","null","null","arrowup","[0.675,0.325,0.85,0.15]","","",""
"sailing-trial","211","1344965","0.0-11.0-164.0","","","","false","","","","","","","","","","521.2000007629395","","464.20000076293945","","2","0","arrowright","1","arrowleft","[0.675,0.325,0.85,0.15]","","",""
"sailing-trial","212","1349050","0.0-11.0-165.0","","","","false","","","","","","","","","","null","","1078.3999996185303","","2","0","null","null","arrowup","[0.675,0.325,0.85,0.15]","","",""
"sailing-trial","213","1353191","0.0-11.0-166.0","","","","false","","","","","","","","","","597.3999996185303","","35.10000038146973","","0","1","arrowleft","0","arrowleft","[0.675,0.325,0.85,0.15]","","",""
"sailing-trial","214","1357258","0.0-11.0-167.0","","","","false","","","","","","","","","","null","","1056.900001525879","","3","0","null","null","arrowup","[0.675,0.325,0.85,0.15]","","",""
"sailing-trial","215","1361518","0.0-11.0-168.0","","","","false","","","","","","","","","","842.5","","383.3999996185303","","1","1","arrowleft","0","arrowright","[0.325,0.675,0.15,0.85]","","",""
"sailing-trial","216","1364962","0.0-11.0-169.0","","","","false","","","","","","","","","","null","","1556.2999992370605","","1","1","null","null","arrowup","[0.325,0.675,0.15,0.85]","","",""
"sailing-trial","217","1369024","0.0-11.0-170.0","","","","false","","","","","","","","","","711.6999988555908","","477.8999996185303","","1","1","arrowleft","0","arrowright","[0.325,0.675,0.15,0.85]","","",""
"sailing-trial","218","1371151","0.0-11.0-171.0","","","","false","","","","","","","","","","null","","1040.8999996185303","","0","0","null","null","arrowup","[0.325,0.675,0.15,0.85]","","",""
"sailing-trial","219","1376884","0.0-11.0-172.0","","","","false","","","","","","","","","","1370.3999996185303","","359.5","","1","0","arrowleft","0","arrowright","[0.325,0.675,0.15,0.85]","","",""
"sailing-trial","220","1380066","0.0-11.0-173.0","","","","false","","","","","","","","","","null","","1101.6000003814697","","3","1","null","null","arrowup","[0.325,0.675,0.15,0.85]","","",""
"sailing-trial","221","1384120","0.0-11.0-174.0","","","","false","","","","","","","","","","606.7999992370605","","497.5999984741211","","3","1","arrowright","1","arrowright","[0.325,0.675,0.15,0.85]","","",""
"sailing-trial","222","1388193","0.0-11.0-175.0","","","","false","","","","","","","","","","null","","1952.599998474121","","0","1","null","null","arrowup","[0.325,0.675,0.15,0.85]","","",""
"sailing-trial","223","1392817","0.0-11.0-176.0","","","","false","","","","","","","","","","530","","62.79999923706055","","2","0","arrowright","1","arrowleft","[0.325,0.675,0.15,0.85]","","",""
"sailing-trial","224","1396933","0.0-11.0-177.0","","","","false","","","","","","","","","","null","","1104.3999996185303","","0","0","null","null","arrowup","[0.325,0.675,0.15,0.85]","","",""
"sailing-trial","225","1400525","0.0-11.0-178.0","","","","false","","","","","","","","","","620.2000007629395","","42.39999961853027","","3","1","arrowright","1","arrowright","[0.325,0.675,0.15,0.85]","","",""
"sailing-trial","226","1404047","0.0-11.0-179.0","","","","false","","","","","","","","","","null","","1510.1000003814697","","1","1","null","null","arrowup","[0.325,0.675,0.15,0.85]","","",""
"sailing-trial","227","1408039","0.0-11.0-180.0","","","","false","","","","","","","","","","826.1000003814697","","127.70000076293945","","3","1","arrowright","1","arrowright","[0.325,0.675,0.15,0.85]","","",""
"sailing-trial","228","1411566","0.0-11.0-181.0","","","","false","","","","","","","","","","null","","1580.7000007629395","","3","1","null","null","arrowup","[0.325,0.675,0.15,0.85]","","",""
"sailing-trial","229","1415908","0.0-11.0-182.0","","","","false","","","","","","","","","","781.6000003814697","","354.1000003814697","","3","1","arrowright","1","arrowright","[0.325,0.675,0.15,0.85]","","",""
"sailing-trial","230","1418900","0.0-11.0-183.0","","","","false","","","","","","","","","","null","","1147.5","","3","1","null","null","arrowup","[0.325,0.675,0.15,0.85]","","",""
"sailing-trial","231","1422672","0.0-11.0-184.0","","","","false","","","","","","","","","","636.7999992370605","","271.5","","3","1","arrowright","1","arrowright","[0.325,0.675,0.15,0.85]","","",""
"sailing-trial","232","1425867","0.0-11.0-185.0","","","","false","","","","","","","","","","null","","1049.099998474121","","1","1","null","null","arrowup","[0.325,0.675,0.15,0.85]","","",""
"sailing-trial","233","1430711","0.0-11.0-186.0","","","","false","","","","","","","","","","657.5999984741211","","155.39999961853027","","3","0","arrowright","1","arrowright","[0.675,0.325,0.85,0.15]","","",""
"sailing-trial","234","1434109","0.0-11.0-187.0","","","","false","","","","","","","","","","null","","1417.8000011444092","","2","1","null","null","arrowup","[0.675,0.325,0.85,0.15]","","",""
"sailing-trial","235","1440079","0.0-11.0-188.0","","","","false","","","","","","","","","","1838.2000007629395","","596.3000011444092","","2","1","arrowright","1","arrowleft","[0.675,0.325,0.85,0.15]","","",""
"sailing-trial","236","1444206","0.0-11.0-189.0","","","","false","","","","","","","","","","null","","2091","","2","1","null","null","arrowup","[0.675,0.325,0.85,0.15]","","",""
"sailing-trial","237","1448182","0.0-11.0-190.0","","","","false","","","","","","","","","","761.6000003814697","","342.6999988555908","","3","1","arrowright","1","arrowright","[0.675,0.325,0.85,0.15]","","",""
"sailing-trial","238","1451655","0.0-11.0-191.0","","","","false","","","","","","","","","","null","","1430.8999996185303","","0","1","null","null","arrowup","[0.675,0.325,0.85,0.15]","","",""
"sailing-trial","239","1455371","0.0-11.0-192.0","","","","false","","","","","","","","","","701.8999996185303","","79.5999984741211","","0","1","arrowleft","0","arrowleft","[0.675,0.325,0.85,0.15]","","",""
"sailing-trial","240","1458653","0.0-11.0-193.0","","","","false","","","","","","","","","","null","","1403.5","","0","1","null","null","arrowup","[0.675,0.325,0.85,0.15]","","",""
"sailing-trial","241","1462671","0.0-11.0-194.0","","","","false","","","","","","","","","","698.1999988555908","","336.1000003814697","","0","1","arrowleft","0","arrowleft","[0.675,0.325,0.85,0.15]","","",""
"sailing-trial","242","1468378","0.0-11.0-195.0","","","","false","","","","","","","","","","null","","2686.8999996185303","","3","0","null","null","arrowup","[0.675,0.325,0.85,0.15]","","",""
"sailing-trial","243","1474510","0.0-11.0-196.0","","","","false","","","","","","","","","","1542.400001525879","","544","","0","0","arrowleft","0","arrowleft","[0.675,0.325,0.85,0.15]","","",""
"sailing-trial","244","1478499","0.0-11.0-197.0","","","","false","","","","","","","","","","null","","1694.7999992370605","","2","1","null","null","arrowup","[0.675,0.325,0.85,0.15]","","",""
"sailing-trial","245","1483213","0.0-11.0-198.0","","","","false","","","","","","","","","","556.3999996185303","","148.20000076293945","","3","0","arrowright","1","arrowright","[0.675,0.325,0.85,0.15]","","",""
"sailing-trial","246","1487602","0.0-11.0-199.0","","","","false","","","","","","","","","","null","","1388.7000007629395","","1","0","null","null","arrowup","[0.675,0.325,0.85,0.15]","","",""
"sailing-trial","247","1492699","0.0-11.0-200.0","","","","false","","","","","","","","","","560.3999996185303","","512.8999996185303","","0","0","arrowleft","0","arrowleft","[0.675,0.325,0.85,0.15]","","",""
"sailing-trial","248","1496704","0.0-11.0-201.0","","","","false","","","","","","","","","","null","","993.1000003814697","","1","0","null","null","arrowup","[0.675,0.325,0.85,0.15]","","",""
"sailing-trial","249","1500566","0.0-11.0-202.0","","","","false","","","","","","","","","","680.3000011444092","","192.5","","2","1","arrowright","1","arrowleft","[0.675,0.325,0.85,0.15]","","",""
"sailing-trial","250","1504554","0.0-11.0-203.0","","","","false","","","","","","","","","","null","","966.5","","1","0","null","null","arrowup","[0.675,0.325,0.85,0.15]","","",""
"sailing-trial","251","1507941","0.0-11.0-204.0","","","","false","","","","","","","","","","532.7000007629395","","10.899999618530273","","2","1","arrowright","1","arrowleft","[0.85,0.15,0.675,0.325]","","",""
"sailing-trial","252","1512188","0.0-11.0-205.0","","","","false","","","","","","","","","","null","","2264.1000003814697","","2","1","null","null","arrowup","[0.85,0.15,0.675,0.325]","","",""
"sailing-trial","253","1516755","0.0-11.0-206.0","","","","false","","","","","","","","","","741.2000007629395","","578.7000007629395","","2","1","arrowright","1","arrowleft","[0.85,0.15,0.675,0.325]","","",""
"sailing-trial","254","1521456","0.0-11.0-207.0","","","","false","","","","","","","","","","null","","1683.2000007629395","","0","0","null","null","arrowup","[0.85,0.15,0.675,0.325]","","",""
"sailing-trial","255","1525603","0.0-11.0-208.0","","","","false","","","","","","","","","","1823.2000007629395","","23.599998474121094","","2","0","arrowright","1","arrowleft","[0.85,0.15,0.675,0.325]","","",""
"sailing-trial","256","1529413","0.0-11.0-209.0","","","","false","","","","","","","","","","null","","1844.1000003814697","","0","1","null","null","arrowup","[0.85,0.15,0.675,0.325]","","",""
"sailing-trial","257","1532206","0.0-11.0-210.0","","","","false","","","","","","","","","","602","","112.79999923706055","","3","0","arrowright","1","arrowright","[0.85,0.15,0.675,0.325]","","",""
"sailing-trial","258","1535225","0.0-11.0-211.0","","","","false","","","","","","","","","","null","","1399.1000003814697","","0","1","null","null","arrowup","[0.85,0.15,0.675,0.325]","","",""
"sailing-trial","259","1538558","0.0-11.0-212.0","","","","false","","","","","","","","","","584.6999988555908","","480.29999923706055","","1","0","arrowleft","0","arrowright","[0.85,0.15,0.675,0.325]","","",""
"sailing-trial","260","1542168","0.0-11.0-213.0","","","","false","","","","","","","","","","null","","2040.6000003814697","","2","0","null","null","arrowup","[0.85,0.15,0.675,0.325]","","",""
"sailing-trial","261","1546304","0.0-11.0-214.0","","","","false","","","","","","","","","","821.7000007629395","","416.3999996185303","","3","1","arrowright","1","arrowright","[0.85,0.15,0.675,0.325]","","",""
"sailing-trial","262","1549759","0.0-11.0-215.0","","","","false","","","","","","","","","","null","","1643.599998474121","","0","1","null","null","arrowup","[0.85,0.15,0.675,0.325]","","",""
"sailing-trial","263","1553552","0.0-11.0-216.0","","","","false","","","","","","","","","","613.2000007629395","","289","","0","1","arrowleft","0","arrowleft","[0.85,0.15,0.675,0.325]","","",""
"sailing-trial","264","1557548","0.0-11.0-217.0","","","","false","","","","","","","","","","null","","985.7999992370605","","3","0","null","null","arrowup","[0.85,0.15,0.675,0.325]","","",""
"sailing-trial","265","1561438","0.0-11.0-218.0","","","","false","","","","","","","","","","547.1000003814697","","439.5999984741211","","2","1","arrowright","1","arrowleft","[0.85,0.15,0.675,0.325]","","",""
"sailing-trial","266","1565863","0.0-11.0-219.0","","","","false","","","","","","","","","","null","","1415.3999996185303","","1","0","null","null","arrowup","[0.85,0.15,0.675,0.325]","","",""
"sailing-trial","267","1571428","0.0-11.0-220.0","","","","false","","","","","","","","","","664.3999996185303","","889.1999988555908","","2","0","arrowright","1","arrowleft","[0.85,0.15,0.675,0.325]","","",""
"sailing-trial","268","1575853","0.0-11.0-221.0","","","","false","","","","","","","","","","null","","1650.7000007629395","","0","1","null","null","arrowup","[0.85,0.15,0.675,0.325]","","",""
"sailing-trial","269","1580818","0.0-11.0-222.0","","","","false","","","","","","","","","","800.2000007629395","","152","","3","0","arrowright","1","arrowright","[0.675,0.325,0.85,0.15]","","",""
"sailing-trial","270","1585156","0.0-11.0-223.0","","","","false","","","","","","","","","","null","","1330.3999996185303","","0","0","null","null","arrowup","[0.675,0.325,0.85,0.15]","","",""
"sailing-trial","271","1590377","0.0-11.0-224.0","","","","false","","","","","","","","","","755.1000003814697","","452.1000003814697","","2","0","arrowright","1","arrowleft","[0.675,0.325,0.85,0.15]","","",""
"sailing-trial","272","1593611","0.0-11.0-225.0","","","","false","","","","","","","","","","null","","1152.5","","1","1","null","null","arrowup","[0.675,0.325,0.85,0.15]","","",""
"sailing-trial","273","1597967","0.0-11.0-226.0","","","","false","","","","","","","","","","938.7999992370605","","484.20000076293945","","1","0","arrowleft","0","arrowright","[0.675,0.325,0.85,0.15]","","",""
"sailing-trial","274","1601934","0.0-11.0-227.0","","","","false","","","","","","","","","","null","","1299.599998474121","","0","1","null","null","arrowup","[0.675,0.325,0.85,0.15]","","",""
"sailing-trial","275","1606184","0.0-11.0-228.0","","","","false","","","","","","","","","","536.6000003814697","","99.79999923706055","","0","1","arrowleft","0","arrowleft","[0.675,0.325,0.85,0.15]","","",""
"sailing-trial","276","1610179","0.0-11.0-229.0","","","","false","","","","","","","","","","null","","1582.2000007629395","","1","1","null","null","arrowup","[0.675,0.325,0.85,0.15]","","",""
"sailing-trial","277","1615377","0.0-11.0-230.0","","","","false","","","","","","","","","","1011.8000011444092","","931.2000007629395","","0","1","arrowleft","0","arrowleft","[0.675,0.325,0.85,0.15]","","",""
"sailing-trial","278","1621258","0.0-11.0-231.0","","","","false","","","","","","","","","","null","","3094","","2","1","null","null","arrowup","[0.675,0.325,0.85,0.15]","","",""
"sailing-trial","279","1626116","0.0-11.0-232.0","","","","false","","","","","","","","","","689.5","","611.8999996185303","","2","1","arrowright","1","arrowleft","[0.675,0.325,0.85,0.15]","","",""
"sailing-trial","280","1630187","0.0-11.0-233.0","","","","false","","","","","","","","","","null","","1971.8999996185303","","3","1","null","null","arrowup","[0.675,0.325,0.85,0.15]","","",""
"sailing-trial","281","1634089","0.0-11.0-234.0","","","","false","","","","","","","","","","748.5","","195.89999961853027","","3","0","arrowright","1","arrowright","[0.675,0.325,0.85,0.15]","","",""
"sailing-trial","282","1637587","0.0-11.0-235.0","","","","false","","","","","","","","","","null","","1472.7000007629395","","3","1","null","null","arrowup","[0.675,0.325,0.85,0.15]","","",""
"sailing-trial","283","1642122","0.0-11.0-236.0","","","","false","","","","","","","","","","746.1000003814697","","275.6000003814697","","0","1","arrowleft","0","arrowleft","[0.675,0.325,0.85,0.15]","","",""
"sailing-trial","284","1645603","0.0-11.0-237.0","","","","false","","","","","","","","","","null","","1209.3999996185303","","2","1","null","null","arrowup","[0.675,0.325,0.85,0.15]","","",""
"sailing-trial","285","1649937","0.0-11.0-238.0","","","","false","","","","","","","","","","609.6000003814697","","394.8999996185303","","2","1","arrowright","1","arrowleft","[0.85,0.15,0.675,0.325]","","",""
"sailing-trial","286","1654427","0.0-11.0-239.0","","","","false","","","","","","","","","","null","","1475.8999996185303","","1","0","null","null","arrowup","[0.85,0.15,0.675,0.325]","","",""
"sailing-trial","287","1657939","0.0-11.0-240.0","","","","false","","","","","","","","","","557.3000011444092","","401.5","","2","0","arrowright","1","arrowleft","[0.85,0.15,0.675,0.325]","","",""
"sailing-trial","288","1660487","0.0-11.0-241.0","","","","false","","","","","","","","","","null","","1164.1000003814697","","1","0","null","null","arrowup","[0.85,0.15,0.675,0.325]","","",""
"sailing-trial","289","1664490","0.0-11.0-242.0","","","","false","","","","","","","","","","743.2999992370605","","38.39999961853027","","0","1","arrowleft","0","arrowleft","[0.85,0.15,0.675,0.325]","","",""
"sailing-trial","290","1667383","0.0-11.0-243.0","","","","false","","","","","","","","","","null","","925","","3","0","null","null","arrowup","[0.85,0.15,0.675,0.325]","","",""
"sailing-trial","291","1672657","0.0-11.0-244.0","","","","false","","","","","","","","","","566.5","","1536.2000007629395","","0","1","arrowleft","0","arrowleft","[0.85,0.15,0.675,0.325]","","",""
"sailing-trial","292","1675907","0.0-11.0-245.0","","","","false","","","","","","","","","","null","","1280.3000011444092","","0","1","null","null","arrowup","[0.85,0.15,0.675,0.325]","","",""
"sailing-trial","293","1679939","0.0-11.0-246.0","","","","false","","","","","","","","","","598.7000007629395","","405.6000003814697","","0","1","arrowleft","0","arrowleft","[0.85,0.15,0.675,0.325]","","",""
"sailing-trial","294","1683807","0.0-11.0-247.0","","","","false","","","","","","","","","","null","","1969.8000011444092","","2","1","null","null","arrowup","[0.85,0.15,0.675,0.325]","","",""
"sailing-trial","295","1687749","0.0-11.0-248.0","","","","false","","","","","","","","","","587.3999996185303","","299.3999996185303","","0","1","arrowleft","0","arrowleft","[0.85,0.15,0.675,0.325]","","",""
"sailing-trial","296","1690861","0.0-11.0-249.0","","","","false","","","","","","","","","","null","","1095.2000007629395","","0","1","null","null","arrowup","[0.85,0.15,0.675,0.325]","","",""
"sailing-trial","297","1695632","0.0-11.0-250.0","","","","false","","","","","","","","","","1246","","660.8999996185303","","0","1","arrowleft","0","arrowleft","[0.85,0.15,0.675,0.325]","","",""
"sailing-trial","298","1699361","0.0-11.0-251.0","","","","false","","","","","","","","","","null","","718.4000015258789","","3","0","null","null","arrowup","[0.85,0.15,0.675,0.325]","","",""
"sailing-trial","299","1703463","0.0-11.0-252.0","","","","false","","","","","","","","","","539.7000007629395","","181.30000114440918","","0","1","arrowleft","0","arrowleft","[0.85,0.15,0.675,0.325]","","",""
"sailing-trial","300","1706809","0.0-11.0-253.0","","","","false","","","","","","","","","","null","","922.1999988555908","","2","1","null","null","arrowup","[0.85,0.15,0.675,0.325]","","",""
"sailing-trial","301","1710671","0.0-11.0-254.0","","","","false","","","","","","","","","","589.7999992370605","","198","","0","1","arrowleft","0","arrowleft","[0.85,0.15,0.675,0.325]","","",""
"sailing-trial","302","1715598","0.0-11.0-255.0","","","","false","","","","","","","","","","null","","1914.2999992370605","","1","0","null","null","arrowup","[0.85,0.15,0.675,0.325]","","",""
"sailing-trial","303","1719278","0.0-11.0-256.0","","","","false","","","","","","","","","","635.2000007629395","","86","","0","1","arrowleft","0","arrowleft","[0.85,0.15,0.675,0.325]","","",""
"sailing-trial","304","1724872","0.0-11.0-257.0","","","","false","","","","","","","","","","null","","3391.8999996185303","","0","1","null","null","arrowup","[0.85,0.15,0.675,0.325]","","",""
"sailing-trial","305","1729234","0.0-11.0-258.0","","","","false","","","","","","","","","","824.3999996185303","","370.5","","2","1","arrowright","1","arrowleft","[0.675,0.325,0.85,0.15]","","",""
"sailing-trial","306","1732078","0.0-11.0-259.0","","","","false","","","","","","","","","","null","","1231.7000007629395","","0","0","null","null","arrowup","[0.675,0.325,0.85,0.15]","","",""
"sailing-trial","307","1735541","0.0-11.0-260.0","","","","false","","","","","","","","","","647.2000007629395","","200.10000038146973","","2","0","arrowright","1","arrowleft","[0.675,0.325,0.85,0.15]","","",""
"sailing-trial","308","1740768","0.0-11.0-261.0","","","","false","","","","","","","","","","null","","2210.5","","3","0","null","null","arrowup","[0.675,0.325,0.85,0.15]","","",""
"sailing-trial","309","1745473","0.0-11.0-262.0","","","","false","","","","","","","","","","637","","54.70000076293945","","0","0","arrowleft","0","arrowleft","[0.675,0.325,0.85,0.15]","","",""
"sailing-trial","310","1749485","0.0-11.0-263.0","","","","false","","","","","","","","","","null","","1008","","2","0","null","null","arrowup","[0.675,0.325,0.85,0.15]","","",""
"sailing-trial","311","1754412","0.0-11.0-264.0","","","","false","","","","","","","","","","899.3000011444092","","3.200000762939453","","1","0","arrowleft","0","arrowright","[0.675,0.325,0.85,0.15]","","",""
"sailing-trial","312","1758929","0.0-11.0-265.0","","","","false","","","","","","","","","","null","","1493.3999996185303","","2","0","null","null","arrowup","[0.675,0.325,0.85,0.15]","","",""
"sailing-trial","313","1763296","0.0-11.0-266.0","","","","false","","","","","","","","","","724.2999992370605","","252","","3","1","arrowright","1","arrowright","[0.675,0.325,0.85,0.15]","","",""
"sailing-trial","314","1768853","0.0-11.0-267.0","","","","false","","","","","","","","","","null","","3336.2000007629395","","2","1","null","null","arrowup","[0.675,0.325,0.85,0.15]","","",""
"sailing-trial","315","1773044","0.0-11.0-268.0","","","","false","","","","","","","","","","725.8999996185303","","313.8000011444092","","2","1","arrowright","1","arrowleft","[0.675,0.325,0.85,0.15]","","",""
"sailing-trial","316","1777429","0.0-11.0-269.0","","","","false","","","","","","","","","","null","","1372.7999992370605","","1","0","null","null","arrowup","[0.675,0.325,0.85,0.15]","","",""
"sailing-trial","317","1781252","0.0-11.0-270.0","","","","false","","","","","","","","","","534.1000003814697","","28.599998474121094","","0","1","arrowleft","0","arrowleft","[0.675,0.325,0.85,0.15]","","",""
"sailing-trial","318","1785391","0.0-11.0-271.0","","","","false","","","","","","","","","","null","","1138.5","","3","0","null","null","arrowup","[0.675,0.325,0.85,0.15]","","",""
"sailing-trial","319","1788950","0.0-11.0-272.0","","","","false","","","","","","","","","","609.2999992370605","","141.70000076293945","","3","0","arrowright","1","arrowright","[0.675,0.325,0.85,0.15]","","",""
"sailing-trial","320","1792831","0.0-11.0-273.0","","","","false","","","","","","","","","","null","","1362.6000003814697","","2","1","null","null","arrowup","[0.675,0.325,0.85,0.15]","","",""
"sailing-trial","321","1797822","0.0-11.0-274.0","","","","false","","","","","","","","","","1092.2000007629395","","482.1000003814697","","1","1","arrowleft","0","arrowright","[0.675,0.325,0.85,0.15]","","",""
"sailing-trial","322","1802649","0.0-11.0-275.0","","","","false","","","","","","","","","","null","","1946.099998474121","","1","1","null","null","arrowup","[0.675,0.325,0.85,0.15]","","",""
"sailing-trial","323","1807951","0.0-11.0-276.0","","","","false","","","","","","","","","","922.9000015258789","","349","","1","0","arrowleft","0","arrowright","[0.675,0.325,0.85,0.15]","","",""
"sailing-trial","324","1812041","0.0-11.0-277.0","","","","false","","","","","","","","","","null","","1903.1000003814697","","1","1","null","null","arrowup","[0.675,0.325,0.85,0.15]","","",""
"sailing-trial","325","1816927","0.0-11.0-278.0","","","","false","","","","","","","","","","681.7000007629395","","1069.3000011444092","","1","1","arrowleft","0","arrowright","[0.325,0.675,0.15,0.85]","","",""
"sailing-trial","326","1821065","0.0-11.0-279.0","","","","false","","","","","","","","","","null","","1128.1000003814697","","0","0","null","null","arrowup","[0.325,0.675,0.15,0.85]","","",""
"sailing-trial","327","1826140","0.0-11.0-280.0","","","","false","","","","","","","","","","594.6999988555908","","457.1000003814697","","1","0","arrowleft","0","arrowright","[0.325,0.675,0.15,0.85]","","",""
"sailing-trial","328","1830316","0.0-11.0-281.0","","","","false","","","","","","","","","","null","","1171.2000007629395","","2","0","null","null","arrowup","[0.325,0.675,0.15,0.85]","","",""
"sailing-trial","329","1834183","0.0-11.0-282.0","","","","false","","","","","","","","","","523.6999988555908","","64.19999885559082","","3","1","arrowright","1","arrowright","[0.325,0.675,0.15,0.85]","","",""
"sailing-trial","330","1838196","0.0-11.0-283.0","","","","false","","","","","","","","","","null","","1002.5","","0","0","null","null","arrowup","[0.325,0.675,0.15,0.85]","","",""
"sailing-trial","331","1842179","0.0-11.0-284.0","","","","false","","","","","","","","","","604.6999988555908","","32.70000076293945","","3","1","arrowright","1","arrowright","[0.325,0.675,0.15,0.85]","","",""
"sailing-trial","332","1846850","0.0-11.0-285.0","","","","false","","","","","","","","","","null","","1640.2000007629395","","2","0","null","null","arrowup","[0.325,0.675,0.15,0.85]","","",""
"sailing-trial","333","1851383","0.0-11.0-286.0","","","","false","","","","","","","","","","792.2999992370605","","207.5","","3","1","arrowright","1","arrowright","[0.325,0.675,0.15,0.85]","","",""
"sailing-trial","334","1855374","0.0-11.0-287.0","","","","false","","","","","","","","","","null","","1771.6000003814697","","3","1","null","null","arrowup","[0.325,0.675,0.15,0.85]","","",""
"sailing-trial","335","1861079","0.0-11.0-288.0","","","","false","","","","","","","","","","714","","1598","","3","1","arrowright","1","arrowright","[0.325,0.675,0.15,0.85]","","",""
"sailing-trial","336","1865251","0.0-11.0-289.0","","","","false","","","","","","","","","","null","","1169.6000003814697","","0","0","null","null","arrowup","[0.325,0.675,0.15,0.85]","","",""
"sailing-trial","337","1871423","0.0-11.0-290.0","","","","false","","","","","","","","","","579.6999988555908","","1577.900001525879","","3","0","arrowright","1","arrowright","[0.325,0.675,0.15,0.85]","","",""
"sailing-trial","338","1875266","0.0-11.0-291.0","","","","false","","","","","","","","","","null","","1519.2999992370605","","0","1","null","null","arrowup","[0.325,0.675,0.15,0.85]","","",""
"sailing-trial","339","1879075","0.0-11.0-292.0","","","","false","","","","","","","","","","488","","57.19999885559082","","0","1","arrowleft","0","arrowleft","[0.325,0.675,0.15,0.85]","","",""
"sailing-trial","340","1882571","0.0-11.0-293.0","","","","false","","","","","","","","","","null","","992.5999984741211","","1","1","null","null","arrowup","[0.325,0.675,0.15,0.85]","","",""
"sailing-trial","341","1887571","0.0-11.0-294.0","","","","false","","","","","","","","","","538.1999988555908","","554.8000011444092","","0","1","arrowleft","0","arrowleft","[0.325,0.675,0.15,0.85]","","",""
"sailing-trial","342","1890780","0.0-11.0-295.0","","","","false","","","","","","","","","","null","","921.6999988555908","","3","1","null","null","arrowup","[0.325,0.675,0.15,0.85]","","",""
"sailing-trial","343","1894464","0.0-11.0-296.0","","","","false","","","","","","","","","","777.1999988555908","","664.1999988555908","","0","0","arrowleft","0","arrowleft","[0.15,0.85,0.325,0.675]","","",""
"sailing-trial","344","1899113","0.0-11.0-297.0","","","","false","","","","","","","","","","null","","1626.2000007629395","","0","0","null","null","arrowup","[0.15,0.85,0.325,0.675]","","",""
"sailing-trial","345","1903840","0.0-11.0-298.0","","","","false","","","","","","","","","","763.6999988555908","","584.8000011444092","","1","1","arrowleft","0","arrowright","[0.15,0.85,0.325,0.675]","","",""
"sailing-trial","346","1908092","0.0-11.0-299.0","","","","false","","","","","","","","","","null","","1225.2000007629395","","0","0","null","null","arrowup","[0.15,0.85,0.325,0.675]","","",""
"sailing-trial","347","1911974","0.0-11.0-300.0","","","","false","","","","","","","","","","491.5","","168.20000076293945","","3","1","arrowright","1","arrowright","[0.15,0.85,0.325,0.675]","","",""
"sailing-trial","348","1915553","0.0-11.0-301.0","","","","false","","","","","","","","","","null","","1053.1000003814697","","2","1","null","null","arrowup","[0.15,0.85,0.325,0.675]","","",""
"sailing-trial","349","1919964","0.0-11.0-302.0","","","","false","","","","","","","","","","531.7000007629395","","336.8999996185303","","3","0","arrowright","1","arrowright","[0.15,0.85,0.325,0.675]","","",""
"sailing-trial","350","1922904","0.0-11.0-303.0","","","","false","","","","","","","","","","null","","1224.7999992370605","","0","0","null","null","arrowup","[0.15,0.85,0.325,0.675]","","",""
"sailing-trial","351","1927817","0.0-11.0-304.0","","","","false","","","","","","","","","","671.8999996185303","","868.3999996185303","","1","0","arrowleft","0","arrowright","[0.15,0.85,0.325,0.675]","","",""
"sailing-trial","352","1932258","0.0-11.0-305.0","","","","false","","","","","","","","","","null","","1430.6000003814697","","3","0","null","null","arrowup","[0.15,0.85,0.325,0.675]","","",""
"sailing-trial","353","1938641","0.0-11.0-306.0","","","","false","","","","","","","","","","973.2000007629395","","1379.2000007629395","","0","0","arrowleft","0","arrowleft","[0.15,0.85,0.325,0.675]","","",""
"sailing-trial","354","1940963","0.0-11.0-307.0","","","","false","","","","","","","","","","null","","982.7999992370605","","2","0","null","null","arrowup","[0.15,0.85,0.325,0.675]","","",""
"sailing-trial","355","1945993","0.0-11.0-308.0","","","","false","","","","","","","","","","605.1000003814697","","396.3999996185303","","2","0","arrowright","1","arrowleft","[0.15,0.85,0.325,0.675]","","",""
"sailing-trial","356","1950560","0.0-11.0-309.0","","","","false","","","","","","","","","","null","","1557.099998474121","","0","0","null","null","arrowup","[0.15,0.85,0.325,0.675]","","",""
"sailing-trial","357","1954420","0.0-11.0-310.0","","","","false","","","","","","","","","","721.1000003814697","","6.799999237060547","","3","1","arrowright","1","arrowright","[0.15,0.85,0.325,0.675]","","",""
"sailing-trial","358","1957832","0.0-11.0-311.0","","","","false","","","","","","","","","","null","","952","","2","1","null","null","arrowup","[0.15,0.85,0.325,0.675]","","",""
"sailing-trial","359","1961667","0.0-11.0-312.0","","","","false","","","","","","","","","","555.2000007629395","","21.700000762939453","","3","1","arrowright","1","arrowright","[0.325,0.675,0.15,0.85]","","",""
"sailing-trial","360","1965874","0.0-11.0-313.0","","","","false","","","","","","","","","","null","","1189.1000003814697","","2","0","null","null","arrowup","[0.325,0.675,0.15,0.85]","","",""
"sailing-trial","361","1969907","0.0-11.0-314.0","","","","false","","","","","","","","","","759.6000003814697","","12.100000381469727","","3","0","arrowright","1","arrowright","[0.325,0.675,0.15,0.85]","","",""
"sailing-trial","362","1974205","0.0-11.0-315.0","","","","false","","","","","","","","","","null","","1890.8999996185303","","1","1","null","null","arrowup","[0.325,0.675,0.15,0.85]","","",""
"sailing-trial","363","1979314","0.0-11.0-316.0","","","","false","","","","","","","","","","1182.3000011444092","","654.9000015258789","","1","1","arrowleft","0","arrowright","[0.325,0.675,0.15,0.85]","","",""
"sailing-trial","364","1983475","0.0-11.0-317.0","","","","false","","","","","","","","","","null","","1150.8000011444092","","2","0","null","null","arrowup","[0.325,0.675,0.15,0.85]","","",""
"sailing-trial","365","1988374","0.0-11.0-318.0","","","","false","","","","","","","","","","626.0999984741211","","248.60000038146973","","1","1","arrowleft","0","arrowright","[0.325,0.675,0.15,0.85]","","",""
"sailing-trial","366","1991672","0.0-11.0-319.0","","","","false","","","","","","","","","","null","","1159","","0","0","null","null","arrowup","[0.325,0.675,0.15,0.85]","","",""
"sailing-trial","367","1996338","0.0-11.0-320.0","","","","false","","","","","","","","","","723.0999984741211","","588.8999996185303","","3","1","arrowright","1","arrowright","[0.325,0.675,0.15,0.85]","","",""
"sailing-trial","368","2000005","0.0-11.0-321.0","","","","false","","","","","","","","","","null","","1803.5","","3","1","null","null","arrowup","[0.325,0.675,0.15,0.85]","","",""
"sailing-trial","369","2004142","0.0-11.0-322.0","","","","false","","","","","","","","","","629.5","","53.60000038146973","","1","1","arrowleft","0","arrowright","[0.325,0.675,0.15,0.85]","","",""
"sailing-trial","370","2007198","0.0-11.0-323.0","","","","false","","","","","","","","","","null","","1147.7999992370605","","1","1","null","null","arrowup","[0.325,0.675,0.15,0.85]","","",""
"sailing-trial","371","2011194","0.0-11.0-324.0","","","","false","","","","","","","","","","589.8999996185303","","98.10000038146973","","3","1","arrowright","1","arrowright","[0.325,0.675,0.15,0.85]","","",""
"sailing-trial","372","2014984","0.0-11.0-325.0","","","","false","","","","","","","","","","null","","1494.6999988555908","","2","1","null","null","arrowup","[0.325,0.675,0.15,0.85]","","",""
"sailing-trial","373","2019221","0.0-11.0-326.0","","","","false","","","","","","","","","","624.1000003814697","","539.0999984741211","","1","1","arrowleft","0","arrowright","[0.325,0.675,0.15,0.85]","","",""
"sailing-trial","374","2022112","0.0-11.0-327.0","","","","false","","","","","","","","","","null","","1131.1000003814697","","1","0","null","null","arrowup","[0.325,0.675,0.15,0.85]","","",""
"sailing-trial","375","2025949","0.0-11.0-328.0","","","","false","","","","","","","","","","468.79999923706055","","114.70000076293945","","3","1","arrowright","1","arrowright","[0.15,0.85,0.325,0.675]","","",""
"sailing-trial","376","2031154","0.0-11.0-329.0","","","","false","","","","","","","","","","null","","2200.699998855591","","0","0","null","null","arrowup","[0.15,0.85,0.325,0.675]","","",""
"sailing-trial","377","2035667","0.0-11.0-330.0","","","","false","","","","","","","","","","717.1000003814697","","335.3000011444092","","3","1","arrowright","1","arrowright","[0.15,0.85,0.325,0.675]","","",""
"sailing-trial","378","2039859","0.0-11.0-331.0","","","","false","","","","","","","","","","null","","1161.1999988555908","","0","0","null","null","arrowup","[0.15,0.85,0.325,0.675]","","",""
"sailing-trial","379","2044703","0.0-11.0-332.0","","","","false","","","","","","","","","","1347","","477.6000003814697","","3","1","arrowright","1","arrowright","[0.15,0.85,0.325,0.675]","","",""
"sailing-trial","380","2049677","0.0-11.0-333.0","","","","false","","","","","","","","","","null","","1970.5","","3","0","null","null","arrowup","[0.15,0.85,0.325,0.675]","","",""
"sailing-trial","381","2055247","0.0-11.0-334.0","","","","false","","","","","","","","","","834.9000015258789","","636.9000015258789","","0","0","arrowleft","0","arrowleft","[0.15,0.85,0.325,0.675]","","",""
"sailing-trial","382","2060066","0.0-11.0-335.0","","","","false","","","","","","","","","","null","","1805.1000003814697","","0","0","null","null","arrowup","[0.15,0.85,0.325,0.675]","","",""
"sailing-trial","383","2065720","0.0-11.0-336.0","","","","false","","","","","","","","","","1453.6000003814697","","826.3999996185303","","1","1","arrowleft","0","arrowright","[0.15,0.85,0.325,0.675]","","",""
"sailing-trial","384","2070188","0.0-11.0-337.0","","","","false","","","","","","","","","","null","","1441.3999996185303","","2","0","null","null","arrowup","[0.15,0.85,0.325,0.675]","","",""
"sailing-trial","385","2075553","0.0-11.0-338.0","","","","false","","","","","","","","","","1922.3999996185303","","67.79999923706055","","1","0","arrowleft","0","arrowright","[0.15,0.85,0.325,0.675]","","",""
"sailing-trial","386","2079996","0.0-11.0-339.0","","","","false","","","","","","","","","","null","","2023.8999996185303","","1","1","null","null","arrowup","[0.15,0.85,0.325,0.675]","","",""
"sailing-trial","387","2084070","0.0-11.0-340.0","","","","false","","","","","","","","","","529.2999992370605","","464.6999988555908","","3","1","arrowright","1","arrowright","[0.15,0.85,0.325,0.675]","","",""
"sailing-trial","388","2090547","0.0-11.0-341.0","","","","false","","","","","","","","","","null","","3590.599998474121","","2","1","null","null","arrowup","[0.15,0.85,0.325,0.675]","","",""
"sailing-trial","389","2095665","0.0-11.0-342.0","","","","false","","","","","","","","","","532.7000007629395","","567.6000003814697","","2","0","arrowright","1","arrowleft","[0.15,0.85,0.325,0.675]","","",""
"sailing-trial","390","2099901","0.0-11.0-343.0","","","","false","","","","","","","","","","null","","1226.5","","0","0","null","null","arrowup","[0.15,0.85,0.325,0.675]","","",""
"sailing-trial","391","2103890","0.0-11.0-344.0","","","","false","","","","","","","","","","636","","25.100000381469727","","3","1","arrowright","1","arrowright","[0.325,0.675,0.15,0.85]","","",""
"sailing-trial","392","2108113","0.0-11.0-345.0","","","","false","","","","","","","","","","null","","2225.1000003814697","","3","1","null","null","arrowup","[0.325,0.675,0.15,0.85]","","",""
"sailing-trial","393","2112415","0.0-11.0-346.0","","","","false","","","","","","","","","","992.8000011444092","","30.600000381469727","","3","1","arrowright","1","arrowright","[0.325,0.675,0.15,0.85]","","",""
"sailing-trial","394","2116336","0.0-11.0-347.0","","","","false","","","","","","","","","","null","","919.5","","2","0","null","null","arrowup","[0.325,0.675,0.15,0.85]","","",""
"sailing-trial","395","2121125","0.0-11.0-348.0","","","","false","","","","","","","","","","1455.3000011444092","","85.29999923706055","","3","1","arrowright","1","arrowright","[0.325,0.675,0.15,0.85]","","",""
"sailing-trial","396","2125323","0.0-11.0-349.0","","","","false","","","","","","","","","","null","","1526.900001525879","","3","1","null","null","arrowup","[0.325,0.675,0.15,0.85]","","",""
"sailing-trial","397","2130485","0.0-11.0-350.0","","","","false","","","","","","","","","","1300.3000011444092","","325.6999988555908","","1","1","arrowleft","0","arrowright","[0.325,0.675,0.15,0.85]","","",""
"sailing-trial","398","2135046","0.0-11.0-351.0","","","","false","","","","","","","","","","null","","1540.8999996185303","","1","0","null","null","arrowup","[0.325,0.675,0.15,0.85]","","",""
"sailing-trial","399","2140395","0.0-11.0-352.0","","","","false","","","","","","","","","","848","","476","","3","0","arrowright","1","arrowright","[0.325,0.675,0.15,0.85]","","",""
"sailing-trial","400","2144964","0.0-11.0-353.0","","","","false","","","","","","","","","","null","","1295.599998474121","","1","1","null","null","arrowup","[0.325,0.675,0.15,0.85]","","",""
"sailing-trial","401","2149607","0.0-11.0-354.0","","","","false","","","","","","","","","","1329.5","","289.6999988555908","","1","1","arrowleft","0","arrowright","[0.325,0.675,0.15,0.85]","","",""
"sailing-trial","402","2153937","0.0-11.0-355.0","","","","false","","","","","","","","","","null","","1318.8999996185303","","2","0","null","null","arrowup","[0.325,0.675,0.15,0.85]","","",""
"sailing-trial","403","2157815","0.0-11.0-356.0","","","","false","","","","","","","","","","736","","164.5","","1","0","arrowleft","0","arrowright","[0.325,0.675,0.15,0.85]","","",""
"sailing-trial","404","2161096","0.0-11.0-357.0","","","","false","","","","","","","","","","null","","901.8999996185303","","3","1","null","null","arrowup","[0.325,0.675,0.15,0.85]","","",""
"sailing-trial","405","2165055","0.0-11.0-358.0","","","","false","","","","","","","","","","494","","343.20000076293945","","3","1","arrowright","1","arrowright","[0.325,0.675,0.15,0.85]","","",""
"sailing-trial","406","2169640","0.0-11.0-359.0","","","","false","","","","","","","","","","null","","1558.7999992370605","","0","0","null","null","arrowup","[0.325,0.675,0.15,0.85]","","",""
"sailing-trial","407","2173694","0.0-11.0-360.0","","","","false","","","","","","","","","","611.1000003814697","","158.70000076293945","","3","1","arrowright","1","arrowright","[0.325,0.675,0.15,0.85]","","",""
"sailing-trial","408","2179172","0.0-11.0-361.0","","","","false","","","","","","","","","","null","","2466","","1","0","null","null","arrowup","[0.325,0.675,0.15,0.85]","","",""
"sailing-trial","409","2183012","0.0-11.0-362.0","","","","false","","","","","","","","","","532.5999984741211","","351.3000011444092","","3","1","arrowright","1","arrowright","[0.325,0.675,0.15,0.85]","","",""
"sailing-trial","410","2187334","0.0-11.0-363.0","","","","false","","","","","","","","","","null","","1567.5","","1","1","null","null","arrowup","[0.325,0.675,0.15,0.85]","","",""
"sailing-trial","411","2193179","0.0-11.0-364.0","","","","false","","","","","","","","","","1028.6000003814697","","803.1000003814697","","0","0","arrowleft","0","arrowleft","[0.325,0.675,0.15,0.85]","","",""
"sailing-trial","412","2196646","0.0-11.0-365.0","","","","false","","","","","","","","","","null","","1002.2000007629395","","3","1","null","null","arrowup","[0.325,0.675,0.15,0.85]","","",""
"sailing-trial","413","2201220","0.0-11.0-366.0","","","","false","","","","","","","","","","1178.7000007629395","","359.8999996185303","","3","1","arrowright","1","arrowright","[0.85,0.15,0.675,0.325]","","",""
"sailing-trial","414","2208080","0.0-11.0-367.0","","","","false","","","","","","","","","","null","","2806.8999996185303","","2","1","null","null","arrowup","[0.85,0.15,0.675,0.325]","","",""
"sailing-trial","415","2212985","0.0-11.0-368.0","","","","false","","","","","","","","","","609.7999992370605","","266.20000076293945","","3","0","arrowright","1","arrowright","[0.85,0.15,0.675,0.325]","","",""
"sailing-trial","416","2218161","0.0-11.0-369.0","","","","false","","","","","","","","","","null","","1850.8999996185303","","0","1","null","null","arrowup","[0.85,0.15,0.675,0.325]","","",""
"sailing-trial","417","2222170","0.0-11.0-370.0","","","","false","","","","","","","","","","485.20000076293945","","309","","2","1","arrowright","1","arrowleft","[0.85,0.15,0.675,0.325]","","",""
"sailing-trial","418","2225794","0.0-11.0-371.0","","","","false","","","","","","","","","","null","","1006.1000003814697","","2","1","null","null","arrowup","[0.85,0.15,0.675,0.325]","","",""
"sailing-trial","419","2229975","0.0-11.0-372.0","","","","false","","","","","","","","","","607.7000007629395","","430.5","","2","1","arrowright","1","arrowleft","[0.85,0.15,0.675,0.325]","","",""
"sailing-trial","420","2234850","0.0-11.0-373.0","","","","false","","","","","","","","","","null","","1859.6000003814697","","1","0","null","null","arrowup","[0.85,0.15,0.675,0.325]","","",""
"sailing-trial","421","2238137","0.0-11.0-374.0","","","","false","","","","","","","","","","528.5","","146.5","","0","0","arrowleft","0","arrowleft","[0.85,0.15,0.675,0.325]","","",""
"sailing-trial","422","2242468","0.0-11.0-375.0","","","","false","","","","","","","","","","null","","1826.1000003814697","","3","1","null","null","arrowup","[0.85,0.15,0.675,0.325]","","",""
"sailing-trial","423","2247146","0.0-11.0-376.0","","","","false","","","","","","","","","","639.8999996185303","","4.700000762939453","","2","0","arrowright","1","arrowleft","[0.85,0.15,0.675,0.325]","","",""
"sailing-trial","424","2251473","0.0-11.0-377.0","","","","false","","","","","","","","","","null","","1313.6000003814697","","1","0","null","null","arrowup","[0.85,0.15,0.675,0.325]","","",""
"sailing-trial","425","2256218","0.0-11.0-378.0","","","","false","","","","","","","","","","713.3999996185303","","5.100000381469727","","3","0","arrowright","1","arrowright","[0.85,0.15,0.675,0.325]","","",""
"sailing-trial","426","2259919","0.0-11.0-379.0","","","","false","","","","","","","","","","null","","988.7999992370605","","2","1","null","null","arrowup","[0.85,0.15,0.675,0.325]","","",""
"sailing-trial","427","2265214","0.0-11.0-380.0","","","","false","","","","","","","","","","1072.7999992370605","","198","","3","0","arrowright","1","arrowright","[0.85,0.15,0.675,0.325]","","",""
"sailing-trial","428","2269148","0.0-11.0-381.0","","","","false","","","","","","","","","","null","","1342.2999992370605","","2","1","null","null","arrowup","[0.85,0.15,0.675,0.325]","","",""
"sailing-trial","429","2273678","0.0-11.0-382.0","","","","false","","","","","","","","","","822.5","","461.1000003814697","","0","1","arrowleft","0","arrowleft","[0.85,0.15,0.675,0.325]","","",""
"sailing-trial","430","2277970","0.0-11.0-383.0","","","","false","","","","","","","","","","null","","1282.2999992370605","","1","0","null","null","arrowup","[0.85,0.15,0.675,0.325]","","",""
"sailing-trial","431","2282005","0.0-11.0-384.0","","","","false","","","","","","","","","","523.0999984741211","","119.20000076293945","","3","1","arrowright","1","arrowright","[0.325,0.675,0.15,0.85]","","",""
"sailing-trial","432","2285724","0.0-11.0-385.0","","","","false","","","","","","","","","","null","","1494","","3","1","null","null","arrowup","[0.325,0.675,0.15,0.85]","","",""
"sailing-trial","433","2289436","0.0-11.0-386.0","","","","false","","","","","","","","","","451.5","","224.4000015258789","","3","1","arrowright","1","arrowright","[0.325,0.675,0.15,0.85]","","",""
"sailing-trial","434","2292289","0.0-11.0-387.0","","","","false","","","","","","","","","","null","","1015.7999992370605","","3","1","null","null","arrowup","[0.325,0.675,0.15,0.85]","","",""
"sailing-trial","435","2295979","0.0-11.0-388.0","","","","false","","","","","","","","","","466","","203.4000015258789","","3","1","arrowright","1","arrowright","[0.325,0.675,0.15,0.85]","","",""
"sailing-trial","436","2299615","0.0-11.0-389.0","","","","false","","","","","","","","","","null","","1314.6000003814697","","1","1","null","null","arrowup","[0.325,0.675,0.15,0.85]","","",""
"sailing-trial","437","2303258","0.0-11.0-390.0","","","","false","","","","","","","","","","546.3999996185303","","207.29999923706055","","3","1","arrowright","1","arrowright","[0.325,0.675,0.15,0.85]","","",""
"sailing-trial","438","2306879","0.0-11.0-391.0","","","","false","","","","","","","","","","null","","615.5999984741211","","0","0","null","null","arrowup","[0.325,0.675,0.15,0.85]","","",""
"sailing-trial","439","2311947","0.0-11.0-392.0","","","","false","","","","","","","","","","1540.8999996185303","","272","","1","1","arrowleft","0","arrowright","[0.325,0.675,0.15,0.85]","","",""
"sailing-trial","440","2316651","0.0-11.0-393.0","","","","false","","","","","","","","","","null","","1696","","2","0","null","null","arrowup","[0.325,0.675,0.15,0.85]","","",""
"sailing-trial","441","2321045","0.0-11.0-394.0","","","","false","","","","","","","","","","402","","1193.6999988555908","","3","1","arrowright","1","arrowright","[0.325,0.675,0.15,0.85]","","",""
"sailing-trial","442","2323925","0.0-11.0-395.0","","","","false","","","","","","","","","","null","","1259.8999996185303","","2","0","null","null","arrowup","[0.325,0.675,0.15,0.85]","","",""
"sailing-trial","443","2327710","0.0-11.0-396.0","","","","false","","","","","","","","","","612.5","","336.70000076293945","","3","1","arrowright","1","arrowright","[0.325,0.675,0.15,0.85]","","",""
"sailing-trial","444","2330991","0.0-11.0-397.0","","","","false","","","","","","","","","","null","","1111.3000011444092","","2","1","null","null","arrowup","[0.325,0.675,0.15,0.85]","","",""
"sailing-trial","445","2335118","0.0-11.0-398.0","","","","false","","","","","","","","","","712.3000011444092","","436.5999984741211","","3","1","arrowright","1","arrowright","[0.325,0.675,0.15,0.85]","","",""
"sailing-trial","446","2338742","0.0-11.0-399.0","","","","false","","","","","","","","","","null","","1686.5","","3","1","null","null","arrowup","[0.325,0.675,0.15,0.85]","","",""
"instructions","447","2346119","0.0-12.0","","","","","","","","","","7376.199998855591","","","","","","","","","","","","","","","","[{""page_index"":0,""viewing_time"":7374.60000038147}]"
"survey-debrief","448","2383558","0.0-13.0","","","","","","","","","","37434.70000076294","","","","","","","","","","","","","","{""difficulty"":""3"",""fun"":""4"",""clarity"":""4"",""strategy"":""No"",""feedback"":""I like the idea""}","",""
