"trial_type","trial_index","time_elapsed","internal_node_id","value","metadata","success","timeout","failed_images","failed_audio","failed_video","browser_interaction","low_quality","rt","stimulus","response","button_pressed","island_rt","island_response","boat_rt","boat_response","boat","reward","island_key","island","boat_key","reward_probabilities","responses","num_errors","view_history"
"pavlovia","0","3","0.0-0.0","","","","","","","","","","","","","","","","","","","","","","","","","",""
"call-function","1","3","0.0-1.0","","{""task_version"":""sailing_part1_v1"",""task_condition"":""good"",""boats"":[""D"",""A"",""C"",""B""],""boats_demo"":[""G"",""H"",""F"",""E""],""islands"":[""A"",""B""],""subject_id"":""14964"",""age"":""14"",""gender"":""Female""}","","","","","","","","","","","","","","","","","","","","","","","",""
"preload","2","14232","0.0-2.0","","","true","false","[]","[]","[]","[{""event"":""fullscreenenter"",""trial"":3,""time"":22774}]","false","","","","","","","","","","","","","","","","",""
"fullscreen","3","23769","0.0-3.0","","","true","","","","","","","","","","","","","","","","","","","","","","",""
"audio-keyboard-response","4","25148","0.0-4.0-0.0","","","","","","","","","","821.3333333333334","audio/beep_loop.wav"," ","","","","","","","","","","","","","",""
"audio-test","5","27048","0.0-4.0-1.0","","","","","","","","","","null","audio/turtle.mp3","","3","","","","","","","","","","","","",""
"audio-test","6","29304","0.0-4.0-2.0","","","","","","","","","","null","audio/shark.mp3","","2","","","","","","","","","","","","",""
"sailing-instructions","7","63032","0.0-5.0-0.0-0.0","","","","","","","","","","","","","","null","null","null","null","null","null","","","","","","",""
"sailing-trial","8","67715","0.0-5.0-0.0-1.0-0.0","","","","false","","","","","","","","","","3546.4000000059605","","null","","null","null","arrowleft","0","null","null","","",""
"sailing-trial","9","70117","0.0-5.0-0.0-1.0-1.0","","","","false","","","","","","","","","","1269.5999999940395","","null","","null","null","arrowright","1","null","null","","",""
"sailing-trial","10","72036","0.0-5.0-0.0-1.0-2.0","","","","false","","","","","","","","","","788.3999999761581","","null","","null","null","arrowleft","0","null","null","","",""
"sailing-instructions","11","114502","0.0-5.0-0.0-2.0","","","","","","","","","","","","","","null","null","null","null","0","null","","","","","","",""
"sailing-trial","12","123677","0.0-5.0-0.0-3.0-0.0","","","","false","","","","","","","","","","null","","3872.0999999940395","","2","1","null","null","arrowleft","[1,1,1,1]","","",""
"sailing-trial","13","128000","0.0-5.0-0.0-3.0-1.0","","","","false","","","","","","","","","","null","","1675.9000000059605","","3","1","null","null","arrowright","[1,1,1,1]","","",""
"sailing-trial","14","131953","0.0-5.0-0.0-3.0-2.0","","","","false","","","","","","","","","","null","","636.1999999880791","","2","0","null","null","arrowleft","[0,0,0,0]","","",""
"sailing-instructions","15","140051","0.0-5.0-0.0-4.0","","","","","","","","","","","","","","null","null","null","null","null","null","","","","","","",""
"sailing-comprehension","16","157364","0.0-5.0-0.0-5.0","","","","","","","","","","14311.299999982119","","","","","","","","","","","","","","[""true"",""true"",""false"",""true""]","0",""
"sailing-instructions","17","217143","0.0-6.0-0.0-0.0","","","","","","","","","","","","","","null","null","null","null","null","null","","","","","","",""
"sailing-comprehension","18","233449","0.0-6.0-0.0-1.0","","","","","","","","","","11762.5","","","","","","","","","","","","","","[""true"",""false"",""true""]","0",""
"sailing-instructions","19","247113","0.0-7.0-0.0-0.0","","","","","","","","","","","","","","null","null","null","null","null","null","","","","","","",""
"sailing-trial","20","252470","0.0-7.0-0.0-1.0-0.0","","","","false","","","","","","","","","","null","","2716.100000023842","","0","1","null","null","arrowup","[0.2,0.8,0.2,0.8]","","",""
"sailing-trial","21","255255","0.0-7.0-0.0-1.0-1.0","","","","false","","","","","","","","","","null","","908","","1","1","null","null","arrowup","[0.2,0.8,0.2,0.8]","","",""
"sailing-trial","22","257626","0.0-7.0-0.0-1.0-2.0","","","","false","","","","","","","","","","null","","1024.800000011921","","2","0","null","null","arrowup","[0.2,0.8,0.2,0.8]","","",""
"sailing-trial","23","261529","0.0-7.0-0.0-1.0-3.0","","","","false","","","","","","","","","","null","","2014.3999999761581","","3","1","null","null","arrowup","[0.2,0.8,0.2,0.8]","","",""
"sailing-comprehension","24","277614","0.0-7.0-0.0-2.0","","","","","","","","","","8265.40000000596","","","","","","","","","","","","","","[""false""]","0",""
"sailing-instructions","25","288162","0.0-8.0-0.0-0.0","","","","","","","","","","","","","","null","null","null","null","null","null","","","","","","",""
"sailing-comprehension","26","292457","0.0-8.0-0.0-1.0","","","","","","","","","","2753.800000011921","","","","","","","","","","","","","","[""true""]","0",""
"sailing-instructions","27","328975","0.0-9.0-0.0-0.0","","","","","","","","","","","","","","null","null","null","null","null","null","","","","","","",""
"sailing-trial","28","337412","0.0-9.0-0.0-1.0-0.0","","","","false","","","","","","","","","","3318.5999999940395","","741","","2","0","arrowright","1","arrowleft","[0.2,0.8,0.2,0.8]","","",""
"sailing-trial","29","342686","0.0-9.0-0.0-1.0-1.0","","","","false","","","","","","","","","","1062.4000000059605","","138","","3","1","arrowright","1","arrowright","[0.2,0.8,0.2,0.8]","","",""
"sailing-trial","30","346339","0.0-9.0-0.0-1.0-2.0","","","","false","","","","","","","","","","null","","2289.5999999940395","","0","0","null","null","arrowup","[0.2,0.8,0.2,0.8]","","",""
"sailing-trial","31","352228","0.0-9.0-0.0-1.0-3.0","","","","false","","","","","","","","","","733.9000000059605","","1148.0999999940395","","3","0","arrowright","1","arrowright","[0.2,0.8,0.2,0.8]","","",""
"sailing-trial","32","357852","0.0-9.0-0.0-1.0-4.0","","","","false","","","","","","","","","","null","","2856.7999999821186","","3","1","null","null","arrowup","[0.2,0.8,0.2,0.8]","","",""
"sailing-trial","33","363157","0.0-9.0-0.0-1.0-5.0","","","","false","","","","","","","","","","1420.0999999940395","","393","","3","1","arrowright","1","arrowright","[0.2,0.8,0.2,0.8]","","",""
"sailing-instructions","34","390060","0.0-10.0","","","","","","","","","","","","","","null","null","null","null","null","null","","","","","","",""
"sailing-trial","35","397795","0.0-11.0-0.0","","","","false","","","","","","","","","","3287.800000011921","","339","","3","0","arrowright","1","arrowright","[0.15,0.85,0.325,0.675]","","",""
"sailing-trial","36","401451","0.0-11.0-1.0","","","","false","","","","","","","","","","null","","1688.4000000059605","","1","1","null","null","arrowup","[0.15,0.85,0.325,0.675]","","",""
"sailing-trial","37","406472","0.0-11.0-2.0","","","","false","","","","","","","","","","1472.199999988079","","64.40000000596046","","2","1","arrowright","1","arrowleft","[0.15,0.85,0.325,0.675]","","",""
"sailing-trial","38","410209","0.0-11.0-3.0","","","","false","","","","","","","","","","null","","1985.4000000059605","","3","0","null","null","arrowup","[0.15,0.85,0.325,0.675]","","",""
"sailing-trial","39","417218","0.0-11.0-4.0","","","","false","","","","","","","","","","1038.800000011921","","1936.0999999940395","","2","0","arrowright","1","arrowleft","[0.15,0.85,0.325,0.675]","","",""
"sailing-trial","40","422557","0.0-11.0-5.0","","","","false","","","","","","","","","","null","","1786.800000011921","","3","1","null","null","arrowup","[0.15,0.85,0.325,0.675]","","",""
"sailing-trial","41","427127","0.0-11.0-6.0","","","","false","","","","","","","","","","603","","307.09999999403954","","1","1","arrowleft","0","arrowright","[0.15,0.85,0.325,0.675]","","",""
"sailing-trial","42","430560","0.0-11.0-7.0","","","","false","","","","","","","","","","null","","2055.2000000178814","","1","0","null","null","arrowup","[0.15,0.85,0.325,0.675]","","",""
"sailing-trial","43","436255","0.0-11.0-8.0","","","","false","","","","","","","","","","1129.2999999821186","","946.9000000059605","","1","1","arrowleft","0","arrowright","[0.15,0.85,0.325,0.675]","","",""
"sailing-trial","44","446699","0.0-11.0-9.0","","","","false","","","","","","","","","","null","","8586.200000017881","","2","1","null","null","arrowup","[0.15,0.85,0.325,0.675]","","",""
"sailing-trial","45","451939","0.0-11.0-10.0","","","","false","","","","","","","","","","1108.5999999940395","","34.19999998807907","","1","1","arrowleft","0","arrowright","[0.15,0.85,0.325,0.675]","","",""
"sailing-trial","46","457069","0.0-11.0-11.0","","","","false","","","","","","","","","","null","","2107.699999988079","","2","0","null","null","arrowup","[0.15,0.85,0.325,0.675]","","",""
"sailing-trial","47","462516","0.0-11.0-12.0","","","","false","","","","","","","","","","1693.2999999821186","","437.59999999403954","","1","1","arrowleft","0","arrowright","[0.15,0.85,0.325,0.675]","","",""
"sailing-trial","48","467972","0.0-11.0-13.0","","","","false","","","","","","","","","","null","","2447.9000000059605","","2","0","null","null","arrowup","[0.15,0.85,0.325,0.675]","","",""
"sailing-trial","49","472212","0.0-11.0-14.0","","","","false","","","","","","","","","","550.9000000059605","","132","","1","1","arrowleft","0","arrowright","[0.15,0.85,0.325,0.675]","","",""
"sailing-trial","50","476018","0.0-11.0-15.0","","","","false","","","","","","","","","","null","","2216.7999999821186","","2","0","null","null","arrowup","[0.15,0.85,0.325,0.675]","","",""
"sailing-trial","51","480437","0.0-11.0-16.0","","","","false","","","","","","","","","","1379.5999999940395","","53.30000001192093","","1","1","arrowleft","0","arrowright","[0.85,0.15,0.675,0.325]","","",""
"sailing-trial","52","484158","0.0-11.0-17.0","","","","false","","","","","","","","","","null","","1699.300000011921","","1","0","null","null","arrowup","[0.85,0.15,0.675,0.325]","","",""
"sailing-trial","53","490136","0.0-11.0-18.0","","","","false","","","","","","","","","","979.2999999821186","","2056.4000000059605","","1","0","arrowleft","0","arrowright","[0.85,0.15,0.675,0.325]","","",""
"sailing-trial","54","493552","0.0-11.0-19.0","","","","false","","","","","","","","","","null","","1788","","0","1","null","null","arrowup","[0.85,0.15,0.675,0.325]","","",""
"sailing-trial","55","498357","0.0-11.0-20.0","","","","false","","","","","","","","","","766.8000000119209","","242.89999997615814","","0","1","arrowleft","0","arrowleft","[0.85,0.15,0.675,0.325]","","",""
"sailing-trial","56","502395","0.0-11.0-21.0","","","","false","","","","","","","","","","null","","1967.1000000238419","","3","1","null","null","arrowup","[0.85,0.15,0.675,0.325]","","",""
"sailing-trial","57","507617","0.0-11.0-22.0","","","","false","","","","","","","","","","579.6999999880791","","801","","3","1","arrowright","1","arrowright","[0.85,0.15,0.675,0.325]","","",""
"sailing-trial","58","511234","0.0-11.0-23.0","","","","false","","","","","","","","","","null","","1490.9000000059605","","1","0","null","null","arrowup","[0.85,0.15,0.675,0.325]","","",""
"sailing-trial","59","516245","0.0-11.0-24.0","","","","false","","","","","","","","","","679.8000000119209","","306.5","","3","0","arrowright","1","arrowright","[0.85,0.15,0.675,0.325]","","",""
"sailing-trial","60","520348","0.0-11.0-25.0","","","","false","","","","","","","","","","null","","1962.4000000059605","","2","1","null","null","arrowup","[0.85,0.15,0.675,0.325]","","",""
"sailing-trial","61","527173","0.0-11.0-26.0","","","","false","","","","","","","","","","1416","","324.80000001192093","","3","1","arrowright","1","arrowright","[0.85,0.15,0.675,0.325]","","",""
"sailing-trial","62","530559","0.0-11.0-27.0","","","","false","","","","","","","","","","null","","1472.5","","2","1","null","null","arrowup","[0.85,0.15,0.675,0.325]","","",""
"sailing-trial","63","536882","0.0-11.0-28.0","","","","false","","","","","","","","","","1708.699999988079","","588.5","","3","0","arrowright","1","arrowright","[0.85,0.15,0.675,0.325]","","",""
"sailing-trial","64","540687","0.0-11.0-29.0","","","","false","","","","","","","","","","null","","1702.800000011921","","1","1","null","null","arrowup","[0.85,0.15,0.675,0.325]","","",""
"sailing-trial","65","546164","0.0-11.0-30.0","","","","false","","","","","","","","","","1743.4000000059605","","106.90000000596046","","1","0","arrowleft","0","arrowright","[0.85,0.15,0.675,0.325]","","",""
"sailing-trial","66","550764","0.0-11.0-31.0","","","","false","","","","","","","","","","null","","1582.5999999940395","","2","0","null","null","arrowup","[0.85,0.15,0.675,0.325]","","",""
"sailing-trial","67","560091","0.0-11.0-32.0","","","","false","","","","","","","","","","710.7999999821186","","1216.5","","0","1","arrowleft","0","arrowleft","[0.85,0.15,0.675,0.325]","","",""
"sailing-trial","68","564594","0.0-11.0-33.0","","","","false","","","","","","","","","","null","","3115.5999999940395","","0","0","null","null","arrowup","[0.85,0.15,0.675,0.325]","","",""
"sailing-trial","69","568967","0.0-11.0-34.0","","","","false","","","","","","","","","","1337.5999999940395","","103.80000001192093","","1","1","arrowleft","0","arrowright","[0.85,0.15,0.675,0.325]","","",""
"sailing-trial","70","572217","0.0-11.0-35.0","","","","false","","","","","","","","","","null","","1591","","3","0","null","null","arrowup","[0.85,0.15,0.675,0.325]","","",""
"sailing-trial","71","576439","0.0-11.0-36.0","","","","false","","","","","","","","","","780","","394.59999999403954","","2","0","arrowright","1","arrowleft","[0.85,0.15,0.675,0.325]","","",""
"sailing-trial","72","580463","0.0-11.0-37.0","","","","false","","","","","","","","","","null","","2160.7000000178814","","3","1","null","null","arrowup","[0.85,0.15,0.675,0.325]","","",""
"sailing-trial","73","585015","0.0-11.0-38.0","","","","false","","","","","","","","","","508.5","","485","","3","0","arrowright","1","arrowright","[0.85,0.15,0.675,0.325]","","",""
"sailing-trial","74","588259","0.0-11.0-39.0","","","","false","","","","","","","","","","null","","1601.7999999821186","","1","0","null","null","arrowup","[0.85,0.15,0.675,0.325]","","",""
"sailing-trial","75","593395","0.0-11.0-40.0","","","","false","","","","","","","","","","774.8000000119209","","86","","2","1","arrowright","1","arrowleft","[0.675,0.325,0.85,0.15]","","",""
"sailing-trial","76","596391","0.0-11.0-41.0","","","","false","","","","","","","","","","null","","1433.5","","1","0","null","null","arrowup","[0.675,0.325,0.85,0.15]","","",""
"sailing-trial","77","603973","0.0-11.0-42.0","","","","false","","","","","","","","","","1076","","172.40000000596046","","0","1","arrowleft","0","arrowleft","[0.675,0.325,0.85,0.15]","","",""
"sailing-trial","78","609379","0.0-11.0-43.0","","","","false","","","","","","","","","","null","","2970.100000023842","","0","1","null","null","arrowup","[0.675,0.325,0.85,0.15]","","",""
"sailing-trial","79","617838","0.0-11.0-44.0","","","","false","","","","","","","","","","189.69999998807907","","348.7999999821186","","0","1","arrowleft","0","arrowleft","[0.675,0.325,0.85,0.15]","","",""
"sailing-trial","80","623354","0.0-11.0-45.0","","","","false","","","","","","","","","","null","","3243.0999999940395","","3","0","null","null","arrowup","[0.675,0.325,0.85,0.15]","","",""
"sailing-trial","81","628231","0.0-11.0-46.0","","","","false","","","","","","","","","","1177.7999999821186","","404.69999998807907","","1","0","arrowleft","0","arrowright","[0.675,0.325,0.85,0.15]","","",""
"sailing-trial","82","632788","0.0-11.0-47.0","","","","false","","","","","","","","","","null","","2286.0999999940395","","0","0","null","null","arrowup","[0.675,0.325,0.85,0.15]","","",""
"sailing-trial","83","641831","0.0-11.0-48.0","","","","false","","","","","","","","","","1023.5","","3279.4000000059605","","2","1","arrowright","1","arrowleft","[0.675,0.325,0.85,0.15]","","",""
"sailing-trial","84","646385","0.0-11.0-49.0","","","","false","","","","","","","","","","null","","1543","","3","0","null","null","arrowup","[0.675,0.325,0.85,0.15]","","",""
"sailing-trial","85","652138","0.0-11.0-50.0","","","","false","","","","","","","","","","1858.9000000059605","","162.19999998807907","","2","0","arrowright","1","arrowleft","[0.675,0.325,0.85,0.15]","","",""
"sailing-trial","86","655730","0.0-11.0-51.0","","","","false","","","","","","","","","","null","","1532.8999999761581","","0","1","null","null","arrowup","[0.675,0.325,0.85,0.15]","","",""
"sailing-trial","87","660055","0.0-11.0-52.0","","","","false","","","","","","","","","","1522.0999999940395","","121.80000001192093","","3","0","arrowright","1","arrowright","[0.675,0.325,0.85,0.15]","","",""
"sailing-trial","88","664073","0.0-11.0-53.0","","","","false","","","","","","","","","","null","","1439.5","","2","1","null","null","arrowup","[0.675,0.325,0.85,0.15]","","",""
"sailing-trial","89","669145","0.0-11.0-54.0","","","","false","","","","","","","","","","861.2000000178814","","95.2999999821186","","2","1","arrowright","1","arrowleft","[0.675,0.325,0.85,0.15]","","",""
"sailing-trial","90","673666","0.0-11.0-55.0","","","","false","","","","","","","","","","null","","2406.699999988079","","3","0","null","null","arrowup","[0.675,0.325,0.85,0.15]","","",""
"sailing-trial","91","679122","0.0-11.0-56.0","","","","false","","","","","","","","","","1219.4000000059605","","634.0999999940395","","2","1","arrowright","1","arrowleft","[0.675,0.325,0.85,0.15]","","",""
"sailing-trial","92","682326","0.0-11.0-57.0","","","","false","","","","","","","","","","null","","1493.4000000059605","","1","0","null","null","arrowup","[0.675,0.325,0.85,0.15]","","",""
"sailing-trial","93","687883","0.0-11.0-58.0","","","","false","","","","","","","","","","865.5","","41","","2","1","arrowright","1","arrowleft","[0.675,0.325,0.85,0.15]","","",""
"sailing-trial","94","692487","0.0-11.0-59.0","","","","false","","","","","","","","","","null","","1611.2999999821186","","1","1","null","null","arrowup","[0.675,0.325,0.85,0.15]","","",""
"sailing-trial","95","702399","0.0-11.0-60.0","","","","false","","","","","","","","","","4415.100000023842","","581.4000000059605","","2","1","arrowright","1","arrowleft","[0.85,0.15,0.675,0.325]","","",""
"sailing-trial","96","709456","0.0-11.0-61.0","","","","false","","","","","","","","","","null","","5161","","3","1","null","null","arrowup","[0.85,0.15,0.675,0.325]","","",""
"sailing-trial","97","713744","0.0-11.0-62.0","","","","false","","","","","","","","","","1212.0999999940395","","180.19999998807907","","3","1","arrowright","1","arrowright","[0.85,0.15,0.675,0.325]","","",""
"sailing-trial","98","716858","0.0-11.0-63.0","","","","false","","","","","","","","","","null","","1669.5","","0","0","null","null","arrowup","[0.85,0.15,0.675,0.325]","","",""
"sailing-trial","99","721973","0.0-11.0-64.0","","","","false","","","","","","","","","","1518.800000011921","","1089.300000011921","","3","0","arrowright","1","arrowright","[0.85,0.15,0.675,0.325]","","",""
"sailing-trial","100","725223","0.0-11.0-65.0","","","","false","","","","","","","","","","null","","1562.5","","0","1","null","null","arrowup","[0.85,0.15,0.675,0.325]","","",""
"sailing-trial","101","729661","0.0-11.0-66.0","","","","false","","","","","","","","","","740","","513.2999999821186","","0","1","arrowleft","0","arrowleft","[0.85,0.15,0.675,0.325]","","",""
"sailing-trial","102","733813","0.0-11.0-67.0","","","","false","","","","","","","","","","null","","1140.300000011921","","2","0","null","null","arrowup","[0.85,0.15,0.675,0.325]","","",""
"sailing-trial","103","740490","0.0-11.0-68.0","","","","false","","","","","","","","","","2960.5","","46.80000001192093","","0","1","arrowleft","0","arrowleft","[0.85,0.15,0.675,0.325]","","",""
"sailing-trial","104","743218","0.0-11.0-69.0","","","","false","","","","","","","","","","null","","1474.5999999940395","","1","0","null","null","arrowup","[0.85,0.15,0.675,0.325]","","",""
"sailing-trial","105","748600","0.0-11.0-70.0","","","","false","","","","","","","","","","1010.6000000238419","","78","","0","1","arrowleft","0","arrowleft","[0.85,0.15,0.675,0.325]","","",""
"sailing-trial","106","753571","0.0-11.0-71.0","","","","false","","","","","","","","","","null","","2289.699999988079","","0","1","null","null","arrowup","[0.85,0.15,0.675,0.325]","","",""
"sailing-trial","107","757776","0.0-11.0-72.0","","","","false","","","","","","","","","","459.90000000596046","","893.8000000119209","","0","1","arrowleft","0","arrowleft","[0.85,0.15,0.675,0.325]","","",""
"sailing-trial","108","760805","0.0-11.0-73.0","","","","false","","","","","","","","","","null","","1709.3999999761581","","3","0","null","null","arrowup","[0.85,0.15,0.675,0.325]","","",""
"sailing-trial","109","766152","0.0-11.0-74.0","","","","false","","","","","","","","","","842.7999999821186","","291.80000001192093","","0","1","arrowleft","0","arrowleft","[0.85,0.15,0.675,0.325]","","",""
"sailing-trial","110","770303","0.0-11.0-75.0","","","","false","","","","","","","","","","null","","2602.100000023842","","2","0","null","null","arrowup","[0.85,0.15,0.675,0.325]","","",""
"sailing-trial","111","774961","0.0-11.0-76.0","","","","false","","","","","","","","","","1263.5","","534.0999999940395","","0","1","arrowleft","0","arrowleft","[0.85,0.15,0.675,0.325]","","",""
"sailing-trial","112","778140","0.0-11.0-77.0","","","","false","","","","","","","","","","null","","1649.300000011921","","3","0","null","null","arrowup","[0.85,0.15,0.675,0.325]","","",""
"sailing-trial","113","781578","0.0-11.0-78.0","","","","false","","","","","","","","","","803","","153.69999998807907","","0","0","arrowleft","0","arrowleft","[0.675,0.325,0.85,0.15]","","",""
"sailing-trial","114","784815","0.0-11.0-79.0","","","","false","","","","","","","","","","null","","1938.800000011921","","0","0","null","null","arrowup","[0.675,0.325,0.85,0.15]","","",""
"sailing-trial","115","788979","0.0-11.0-80.0","","","","false","","","","","","","","","","664.3000000119209","","384.5","","1","0","arrowleft","0","arrowright","[0.675,0.325,0.85,0.15]","","",""
"sailing-trial","116","792648","0.0-11.0-81.0","","","","false","","","","","","","","","","null","","1065.9000000059605","","0","1","null","null","arrowup","[0.675,0.325,0.85,0.15]","","",""
"sailing-trial","117","796887","0.0-11.0-82.0","","","","false","","","","","","","","","","595.6000000238419","","171.2000000178814","","0","1","arrowleft","0","arrowleft","[0.675,0.325,0.85,0.15]","","",""
"sailing-trial","118","799922","0.0-11.0-83.0","","","","false","","","","","","","","","","null","","986.0999999940395","","0","1","null","null","arrowup","[0.675,0.325,0.85,0.15]","","",""
"sailing-trial","119","803262","0.0-11.0-84.0","","","","false","","","","","","","","","","483.90000000596046","","110.09999999403954","","0","0","arrowleft","0","arrowleft","[0.675,0.325,0.85,0.15]","","",""
"sailing-trial","120","806107","0.0-11.0-85.0","","","","false","","","","","","","","","","null","","1537","","1","0","null","null","arrowup","[0.675,0.325,0.85,0.15]","","",""
"sailing-trial","121","811285","0.0-11.0-86.0","","","","false","","","","","","","","","","655.5999999940395","","534.4000000059605","","2","1","arrowright","1","arrowleft","[0.675,0.325,0.85,0.15]","","",""
"sailing-trial","122","818242","0.0-11.0-87.0","","","","false","","","","","","","","","","null","","1584.7999999821186","","0","1","null","null","arrowup","[0.675,0.325,0.85,0.15]","","",""
"sailing-trial","123","823926","0.0-11.0-88.0","","","","false","","","","","","","","","","1587.199999988079","","356.59999999403954","","0","0","arrowleft","0","arrowleft","[0.675,0.325,0.85,0.15]","","",""
"sailing-trial","124","826491","0.0-11.0-89.0","","","","false","","","","","","","","","","null","","1319.5999999940395","","2","0","null","null","arrowup","[0.675,0.325,0.85,0.15]","","",""
"sailing-trial","125","830030","0.0-11.0-90.0","","","","false","","","","","","","","","","677.3999999761581","","434.09999999403954","","3","0","arrowright","1","arrowright","[0.675,0.325,0.85,0.15]","","",""
"sailing-trial","126","833242","0.0-11.0-91.0","","","","false","","","","","","","","","","null","","1561.199999988079","","0","1","null","null","arrowup","[0.675,0.325,0.85,0.15]","","",""
"sailing-trial","127","836996","0.0-11.0-92.0","","","","false","","","","","","","","","","495.69999998807907","","300.80000001192093","","3","0","arrowright","1","arrowright","[0.675,0.325,0.85,0.15]","","",""
"sailing-trial","128","840056","0.0-11.0-93.0","","","","false","","","","","","","","","","null","","1726.4000000059605","","3","0","null","null","arrowup","[0.675,0.325,0.85,0.15]","","",""
"sailing-trial","129","843977","0.0-11.0-94.0","","","","false","","","","","","","","","","678.5999999940395","","257.5","","1","0","arrowleft","0","arrowright","[0.675,0.325,0.85,0.15]","","",""
"sailing-trial","130","846841","0.0-11.0-95.0","","","","false","","","","","","","","","","null","","1293","","0","1","null","null","arrowup","[0.675,0.325,0.85,0.15]","","",""
"sailing-trial","131","850663","0.0-11.0-96.0","","","","false","","","","","","","","","","593.9000000059605","","33.30000001192093","","0","1","arrowleft","0","arrowleft","[0.85,0.15,0.675,0.325]","","",""
"sailing-trial","132","853715","0.0-11.0-97.0","","","","false","","","","","","","","","","null","","1272.0999999940395","","0","1","null","null","arrowup","[0.85,0.15,0.675,0.325]","","",""
"sailing-trial","133","858153","0.0-11.0-98.0","","","","false","","","","","","","","","","602","","86","","0","1","arrowleft","0","arrowleft","[0.85,0.15,0.675,0.325]","","",""
"sailing-trial","134","861592","0.0-11.0-99.0","","","","false","","","","","","","","","","null","","1597.800000011921","","1","1","null","null","arrowup","[0.85,0.15,0.675,0.325]","","",""
"sailing-trial","135","866212","0.0-11.0-100.0","","","","false","","","","","","","","","","745.8000000119209","","433.69999998807907","","2","1","arrowright","1","arrowleft","[0.85,0.15,0.675,0.325]","","",""
"sailing-trial","136","869316","0.0-11.0-101.0","","","","false","","","","","","","","","","null","","1316.5999999940395","","3","1","null","null","arrowup","[0.85,0.15,0.675,0.325]","","",""
"sailing-trial","137","872953","0.0-11.0-102.0","","","","false","","","","","","","","","","449.59999999403954","","574.9000000059605","","3","0","arrowright","1","arrowright","[0.85,0.15,0.675,0.325]","","",""
"sailing-trial","138","875923","0.0-11.0-103.0","","","","false","","","","","","","","","","null","","1185","","1","1","null","null","arrowup","[0.85,0.15,0.675,0.325]","","",""
"sailing-trial","139","879345","0.0-11.0-104.0","","","","false","","","","","","","","","","550.1000000238419","","117.19999998807907","","1","0","arrowleft","0","arrowright","[0.85,0.15,0.675,0.325]","","",""
"sailing-trial","140","882017","0.0-11.0-105.0","","","","false","","","","","","","","","","null","","1171.5","","3","0","null","null","arrowup","[0.85,0.15,0.675,0.325]","","",""
"sailing-trial","141","886062","0.0-11.0-106.0","","","","false","","","","","","","","","","838.8000000119209","","750.8000000119209","","2","0","arrowright","1","arrowleft","[0.85,0.15,0.675,0.325]","","",""
"sailing-trial","142","893768","0.0-11.0-107.0","","","","false","","","","","","","","","","null","","6234.5999999940395","","0","0","null","null","arrowup","[0.85,0.15,0.675,0.325]","","",""
"sailing-trial","143","901036","0.0-11.0-108.0","","","","false","","","","","","","","","","1846.199999988079","","124.59999999403954","","2","1","arrowright","1","arrowleft","[0.85,0.15,0.675,0.325]","","",""
"sailing-trial","144","905354","0.0-11.0-109.0","","","","false","","","","","","","","","","null","","1302.7000000178814","","1","0","null","null","arrowup","[0.85,0.15,0.675,0.325]","","",""
"sailing-trial","145","915166","0.0-11.0-110.0","","","","false","","","","","","","","","","798.0999999940395","","118.59999999403954","","2","1","arrowright","1","arrowleft","[0.85,0.15,0.675,0.325]","","",""
"sailing-trial","146","918920","0.0-11.0-111.0","","","","false","","","","","","","","","","null","","1747.5999999940395","","1","1","null","null","arrowup","[0.85,0.15,0.675,0.325]","","",""
"sailing-trial","147","924459","0.0-11.0-112.0","","","","false","","","","","","","","","","790.5999999940395","","721.2999999821186","","1","0","arrowleft","0","arrowright","[0.675,0.325,0.85,0.15]","","",""
"sailing-trial","148","930034","0.0-11.0-113.0","","","","false","","","","","","","","","","null","","4220.9000000059605","","1","0","null","null","arrowup","[0.675,0.325,0.85,0.15]","","",""
"sailing-trial","149","935271","0.0-11.0-114.0","","","","false","","","","","","","","","","954.3000000119209","","538.5999999940395","","0","1","arrowleft","0","arrowleft","[0.675,0.325,0.85,0.15]","","",""
"sailing-trial","150","938322","0.0-11.0-115.0","","","","false","","","","","","","","","","null","","1806.7999999821186","","2","0","null","null","arrowup","[0.675,0.325,0.85,0.15]","","",""
"sailing-trial","151","942581","0.0-11.0-116.0","","","","false","","","","","","","","","","590.1999999880791","","331.90000000596046","","0","1","arrowleft","0","arrowleft","[0.675,0.325,0.85,0.15]","","",""
"sailing-trial","152","945523","0.0-11.0-117.0","","","","false","","","","","","","","","","null","","1600.2999999821186","","3","0","null","null","arrowup","[0.675,0.325,0.85,0.15]","","",""
"sailing-trial","153","950190","0.0-11.0-118.0","","","","false","","","","","","","","","","661.0999999940395","","93.09999999403954","","0","0","arrowleft","0","arrowleft","[0.675,0.325,0.85,0.15]","","",""
"sailing-trial","154","956662","0.0-11.0-119.0","","","","false","","","","","","","","","","null","","1390.0999999940395","","3","1","null","null","arrowup","[0.675,0.325,0.85,0.15]","","",""
"sailing-trial","155","963169","0.0-11.0-120.0","","","","false","","","","","","","","","","1218.699999988079","","2030.0999999940395","","0","1","arrowleft","0","arrowleft","[0.675,0.325,0.85,0.15]","","",""
"sailing-trial","156","967862","0.0-11.0-121.0","","","","false","","","","","","","","","","null","","2414.199999988079","","3","0","null","null","arrowup","[0.675,0.325,0.85,0.15]","","",""
"sailing-trial","157","974864","0.0-11.0-122.0","","","","false","","","","","","","","","","1508.0999999940395","","196.09999999403954","","2","1","arrowright","1","arrowleft","[0.675,0.325,0.85,0.15]","","",""
"sailing-trial","158","978995","0.0-11.0-123.0","","","","false","","","","","","","","","","null","","1223.7999999821186","","1","0","null","null","arrowup","[0.675,0.325,0.85,0.15]","","",""
"sailing-trial","159","987378","0.0-11.0-124.0","","","","false","","","","","","","","","","5355.5999999940395","","153.69999998807907","","0","1","arrowleft","0","arrowleft","[0.675,0.325,0.85,0.15]","","",""
"sailing-trial","160","991216","0.0-11.0-125.0","","","","false","","","","","","","","","","null","","1323.5999999940395","","2","1","null","null","arrowup","[0.675,0.325,0.85,0.15]","","",""
"sailing-trial","161","995203","0.0-11.0-126.0","","","","false","","","","","","","","","","426.69999998807907","","85.59999999403954","","2","1","arrowright","1","arrowleft","[0.675,0.325,0.85,0.15]","","",""
"sailing-trial","162","1000426","0.0-11.0-127.0","","","","false","","","","","","","","","","null","","2216.9000000059605","","3","0","null","null","arrowup","[0.675,0.325,0.85,0.15]","","",""
"sailing-trial","163","1006916","0.0-11.0-128.0","","","","false","","","","","","","","","","1176.2000000178814","","1703.800000011921","","0","1","arrowleft","0","arrowleft","[0.85,0.15,0.675,0.325]","","",""
"sailing-trial","164","1011923","0.0-11.0-129.0","","","","false","","","","","","","","","","null","","2200.899999976158","","0","1","null","null","arrowup","[0.85,0.15,0.675,0.325]","","",""
"sailing-trial","165","1018862","0.0-11.0-130.0","","","","false","","","","","","","","","","1652.300000011921","","144.2999999821186","","0","1","arrowleft","0","arrowleft","[0.85,0.15,0.675,0.325]","","",""
"sailing-trial","166","1022650","0.0-11.0-131.0","","","","false","","","","","","","","","","null","","1742.7000000178814","","1","1","null","null","arrowup","[0.85,0.15,0.675,0.325]","","",""
"sailing-trial","167","1028157","0.0-11.0-132.0","","","","false","","","","","","","","","","1457.800000011921","","223.19999998807907","","0","1","arrowleft","0","arrowleft","[0.85,0.15,0.675,0.325]","","",""
"sailing-trial","168","1032060","0.0-11.0-133.0","","","","false","","","","","","","","","","null","","1800.6000000238419","","0","1","null","null","arrowup","[0.85,0.15,0.675,0.325]","","",""
"sailing-trial","169","1036816","0.0-11.0-134.0","","","","false","","","","","","","","","","693.3999999761581","","346.5","","0","1","arrowleft","0","arrowleft","[0.85,0.15,0.675,0.325]","","",""
"sailing-trial","170","1040757","0.0-11.0-135.0","","","","false","","","","","","","","","","null","","2245.5999999940395","","1","0","null","null","arrowup","[0.85,0.15,0.675,0.325]","","",""
"sailing-trial","171","1061369","0.0-11.0-136.0","","","","true","","","","","","","","","","3787.300000011921","","825.0999999940395","","0","1","arrowleft","0","arrowleft","[0.85,0.15,0.675,0.325]","","",""
"sailing-trial","172","1066031","0.0-11.0-137.0","","","","false","","","","","","","","","","null","","1669","","3","0","null","null","arrowup","[0.85,0.15,0.675,0.325]","","",""
"sailing-trial","173","1071587","0.0-11.0-138.0","","","","false","","","","","","","","","","1231","","1094.4000000059605","","0","1","arrowleft","0","arrowleft","[0.85,0.15,0.675,0.325]","","",""
"sailing-trial","174","1076192","0.0-11.0-139.0","","","","false","","","","","","","","","","null","","1916.5999999940395","","0","0","null","null","arrowup","[0.85,0.15,0.675,0.325]","","",""
"sailing-trial","175","1080681","0.0-11.0-140.0","","","","false","","","","","","","","","","590.9000000059605","","439.19999998807907","","0","1","arrowleft","0","arrowleft","[0.85,0.15,0.675,0.325]","","",""
"sailing-trial","176","1086621","0.0-11.0-141.0","","","","false","","","","","","","","","","null","","3195.9000000059605","","0","1","null","null","arrowup","[0.85,0.15,0.675,0.325]","","",""
"sailing-trial","177","1091860","0.0-11.0-142.0","","","","false","","","","","","","","","","1024.800000011921","","38.20000001788139","","0","1","arrowleft","0","arrowleft","[0.85,0.15,0.675,0.325]","","",""
"sailing-trial","178","1096466","0.0-11.0-143.0","","","","false","","","","","","","","","","null","","1619.5999999940395","","1","0","null","null","arrowup","[0.85,0.15,0.675,0.325]","","",""
"sailing-trial","179","1101538","0.0-11.0-144.0","","","","false","","","","","","","","","","953.0999999940395","","1035.699999988079","","0","1","arrowleft","0","arrowleft","[0.325,0.675,0.15,0.85]","","",""
"sailing-trial","180","1107795","0.0-11.0-145.0","","","","false","","","","","","","","","","null","","2622.5999999940395","","2","1","null","null","arrowup","[0.325,0.675,0.15,0.85]","","",""
"sailing-trial","181","1112599","0.0-11.0-146.0","","","","false","","","","","","","","","","344.5","","450.40000000596046","","0","0","arrowleft","0","arrowleft","[0.325,0.675,0.15,0.85]","","",""
"sailing-trial","182","1116722","0.0-11.0-147.0","","","","false","","","","","","","","","","null","","2301.5","","1","0","null","null","arrowup","[0.325,0.675,0.15,0.85]","","",""
"sailing-trial","183","1121710","0.0-11.0-148.0","","","","false","","","","","","","","","","955.3000000119209","","182.09999999403954","","0","0","arrowleft","0","arrowleft","[0.325,0.675,0.15,0.85]","","",""
"sailing-trial","184","1126198","0.0-11.0-149.0","","","","false","","","","","","","","","","null","","1482.9000000059605","","2","0","null","null","arrowup","[0.325,0.675,0.15,0.85]","","",""
"sailing-trial","185","1130754","0.0-11.0-150.0","","","","false","","","","","","","","","","897.6000000238419","","177.09999999403954","","3","1","arrowright","1","arrowright","[0.325,0.675,0.15,0.85]","","",""
"sailing-trial","186","1135425","0.0-11.0-151.0","","","","false","","","","","","","","","","null","","1675.5","","2","0","null","null","arrowup","[0.325,0.675,0.15,0.85]","","",""
"sailing-trial","187","1141048","0.0-11.0-152.0","","","","false","","","","","","","","","","1034.199999988079","","586.5999999940395","","3","0","arrowright","1","arrowright","[0.325,0.675,0.15,0.85]","","",""
"sailing-trial","188","1146538","0.0-11.0-153.0","","","","false","","","","","","","","","","null","","2194.199999988079","","1","1","null","null","arrowup","[0.325,0.675,0.15,0.85]","","",""
"sailing-trial","189","1152410","0.0-11.0-154.0","","","","false","","","","","","","","","","1645.2000000178814","","514.1999999880791","","0","0","arrowleft","0","arrowleft","[0.325,0.675,0.15,0.85]","","",""
"sailing-trial","190","1158917","0.0-11.0-155.0","","","","false","","","","","","","","","","null","","3503.9000000059605","","3","0","null","null","arrowup","[0.325,0.675,0.15,0.85]","","",""
"sailing-trial","191","1166377","0.0-11.0-156.0","","","","false","","","","","","","","","","3459.800000011921","","544","","0","0","arrowleft","0","arrowleft","[0.325,0.675,0.15,0.85]","","",""
"sailing-trial","192","1169780","0.0-11.0-157.0","","","","false","","","","","","","","","","null","","1296.199999988079","","3","1","null","null","arrowup","[0.325,0.675,0.15,0.85]","","",""
"sailing-trial","193","1174252","0.0-11.0-158.0","","","","false","","","","","","","","","","1285.4000000059605","","45.20000001788139","","3","1","arrowright","1","arrowright","[0.325,0.675,0.15,0.85]","","",""
"sailing-trial","194","1178341","0.0-11.0-159.0","","","","false","","","","","","","","","","null","","1847.3999999761581","","3","1","null","null","arrowup","[0.325,0.675,0.15,0.85]","","",""
"sailing-trial","195","1182544","0.0-11.0-160.0","","","","false","","","","","","","","","","965.9000000059605","","105.7000000178814","","3","1","arrowright","1","arrowright","[0.15,0.85,0.325,0.675]","","",""
"sailing-trial","196","1186144","0.0-11.0-161.0","","","","false","","","","","","","","","","null","","1467.699999988079","","0","0","null","null","arrowup","[0.15,0.85,0.325,0.675]","","",""
"sailing-trial","197","1191636","0.0-11.0-162.0","","","","false","","","","","","","","","","2853.9000000059605","","109.60000002384186","","3","0","arrowright","1","arrowright","[0.15,0.85,0.325,0.675]","","",""
"sailing-trial","198","1195660","0.0-11.0-163.0","","","","false","","","","","","","","","","null","","1824.199999988079","","1","0","null","null","arrowup","[0.15,0.85,0.325,0.675]","","",""
"sailing-trial","199","1200696","0.0-11.0-164.0","","","","false","","","","","","","","","","794.1000000238419","","238","","0","0","arrowleft","0","arrowleft","[0.15,0.85,0.325,0.675]","","",""
"sailing-trial","200","1204927","0.0-11.0-165.0","","","","false","","","","","","","","","","null","","2382.300000011921","","2","0","null","null","arrowup","[0.15,0.85,0.325,0.675]","","",""
"sailing-trial","201","1209873","0.0-11.0-166.0","","","","false","","","","","","","","","","801.5999999940395","","150.30000001192093","","3","0","arrowright","1","arrowright","[0.15,0.85,0.325,0.675]","","",""
"sailing-trial","202","1213171","0.0-11.0-167.0","","","","false","","","","","","","","","","null","","1556.5","","0","0","null","null","arrowup","[0.15,0.85,0.325,0.675]","","",""
"sailing-trial","203","1220886","0.0-11.0-168.0","","","","false","","","","","","","","","","750.8000000119209","","3816.5","","1","1","arrowleft","0","arrowright","[0.15,0.85,0.325,0.675]","","",""
"sailing-trial","204","1225540","0.0-11.0-169.0","","","","false","","","","","","","","","","null","","1649.3999999761581","","0","0","null","null","arrowup","[0.15,0.85,0.325,0.675]","","",""
"sailing-trial","205","1230985","0.0-11.0-170.0","","","","false","","","","","","","","","","1741.6000000238419","","346.40000000596046","","0","0","arrowleft","0","arrowleft","[0.15,0.85,0.325,0.675]","","",""
"sailing-trial","206","1234835","0.0-11.0-171.0","","","","false","","","","","","","","","","null","","1605.9000000059605","","3","1","null","null","arrowup","[0.15,0.85,0.325,0.675]","","",""
"sailing-trial","207","1238805","0.0-11.0-172.0","","","","false","","","","","","","","","","405.2000000178814","","52.099999994039536","","3","1","arrowright","1","arrowright","[0.15,0.85,0.325,0.675]","","",""
"sailing-trial","208","1243744","0.0-11.0-173.0","","","","false","","","","","","","","","","null","","2464.0999999940395","","1","1","null","null","arrowup","[0.15,0.85,0.325,0.675]","","",""
"sailing-trial","209","1250151","0.0-11.0-174.0","","","","false","","","","","","","","","","2134.5","","363.59999999403954","","3","1","arrowright","1","arrowright","[0.15,0.85,0.325,0.675]","","",""
"sailing-trial","210","1258761","0.0-11.0-175.0","","","","false","","","","","","","","","","null","","1593.4000000059605","","1","1","null","null","arrowup","[0.15,0.85,0.325,0.675]","","",""
"sailing-trial","211","1263900","0.0-11.0-176.0","","","","false","","","","","","","","","","1407.9000000059605","","256.2999999821186","","3","0","arrowright","1","arrowright","[0.675,0.325,0.85,0.15]","","",""
"sailing-trial","212","1273027","0.0-11.0-177.0","","","","false","","","","","","","","","","null","","2034.7000000178814","","1","1","null","null","arrowup","[0.675,0.325,0.85,0.15]","","",""
"sailing-trial","213","1278466","0.0-11.0-178.0","","","","false","","","","","","","","","","1743.6000000238419","","617.0999999940395","","0","1","arrowleft","0","arrowleft","[0.675,0.325,0.85,0.15]","","",""
"sailing-trial","214","1282082","0.0-11.0-179.0","","","","false","","","","","","","","","","null","","1548","","2","0","null","null","arrowup","[0.675,0.325,0.85,0.15]","","",""
"sailing-trial","215","1286622","0.0-11.0-180.0","","","","false","","","","","","","","","","791","","592.9000000059605","","0","0","arrowleft","0","arrowleft","[0.675,0.325,0.85,0.15]","","",""
"sailing-trial","216","1295118","0.0-11.0-181.0","","","","false","","","","","","","","","","null","","4926.5999999940395","","2","1","null","null","arrowup","[0.675,0.325,0.85,0.15]","","",""
"sailing-trial","217","1301492","0.0-11.0-182.0","","","","false","","","","","","","","","","2954.5999999940395","","75.59999999403954","","0","1","arrowleft","0","arrowleft","[0.675,0.325,0.85,0.15]","","",""
"sailing-trial","218","1304685","0.0-11.0-183.0","","","","false","","","","","","","","","","null","","1336.800000011921","","0","0","null","null","arrowup","[0.675,0.325,0.85,0.15]","","",""
"sailing-trial","219","1309417","0.0-11.0-184.0","","","","false","","","","","","","","","","1004.6999999880791","","542.2000000178814","","0","1","arrowleft","0","arrowleft","[0.675,0.325,0.85,0.15]","","",""
"sailing-trial","220","1315194","0.0-11.0-185.0","","","","false","","","","","","","","","","null","","2928.800000011921","","2","0","null","null","arrowup","[0.675,0.325,0.85,0.15]","","",""
"sailing-trial","221","1325485","0.0-11.0-186.0","","","","false","","","","","","","","","","6553.5","","443.90000000596046","","0","1","arrowleft","0","arrowleft","[0.675,0.325,0.85,0.15]","","",""
"sailing-trial","222","1331141","0.0-11.0-187.0","","","","false","","","","","","","","","","null","","2546","","0","1","null","null","arrowup","[0.675,0.325,0.85,0.15]","","",""
"sailing-trial","223","1337080","0.0-11.0-188.0","","","","false","","","","","","","","","","1874.2999999821186","","67.19999998807907","","0","0","arrowleft","0","arrowleft","[0.675,0.325,0.85,0.15]","","",""
"sailing-trial","224","1344438","0.0-11.0-189.0","","","","false","","","","","","","","","","null","","4153","","2","1","null","null","arrowup","[0.675,0.325,0.85,0.15]","","",""
"sailing-trial","225","1351229","0.0-11.0-190.0","","","","false","","","","","","","","","","518.0999999940395","","108.7000000178814","","2","1","arrowright","1","arrowleft","[0.675,0.325,0.85,0.15]","","",""
"sailing-trial","226","1358537","0.0-11.0-191.0","","","","false","","","","","","","","","","null","","2992.7000000178814","","1","1","null","null","arrowup","[0.675,0.325,0.85,0.15]","","",""
"sailing-trial","227","1363134","0.0-11.0-192.0","","","","false","","","","","","","","","","1354.5","","96.90000000596046","","1","0","arrowleft","0","arrowright","[0.85,0.15,0.675,0.325]","","",""
"sailing-trial","228","1366137","0.0-11.0-193.0","","","","false","","","","","","","","","","null","","1249.300000011921","","1","0","null","null","arrowup","[0.85,0.15,0.675,0.325]","","",""
"sailing-trial","229","1372068","0.0-11.0-194.0","","","","false","","","","","","","","","","906.6000000238419","","680.6000000238419","","2","1","arrowright","1","arrowleft","[0.85,0.15,0.675,0.325]","","",""
"sailing-trial","230","1374936","0.0-11.0-195.0","","","","false","","","","","","","","","","null","","1580.5999999940395","","3","0","null","null","arrowup","[0.85,0.15,0.675,0.325]","","",""
"sailing-trial","231","1379406","0.0-11.0-196.0","","","","false","","","","","","","","","","730.8000000119209","","487.60000002384186","","2","0","arrowright","1","arrowleft","[0.85,0.15,0.675,0.325]","","",""
"sailing-trial","232","1385016","0.0-11.0-197.0","","","","false","","","","","","","","","","null","","2497.800000011921","","1","1","null","null","arrowup","[0.85,0.15,0.675,0.325]","","",""
"sailing-trial","233","1394977","0.0-11.0-198.0","","","","false","","","","","","","","","","970.1000000238419","","934.6999999880791","","1","1","arrowleft","0","arrowright","[0.85,0.15,0.675,0.325]","","",""
"sailing-trial","234","1404204","0.0-11.0-199.0","","","","false","","","","","","","","","","null","","7130.899999976158","","0","1","null","null","arrowup","[0.85,0.15,0.675,0.325]","","",""
"sailing-trial","235","1408429","0.0-11.0-200.0","","","","false","","","","","","","","","","971.6999999880791","","199.2000000178814","","2","0","arrowright","1","arrowleft","[0.85,0.15,0.675,0.325]","","",""
"sailing-trial","236","1412063","0.0-11.0-201.0","","","","false","","","","","","","","","","null","","1288.4000000059605","","2","1","null","null","arrowup","[0.85,0.15,0.675,0.325]","","",""
"sailing-trial","237","1416285","0.0-11.0-202.0","","","","false","","","","","","","","","","1250.1000000238419","","72.19999998807907","","2","1","arrowright","1","arrowleft","[0.85,0.15,0.675,0.325]","","",""
"sailing-trial","238","1420339","0.0-11.0-203.0","","","","false","","","","","","","","","","null","","1314","","3","1","null","null","arrowup","[0.85,0.15,0.675,0.325]","","",""
"sailing-trial","239","1423843","0.0-11.0-204.0","","","","false","","","","","","","","","","590.2000000178814","","41.79999998211861","","2","1","arrowright","1","arrowleft","[0.85,0.15,0.675,0.325]","","",""
"sailing-trial","240","1426796","0.0-11.0-205.0","","","","false","","","","","","","","","","null","","1194.5999999940395","","3","1","null","null","arrowup","[0.85,0.15,0.675,0.325]","","",""
"sailing-trial","241","1431852","0.0-11.0-206.0","","","","false","","","","","","","","","","522.4000000059605","","1072.4000000059605","","2","1","arrowright","1","arrowleft","[0.85,0.15,0.675,0.325]","","",""
"sailing-trial","242","1435989","0.0-11.0-207.0","","","","false","","","","","","","","","","null","","2272.2999999821186","","0","1","null","null","arrowup","[0.85,0.15,0.675,0.325]","","",""
"sailing-trial","243","1439777","0.0-11.0-208.0","","","","false","","","","","","","","","","784.5","","43.400000005960464","","2","1","arrowright","1","arrowleft","[0.85,0.15,0.675,0.325]","","",""
"sailing-trial","244","1442897","0.0-11.0-209.0","","","","false","","","","","","","","","","null","","1227.5999999940395","","0","1","null","null","arrowup","[0.85,0.15,0.675,0.325]","","",""
"sailing-trial","245","1447736","0.0-11.0-210.0","","","","false","","","","","","","","","","841","","449.40000000596046","","2","1","arrowright","1","arrowleft","[0.675,0.325,0.85,0.15]","","",""
"sailing-trial","246","1450907","0.0-11.0-211.0","","","","false","","","","","","","","","","null","","1117.5999999940395","","2","1","null","null","arrowup","[0.675,0.325,0.85,0.15]","","",""
"sailing-trial","247","1455979","0.0-11.0-212.0","","","","false","","","","","","","","","","1236.0999999940395","","464.90000000596046","","2","1","arrowright","1","arrowleft","[0.675,0.325,0.85,0.15]","","",""
"sailing-trial","248","1460828","0.0-11.0-213.0","","","","false","","","","","","","","","","null","","3358.5","","2","0","null","null","arrowup","[0.675,0.325,0.85,0.15]","","",""
"sailing-trial","249","1466874","0.0-11.0-214.0","","","","false","","","","","","","","","","805.5","","1685.800000011921","","2","1","arrowright","1","arrowleft","[0.675,0.325,0.85,0.15]","","",""
"sailing-trial","250","1472178","0.0-11.0-215.0","","","","false","","","","","","","","","","null","","2309.300000011921","","1","0","null","null","arrowup","[0.675,0.325,0.85,0.15]","","",""
"sailing-trial","251","1478535","0.0-11.0-216.0","","","","false","","","","","","","","","","3128.7000000178814","","522.6999999880791","","2","1","arrowright","1","arrowleft","[0.675,0.325,0.85,0.15]","","",""
"sailing-trial","252","1481329","0.0-11.0-217.0","","","","false","","","","","","","","","","null","","1554.0999999940395","","1","0","null","null","arrowup","[0.675,0.325,0.85,0.15]","","",""
"sailing-trial","253","1484602","0.0-11.0-218.0","","","","false","","","","","","","","","","648.4000000059605","","388.2000000178814","","2","0","arrowright","1","arrowleft","[0.675,0.325,0.85,0.15]","","",""
"sailing-trial","254","1489215","0.0-11.0-219.0","","","","false","","","","","","","","","","null","","2137.100000023842","","0","1","null","null","arrowup","[0.675,0.325,0.85,0.15]","","",""
"sailing-trial","255","1493919","0.0-11.0-220.0","","","","false","","","","","","","","","","1070.8999999761581","","499","","2","1","arrowright","1","arrowleft","[0.675,0.325,0.85,0.15]","","",""
"sailing-trial","256","1497108","0.0-11.0-221.0","","","","false","","","","","","","","","","null","","1893.5","","0","0","null","null","arrowup","[0.675,0.325,0.85,0.15]","","",""
"sailing-trial","257","1500024","0.0-11.0-222.0","","","","false","","","","","","","","","","511.7000000178814","","97.7999999821186","","2","0","arrowright","1","arrowleft","[0.675,0.325,0.85,0.15]","","",""
"sailing-trial","258","1504765","0.0-11.0-223.0","","","","false","","","","","","","","","","null","","1528.7999999821186","","2","1","null","null","arrowup","[0.675,0.325,0.85,0.15]","","",""
"sailing-trial","259","1509019","0.0-11.0-224.0","","","","false","","","","","","","","","","601.9000000059605","","59.29999998211861","","2","1","arrowright","1","arrowleft","[0.675,0.325,0.85,0.15]","","",""
"sailing-trial","260","1512073","0.0-11.0-225.0","","","","false","","","","","","","","","","null","","1288.7999999821186","","2","1","null","null","arrowup","[0.675,0.325,0.85,0.15]","","",""
"sailing-trial","261","1516044","0.0-11.0-226.0","","","","false","","","","","","","","","","857.5","","502.69999998807907","","2","1","arrowright","1","arrowleft","[0.675,0.325,0.85,0.15]","","",""
"sailing-trial","262","1518890","0.0-11.0-227.0","","","","false","","","","","","","","","","null","","1447.699999988079","","1","0","null","null","arrowup","[0.675,0.325,0.85,0.15]","","",""
"sailing-trial","263","1522968","0.0-11.0-228.0","","","","false","","","","","","","","","","910.8999999761581","","353","","2","1","arrowright","1","arrowleft","[0.85,0.15,0.675,0.325]","","",""
"sailing-trial","264","1525551","0.0-11.0-229.0","","","","false","","","","","","","","","","null","","1267.699999988079","","3","0","null","null","arrowup","[0.85,0.15,0.675,0.325]","","",""
"sailing-trial","265","1529325","0.0-11.0-230.0","","","","false","","","","","","","","","","696.0999999940395","","321.90000000596046","","2","1","arrowright","1","arrowleft","[0.85,0.15,0.675,0.325]","","",""
"sailing-trial","266","1532929","0.0-11.0-231.0","","","","false","","","","","","","","","","null","","1733.0999999940395","","0","1","null","null","arrowup","[0.85,0.15,0.675,0.325]","","",""
"sailing-trial","267","1537518","0.0-11.0-232.0","","","","false","","","","","","","","","","645.8000000119209","","513.4000000059605","","2","1","arrowright","1","arrowleft","[0.85,0.15,0.675,0.325]","","",""
"sailing-trial","268","1541539","0.0-11.0-233.0","","","","false","","","","","","","","","","null","","1380","","0","1","null","null","arrowup","[0.85,0.15,0.675,0.325]","","",""
"sailing-trial","269","1546711","0.0-11.0-234.0","","","","false","","","","","","","","","","464.09999999403954","","836.5999999940395","","2","1","arrowright","1","arrowleft","[0.85,0.15,0.675,0.325]","","",""
"sailing-trial","270","1550615","0.0-11.0-235.0","","","","false","","","","","","","","","","null","","1958.4000000059605","","0","1","null","null","arrowup","[0.85,0.15,0.675,0.325]","","",""
"sailing-trial","271","1554870","0.0-11.0-236.0","","","","false","","","","","","","","","","938","","119.09999999403954","","2","1","arrowright","1","arrowleft","[0.85,0.15,0.675,0.325]","","",""
"sailing-trial","272","1558425","0.0-11.0-237.0","","","","false","","","","","","","","","","null","","1600.2000000178814","","2","1","null","null","arrowup","[0.85,0.15,0.675,0.325]","","",""
"sailing-trial","273","1562345","0.0-11.0-238.0","","","","false","","","","","","","","","","486.30000001192093","","520.1999999880791","","2","1","arrowright","1","arrowleft","[0.85,0.15,0.675,0.325]","","",""
"sailing-trial","274","1565562","0.0-11.0-239.0","","","","false","","","","","","","","","","null","","1755.699999988079","","1","0","null","null","arrowup","[0.85,0.15,0.675,0.325]","","",""
"sailing-trial","275","1570270","0.0-11.0-240.0","","","","false","","","","","","","","","","1061.9000000059605","","1.600000023841858","","2","1","arrowright","1","arrowleft","[0.85,0.15,0.675,0.325]","","",""
"sailing-trial","276","1574442","0.0-11.0-241.0","","","","false","","","","","","","","","","null","","1410.9000000059605","","0","1","null","null","arrowup","[0.85,0.15,0.675,0.325]","","",""
"sailing-trial","277","1582069","0.0-11.0-242.0","","","","false","","","","","","","","","","4973.9000000059605","","59.599999994039536","","2","0","arrowright","1","arrowleft","[0.85,0.15,0.675,0.325]","","",""
"sailing-trial","278","1585271","0.0-11.0-243.0","","","","false","","","","","","","","","","null","","1440.7000000178814","","2","1","null","null","arrowup","[0.85,0.15,0.675,0.325]","","",""
"sailing-trial","279","1589375","0.0-11.0-244.0","","","","false","","","","","","","","","","638.4000000059605","","619.5999999940395","","2","1","arrowright","1","arrowleft","[0.85,0.15,0.675,0.325]","","",""
"sailing-trial","280","1592662","0.0-11.0-245.0","","","","false","","","","","","","","","","null","","1619.5","","0","1","null","null","arrowup","[0.85,0.15,0.675,0.325]","","",""
"sailing-trial","281","1596292","0.0-11.0-246.0","","","","false","","","","","","","","","","850.8000000119209","","56.400000005960464","","2","0","arrowright","1","arrowleft","[0.675,0.325,0.85,0.15]","","",""
"sailing-trial","282","1599443","0.0-11.0-247.0","","","","false","","","","","","","","","","null","","1290.2000000178814","","1","0","null","null","arrowup","[0.675,0.325,0.85,0.15]","","",""
"sailing-trial","283","1603388","0.0-11.0-248.0","","","","false","","","","","","","","","","1089.800000011921","","213.2999999821186","","2","0","arrowright","1","arrowleft","[0.675,0.325,0.85,0.15]","","",""
"sailing-trial","284","1606042","0.0-11.0-249.0","","","","false","","","","","","","","","","null","","1407.5","","2","0","null","null","arrowup","[0.675,0.325,0.85,0.15]","","",""
"sailing-trial","285","1609339","0.0-11.0-250.0","","","","false","","","","","","","","","","506.80000001192093","","113.19999998807907","","3","0","arrowright","1","arrowright","[0.675,0.325,0.85,0.15]","","",""
"sailing-trial","286","1612074","0.0-11.0-251.0","","","","false","","","","","","","","","","null","","1393.5","","3","0","null","null","arrowup","[0.675,0.325,0.85,0.15]","","",""
"sailing-trial","287","1616039","0.0-11.0-252.0","","","","false","","","","","","","","","","706.6000000238419","","440.5","","0","1","arrowleft","0","arrowleft","[0.675,0.325,0.85,0.15]","","",""
"sailing-trial","288","1618941","0.0-11.0-253.0","","","","false","","","","","","","","","","null","","1174","","2","1","null","null","arrowup","[0.675,0.325,0.85,0.15]","","",""
"sailing-trial","289","1623130","0.0-11.0-254.0","","","","false","","","","","","","","","","622.3999999761581","","874.2000000178814","","0","1","arrowleft","0","arrowleft","[0.675,0.325,0.85,0.15]","","",""
"sailing-trial","290","1625691","0.0-11.0-255.0","","","","false","","","","","","","","","","null","","1301.2999999821186","","3","0","null","null","arrowup","[0.675,0.325,0.85,0.15]","","",""
"sailing-trial","291","1629520","0.0-11.0-256.0","","","","false","","","","","","","","","","596.1000000238419","","416.09999999403954","","0","1","arrowleft","0","arrowleft","[0.675,0.325,0.85,0.15]","","",""
"sailing-trial","292","1634008","0.0-11.0-257.0","","","","false","","","","","","","","","","null","","1836","","1","1","null","null","arrowup","[0.675,0.325,0.85,0.15]","","",""
"sailing-trial","293","1638513","0.0-11.0-258.0","","","","false","","","","","","","","","","794.6999999880791","","325.30000001192093","","0","1","arrowleft","0","arrowleft","[0.675,0.325,0.85,0.15]","","",""
"sailing-trial","294","1641482","0.0-11.0-259.0","","","","false","","","","","","","","","","null","","1152.5","","0","1","null","null","arrowup","[0.675,0.325,0.85,0.15]","","",""
"sailing-trial","295","1645771","0.0-11.0-260.0","","","","false","","","","","","","","","","763.1999999880791","","868.0999999940395","","0","1","arrowleft","0","arrowleft","[0.675,0.325,0.85,0.15]","","",""
"sailing-trial","296","1650367","0.0-11.0-261.0","","","","false","","","","","","","","","","null","","2866","","2","0","null","null","arrowup","[0.675,0.325,0.85,0.15]","","",""
"sailing-trial","297","1654278","0.0-11.0-262.0","","","","false","","","","","","","","","","954.9000000059605","","322.09999999403954","","0","0","arrowleft","0","arrowleft","[0.85,0.15,0.675,0.325]","","",""
"sailing-trial","298","1657125","0.0-11.0-263.0","","","","false","","","","","","","","","","null","","1457.6000000238419","","3","0","null","null","arrowup","[0.85,0.15,0.675,0.325]","","",""
"sailing-trial","299","1660805","0.0-11.0-264.0","","","","false","","","","","","","","","","543.5","","45.5","","0","1","arrowleft","0","arrowleft","[0.85,0.15,0.675,0.325]","","",""
"sailing-trial","300","1663999","0.0-11.0-265.0","","","","false","","","","","","","","","","null","","1597.199999988079","","1","0","null","null","arrowup","[0.85,0.15,0.675,0.325]","","",""
"sailing-trial","301","1669531","0.0-11.0-266.0","","","","false","","","","","","","","","","1158.800000011921","","1051.699999988079","","2","1","arrowright","1","arrowleft","[0.85,0.15,0.675,0.325]","","",""
"sailing-trial","302","1672049","0.0-11.0-267.0","","","","false","","","","","","","","","","null","","1248.800000011921","","1","0","null","null","arrowup","[0.85,0.15,0.675,0.325]","","",""
"sailing-trial","303","1675987","0.0-11.0-268.0","","","","false","","","","","","","","","","586.5","","511.2999999821186","","0","1","arrowleft","0","arrowleft","[0.85,0.15,0.675,0.325]","","",""
"sailing-trial","304","1680625","0.0-11.0-269.0","","","","false","","","","","","","","","","null","","2118.4000000059605","","2","1","null","null","arrowup","[0.85,0.15,0.675,0.325]","","",""
"sailing-trial","305","1684797","0.0-11.0-270.0","","","","false","","","","","","","","","","753.2000000178814","","621.0999999940395","","0","1","arrowleft","0","arrowleft","[0.85,0.15,0.675,0.325]","","",""
"sailing-trial","306","1687984","0.0-11.0-271.0","","","","false","","","","","","","","","","null","","1180.800000011921","","2","1","null","null","arrowup","[0.85,0.15,0.675,0.325]","","",""
"sailing-trial","307","1691638","0.0-11.0-272.0","","","","false","","","","","","","","","","463.30000001192093","","562.4000000059605","","0","1","arrowleft","0","arrowleft","[0.85,0.15,0.675,0.325]","","",""
"sailing-trial","308","1694652","0.0-11.0-273.0","","","","false","","","","","","","","","","null","","1047.5999999940395","","1","0","null","null","arrowup","[0.85,0.15,0.675,0.325]","","",""
"sailing-trial","309","1698780","0.0-11.0-274.0","","","","false","","","","","","","","","","779.1999999880791","","752.5999999940395","","0","1","arrowleft","0","arrowleft","[0.85,0.15,0.675,0.325]","","",""
"sailing-trial","310","1703084","0.0-11.0-275.0","","","","false","","","","","","","","","","null","","2349.199999988079","","3","1","null","null","arrowup","[0.85,0.15,0.675,0.325]","","",""
"sailing-trial","311","1707355","0.0-11.0-276.0","","","","false","","","","","","","","","","556.8000000119209","","469.60000002384186","","0","1","arrowleft","0","arrowleft","[0.85,0.15,0.675,0.325]","","",""
"sailing-trial","312","1712179","0.0-11.0-277.0","","","","false","","","","","","","","","","null","","3084","","3","0","null","null","arrowup","[0.85,0.15,0.675,0.325]","","",""
"sailing-trial","313","1718601","0.0-11.0-278.0","","","","false","","","","","","","","","","1027.3999999761581","","1579.300000011921","","0","1","arrowleft","0","arrowleft","[0.85,0.15,0.675,0.325]","","",""
"sailing-trial","314","1724006","0.0-11.0-279.0","","","","false","","","","","","","","","","null","","2891.5999999940395","","2","1","null","null","arrowup","[0.85,0.15,0.675,0.325]","","",""
"sailing-trial","315","1729262","0.0-11.0-280.0","","","","false","","","","","","","","","","903.1999999880791","","359.2999999821186","","0","0","arrowleft","0","arrowleft","[0.675,0.325,0.85,0.15]","","",""
"sailing-trial","316","1734951","0.0-11.0-281.0","","","","false","","","","","","","","","","null","","3742.5","","1","1","null","null","arrowup","[0.675,0.325,0.85,0.15]","","",""
"sailing-trial","317","1741626","0.0-11.0-282.0","","","","false","","","","","","","","","","1248.5","","389","","0","1","arrowleft","0","arrowleft","[0.675,0.325,0.85,0.15]","","",""
"sailing-trial","318","1745280","0.0-11.0-283.0","","","","false","","","","","","","","","","null","","1528.5","","2","1","null","null","arrowup","[0.675,0.325,0.85,0.15]","","",""
"sailing-trial","319","1750035","0.0-11.0-284.0","","","","false","","","","","","","","","","1286.0999999940395","","667.5","","0","1","arrowleft","0","arrowleft","[0.675,0.325,0.85,0.15]","","",""
"sailing-trial","320","1755002","0.0-11.0-285.0","","","","false","","","","","","","","","","null","","2347.600000023842","","3","0","null","null","arrowup","[0.675,0.325,0.85,0.15]","","",""
"sailing-trial","321","1761664","0.0-11.0-286.0","","","","false","","","","","","","","","","3122.2000000178814","","742.7000000178814","","0","1","arrowleft","0","arrowleft","[0.675,0.325,0.85,0.15]","","",""
"sailing-trial","322","1765769","0.0-11.0-287.0","","","","false","","","","","","","","","","null","","1441.4000000059605","","0","1","null","null","arrowup","[0.675,0.325,0.85,0.15]","","",""
"sailing-trial","323","1769671","0.0-11.0-288.0","","","","false","","","","","","","","","","840.7000000178814","","20","","3","0","arrowright","1","arrowright","[0.675,0.325,0.85,0.15]","","",""
"sailing-trial","324","1773342","0.0-11.0-289.0","","","","false","","","","","","","","","","null","","1567.9000000059605","","0","0","null","null","arrowup","[0.675,0.325,0.85,0.15]","","",""
"sailing-trial","325","1777591","0.0-11.0-290.0","","","","false","","","","","","","","","","796.7999999821186","","520.6999999880791","","0","0","arrowleft","0","arrowleft","[0.675,0.325,0.85,0.15]","","",""
"sailing-trial","326","1782321","0.0-11.0-291.0","","","","false","","","","","","","","","","null","","2569.600000023842","","0","1","null","null","arrowup","[0.675,0.325,0.85,0.15]","","",""
"sailing-trial","327","1785628","0.0-11.0-292.0","","","","false","","","","","","","","","","530.6999999880791","","534.1000000238419","","0","0","arrowleft","0","arrowleft","[0.675,0.325,0.85,0.15]","","",""
"sailing-trial","328","1792732","0.0-11.0-293.0","","","","false","","","","","","","","","","null","","3293.800000011921","","2","1","null","null","arrowup","[0.675,0.325,0.85,0.15]","","",""
"sailing-trial","329","1797472","0.0-11.0-294.0","","","","false","","","","","","","","","","1217.5999999940395","","392.90000000596046","","0","1","arrowleft","0","arrowleft","[0.675,0.325,0.85,0.15]","","",""
"sailing-trial","330","1800368","0.0-11.0-295.0","","","","false","","","","","","","","","","null","","1671.2999999821186","","3","0","null","null","arrowup","[0.675,0.325,0.85,0.15]","","",""
"sailing-trial","331","1803443","0.0-11.0-296.0","","","","false","","","","","","","","","","663.4000000059605","","148.30000001192093","","0","0","arrowleft","0","arrowleft","[0.675,0.325,0.85,0.15]","","",""
"sailing-trial","332","1806738","0.0-11.0-297.0","","","","false","","","","","","","","","","null","","1987.800000011921","","3","0","null","null","arrowup","[0.675,0.325,0.85,0.15]","","",""
"sailing-trial","333","1810286","0.0-11.0-298.0","","","","false","","","","","","","","","","657.5999999940395","","403","","1","0","arrowleft","0","arrowright","[0.675,0.325,0.85,0.15]","","",""
"sailing-trial","334","1813162","0.0-11.0-299.0","","","","false","","","","","","","","","","null","","1425.0999999940395","","3","0","null","null","arrowup","[0.675,0.325,0.85,0.15]","","",""
"sailing-trial","335","1817009","0.0-11.0-300.0","","","","false","","","","","","","","","","653.3000000119209","","447.90000000596046","","2","1","arrowright","1","arrowleft","[0.675,0.325,0.85,0.15]","","",""
"sailing-trial","336","1819562","0.0-11.0-301.0","","","","false","","","","","","","","","","null","","1035.5","","2","1","null","null","arrowup","[0.675,0.325,0.85,0.15]","","",""
"sailing-trial","337","1822732","0.0-11.0-302.0","","","","false","","","","","","","","","","618.5","","531.2000000178814","","2","0","arrowright","1","arrowleft","[0.325,0.675,0.15,0.85]","","",""
"sailing-trial","338","1825719","0.0-11.0-303.0","","","","false","","","","","","","","","","null","","1268.699999988079","","3","1","null","null","arrowup","[0.325,0.675,0.15,0.85]","","",""
"sailing-trial","339","1828594","0.0-11.0-304.0","","","","false","","","","","","","","","","323.60000002384186","","406.59999999403954","","2","0","arrowright","1","arrowleft","[0.325,0.675,0.15,0.85]","","",""
"sailing-trial","340","1831098","0.0-11.0-305.0","","","","false","","","","","","","","","","null","","1209.3999999761581","","0","0","null","null","arrowup","[0.325,0.675,0.15,0.85]","","",""
"sailing-trial","341","1834629","0.0-11.0-306.0","","","","false","","","","","","","","","","555.9000000059605","","74.80000001192093","","3","1","arrowright","1","arrowright","[0.325,0.675,0.15,0.85]","","",""
"sailing-trial","342","1837039","0.0-11.0-307.0","","","","false","","","","","","","","","","null","","1081.9000000059605","","1","0","null","null","arrowup","[0.325,0.675,0.15,0.85]","","",""
"sailing-trial","343","1840334","0.0-11.0-308.0","","","","false","","","","","","","","","","544","","52.5","","3","1","arrowright","1","arrowright","[0.325,0.675,0.15,0.85]","","",""
"sailing-trial","344","1844538","0.0-11.0-309.0","","","","false","","","","","","","","","","null","","1212.5","","2","0","null","null","arrowup","[0.325,0.675,0.15,0.85]","","",""
"sailing-trial","345","1852481","0.0-11.0-310.0","","","","false","","","","","","","","","","1284.5","","234.2000000178814","","1","1","arrowleft","0","arrowright","[0.325,0.675,0.15,0.85]","","",""
"sailing-trial","346","1857002","0.0-11.0-311.0","","","","false","","","","","","","","","","null","","1073.2999999821186","","0","1","null","null","arrowup","[0.325,0.675,0.15,0.85]","","",""
"sailing-trial","347","1861140","0.0-11.0-312.0","","","","false","","","","","","","","","","1202.0999999940395","","24.69999998807907","","3","1","arrowright","1","arrowright","[0.325,0.675,0.15,0.85]","","",""
"sailing-trial","348","1864380","0.0-11.0-313.0","","","","false","","","","","","","","","","null","","1464.0999999940395","","2","0","null","null","arrowup","[0.325,0.675,0.15,0.85]","","",""
"sailing-trial","349","1868248","0.0-11.0-314.0","","","","false","","","","","","","","","","492.90000000596046","","36.400000005960464","","3","1","arrowright","1","arrowright","[0.325,0.675,0.15,0.85]","","",""
"sailing-trial","350","1872986","0.0-11.0-315.0","","","","false","","","","","","","","","","null","","1372.199999988079","","0","1","null","null","arrowup","[0.325,0.675,0.15,0.85]","","",""
"sailing-trial","351","1877825","0.0-11.0-316.0","","","","false","","","","","","","","","","814.1999999880791","","417.7999999821186","","3","1","arrowright","1","arrowright","[0.325,0.675,0.15,0.85]","","",""
"sailing-trial","352","1883734","0.0-11.0-317.0","","","","false","","","","","","","","","","null","","4606","","2","0","null","null","arrowup","[0.325,0.675,0.15,0.85]","","",""
"sailing-trial","353","1891842","0.0-11.0-318.0","","","","false","","","","","","","","","","900.1999999880791","","327.59999999403954","","3","1","arrowright","1","arrowright","[0.325,0.675,0.15,0.85]","","",""
"sailing-trial","354","1894879","0.0-11.0-319.0","","","","false","","","","","","","","","","null","","1762.5999999940395","","3","0","null","null","arrowup","[0.325,0.675,0.15,0.85]","","",""
"sailing-trial","355","1899067","0.0-11.0-320.0","","","","false","","","","","","","","","","570","","586.4000000059605","","2","1","arrowright","1","arrowleft","[0.325,0.675,0.15,0.85]","","",""
"sailing-trial","356","1902370","0.0-11.0-321.0","","","","false","","","","","","","","","","null","","1494.4000000059605","","3","1","null","null","arrowup","[0.325,0.675,0.15,0.85]","","",""
"sailing-trial","357","1907057","0.0-11.0-322.0","","","","false","","","","","","","","","","490.2000000178814","","207.89999997615814","","2","0","arrowright","1","arrowleft","[0.325,0.675,0.15,0.85]","","",""
"sailing-trial","358","1911588","0.0-11.0-323.0","","","","false","","","","","","","","","","null","","3099.5","","2","0","null","null","arrowup","[0.325,0.675,0.15,0.85]","","",""
"sailing-trial","359","1915902","0.0-11.0-324.0","","","","false","","","","","","","","","","1178","","11.300000011920929","","1","1","arrowleft","0","arrowright","[0.15,0.85,0.325,0.675]","","",""
"sailing-trial","360","1932366","0.0-11.0-325.0","","","","true","","","","","","","","","","null","","1460.9000000059605","","1","1","null","null","arrowup","[0.15,0.85,0.325,0.675]","","",""
"sailing-trial","361","1938226","0.0-11.0-326.0","","","","false","","","","","","","","","","1474.5999999940395","","747.5999999940395","","2","1","arrowright","1","arrowleft","[0.15,0.85,0.325,0.675]","","",""
"sailing-trial","362","1940616","0.0-11.0-327.0","","","","false","","","","","","","","","","null","","1140.5999999940395","","2","0","null","null","arrowup","[0.15,0.85,0.325,0.675]","","",""
"sailing-trial","363","1945383","0.0-11.0-328.0","","","","false","","","","","","","","","","998.6999999880791","","505.5","","3","1","arrowright","1","arrowright","[0.15,0.85,0.325,0.675]","","",""
"sailing-trial","364","1948554","0.0-11.0-329.0","","","","false","","","","","","","","","","null","","1347.5999999940395","","2","1","null","null","arrowup","[0.15,0.85,0.325,0.675]","","",""
"sailing-trial","365","1952607","0.0-11.0-330.0","","","","false","","","","","","","","","","653.5999999940395","","704.5","","2","0","arrowright","1","arrowleft","[0.15,0.85,0.325,0.675]","","",""
"sailing-trial","366","1955629","0.0-11.0-331.0","","","","false","","","","","","","","","","null","","1173.800000011921","","3","1","null","null","arrowup","[0.15,0.85,0.325,0.675]","","",""
"sailing-trial","367","1960218","0.0-11.0-332.0","","","","false","","","","","","","","","","483.09999999403954","","322.5","","1","1","arrowleft","0","arrowright","[0.15,0.85,0.325,0.675]","","",""
"sailing-trial","368","1963570","0.0-11.0-333.0","","","","false","","","","","","","","","","null","","1068","","2","1","null","null","arrowup","[0.15,0.85,0.325,0.675]","","",""
"sailing-trial","369","1967308","0.0-11.0-334.0","","","","false","","","","","","","","","","519.5","","36.60000002384186","","1","1","arrowleft","0","arrowright","[0.15,0.85,0.325,0.675]","","",""
"sailing-trial","370","1970878","0.0-11.0-335.0","","","","false","","","","","","","","","","null","","1483.1000000238419","","3","1","null","null","arrowup","[0.15,0.85,0.325,0.675]","","",""
"sailing-trial","371","1976868","0.0-11.0-336.0","","","","false","","","","","","","","","","442.59999999403954","","36.5","","1","1","arrowleft","0","arrowright","[0.15,0.85,0.325,0.675]","","",""
"sailing-trial","372","1981036","0.0-11.0-337.0","","","","false","","","","","","","","","","null","","1404.300000011921","","0","0","null","null","arrowup","[0.15,0.85,0.325,0.675]","","",""
"sailing-trial","373","1984599","0.0-11.0-338.0","","","","false","","","","","","","","","","882.5999999940395","","390.40000000596046","","0","0","arrowleft","0","arrowleft","[0.15,0.85,0.325,0.675]","","",""
"sailing-trial","374","1987209","0.0-11.0-339.0","","","","false","","","","","","","","","","null","","1288.300000011921","","2","0","null","null","arrowup","[0.15,0.85,0.325,0.675]","","",""
"sailing-trial","375","1990917","0.0-11.0-340.0","","","","false","","","","","","","","","","805.3000000119209","","81.59999999403954","","1","1","arrowleft","0","arrowright","[0.15,0.85,0.325,0.675]","","",""
"sailing-trial","376","1994271","0.0-11.0-341.0","","","","false","","","","","","","","","","null","","1633.7999999821186","","1","1","null","null","arrowup","[0.15,0.85,0.325,0.675]","","",""
"sailing-trial","377","1997942","0.0-11.0-342.0","","","","false","","","","","","","","","","403","","369.30000001192093","","1","1","arrowleft","0","arrowright","[0.15,0.85,0.325,0.675]","","",""
"sailing-trial","378","2000319","0.0-11.0-343.0","","","","false","","","","","","","","","","null","","1060.5999999940395","","3","0","null","null","arrowup","[0.15,0.85,0.325,0.675]","","",""
"sailing-trial","379","2003530","0.0-11.0-344.0","","","","false","","","","","","","","","","728.1000000238419","","5.700000017881393","","1","0","arrowleft","0","arrowright","[0.675,0.325,0.85,0.15]","","",""
"sailing-trial","380","2006083","0.0-11.0-345.0","","","","false","","","","","","","","","","null","","1165.5999999940395","","1","0","null","null","arrowup","[0.675,0.325,0.85,0.15]","","",""
"sailing-trial","381","2009738","0.0-11.0-346.0","","","","false","","","","","","","","","","547.7000000178814","","371.09999999403954","","1","1","arrowleft","0","arrowright","[0.675,0.325,0.85,0.15]","","",""
"sailing-trial","382","2013097","0.0-11.0-347.0","","","","false","","","","","","","","","","null","","1410.3999999761581","","1","0","null","null","arrowup","[0.675,0.325,0.85,0.15]","","",""
"sailing-trial","383","2017046","0.0-11.0-348.0","","","","false","","","","","","","","","","623.9000000059605","","466.90000000596046","","2","1","arrowright","1","arrowleft","[0.675,0.325,0.85,0.15]","","",""
"sailing-trial","384","2020523","0.0-11.0-349.0","","","","false","","","","","","","","","","null","","2201.9000000059605","","3","0","null","null","arrowup","[0.675,0.325,0.85,0.15]","","",""
"sailing-trial","385","2023938","0.0-11.0-350.0","","","","false","","","","","","","","","","614.7999999821186","","12.800000011920929","","2","1","arrowright","1","arrowleft","[0.675,0.325,0.85,0.15]","","",""
"sailing-trial","386","2026840","0.0-11.0-351.0","","","","false","","","","","","","","","","null","","1065","","0","1","null","null","arrowup","[0.675,0.325,0.85,0.15]","","",""
"sailing-trial","387","2030460","0.0-11.0-352.0","","","","false","","","","","","","","","","585.2999999821186","","527.5","","2","1","arrowright","1","arrowleft","[0.675,0.325,0.85,0.15]","","",""
"sailing-trial","388","2032905","0.0-11.0-353.0","","","","false","","","","","","","","","","null","","1156.4000000059605","","2","0","null","null","arrowup","[0.675,0.325,0.85,0.15]","","",""
"sailing-trial","389","2036601","0.0-11.0-354.0","","","","false","","","","","","","","","","563.1999999880791","","491","","2","1","arrowright","1","arrowleft","[0.675,0.325,0.85,0.15]","","",""
"sailing-trial","390","2039459","0.0-11.0-355.0","","","","false","","","","","","","","","","null","","1430.7999999821186","","3","0","null","null","arrowup","[0.675,0.325,0.85,0.15]","","",""
"sailing-trial","391","2042619","0.0-11.0-356.0","","","","false","","","","","","","","","","689.5999999940395","","101.09999999403954","","2","0","arrowright","1","arrowleft","[0.675,0.325,0.85,0.15]","","",""
"sailing-trial","392","2045263","0.0-11.0-357.0","","","","false","","","","","","","","","","null","","1377.4000000059605","","3","0","null","null","arrowup","[0.675,0.325,0.85,0.15]","","",""
"sailing-trial","393","2049263","0.0-11.0-358.0","","","","false","","","","","","","","","","770.5","","160.40000000596046","","0","0","arrowleft","0","arrowleft","[0.675,0.325,0.85,0.15]","","",""
"sailing-trial","394","2052057","0.0-11.0-359.0","","","","false","","","","","","","","","","null","","1438.5","","0","0","null","null","arrowup","[0.675,0.325,0.85,0.15]","","",""
"sailing-trial","395","2055358","0.0-11.0-360.0","","","","false","","","","","","","","","","519.1000000238419","","464","","1","0","arrowleft","0","arrowright","[0.675,0.325,0.85,0.15]","","",""
"sailing-trial","396","2057742","0.0-11.0-361.0","","","","false","","","","","","","","","","null","","1110.7999999821186","","0","0","null","null","arrowup","[0.675,0.325,0.85,0.15]","","",""
"sailing-trial","397","2061145","0.0-11.0-362.0","","","","false","","","","","","","","","","470.80000001192093","","161.7999999821186","","2","1","arrowright","1","arrowleft","[0.675,0.325,0.85,0.15]","","",""
"sailing-trial","398","2063980","0.0-11.0-363.0","","","","false","","","","","","","","","","null","","1068.7000000178814","","2","1","null","null","arrowup","[0.675,0.325,0.85,0.15]","","",""
"sailing-trial","399","2067367","0.0-11.0-364.0","","","","false","","","","","","","","","","544.5999999940395","","107.09999999403954","","2","1","arrowright","1","arrowleft","[0.85,0.15,0.675,0.325]","","",""
"sailing-trial","400","2070104","0.0-11.0-365.0","","","","false","","","","","","","","","","null","","1048.1000000238419","","2","1","null","null","arrowup","[0.85,0.15,0.675,0.325]","","",""
"sailing-trial","401","2072929","0.0-11.0-366.0","","","","false","","","","","","","","","","469.69999998807907","","159.89999997615814","","2","0","arrowright","1","arrowleft","[0.85,0.15,0.675,0.325]","","",""
"sailing-trial","402","2075626","0.0-11.0-367.0","","","","false","","","","","","","","","","null","","983.2999999821186","","0","1","null","null","arrowup","[0.85,0.15,0.675,0.325]","","",""
"sailing-trial","403","2078843","0.0-11.0-368.0","","","","false","","","","","","","","","","656.6999999880791","","257.40000000596046","","0","0","arrowleft","0","arrowleft","[0.85,0.15,0.675,0.325]","","",""
"sailing-trial","404","2081422","0.0-11.0-369.0","","","","false","","","","","","","","","","null","","1305.699999988079","","3","0","null","null","arrowup","[0.85,0.15,0.675,0.325]","","",""
"sailing-trial","405","2087589","0.0-11.0-370.0","","","","false","","","","","","","","","","1990.300000011921","","505.5","","0","1","arrowleft","0","arrowleft","[0.85,0.15,0.675,0.325]","","",""
"sailing-trial","406","2090242","0.0-11.0-371.0","","","","false","","","","","","","","","","null","","1094.4000000059605","","2","1","null","null","arrowup","[0.85,0.15,0.675,0.325]","","",""
"sailing-trial","407","2094027","0.0-11.0-372.0","","","","false","","","","","","","","","","345.09999999403954","","460.19999998807907","","0","0","arrowleft","0","arrowleft","[0.85,0.15,0.675,0.325]","","",""
"sailing-trial","408","2097851","0.0-11.0-373.0","","","","false","","","","","","","","","","null","","1603.800000011921","","1","1","null","null","arrowup","[0.85,0.15,0.675,0.325]","","",""
"sailing-trial","409","2100943","0.0-11.0-374.0","","","","false","","","","","","","","","","638.3000000119209","","6","","1","0","arrowleft","0","arrowright","[0.85,0.15,0.675,0.325]","","",""
"sailing-trial","410","2103422","0.0-11.0-375.0","","","","false","","","","","","","","","","null","","1202.5999999940395","","1","0","null","null","arrowup","[0.85,0.15,0.675,0.325]","","",""
"sailing-trial","411","2107878","0.0-11.0-376.0","","","","false","","","","","","","","","","910.6999999880791","","143.59999999403954","","2","1","arrowright","1","arrowleft","[0.85,0.15,0.675,0.325]","","",""
"sailing-trial","412","2111649","0.0-11.0-377.0","","","","false","","","","","","","","","","null","","1289.6000000238419","","3","1","null","null","arrowup","[0.85,0.15,0.675,0.325]","","",""
"sailing-trial","413","2116104","0.0-11.0-378.0","","","","false","","","","","","","","","","739.9000000059605","","181.40000000596046","","3","1","arrowright","1","arrowright","[0.85,0.15,0.675,0.325]","","",""
"sailing-trial","414","2118929","0.0-11.0-379.0","","","","false","","","","","","","","","","null","","1131.4000000059605","","3","0","null","null","arrowup","[0.85,0.15,0.675,0.325]","","",""
"sailing-trial","415","2122995","0.0-11.0-380.0","","","","false","","","","","","","","","","1220.699999988079","","78.30000001192093","","2","1","arrowright","1","arrowleft","[0.85,0.15,0.675,0.325]","","",""
"sailing-trial","416","2126967","0.0-11.0-381.0","","","","false","","","","","","","","","","null","","1412.2999999821186","","1","1","null","null","arrowup","[0.85,0.15,0.675,0.325]","","",""
"sailing-trial","417","2130135","0.0-11.0-382.0","","","","false","","","","","","","","","","791.5999999940395","","108.30000001192093","","2","0","arrowright","1","arrowleft","[0.85,0.15,0.675,0.325]","","",""
"sailing-trial","418","2132379","0.0-11.0-383.0","","","","false","","","","","","","","","","null","","1107.4000000059605","","2","0","null","null","arrowup","[0.85,0.15,0.675,0.325]","","",""
"sailing-trial","419","2136145","0.0-11.0-384.0","","","","false","","","","","","","","","","612.5999999940395","","378.5","","3","1","arrowright","1","arrowright","[0.15,0.85,0.325,0.675]","","",""
"sailing-trial","420","2138797","0.0-11.0-385.0","","","","false","","","","","","","","","","null","","994.5999999940395","","0","1","null","null","arrowup","[0.15,0.85,0.325,0.675]","","",""
"sailing-trial","421","2142318","0.0-11.0-386.0","","","","false","","","","","","","","","","551.5999999940395","","103.7000000178814","","3","1","arrowright","1","arrowright","[0.15,0.85,0.325,0.675]","","",""
"sailing-trial","422","2145440","0.0-11.0-387.0","","","","false","","","","","","","","","","null","","1149","","3","0","null","null","arrowup","[0.15,0.85,0.325,0.675]","","",""
"sailing-trial","423","2149891","0.0-11.0-388.0","","","","false","","","","","","","","","","920","","1240.7999999821186","","3","0","arrowright","1","arrowright","[0.15,0.85,0.325,0.675]","","",""
"sailing-trial","424","2152385","0.0-11.0-389.0","","","","false","","","","","","","","","","null","","1118.699999988079","","1","0","null","null","arrowup","[0.15,0.85,0.325,0.675]","","",""
"sailing-trial","425","2155999","0.0-11.0-390.0","","","","false","","","","","","","","","","736.6999999880791","","108.90000000596046","","1","1","arrowleft","0","arrowright","[0.15,0.85,0.325,0.675]","","",""
"sailing-trial","426","2158568","0.0-11.0-391.0","","","","false","","","","","","","","","","null","","1042.4000000059605","","0","0","null","null","arrowup","[0.15,0.85,0.325,0.675]","","",""
"sailing-trial","427","2161629","0.0-11.0-392.0","","","","false","","","","","","","","","","440.59999999403954","","352.10000002384186","","1","0","arrowleft","0","arrowright","[0.15,0.85,0.325,0.675]","","",""
"sailing-trial","428","2164342","0.0-11.0-393.0","","","","false","","","","","","","","","","null","","906.0999999940395","","1","1","null","null","arrowup","[0.15,0.85,0.325,0.675]","","",""
"sailing-trial","429","2168230","0.0-11.0-394.0","","","","false","","","","","","","","","","706.1999999880791","","414.2000000178814","","1","1","arrowleft","0","arrowright","[0.15,0.85,0.325,0.675]","","",""
"sailing-trial","430","2170916","0.0-11.0-395.0","","","","false","","","","","","","","","","null","","986.5","","1","1","null","null","arrowup","[0.15,0.85,0.325,0.675]","","",""
"sailing-trial","431","2175004","0.0-11.0-396.0","","","","false","","","","","","","","","","949.9000000059605","","465.90000000596046","","1","1","arrowleft","0","arrowright","[0.15,0.85,0.325,0.675]","","",""
"sailing-trial","432","2178257","0.0-11.0-397.0","","","","false","","","","","","","","","","null","","1522.0999999940395","","3","1","null","null","arrowup","[0.15,0.85,0.325,0.675]","","",""
"sailing-trial","433","2182628","0.0-11.0-398.0","","","","false","","","","","","","","","","1097.300000011921","","397.2999999821186","","1","1","arrowleft","0","arrowright","[0.15,0.85,0.325,0.675]","","",""
"sailing-trial","434","2185013","0.0-11.0-399.0","","","","false","","","","","","","","","","null","","1011.5999999940395","","0","0","null","null","arrowup","[0.15,0.85,0.325,0.675]","","",""
"instructions","435","2186936","0.0-12.0","","","","","","","","","","1922.2000000178814","","","","","","","","","","","","","","","","[{""page_index"":0,""viewing_time"":1921.6000000238419}]"
"survey-debrief","436","2216338","0.0-13.0","","","","","","","","","","29401.29999998212","","","","","","","","","","","","","","{""difficulty"":""3"",""fun"":""1"",""clarity"":""5"",""strategy"":""just see if they gave money"",""feedback"":""no""}","",""
