"trial_type","trial_index","time_elapsed","internal_node_id","value","metadata","success","timeout","failed_images","failed_audio","failed_video","browser_interaction","low_quality","rt","stimulus","response","button_pressed","island_rt","island_response","boat_rt","boat_response","boat","reward","island_key","island","boat_key","reward_probabilities","responses","num_errors","view_history"
"pavlovia","0","3","0.0-0.0","","","","","","","","","","","","","","","","","","","","","","","","","",""
"call-function","1","4","0.0-1.0","","{""task_version"":""sailing_part1_v1"",""task_condition"":""good"",""boats"":[""A"",""D"",""B"",""C""],""boats_demo"":[""H"",""F"",""E"",""G""],""islands"":[""B"",""A""],""subject_id"":""13812"",""age"":""9"",""gender"":""Female""}","","","","","","","","","","","","","","","","","","","","","","","",""
"preload","2","2503","0.0-2.0","","","true","false","[]","[]","[]","[{""event"":""fullscreenenter"",""trial"":3,""time"":6698}]","false","","","","","","","","","","","","","","","","",""
"fullscreen","3","7668","0.0-3.0","","","true","","","","","","","","","","","","","","","","","","","","","","",""
"audio-keyboard-response","4","20085","0.0-4.0-0.0","","","","","","","","","","12341.333333333334","audio/beep_loop.wav"," ","","","","","","","","","","","","","",""
"audio-test","5","23940","0.0-4.0-1.0","","","","","","","","","","null","audio/turtle.mp3","","3","","","","","","","","","","","","",""
"audio-test","6","26239","0.0-4.0-2.0","","","","","","","","","","null","audio/shark.mp3","","2","","","","","","","","","","","","",""
"sailing-instructions","7","61139","0.0-5.0-0.0-0.0","","","","","","","","","","","","","","null","null","null","null","null","null","","","","","","",""
"sailing-trial","8","75675","0.0-5.0-0.0-1.0-0.0","","","","false","","","","","","","","","","13418","","null","","null","null","arrowleft","0","null","null","","",""
"sailing-trial","9","78207","0.0-5.0-0.0-1.0-1.0","","","","false","","","","","","","","","","1407.2999999523163","","null","","null","null","arrowright","1","null","null","","",""
"sailing-trial","10","82303","0.0-5.0-0.0-1.0-2.0","","","","false","","","","","","","","","","2974.199999988079","","null","","null","null","arrowright","1","null","null","","",""
"sailing-instructions","11","132043","0.0-5.0-0.0-2.0","","","","","","","","","","","","","","null","null","null","null","0","null","","","","","","",""
"sailing-trial","12","141965","0.0-5.0-0.0-3.0-0.0","","","","false","","","","","","","","","","null","","4417.699999988079","","2","1","null","null","arrowleft","[1,1,1,1]","","",""
"sailing-trial","13","146960","0.0-5.0-0.0-3.0-1.0","","","","false","","","","","","","","","","null","","1075.6000000238419","","3","1","null","null","arrowright","[1,1,1,1]","","",""
"sailing-trial","14","152311","0.0-5.0-0.0-3.0-2.0","","","","false","","","","","","","","","","null","","1824","","3","0","null","null","arrowright","[0,0,0,0]","","",""
"sailing-instructions","15","160332","0.0-5.0-0.0-4.0","","","","","","","","","","","","","","null","null","null","null","null","null","","","","","","",""
"sailing-comprehension","16","216364","0.0-5.0-0.0-5.0","","","","","","","","","","32007.30000001192","","","","","","","","","","","","","","[""true"",""false"",""false"",""true""]","1",""
"sailing-instructions","17","246688","0.0-5.0-0.1-0.1","","","","","","","","","","","","","","null","null","null","null","null","null","","","","","","",""
"sailing-trial","18","250246","0.0-5.0-0.1-1.1-0.1","","","","false","","","","","","","","","","2438.100000023842","","null","","null","null","arrowleft","0","null","null","","",""
"sailing-trial","19","253210","0.0-5.0-0.1-1.1-1.1","","","","false","","","","","","","","","","1848.300000011921","","null","","null","null","arrowright","1","null","null","","",""
"sailing-trial","20","254509","0.0-5.0-0.1-1.1-2.1","","","","false","","","","","","","","","","173.5999999642372","","null","","null","null","arrowright","1","null","null","","",""
"sailing-instructions","21","297441","0.0-5.0-0.1-2.1","","","","","","","","","","","","","","null","null","null","null","0","null","","","","","","",""
"sailing-trial","22","303327","0.0-5.0-0.1-3.1-0.1","","","","false","","","","","","","","","","null","","2975.800000011921","","2","1","null","null","arrowleft","[1,1,1,1]","","",""
"sailing-trial","23","305892","0.0-5.0-0.1-3.1-1.1","","","","false","","","","","","","","","","null","","53.19999998807907","","3","1","null","null","arrowright","[1,1,1,1]","","",""
"sailing-trial","24","311060","0.0-5.0-0.1-3.1-2.1","","","","false","","","","","","","","","","null","","1643.5","","2","0","null","null","arrowleft","[0,0,0,0]","","",""
"sailing-instructions","25","318582","0.0-5.0-0.1-4.1","","","","","","","","","","","","","","null","null","null","null","null","null","","","","","","",""
"sailing-comprehension","26","335633","0.0-5.0-0.1-5.1","","","","","","","","","","14107.600000023842","","","","","","","","","","","","","","[""true"",""true"",""false"",""true""]","0",""
"sailing-instructions","27","400052","0.0-6.0-0.0-0.0","","","","","","","","","","","","","","null","null","null","null","null","null","","","","","","",""
"sailing-comprehension","28","437338","0.0-6.0-0.0-1.0","","","","","","","","","","35314.59999996424","","","","","","","","","","","","","","[""true"",""false"",""true""]","0",""
"sailing-instructions","29","453760","0.0-7.0-0.0-0.0","","","","","","","","","","","","","","null","null","null","null","null","null","","","","","","",""
"sailing-trial","30","464405","0.0-7.0-0.0-1.0-0.0","","","","false","","","","","","","","","","null","","7736.699999988079","","0","0","null","null","arrowup","[0.2,0.8,0.2,0.8]","","",""
"sailing-trial","31","470980","0.0-7.0-0.0-1.0-1.0","","","","false","","","","","","","","","","null","","2544.100000023842","","1","1","null","null","arrowup","[0.2,0.8,0.2,0.8]","","",""
"sailing-trial","32","474753","0.0-7.0-0.0-1.0-2.0","","","","false","","","","","","","","","","null","","1682.5","","2","0","null","null","arrowup","[0.2,0.8,0.2,0.8]","","",""
"sailing-trial","33","478607","0.0-7.0-0.0-1.0-3.0","","","","false","","","","","","","","","","null","","1284.3999999761581","","3","1","null","null","arrowup","[0.2,0.8,0.2,0.8]","","",""
"sailing-comprehension","34","488939","0.0-7.0-0.0-2.0","","","","","","","","","","8588","","","","","","","","","","","","","","[""false""]","0",""
"sailing-instructions","35","502940","0.0-8.0-0.0-0.0","","","","","","","","","","","","","","null","null","null","null","null","null","","","","","","",""
"sailing-comprehension","36","510111","0.0-8.0-0.0-1.0","","","","","","","","","","5398","","","","","","","","","","","","","","[""true""]","0",""
"sailing-instructions","37","541786","0.0-9.0-0.0-0.0","","","","","","","","","","","","","","null","null","null","null","null","null","","","","","","",""
"sailing-trial","38","552569","0.0-9.0-0.0-1.0-0.0","","","","false","","","","","","","","","","5315.699999988079","","2001.7000000476837","","1","0","arrowleft","0","arrowright","[0.2,0.8,0.2,0.8]","","",""
"sailing-trial","39","558623","0.0-9.0-0.0-1.0-1.0","","","","false","","","","","","","","","","1817.300000011921","","507.7000000476837","","3","1","arrowright","1","arrowright","[0.2,0.8,0.2,0.8]","","",""
"sailing-trial","40","562040","0.0-9.0-0.0-1.0-2.0","","","","false","","","","","","","","","","null","","1635.1000000238419","","0","0","null","null","arrowup","[0.2,0.8,0.2,0.8]","","",""
"sailing-trial","41","569482","0.0-9.0-0.0-1.0-3.0","","","","false","","","","","","","","","","2261.600000023842","","1727.199999988079","","3","1","arrowright","1","arrowright","[0.2,0.8,0.2,0.8]","","",""
"sailing-trial","42","573111","0.0-9.0-0.0-1.0-4.0","","","","false","","","","","","","","","","null","","1434.5999999642372","","3","1","null","null","arrowup","[0.2,0.8,0.2,0.8]","","",""
"sailing-trial","43","578781","0.0-9.0-0.0-1.0-5.0","","","","false","","","","","","","","","","866.8999999761581","","1179.3999999761581","","3","0","arrowright","1","arrowright","[0.2,0.8,0.2,0.8]","","",""
"sailing-instructions","44","609478","0.0-10.0","","","","","","","","","","","","","","null","null","null","null","null","null","","","","","","",""
"sailing-trial","45","620519","0.0-11.0-0.0","","","","false","","","","","","","","","","5418.800000011921","","1559.1000000238419","","2","0","arrowright","1","arrowleft","[0.85,0.15,0.325,0.675]","","",""
"sailing-trial","46","624029","0.0-11.0-1.0","","","","false","","","","","","","","","","null","","1357.3999999761581","","0","1","null","null","arrowup","[0.85,0.15,0.325,0.675]","","",""
"sailing-trial","47","628433","0.0-11.0-2.0","","","","false","","","","","","","","","","1288.9000000357628","","96.80000001192093","","3","0","arrowright","1","arrowright","[0.85,0.15,0.325,0.675]","","",""
"sailing-trial","48","631873","0.0-11.0-3.0","","","","false","","","","","","","","","","null","","1278.699999988079","","2","1","null","null","arrowup","[0.85,0.15,0.325,0.675]","","",""
"sailing-trial","49","636235","0.0-11.0-4.0","","","","false","","","","","","","","","","745.1000000238419","","530.1000000238419","","0","1","arrowleft","0","arrowleft","[0.85,0.15,0.325,0.675]","","",""
"sailing-trial","50","639453","0.0-11.0-5.0","","","","false","","","","","","","","","","null","","1396.800000011921","","0","1","null","null","arrowup","[0.85,0.15,0.325,0.675]","","",""
"sailing-trial","51","643550","0.0-11.0-6.0","","","","false","","","","","","","","","","1223.199999988079","","54.60000002384186","","0","1","arrowleft","0","arrowleft","[0.85,0.15,0.325,0.675]","","",""
"sailing-trial","52","646120","0.0-11.0-7.0","","","","false","","","","","","","","","","null","","1460.199999988079","","1","0","null","null","arrowup","[0.85,0.15,0.325,0.675]","","",""
"sailing-trial","53","651158","0.0-11.0-8.0","","","","false","","","","","","","","","","1584.6000000238419","","281","","0","1","arrowleft","0","arrowleft","[0.85,0.15,0.325,0.675]","","",""
"sailing-trial","54","653886","0.0-11.0-9.0","","","","false","","","","","","","","","","null","","1274","","1","0","null","null","arrowup","[0.85,0.15,0.325,0.675]","","",""
"sailing-trial","55","659005","0.0-11.0-10.0","","","","false","","","","","","","","","","621.3000000119209","","1092","","0","1","arrowleft","0","arrowleft","[0.85,0.15,0.325,0.675]","","",""
"sailing-trial","56","661983","0.0-11.0-11.0","","","","false","","","","","","","","","","null","","1197.9000000357628","","1","0","null","null","arrowup","[0.85,0.15,0.325,0.675]","","",""
"sailing-trial","57","666650","0.0-11.0-12.0","","","","false","","","","","","","","","","686.3999999761581","","1347.300000011921","","0","1","arrowleft","0","arrowleft","[0.85,0.15,0.325,0.675]","","",""
"sailing-trial","58","670797","0.0-11.0-13.0","","","","false","","","","","","","","","","null","","1312.5","","2","1","null","null","arrowup","[0.85,0.15,0.325,0.675]","","",""
"sailing-trial","59","675112","0.0-11.0-14.0","","","","false","","","","","","","","","","1154.8999999761581","","65","","0","1","arrowleft","0","arrowleft","[0.85,0.15,0.325,0.675]","","",""
"sailing-trial","60","679759","0.0-11.0-15.0","","","","false","","","","","","","","","","null","","2153.5","","0","1","null","null","arrowup","[0.85,0.15,0.325,0.675]","","",""
"sailing-trial","61","684622","0.0-11.0-16.0","","","","false","","","","","","","","","","1019.5","","263.10000002384186","","0","1","arrowleft","0","arrowleft","[0.85,0.15,0.325,0.675]","","",""
"sailing-trial","62","687788","0.0-11.0-17.0","","","","false","","","","","","","","","","null","","1124.1000000238419","","0","1","null","null","arrowup","[0.85,0.15,0.325,0.675]","","",""
"sailing-trial","63","692209","0.0-11.0-18.0","","","","false","","","","","","","","","","835.6000000238419","","459.9000000357628","","0","0","arrowleft","0","arrowleft","[0.675,0.325,0.15,0.85]","","",""
"sailing-trial","64","695832","0.0-11.0-19.0","","","","false","","","","","","","","","","null","","1371.8999999761581","","3","1","null","null","arrowup","[0.675,0.325,0.15,0.85]","","",""
"sailing-trial","65","700112","0.0-11.0-20.0","","","","false","","","","","","","","","","683.1000000238419","","7.699999988079071","","3","1","arrowright","1","arrowright","[0.675,0.325,0.15,0.85]","","",""
"sailing-trial","66","703105","0.0-11.0-21.0","","","","false","","","","","","","","","","null","","1338.5999999642372","","2","0","null","null","arrowup","[0.675,0.325,0.15,0.85]","","",""
"sailing-trial","67","707541","0.0-11.0-22.0","","","","false","","","","","","","","","","767.8000000119209","","615.5","","3","1","arrowright","1","arrowright","[0.675,0.325,0.15,0.85]","","",""
"sailing-trial","68","710888","0.0-11.0-23.0","","","","false","","","","","","","","","","null","","1395.800000011921","","3","1","null","null","arrowup","[0.675,0.325,0.15,0.85]","","",""
"sailing-trial","69","715385","0.0-11.0-24.0","","","","false","","","","","","","","","","656.0999999642372","","733.5","","3","1","arrowright","1","arrowright","[0.675,0.325,0.15,0.85]","","",""
"sailing-trial","70","718747","0.0-11.0-25.0","","","","false","","","","","","","","","","null","","1093.2999999523163","","0","0","null","null","arrowup","[0.675,0.325,0.15,0.85]","","",""
"sailing-trial","71","723362","0.0-11.0-26.0","","","","false","","","","","","","","","","737.8000000119209","","669.1999999880791","","3","1","arrowright","1","arrowright","[0.675,0.325,0.15,0.85]","","",""
"sailing-trial","72","726611","0.0-11.0-27.0","","","","false","","","","","","","","","","null","","1096.4000000357628","","0","1","null","null","arrowup","[0.675,0.325,0.15,0.85]","","",""
"sailing-trial","73","731806","0.0-11.0-28.0","","","","false","","","","","","","","","","997.6000000238419","","700.8000000119209","","0","1","arrowleft","0","arrowleft","[0.675,0.325,0.15,0.85]","","",""
"sailing-trial","74","737088","0.0-11.0-29.0","","","","false","","","","","","","","","","null","","1166.6000000238419","","3","1","null","null","arrowup","[0.675,0.325,0.15,0.85]","","",""
"sailing-trial","75","741499","0.0-11.0-30.0","","","","false","","","","","","","","","","943.1999999880791","","435.30000001192093","","3","1","arrowright","1","arrowright","[0.675,0.325,0.15,0.85]","","",""
"sailing-trial","76","745821","0.0-11.0-31.0","","","","false","","","","","","","","","","null","","1936.4000000357628","","1","0","null","null","arrowup","[0.675,0.325,0.15,0.85]","","",""
"sailing-trial","77","750912","0.0-11.0-32.0","","","","false","","","","","","","","","","1657.5","","512.1999999880791","","3","1","arrowright","1","arrowright","[0.675,0.325,0.15,0.85]","","",""
"sailing-trial","78","754992","0.0-11.0-33.0","","","","false","","","","","","","","","","null","","1217.199999988079","","2","1","null","null","arrowup","[0.675,0.325,0.15,0.85]","","",""
"sailing-trial","79","760056","0.0-11.0-34.0","","","","false","","","","","","","","","","1566","","265.5","","2","1","arrowright","1","arrowleft","[0.85,0.15,0.325,0.675]","","",""
"sailing-trial","80","762624","0.0-11.0-35.0","","","","false","","","","","","","","","","null","","1146.800000011921","","1","0","null","null","arrowup","[0.85,0.15,0.325,0.675]","","",""
"sailing-trial","81","765796","0.0-11.0-36.0","","","","false","","","","","","","","","","716.8000000119209","","209.70000004768372","","2","0","arrowright","1","arrowleft","[0.85,0.15,0.325,0.675]","","",""
"sailing-trial","82","770564","0.0-11.0-37.0","","","","false","","","","","","","","","","null","","1831.800000011921","","0","1","null","null","arrowup","[0.85,0.15,0.325,0.675]","","",""
"sailing-trial","83","774178","0.0-11.0-38.0","","","","false","","","","","","","","","","401.10000002384186","","343.5999999642372","","0","1","arrowleft","0","arrowleft","[0.85,0.15,0.325,0.675]","","",""
"sailing-trial","84","778144","0.0-11.0-39.0","","","","false","","","","","","","","","","null","","1452.6000000238419","","3","1","null","null","arrowup","[0.85,0.15,0.325,0.675]","","",""
"sailing-trial","85","783272","0.0-11.0-40.0","","","","false","","","","","","","","","","566.6000000238419","","1648","","3","1","arrowright","1","arrowright","[0.85,0.15,0.325,0.675]","","",""
"sailing-trial","86","787938","0.0-11.0-41.0","","","","false","","","","","","","","","","null","","2331","","3","1","null","null","arrowup","[0.85,0.15,0.325,0.675]","","",""
"sailing-trial","87","793132","0.0-11.0-42.0","","","","false","","","","","","","","","","540.2000000476837","","1570.699999988079","","3","1","arrowright","1","arrowright","[0.85,0.15,0.325,0.675]","","",""
"sailing-trial","88","796632","0.0-11.0-43.0","","","","false","","","","","","","","","","null","","1444.6000000238419","","3","1","null","null","arrowup","[0.85,0.15,0.325,0.675]","","",""
"sailing-trial","89","800562","0.0-11.0-44.0","","","","false","","","","","","","","","","768.3999999761581","","117.5","","3","1","arrowright","1","arrowright","[0.85,0.15,0.325,0.675]","","",""
"sailing-trial","90","803307","0.0-11.0-45.0","","","","false","","","","","","","","","","null","","1272.1000000238419","","1","0","null","null","arrowup","[0.85,0.15,0.325,0.675]","","",""
"sailing-trial","91","807875","0.0-11.0-46.0","","","","false","","","","","","","","","","1291.6000000238419","","292.69999998807907","","3","1","arrowright","1","arrowright","[0.85,0.15,0.325,0.675]","","",""
"sailing-trial","92","810477","0.0-11.0-47.0","","","","false","","","","","","","","","","null","","1165.5999999642372","","2","0","null","null","arrowup","[0.85,0.15,0.325,0.675]","","",""
"sailing-trial","93","814918","0.0-11.0-48.0","","","","false","","","","","","","","","","720.1999999880791","","574.0999999642372","","3","1","arrowright","1","arrowright","[0.85,0.15,0.325,0.675]","","",""
"sailing-trial","94","818121","0.0-11.0-49.0","","","","false","","","","","","","","","","null","","1135.800000011921","","1","0","null","null","arrowup","[0.85,0.15,0.325,0.675]","","",""
"sailing-trial","95","821799","0.0-11.0-50.0","","","","false","","","","","","","","","","674.4000000357628","","42","","3","1","arrowright","1","arrowright","[0.675,0.325,0.15,0.85]","","",""
"sailing-trial","96","825030","0.0-11.0-51.0","","","","false","","","","","","","","","","null","","1136.7000000476837","","0","1","null","null","arrowup","[0.675,0.325,0.15,0.85]","","",""
"sailing-trial","97","829409","0.0-11.0-52.0","","","","false","","","","","","","","","","1363.4000000357628","","61.69999998807907","","3","1","arrowright","1","arrowright","[0.675,0.325,0.15,0.85]","","",""
"sailing-trial","98","832059","0.0-11.0-53.0","","","","false","","","","","","","","","","null","","859.9000000357628","","2","0","null","null","arrowup","[0.675,0.325,0.15,0.85]","","",""
"sailing-trial","99","836803","0.0-11.0-54.0","","","","false","","","","","","","","","","849.8999999761581","","855.8999999761581","","3","1","arrowright","1","arrowright","[0.675,0.325,0.15,0.85]","","",""
"sailing-trial","100","839432","0.0-11.0-55.0","","","","false","","","","","","","","","","null","","943.1000000238419","","2","0","null","null","arrowup","[0.675,0.325,0.15,0.85]","","",""
"sailing-trial","101","843517","0.0-11.0-56.0","","","","false","","","","","","","","","","1008.1999999880791","","132.0999999642372","","3","1","arrowright","1","arrowright","[0.675,0.325,0.15,0.85]","","",""
"sailing-trial","102","846616","0.0-11.0-57.0","","","","false","","","","","","","","","","null","","978.2000000476837","","0","1","null","null","arrowup","[0.675,0.325,0.15,0.85]","","",""
"sailing-trial","103","851360","0.0-11.0-58.0","","","","false","","","","","","","","","","480.10000002384186","","612","","3","1","arrowright","1","arrowright","[0.675,0.325,0.15,0.85]","","",""
"sailing-trial","104","855224","0.0-11.0-59.0","","","","false","","","","","","","","","","null","","1381.800000011921","","3","1","null","null","arrowup","[0.675,0.325,0.15,0.85]","","",""
"sailing-trial","105","860474","0.0-11.0-60.0","","","","false","","","","","","","","","","610.8000000119209","","1628.2000000476837","","3","1","arrowright","1","arrowright","[0.675,0.325,0.15,0.85]","","",""
"sailing-trial","106","863555","0.0-11.0-61.0","","","","false","","","","","","","","","","null","","1194.6000000238419","","3","1","null","null","arrowup","[0.675,0.325,0.15,0.85]","","",""
"sailing-trial","107","867533","0.0-11.0-62.0","","","","false","","","","","","","","","","732.6999999880791","","30.19999998807907","","3","1","arrowright","1","arrowright","[0.675,0.325,0.15,0.85]","","",""
"sailing-trial","108","870600","0.0-11.0-63.0","","","","false","","","","","","","","","","null","","1236.4000000357628","","2","0","null","null","arrowup","[0.675,0.325,0.15,0.85]","","",""
"sailing-trial","109","874930","0.0-11.0-64.0","","","","false","","","","","","","","","","672.8999999761581","","500.89999997615814","","3","1","arrowright","1","arrowright","[0.675,0.325,0.15,0.85]","","",""
"sailing-trial","110","878445","0.0-11.0-65.0","","","","false","","","","","","","","","","null","","1131.5","","2","0","null","null","arrowup","[0.675,0.325,0.15,0.85]","","",""
"sailing-trial","111","883240","0.0-11.0-66.0","","","","false","","","","","","","","","","608.3999999761581","","975.8999999761581","","3","1","arrowright","1","arrowright","[0.85,0.15,0.325,0.675]","","",""
"sailing-trial","112","887205","0.0-11.0-67.0","","","","false","","","","","","","","","","null","","1675.4000000357628","","0","1","null","null","arrowup","[0.85,0.15,0.325,0.675]","","",""
"sailing-trial","113","892183","0.0-11.0-68.0","","","","false","","","","","","","","","","551.1000000238419","","1538.2000000476837","","3","1","arrowright","1","arrowright","[0.85,0.15,0.325,0.675]","","",""
"sailing-trial","114","895064","0.0-11.0-69.0","","","","false","","","","","","","","","","null","","939.2000000476837","","0","0","null","null","arrowup","[0.85,0.15,0.325,0.675]","","",""
"sailing-trial","115","899363","0.0-11.0-70.0","","","","false","","","","","","","","","","618.3999999761581","","547.2999999523163","","3","1","arrowright","1","arrowright","[0.85,0.15,0.325,0.675]","","",""
"sailing-trial","116","902428","0.0-11.0-71.0","","","","false","","","","","","","","","","null","","1070.6000000238419","","3","1","null","null","arrowup","[0.85,0.15,0.325,0.675]","","",""
"sailing-trial","117","906125","0.0-11.0-72.0","","","","false","","","","","","","","","","632.0999999642372","","25.5","","3","1","arrowright","1","arrowright","[0.85,0.15,0.325,0.675]","","",""
"sailing-trial","118","908472","0.0-11.0-73.0","","","","false","","","","","","","","","","null","","1002.6999999880791","","1","0","null","null","arrowup","[0.85,0.15,0.325,0.675]","","",""
"sailing-trial","119","912972","0.0-11.0-74.0","","","","false","","","","","","","","","","891.5","","558.3000000119209","","3","1","arrowright","1","arrowright","[0.85,0.15,0.325,0.675]","","",""
"sailing-trial","120","915853","0.0-11.0-75.0","","","","false","","","","","","","","","","null","","904.5","","0","1","null","null","arrowup","[0.85,0.15,0.325,0.675]","","",""
"sailing-trial","121","919684","0.0-11.0-76.0","","","","false","","","","","","","","","","590.3999999761581","","167.5","","3","1","arrowright","1","arrowright","[0.85,0.15,0.325,0.675]","","",""
"sailing-trial","122","922499","0.0-11.0-77.0","","","","false","","","","","","","","","","null","","992.3000000119209","","0","1","null","null","arrowup","[0.85,0.15,0.325,0.675]","","",""
"sailing-trial","123","926712","0.0-11.0-78.0","","","","false","","","","","","","","","","747.7000000476837","","139.69999998807907","","3","1","arrowright","1","arrowright","[0.85,0.15,0.325,0.675]","","",""
"sailing-trial","124","929131","0.0-11.0-79.0","","","","false","","","","","","","","","","null","","1026.300000011921","","1","0","null","null","arrowup","[0.85,0.15,0.325,0.675]","","",""
"sailing-trial","125","933469","0.0-11.0-80.0","","","","false","","","","","","","","","","1181.199999988079","","99.30000001192093","","0","0","arrowleft","0","arrowleft","[0.85,0.15,0.325,0.675]","","",""
"sailing-trial","126","936557","0.0-11.0-81.0","","","","false","","","","","","","","","","null","","1104.199999988079","","0","1","null","null","arrowup","[0.85,0.15,0.325,0.675]","","",""
"sailing-trial","127","941186","0.0-11.0-82.0","","","","false","","","","","","","","","","796.6000000238419","","644","","3","1","arrowright","1","arrowright","[0.85,0.15,0.325,0.675]","","",""
"sailing-trial","128","944030","0.0-11.0-83.0","","","","false","","","","","","","","","","null","","1122.300000011921","","1","0","null","null","arrowup","[0.85,0.15,0.325,0.675]","","",""
"sailing-trial","129","948863","0.0-11.0-84.0","","","","false","","","","","","","","","","1057.1000000238419","","768","","3","1","arrowright","1","arrowright","[0.85,0.15,0.325,0.675]","","",""
"sailing-trial","130","951224","0.0-11.0-85.0","","","","false","","","","","","","","","","null","","1022.6999999880791","","0","0","null","null","arrowup","[0.85,0.15,0.325,0.675]","","",""
"sailing-trial","131","955627","0.0-11.0-86.0","","","","false","","","","","","","","","","608.5999999642372","","1068.800000011921","","3","1","arrowright","1","arrowright","[0.85,0.15,0.325,0.675]","","",""
"sailing-trial","132","958300","0.0-11.0-87.0","","","","false","","","","","","","","","","null","","1344.6000000238419","","1","0","null","null","arrowup","[0.85,0.15,0.325,0.675]","","",""
"sailing-trial","133","962667","0.0-11.0-88.0","","","","false","","","","","","","","","","689.1999999880791","","639.6999999880791","","3","0","arrowright","1","arrowright","[0.675,0.325,0.15,0.85]","","",""
"sailing-trial","134","967069","0.0-11.0-89.0","","","","false","","","","","","","","","","null","","1483.8999999761581","","0","1","null","null","arrowup","[0.675,0.325,0.15,0.85]","","",""
"sailing-trial","135","970150","0.0-11.0-90.0","","","","false","","","","","","","","","","341.5","","13.800000011920929","","0","1","arrowleft","0","arrowleft","[0.675,0.325,0.15,0.85]","","",""
"sailing-trial","136","973435","0.0-11.0-91.0","","","","false","","","","","","","","","","null","","943.3000000119209","","1","0","null","null","arrowup","[0.675,0.325,0.15,0.85]","","",""
"sailing-trial","137","977522","0.0-11.0-92.0","","","","false","","","","","","","","","","751.1000000238419","","270.0999999642372","","0","0","arrowleft","0","arrowleft","[0.675,0.325,0.15,0.85]","","",""
"sailing-trial","138","980376","0.0-11.0-93.0","","","","false","","","","","","","","","","null","","963","","3","1","null","null","arrowup","[0.675,0.325,0.15,0.85]","","",""
"sailing-trial","139","984640","0.0-11.0-94.0","","","","false","","","","","","","","","","544.3999999761581","","769.4000000357628","","3","1","arrowright","1","arrowright","[0.675,0.325,0.15,0.85]","","",""
"sailing-trial","140","987492","0.0-11.0-95.0","","","","false","","","","","","","","","","null","","1043.1000000238419","","1","0","null","null","arrowup","[0.675,0.325,0.15,0.85]","","",""
"sailing-trial","141","991385","0.0-11.0-96.0","","","","false","","","","","","","","","","713.2000000476837","","30.899999976158142","","3","1","arrowright","1","arrowright","[0.675,0.325,0.15,0.85]","","",""
"sailing-trial","142","994516","0.0-11.0-97.0","","","","false","","","","","","","","","","null","","1121.1000000238419","","0","1","null","null","arrowup","[0.675,0.325,0.15,0.85]","","",""
"sailing-trial","143","998116","0.0-11.0-98.0","","","","false","","","","","","","","","","469.5999999642372","","521.1999999880791","","0","1","arrowleft","0","arrowleft","[0.675,0.325,0.15,0.85]","","",""
"sailing-trial","144","1002377","0.0-11.0-99.0","","","","false","","","","","","","","","","null","","1024.7000000476837","","0","1","null","null","arrowup","[0.675,0.325,0.15,0.85]","","",""
"sailing-trial","145","1006206","0.0-11.0-100.0","","","","false","","","","","","","","","","424.69999998807907","","553.6999999880791","","0","0","arrowleft","0","arrowleft","[0.675,0.325,0.15,0.85]","","",""
"sailing-trial","146","1010306","0.0-11.0-101.0","","","","false","","","","","","","","","","null","","1154.199999988079","","3","1","null","null","arrowup","[0.675,0.325,0.15,0.85]","","",""
"sailing-trial","147","1015554","0.0-11.0-102.0","","","","false","","","","","","","","","","1032.300000011921","","157.80000001192093","","3","1","arrowright","1","arrowright","[0.675,0.325,0.15,0.85]","","",""
"sailing-trial","148","1020698","0.0-11.0-103.0","","","","false","","","","","","","","","","null","","3202.699999988079","","1","1","null","null","arrowup","[0.675,0.325,0.15,0.85]","","",""
"sailing-trial","149","1024830","0.0-11.0-104.0","","","","false","","","","","","","","","","624.1000000238419","","87.5","","3","1","arrowright","1","arrowright","[0.675,0.325,0.15,0.85]","","",""
"sailing-trial","150","1028644","0.0-11.0-105.0","","","","false","","","","","","","","","","null","","1572.699999988079","","1","1","null","null","arrowup","[0.675,0.325,0.15,0.85]","","",""
"sailing-trial","151","1033558","0.0-11.0-106.0","","","","false","","","","","","","","","","612.5999999642372","","378.39999997615814","","1","1","arrowleft","0","arrowright","[0.675,0.325,0.15,0.85]","","",""
"sailing-trial","152","1039638","0.0-11.0-107.0","","","","false","","","","","","","","","","null","","1058.5","","3","1","null","null","arrowup","[0.675,0.325,0.15,0.85]","","",""
"sailing-trial","153","1044432","0.0-11.0-108.0","","","","false","","","","","","","","","","707.8000000119209","","815.5999999642372","","3","1","arrowright","1","arrowright","[0.675,0.325,0.15,0.85]","","",""
"sailing-trial","154","1047566","0.0-11.0-109.0","","","","false","","","","","","","","","","null","","1078.300000011921","","1","1","null","null","arrowup","[0.675,0.325,0.15,0.85]","","",""
"sailing-trial","155","1051712","0.0-11.0-110.0","","","","false","","","","","","","","","","325.19999998807907","","759.1000000238419","","1","1","arrowleft","0","arrowright","[0.325,0.675,0.85,0.15]","","",""
"sailing-trial","156","1054020","0.0-11.0-111.0","","","","false","","","","","","","","","","null","","756.8999999761581","","0","0","null","null","arrowup","[0.325,0.675,0.85,0.15]","","",""
"sailing-trial","157","1058875","0.0-11.0-112.0","","","","false","","","","","","","","","","1682.3999999761581","","243","","1","1","arrowleft","0","arrowright","[0.325,0.675,0.85,0.15]","","",""
"sailing-trial","158","1061671","0.0-11.0-113.0","","","","false","","","","","","","","","","null","","1217.8999999761581","","0","0","null","null","arrowup","[0.325,0.675,0.85,0.15]","","",""
"sailing-trial","159","1066101","0.0-11.0-114.0","","","","false","","","","","","","","","","1223.9000000357628","","428.89999997615814","","1","1","arrowleft","0","arrowright","[0.325,0.675,0.85,0.15]","","",""
"sailing-trial","160","1069367","0.0-11.0-115.0","","","","false","","","","","","","","","","null","","1252.699999988079","","0","1","null","null","arrowup","[0.325,0.675,0.85,0.15]","","",""
"sailing-trial","161","1074902","0.0-11.0-116.0","","","","false","","","","","","","","","","1019","","470","","0","0","arrowleft","0","arrowleft","[0.325,0.675,0.85,0.15]","","",""
"sailing-trial","162","1081776","0.0-11.0-117.0","","","","false","","","","","","","","","","null","","2362.100000023842","","2","1","null","null","arrowup","[0.325,0.675,0.85,0.15]","","",""
"sailing-trial","163","1086871","0.0-11.0-118.0","","","","false","","","","","","","","","","1332","","24.400000035762787","","1","1","arrowleft","0","arrowright","[0.325,0.675,0.85,0.15]","","",""
"sailing-trial","164","1092836","0.0-11.0-119.0","","","","false","","","","","","","","","","null","","3365.300000011921","","2","1","null","null","arrowup","[0.325,0.675,0.85,0.15]","","",""
"sailing-trial","165","1097610","0.0-11.0-120.0","","","","false","","","","","","","","","","1440.199999988079","","205.19999998807907","","1","0","arrowleft","0","arrowright","[0.325,0.675,0.85,0.15]","","",""
"sailing-trial","166","1100797","0.0-11.0-121.0","","","","false","","","","","","","","","","null","","1205.9000000357628","","2","1","null","null","arrowup","[0.325,0.675,0.85,0.15]","","",""
"sailing-trial","167","1104678","0.0-11.0-122.0","","","","false","","","","","","","","","","518.6000000238419","","319.30000001192093","","2","1","arrowright","1","arrowleft","[0.325,0.675,0.85,0.15]","","",""
"sailing-trial","168","1108525","0.0-11.0-123.0","","","","false","","","","","","","","","","null","","2024.3999999761581","","2","1","null","null","arrowup","[0.325,0.675,0.85,0.15]","","",""
"sailing-trial","169","1112678","0.0-11.0-124.0","","","","false","","","","","","","","","","683.5","","686.8000000119209","","2","0","arrowright","1","arrowleft","[0.325,0.675,0.85,0.15]","","",""
"sailing-trial","170","1115768","0.0-11.0-125.0","","","","false","","","","","","","","","","null","","1169.800000011921","","2","1","null","null","arrowup","[0.325,0.675,0.85,0.15]","","",""
"sailing-trial","171","1120452","0.0-11.0-126.0","","","","false","","","","","","","","","","1599.8999999761581","","631.9000000357628","","2","0","arrowright","1","arrowleft","[0.15,0.85,0.675,0.325]","","",""
"sailing-trial","172","1124465","0.0-11.0-127.0","","","","false","","","","","","","","","","null","","1659.1000000238419","","1","1","null","null","arrowup","[0.15,0.85,0.675,0.325]","","",""
"sailing-trial","173","1127744","0.0-11.0-128.0","","","","false","","","","","","","","","","252.30000001192093","","21.19999998807907","","1","1","arrowleft","0","arrowright","[0.15,0.85,0.675,0.325]","","",""
"sailing-trial","174","1129946","0.0-11.0-129.0","","","","false","","","","","","","","","","null","","845.1999999880791","","0","0","null","null","arrowup","[0.15,0.85,0.675,0.325]","","",""
"sailing-trial","175","1135041","0.0-11.0-130.0","","","","false","","","","","","","","","","980.5999999642372","","535.3999999761581","","1","1","arrowleft","0","arrowright","[0.15,0.85,0.675,0.325]","","",""
"sailing-trial","176","1138423","0.0-11.0-131.0","","","","false","","","","","","","","","","null","","1535.800000011921","","3","1","null","null","arrowup","[0.15,0.85,0.675,0.325]","","",""
"sailing-trial","177","1141621","0.0-11.0-132.0","","","","false","","","","","","","","","","515.3999999761581","","13.199999988079071","","3","0","arrowright","1","arrowright","[0.15,0.85,0.675,0.325]","","",""
"sailing-trial","178","1145168","0.0-11.0-133.0","","","","false","","","","","","","","","","null","","1087","","2","1","null","null","arrowup","[0.15,0.85,0.675,0.325]","","",""
"sailing-trial","179","1149298","0.0-11.0-134.0","","","","false","","","","","","","","","","613.5999999642372","","499.19999998807907","","2","1","arrowright","1","arrowleft","[0.15,0.85,0.675,0.325]","","",""
"sailing-trial","180","1152413","0.0-11.0-135.0","","","","false","","","","","","","","","","null","","1099.0999999642372","","2","1","null","null","arrowup","[0.15,0.85,0.675,0.325]","","",""
"sailing-trial","181","1156993","0.0-11.0-136.0","","","","false","","","","","","","","","","1060.0999999642372","","253.10000002384186","","2","1","arrowright","1","arrowleft","[0.15,0.85,0.675,0.325]","","",""
"sailing-trial","182","1159338","0.0-11.0-137.0","","","","false","","","","","","","","","","null","","1010.8000000119209","","2","0","null","null","arrowup","[0.15,0.85,0.675,0.325]","","",""
"sailing-trial","183","1164220","0.0-11.0-138.0","","","","false","","","","","","","","","","1064.300000011921","","516.8999999761581","","1","1","arrowleft","0","arrowright","[0.15,0.85,0.675,0.325]","","",""
"sailing-trial","184","1167899","0.0-11.0-139.0","","","","false","","","","","","","","","","null","","1295.6000000238419","","3","0","null","null","arrowup","[0.15,0.85,0.675,0.325]","","",""
"sailing-trial","185","1172233","0.0-11.0-140.0","","","","false","","","","","","","","","","626.1999999880791","","530.8000000119209","","1","1","arrowleft","0","arrowright","[0.15,0.85,0.675,0.325]","","",""
"sailing-trial","186","1175347","0.0-11.0-141.0","","","","false","","","","","","","","","","null","","1074.4000000357628","","2","1","null","null","arrowup","[0.15,0.85,0.675,0.325]","","",""
"sailing-trial","187","1179259","0.0-11.0-142.0","","","","false","","","","","","","","","","321.5","","836.5","","2","0","arrowright","1","arrowleft","[0.15,0.85,0.675,0.325]","","",""
"sailing-trial","188","1182642","0.0-11.0-143.0","","","","false","","","","","","","","","","null","","1227.699999988079","","3","1","null","null","arrowup","[0.15,0.85,0.675,0.325]","","",""
"sailing-trial","189","1186586","0.0-11.0-144.0","","","","false","","","","","","","","","","451.69999998807907","","753.6999999880791","","3","0","arrowright","1","arrowright","[0.325,0.675,0.85,0.15]","","",""
"sailing-trial","190","1189955","0.0-11.0-145.0","","","","false","","","","","","","","","","null","","1082.300000011921","","2","1","null","null","arrowup","[0.325,0.675,0.85,0.15]","","",""
"sailing-trial","191","1194052","0.0-11.0-146.0","","","","false","","","","","","","","","","608.1000000238419","","306.5","","1","1","arrowleft","0","arrowright","[0.325,0.675,0.85,0.15]","","",""
"sailing-trial","192","1199849","0.0-11.0-147.0","","","","false","","","","","","","","","","null","","3579.300000011921","","1","1","null","null","arrowup","[0.325,0.675,0.85,0.15]","","",""
"sailing-trial","193","1204161","0.0-11.0-148.0","","","","false","","","","","","","","","","1041.1000000238419","","83.60000002384186","","1","1","arrowleft","0","arrowright","[0.325,0.675,0.85,0.15]","","",""
"sailing-trial","194","1206683","0.0-11.0-149.0","","","","false","","","","","","","","","","null","","1201.300000011921","","1","0","null","null","arrowup","[0.325,0.675,0.85,0.15]","","",""
"sailing-trial","195","1210956","0.0-11.0-150.0","","","","false","","","","","","","","","","632","","772.1000000238419","","2","1","arrowright","1","arrowleft","[0.325,0.675,0.85,0.15]","","",""
"sailing-trial","196","1214306","0.0-11.0-151.0","","","","false","","","","","","","","","","null","","1312","","0","1","null","null","arrowup","[0.325,0.675,0.85,0.15]","","",""
"sailing-trial","197","1219519","0.0-11.0-152.0","","","","false","","","","","","","","","","594.5","","1547.8999999761581","","0","1","arrowleft","0","arrowleft","[0.325,0.675,0.85,0.15]","","",""
"sailing-trial","198","1223720","0.0-11.0-153.0","","","","false","","","","","","","","","","null","","1196","","3","0","null","null","arrowup","[0.325,0.675,0.85,0.15]","","",""
"sailing-trial","199","1230898","0.0-11.0-154.0","","","","false","","","","","","","","","","3248.900000035763","","779.3999999761581","","2","0","arrowright","1","arrowleft","[0.325,0.675,0.85,0.15]","","",""
"sailing-trial","200","1234893","0.0-11.0-155.0","","","","false","","","","","","","","","","null","","1272.699999988079","","1","1","null","null","arrowup","[0.325,0.675,0.85,0.15]","","",""
"sailing-trial","201","1238889","0.0-11.0-156.0","","","","false","","","","","","","","","","293.9000000357628","","378.10000002384186","","1","1","arrowleft","0","arrowright","[0.325,0.675,0.85,0.15]","","",""
"sailing-trial","202","1241804","0.0-11.0-157.0","","","","false","","","","","","","","","","null","","949.3000000119209","","2","1","null","null","arrowup","[0.325,0.675,0.85,0.15]","","",""
"sailing-trial","203","1245633","0.0-11.0-158.0","","","","false","","","","","","","","","","312.9000000357628","","400.9000000357628","","1","1","arrowleft","0","arrowright","[0.325,0.675,0.85,0.15]","","",""
"sailing-trial","204","1247977","0.0-11.0-159.0","","","","false","","","","","","","","","","null","","998","","0","0","null","null","arrowup","[0.325,0.675,0.85,0.15]","","",""
"sailing-trial","205","1252162","0.0-11.0-160.0","","","","false","","","","","","","","","","632.1999999880791","","429.69999998807907","","1","1","arrowleft","0","arrowright","[0.325,0.675,0.85,0.15]","","",""
"sailing-trial","206","1254285","0.0-11.0-161.0","","","","false","","","","","","","","","","null","","738.0999999642372","","0","0","null","null","arrowup","[0.325,0.675,0.85,0.15]","","",""
"sailing-trial","207","1259229","0.0-11.0-162.0","","","","false","","","","","","","","","","498.5","","396.30000001192093","","1","0","arrowleft","0","arrowright","[0.325,0.675,0.85,0.15]","","",""
"sailing-trial","208","1263388","0.0-11.0-163.0","","","","false","","","","","","","","","","null","","1021.5999999642372","","2","1","null","null","arrowup","[0.325,0.675,0.85,0.15]","","",""
"sailing-trial","209","1267170","0.0-11.0-164.0","","","","false","","","","","","","","","","468.30000001192093","","322.19999998807907","","2","1","arrowright","1","arrowleft","[0.325,0.675,0.85,0.15]","","",""
"sailing-trial","210","1269595","0.0-11.0-165.0","","","","false","","","","","","","","","","null","","998.9000000357628","","1","0","null","null","arrowup","[0.325,0.675,0.85,0.15]","","",""
"sailing-trial","211","1273284","0.0-11.0-166.0","","","","false","","","","","","","","","","602","","450.89999997615814","","2","1","arrowright","1","arrowleft","[0.325,0.675,0.85,0.15]","","",""
"sailing-trial","212","1275818","0.0-11.0-167.0","","","","false","","","","","","","","","","null","","1011.7000000476837","","0","0","null","null","arrowup","[0.325,0.675,0.85,0.15]","","",""
"sailing-trial","213","1281110","0.0-11.0-168.0","","","","false","","","","","","","","","","873.8999999761581","","966.5","","2","1","arrowright","1","arrowleft","[0.675,0.325,0.15,0.85]","","",""
"sailing-trial","214","1283666","0.0-11.0-169.0","","","","false","","","","","","","","","","null","","1202.300000011921","","1","0","null","null","arrowup","[0.675,0.325,0.15,0.85]","","",""
"sailing-trial","215","1287178","0.0-11.0-170.0","","","","false","","","","","","","","","","903.1000000238419","","83.90000003576279","","2","0","arrowright","1","arrowleft","[0.675,0.325,0.15,0.85]","","",""
"sailing-trial","216","1289873","0.0-11.0-171.0","","","","false","","","","","","","","","","null","","1285.5","","1","0","null","null","arrowup","[0.675,0.325,0.15,0.85]","","",""
"sailing-trial","217","1294017","0.0-11.0-172.0","","","","false","","","","","","","","","","527","","492.39999997615814","","0","1","arrowleft","0","arrowleft","[0.675,0.325,0.15,0.85]","","",""
"sailing-trial","218","1297196","0.0-11.0-173.0","","","","false","","","","","","","","","","null","","1087.699999988079","","2","0","null","null","arrowup","[0.675,0.325,0.15,0.85]","","",""
"sailing-trial","219","1301164","0.0-11.0-174.0","","","","false","","","","","","","","","","899.3000000119209","","49.10000002384186","","0","1","arrowleft","0","arrowleft","[0.675,0.325,0.15,0.85]","","",""
"sailing-trial","220","1304716","0.0-11.0-175.0","","","","false","","","","","","","","","","null","","542.3999999761581","","0","0","null","null","arrowup","[0.675,0.325,0.15,0.85]","","",""
"sailing-trial","221","1309257","0.0-11.0-176.0","","","","false","","","","","","","","","","1173.7999999523163","","430.69999998807907","","0","1","arrowleft","0","arrowleft","[0.675,0.325,0.15,0.85]","","",""
"sailing-trial","222","1312383","0.0-11.0-177.0","","","","false","","","","","","","","","","null","","986.1000000238419","","2","0","null","null","arrowup","[0.675,0.325,0.15,0.85]","","",""
"sailing-trial","223","1317285","0.0-11.0-178.0","","","","false","","","","","","","","","","1055.199999988079","","173.80000001192093","","0","1","arrowleft","0","arrowleft","[0.675,0.325,0.15,0.85]","","",""
"sailing-trial","224","1319616","0.0-11.0-179.0","","","","false","","","","","","","","","","null","","799.3000000119209","","1","0","null","null","arrowup","[0.675,0.325,0.15,0.85]","","",""
"sailing-trial","225","1323667","0.0-11.0-180.0","","","","false","","","","","","","","","","564.1999999880791","","520.3999999761581","","0","1","arrowleft","0","arrowleft","[0.675,0.325,0.15,0.85]","","",""
"sailing-trial","226","1327895","0.0-11.0-181.0","","","","false","","","","","","","","","","null","","1825.800000011921","","3","1","null","null","arrowup","[0.675,0.325,0.15,0.85]","","",""
"sailing-trial","227","1333093","0.0-11.0-182.0","","","","false","","","","","","","","","","1617.199999988079","","729.4000000357628","","0","1","arrowleft","0","arrowleft","[0.675,0.325,0.15,0.85]","","",""
"sailing-trial","228","1336573","0.0-11.0-183.0","","","","false","","","","","","","","","","null","","1621.8999999761581","","2","0","null","null","arrowup","[0.675,0.325,0.15,0.85]","","",""
"sailing-trial","229","1340356","0.0-11.0-184.0","","","","false","","","","","","","","","","585.3000000119209","","313.10000002384186","","0","1","arrowleft","0","arrowleft","[0.675,0.325,0.15,0.85]","","",""
"sailing-trial","230","1345436","0.0-11.0-185.0","","","","false","","","","","","","","","","null","","2473.800000011921","","3","1","null","null","arrowup","[0.675,0.325,0.15,0.85]","","",""
"sailing-trial","231","1349299","0.0-11.0-186.0","","","","false","","","","","","","","","","708.3000000119209","","26.900000035762787","","0","1","arrowleft","0","arrowleft","[0.85,0.15,0.325,0.675]","","",""
"sailing-trial","232","1352265","0.0-11.0-187.0","","","","false","","","","","","","","","","null","","1064.5","","3","1","null","null","arrowup","[0.85,0.15,0.325,0.675]","","",""
"sailing-trial","233","1356494","0.0-11.0-188.0","","","","false","","","","","","","","","","521","","636.1999999880791","","0","1","arrowleft","0","arrowleft","[0.85,0.15,0.325,0.675]","","",""
"sailing-trial","234","1360019","0.0-11.0-189.0","","","","false","","","","","","","","","","null","","1632.5","","2","0","null","null","arrowup","[0.85,0.15,0.325,0.675]","","",""
"sailing-trial","235","1366088","0.0-11.0-190.0","","","","false","","","","","","","","","","2277.100000023842","","970.8999999761581","","0","1","arrowleft","0","arrowleft","[0.85,0.15,0.325,0.675]","","",""
"sailing-trial","236","1370036","0.0-11.0-191.0","","","","false","","","","","","","","","","null","","1425","","0","1","null","null","arrowup","[0.85,0.15,0.325,0.675]","","",""
"sailing-trial","237","1375598","0.0-11.0-192.0","","","","false","","","","","","","","","","1354.2000000476837","","1132.6000000238419","","0","1","arrowleft","0","arrowleft","[0.85,0.15,0.325,0.675]","","",""
"sailing-trial","238","1377628","0.0-11.0-193.0","","","","false","","","","","","","","","","null","","711.8000000119209","","1","0","null","null","arrowup","[0.85,0.15,0.325,0.675]","","",""
"sailing-trial","239","1381545","0.0-11.0-194.0","","","","false","","","","","","","","","","757.7999999523163","","9.400000035762787","","0","1","arrowleft","0","arrowleft","[0.85,0.15,0.325,0.675]","","",""
"sailing-trial","240","1383498","0.0-11.0-195.0","","","","false","","","","","","","","","","null","","618","","3","0","null","null","arrowup","[0.85,0.15,0.325,0.675]","","",""
"sailing-trial","241","1388722","0.0-11.0-196.0","","","","false","","","","","","","","","","749.8000000119209","","1632.300000011921","","0","1","arrowleft","0","arrowleft","[0.85,0.15,0.325,0.675]","","",""
"sailing-trial","242","1391204","0.0-11.0-197.0","","","","false","","","","","","","","","","null","","639.5999999642372","","3","1","null","null","arrowup","[0.85,0.15,0.325,0.675]","","",""
"sailing-trial","243","1394982","0.0-11.0-198.0","","","","false","","","","","","","","","","308.5","","1067.0999999642372","","0","0","arrowleft","0","arrowleft","[0.85,0.15,0.325,0.675]","","",""
"sailing-trial","244","1398450","0.0-11.0-199.0","","","","false","","","","","","","","","","null","","1434.699999988079","","0","1","null","null","arrowup","[0.85,0.15,0.325,0.675]","","",""
"sailing-trial","245","1402697","0.0-11.0-200.0","","","","false","","","","","","","","","","640.0999999642372","","520.3000000119209","","3","1","arrowright","1","arrowright","[0.85,0.15,0.325,0.675]","","",""
"sailing-trial","246","1405479","0.0-11.0-201.0","","","","false","","","","","","","","","","null","","900.5","","0","1","null","null","arrowup","[0.85,0.15,0.325,0.675]","","",""
"sailing-trial","247","1411306","0.0-11.0-202.0","","","","false","","","","","","","","","","519.1000000238419","","63.19999998807907","","3","1","arrowright","1","arrowright","[0.85,0.15,0.325,0.675]","","",""
"sailing-trial","248","1414384","0.0-11.0-203.0","","","","false","","","","","","","","","","null","","1202.5999999642372","","1","0","null","null","arrowup","[0.85,0.15,0.325,0.675]","","",""
"sailing-trial","249","1419054","0.0-11.0-204.0","","","","false","","","","","","","","","","518.1000000238419","","1128.699999988079","","3","1","arrowright","1","arrowright","[0.85,0.15,0.325,0.675]","","",""
"sailing-trial","250","1422232","0.0-11.0-205.0","","","","false","","","","","","","","","","null","","1269.800000011921","","3","0","null","null","arrowup","[0.85,0.15,0.325,0.675]","","",""
"sailing-trial","251","1426712","0.0-11.0-206.0","","","","false","","","","","","","","","","578.3999999761581","","1324.199999988079","","3","0","arrowright","1","arrowright","[0.325,0.675,0.85,0.15]","","",""
"sailing-trial","252","1430047","0.0-11.0-207.0","","","","false","","","","","","","","","","null","","1279.5","","0","0","null","null","arrowup","[0.325,0.675,0.85,0.15]","","",""
"sailing-trial","253","1435142","0.0-11.0-208.0","","","","false","","","","","","","","","","1791.800000011921","","8","","2","1","arrowright","1","arrowleft","[0.325,0.675,0.85,0.15]","","",""
"sailing-trial","254","1439190","0.0-11.0-209.0","","","","false","","","","","","","","","","null","","857","","0","1","null","null","arrowup","[0.325,0.675,0.85,0.15]","","",""
"sailing-trial","255","1444086","0.0-11.0-210.0","","","","false","","","","","","","","","","810.3999999761581","","868.8000000119209","","2","1","arrowright","1","arrowleft","[0.325,0.675,0.85,0.15]","","",""
"sailing-trial","256","1448254","0.0-11.0-211.0","","","","false","","","","","","","","","","null","","1168.9000000357628","","3","0","null","null","arrowup","[0.325,0.675,0.85,0.15]","","",""
"sailing-trial","257","1452798","0.0-11.0-212.0","","","","false","","","","","","","","","","1118","","428.2999999523163","","2","1","arrowright","1","arrowleft","[0.325,0.675,0.85,0.15]","","",""
"sailing-trial","258","1457294","0.0-11.0-213.0","","","","false","","","","","","","","","","null","","2215.699999988079","","2","1","null","null","arrowup","[0.325,0.675,0.85,0.15]","","",""
"sailing-trial","259","1462040","0.0-11.0-214.0","","","","false","","","","","","","","","","944.6000000238419","","321.60000002384186","","2","1","arrowright","1","arrowleft","[0.325,0.675,0.85,0.15]","","",""
"sailing-trial","260","1467305","0.0-11.0-215.0","","","","false","","","","","","","","","","null","","2245.099999964237","","0","1","null","null","arrowup","[0.325,0.675,0.85,0.15]","","",""
"sailing-trial","261","1471319","0.0-11.0-216.0","","","","false","","","","","","","","","","856.9000000357628","","85.69999998807907","","2","1","arrowright","1","arrowleft","[0.325,0.675,0.85,0.15]","","",""
"sailing-trial","262","1473834","0.0-11.0-217.0","","","","false","","","","","","","","","","null","","644.1999999880791","","1","1","null","null","arrowup","[0.325,0.675,0.85,0.15]","","",""
"sailing-trial","263","1478363","0.0-11.0-218.0","","","","false","","","","","","","","","","589.4000000357628","","577.0999999642372","","2","1","arrowright","1","arrowleft","[0.325,0.675,0.85,0.15]","","",""
"sailing-trial","264","1480662","0.0-11.0-219.0","","","","false","","","","","","","","","","null","","413.60000002384186","","2","1","null","null","arrowup","[0.325,0.675,0.85,0.15]","","",""
"sailing-trial","265","1484994","0.0-11.0-220.0","","","","false","","","","","","","","","","689.9000000357628","","303.39999997615814","","2","1","arrowright","1","arrowleft","[0.325,0.675,0.85,0.15]","","",""
"sailing-trial","266","1487558","0.0-11.0-221.0","","","","false","","","","","","","","","","null","","1149.1000000238419","","1","0","null","null","arrowup","[0.325,0.675,0.85,0.15]","","",""
"sailing-trial","267","1493386","0.0-11.0-222.0","","","","false","","","","","","","","","","1203.9000000357628","","583.1000000238419","","2","1","arrowright","1","arrowleft","[0.325,0.675,0.85,0.15]","","",""
"sailing-trial","268","1499697","0.0-11.0-223.0","","","","false","","","","","","","","","","null","","2802.400000035763","","1","1","null","null","arrowup","[0.325,0.675,0.85,0.15]","","",""
"sailing-trial","269","1504396","0.0-11.0-224.0","","","","false","","","","","","","","","","1067.5","","472.30000001192093","","2","1","arrowright","1","arrowleft","[0.325,0.675,0.85,0.15]","","",""
"sailing-trial","270","1507876","0.0-11.0-225.0","","","","false","","","","","","","","","","null","","968.3000000119209","","1","1","null","null","arrowup","[0.325,0.675,0.85,0.15]","","",""
"sailing-trial","271","1511366","0.0-11.0-226.0","","","","false","","","","","","","","","","758.5","","7.300000011920929","","2","0","arrowright","1","arrowleft","[0.675,0.325,0.15,0.85]","","",""
"sailing-trial","272","1514457","0.0-11.0-227.0","","","","false","","","","","","","","","","null","","1033.2999999523163","","1","1","null","null","arrowup","[0.675,0.325,0.15,0.85]","","",""
"sailing-trial","273","1517752","0.0-11.0-228.0","","","","false","","","","","","","","","","283.30000001192093","","21.400000035762787","","1","1","arrowleft","0","arrowright","[0.675,0.325,0.15,0.85]","","",""
"sailing-trial","274","1520100","0.0-11.0-229.0","","","","false","","","","","","","","","","null","","867.6999999880791","","0","0","null","null","arrowup","[0.675,0.325,0.15,0.85]","","",""
"sailing-trial","275","1523691","0.0-11.0-230.0","","","","false","","","","","","","","","","649.8999999761581","","590.5","","1","0","arrowleft","0","arrowright","[0.675,0.325,0.15,0.85]","","",""
"sailing-trial","276","1527981","0.0-11.0-231.0","","","","false","","","","","","","","","","null","","1105.8999999761581","","0","1","null","null","arrowup","[0.675,0.325,0.15,0.85]","","",""
"sailing-trial","277","1532110","0.0-11.0-232.0","","","","false","","","","","","","","","","536.6000000238419","","492.5","","0","1","arrowleft","0","arrowleft","[0.675,0.325,0.15,0.85]","","",""
"sailing-trial","278","1535237","0.0-11.0-233.0","","","","false","","","","","","","","","","null","","1001.5","","2","0","null","null","arrowup","[0.675,0.325,0.15,0.85]","","",""
"sailing-trial","279","1540267","0.0-11.0-234.0","","","","false","","","","","","","","","","595.2000000476837","","1826.5999999642372","","0","0","arrowleft","0","arrowleft","[0.675,0.325,0.15,0.85]","","",""
"sailing-trial","280","1543675","0.0-11.0-235.0","","","","false","","","","","","","","","","null","","1032.9000000357628","","3","0","null","null","arrowup","[0.675,0.325,0.15,0.85]","","",""
"sailing-trial","281","1547993","0.0-11.0-236.0","","","","false","","","","","","","","","","610.0999999642372","","644.8000000119209","","2","0","arrowright","1","arrowleft","[0.675,0.325,0.15,0.85]","","",""
"sailing-trial","282","1550563","0.0-11.0-237.0","","","","false","","","","","","","","","","null","","1016.7000000476837","","3","0","null","null","arrowup","[0.675,0.325,0.15,0.85]","","",""
"sailing-trial","283","1554171","0.0-11.0-238.0","","","","false","","","","","","","","","","636.3999999761581","","25.30000001192093","","1","0","arrowleft","0","arrowright","[0.675,0.325,0.15,0.85]","","",""
"sailing-trial","284","1557961","0.0-11.0-239.0","","","","false","","","","","","","","","","null","","927.6000000238419","","2","1","null","null","arrowup","[0.675,0.325,0.15,0.85]","","",""
"sailing-trial","285","1561821","0.0-11.0-240.0","","","","false","","","","","","","","","","750.6000000238419","","520.5","","2","0","arrowright","1","arrowleft","[0.675,0.325,0.15,0.85]","","",""
"sailing-trial","286","1564673","0.0-11.0-241.0","","","","false","","","","","","","","","","null","","862","","2","1","null","null","arrowup","[0.675,0.325,0.15,0.85]","","",""
"sailing-trial","287","1568904","0.0-11.0-242.0","","","","false","","","","","","","","","","747.7000000476837","","476","","0","1","arrowleft","0","arrowleft","[0.85,0.15,0.325,0.675]","","",""
"sailing-trial","288","1573050","0.0-11.0-243.0","","","","false","","","","","","","","","","null","","1457.5","","0","1","null","null","arrowup","[0.85,0.15,0.325,0.675]","","",""
"sailing-trial","289","1578297","0.0-11.0-244.0","","","","false","","","","","","","","","","950.6999999880791","","1253.2999999523163","","0","1","arrowleft","0","arrowleft","[0.85,0.15,0.325,0.675]","","",""
"sailing-trial","290","1582645","0.0-11.0-245.0","","","","false","","","","","","","","","","null","","1800.6000000238419","","3","1","null","null","arrowup","[0.85,0.15,0.325,0.675]","","",""
"sailing-trial","291","1587623","0.0-11.0-246.0","","","","false","","","","","","","","","","653.3999999761581","","1126.800000011921","","0","1","arrowleft","0","arrowleft","[0.85,0.15,0.325,0.675]","","",""
"sailing-trial","292","1591206","0.0-11.0-247.0","","","","false","","","","","","","","","","null","","1530.3999999761581","","0","1","null","null","arrowup","[0.85,0.15,0.325,0.675]","","",""
"sailing-trial","293","1597234","0.0-11.0-248.0","","","","false","","","","","","","","","","692.5","","313.5","","0","1","arrowleft","0","arrowleft","[0.85,0.15,0.325,0.675]","","",""
"sailing-trial","294","1600217","0.0-11.0-249.0","","","","false","","","","","","","","","","null","","1155.300000011921","","0","1","null","null","arrowup","[0.85,0.15,0.325,0.675]","","",""
"sailing-trial","295","1604130","0.0-11.0-250.0","","","","false","","","","","","","","","","425.5999999642372","","510.5","","0","1","arrowleft","0","arrowleft","[0.85,0.15,0.325,0.675]","","",""
"sailing-trial","296","1606305","0.0-11.0-251.0","","","","false","","","","","","","","","","null","","769.4000000357628","","0","0","null","null","arrowup","[0.85,0.15,0.325,0.675]","","",""
"sailing-trial","297","1610255","0.0-11.0-252.0","","","","false","","","","","","","","","","792.5","","284.60000002384186","","0","0","arrowleft","0","arrowleft","[0.85,0.15,0.325,0.675]","","",""
"sailing-trial","298","1612778","0.0-11.0-253.0","","","","false","","","","","","","","","","null","","1003.4000000357628","","2","0","null","null","arrowup","[0.85,0.15,0.325,0.675]","","",""
"sailing-trial","299","1617222","0.0-11.0-254.0","","","","false","","","","","","","","","","1908.199999988079","","49.19999998807907","","3","0","arrowright","1","arrowright","[0.85,0.15,0.325,0.675]","","",""
"sailing-trial","300","1620252","0.0-11.0-255.0","","","","false","","","","","","","","","","null","","997.3999999761581","","3","1","null","null","arrowup","[0.85,0.15,0.325,0.675]","","",""
"sailing-trial","301","1624167","0.0-11.0-256.0","","","","false","","","","","","","","","","322.30000001192093","","670.3999999761581","","1","1","arrowleft","0","arrowright","[0.85,0.15,0.325,0.675]","","",""
"sailing-trial","302","1626652","0.0-11.0-257.0","","","","false","","","","","","","","","","null","","966.3000000119209","","1","0","null","null","arrowup","[0.85,0.15,0.325,0.675]","","",""
"sailing-trial","303","1629868","0.0-11.0-258.0","","","","false","","","","","","","","","","836.9000000357628","","9.199999988079071","","1","0","arrowleft","0","arrowright","[0.85,0.15,0.325,0.675]","","",""
"sailing-trial","304","1633079","0.0-11.0-259.0","","","","false","","","","","","","","","","null","","1177.199999988079","","3","1","null","null","arrowup","[0.85,0.15,0.325,0.675]","","",""
"sailing-trial","305","1636493","0.0-11.0-260.0","","","","false","","","","","","","","","","436.89999997615814","","98.80000001192093","","3","1","arrowright","1","arrowright","[0.85,0.15,0.325,0.675]","","",""
"sailing-trial","306","1639915","0.0-11.0-261.0","","","","false","","","","","","","","","","null","","1738.8999999761581","","2","0","null","null","arrowup","[0.85,0.15,0.325,0.675]","","",""
"sailing-trial","307","1645502","0.0-11.0-262.0","","","","false","","","","","","","","","","457.69999998807907","","855.3000000119209","","3","1","arrowright","1","arrowright","[0.675,0.325,0.15,0.85]","","",""
"sailing-trial","308","1649511","0.0-11.0-263.0","","","","false","","","","","","","","","","null","","2162.599999964237","","0","0","null","null","arrowup","[0.675,0.325,0.15,0.85]","","",""
"sailing-trial","309","1654031","0.0-11.0-264.0","","","","false","","","","","","","","","","750.8999999761581","","676.3000000119209","","0","1","arrowleft","0","arrowleft","[0.675,0.325,0.15,0.85]","","",""
"sailing-trial","310","1657362","0.0-11.0-265.0","","","","false","","","","","","","","","","null","","1374.7999999523163","","3","1","null","null","arrowup","[0.675,0.325,0.15,0.85]","","",""
"sailing-trial","311","1660861","0.0-11.0-266.0","","","","false","","","","","","","","","","922.3000000119209","","32.59999996423721","","3","0","arrowright","1","arrowright","[0.675,0.325,0.15,0.85]","","",""
"sailing-trial","312","1664813","0.0-11.0-267.0","","","","false","","","","","","","","","","null","","2270.300000011921","","1","0","null","null","arrowup","[0.675,0.325,0.15,0.85]","","",""
"sailing-trial","313","1669386","0.0-11.0-268.0","","","","false","","","","","","","","","","682.1999999880791","","561","","3","1","arrowright","1","arrowright","[0.675,0.325,0.15,0.85]","","",""
"sailing-trial","314","1673118","0.0-11.0-269.0","","","","false","","","","","","","","","","null","","1669.0999999642372","","3","1","null","null","arrowup","[0.675,0.325,0.15,0.85]","","",""
"sailing-trial","315","1679563","0.0-11.0-270.0","","","","false","","","","","","","","","","888.1000000238419","","2203.2000000476837","","3","1","arrowright","1","arrowright","[0.675,0.325,0.15,0.85]","","",""
"sailing-trial","316","1682713","0.0-11.0-271.0","","","","false","","","","","","","","","","null","","1259.6000000238419","","3","0","null","null","arrowup","[0.675,0.325,0.15,0.85]","","",""
"sailing-trial","317","1688525","0.0-11.0-272.0","","","","false","","","","","","","","","","845.9000000357628","","741.3999999761581","","3","1","arrowright","1","arrowright","[0.675,0.325,0.15,0.85]","","",""
"sailing-trial","318","1692605","0.0-11.0-273.0","","","","false","","","","","","","","","","null","","1057.3999999761581","","1","1","null","null","arrowup","[0.675,0.325,0.15,0.85]","","",""
"sailing-trial","319","1698200","0.0-11.0-274.0","","","","false","","","","","","","","","","1052.800000011921","","1581.5","","3","1","arrowright","1","arrowright","[0.675,0.325,0.15,0.85]","","",""
"sailing-trial","320","1701414","0.0-11.0-275.0","","","","false","","","","","","","","","","null","","1116.800000011921","","3","1","null","null","arrowup","[0.675,0.325,0.15,0.85]","","",""
"sailing-trial","321","1705861","0.0-11.0-276.0","","","","false","","","","","","","","","","771","","378.5","","3","1","arrowright","1","arrowright","[0.675,0.325,0.15,0.85]","","",""
"sailing-trial","322","1708236","0.0-11.0-277.0","","","","false","","","","","","","","","","null","","868.1999999880791","","2","0","null","null","arrowup","[0.675,0.325,0.15,0.85]","","",""
"sailing-trial","323","1712275","0.0-11.0-278.0","","","","false","","","","","","","","","","724.5","","384.4000000357628","","3","1","arrowright","1","arrowright","[0.85,0.15,0.325,0.675]","","",""
"sailing-trial","324","1713922","0.0-11.0-279.0","","","","false","","","","","","","","","","null","","408.80000001192093","","0","0","null","null","arrowup","[0.85,0.15,0.325,0.675]","","",""
"sailing-trial","325","1717389","0.0-11.0-280.0","","","","false","","","","","","","","","","658.0999999642372","","3.199999988079071","","3","1","arrowright","1","arrowright","[0.85,0.15,0.325,0.675]","","",""
"sailing-trial","326","1719357","0.0-11.0-281.0","","","","false","","","","","","","","","","null","","701.0999999642372","","2","0","null","null","arrowup","[0.85,0.15,0.325,0.675]","","",""
"sailing-trial","327","1723718","0.0-11.0-282.0","","","","false","","","","","","","","","","561.5","","1085.3999999761581","","3","1","arrowright","1","arrowright","[0.85,0.15,0.325,0.675]","","",""
"sailing-trial","328","1725831","0.0-11.0-283.0","","","","false","","","","","","","","","","null","","317.5999999642372","","3","1","null","null","arrowup","[0.85,0.15,0.325,0.675]","","",""
"sailing-trial","329","1730345","0.0-11.0-284.0","","","","false","","","","","","","","","","200.80000001192093","","768.6999999880791","","3","1","arrowright","1","arrowright","[0.85,0.15,0.325,0.675]","","",""
"sailing-trial","330","1734605","0.0-11.0-285.0","","","","false","","","","","","","","","","null","","2039.699999988079","","1","0","null","null","arrowup","[0.85,0.15,0.325,0.675]","","",""
"sailing-trial","331","1738306","0.0-11.0-286.0","","","","false","","","","","","","","","","692.6999999880791","","159.60000002384186","","3","1","arrowright","1","arrowright","[0.85,0.15,0.325,0.675]","","",""
"sailing-trial","332","1740438","0.0-11.0-287.0","","","","false","","","","","","","","","","null","","288.5","","3","1","null","null","arrowup","[0.85,0.15,0.325,0.675]","","",""
"sailing-trial","333","1744521","0.0-11.0-288.0","","","","false","","","","","","","","","","224.10000002384186","","993","","3","1","arrowright","1","arrowright","[0.85,0.15,0.325,0.675]","","",""
"sailing-trial","334","1746468","0.0-11.0-289.0","","","","false","","","","","","","","","","null","","159.80000001192093","","0","1","null","null","arrowup","[0.85,0.15,0.325,0.675]","","",""
"sailing-trial","335","1750382","0.0-11.0-290.0","","","","false","","","","","","","","","","108.30000001192093","","616.3999999761581","","3","1","arrowright","1","arrowright","[0.85,0.15,0.325,0.675]","","",""
"sailing-trial","336","1752831","0.0-11.0-291.0","","","","false","","","","","","","","","","null","","186.5","","3","1","null","null","arrowup","[0.85,0.15,0.325,0.675]","","",""
"sailing-trial","337","1756909","0.0-11.0-292.0","","","","false","","","","","","","","","","134.5","","104.30000001192093","","3","1","arrowright","1","arrowright","[0.85,0.15,0.325,0.675]","","",""
"sailing-trial","338","1759893","0.0-11.0-293.0","","","","false","","","","","","","","","","null","","976.3999999761581","","0","1","null","null","arrowup","[0.85,0.15,0.325,0.675]","","",""
"sailing-trial","339","1763008","0.0-11.0-294.0","","","","false","","","","","","","","","","183.39999997615814","","106.60000002384186","","3","1","arrowright","1","arrowright","[0.85,0.15,0.325,0.675]","","",""
"sailing-trial","340","1765105","0.0-11.0-295.0","","","","false","","","","","","","","","","null","","319","","3","1","null","null","arrowup","[0.85,0.15,0.325,0.675]","","",""
"sailing-trial","341","1769453","0.0-11.0-296.0","","","","false","","","","","","","","","","111.10000002384186","","663.0999999642372","","3","1","arrowright","1","arrowright","[0.675,0.325,0.15,0.85]","","",""
"sailing-trial","342","1772087","0.0-11.0-297.0","","","","false","","","","","","","","","","null","","1321.5999999642372","","2","0","null","null","arrowup","[0.675,0.325,0.15,0.85]","","",""
"sailing-trial","343","1776165","0.0-11.0-298.0","","","","false","","","","","","","","","","609.3999999761581","","440.80000001192093","","3","1","arrowright","1","arrowright","[0.675,0.325,0.15,0.85]","","",""
"sailing-trial","344","1777627","0.0-11.0-299.0","","","","false","","","","","","","","","","null","","143.39999997615814","","2","0","null","null","arrowup","[0.675,0.325,0.15,0.85]","","",""
"sailing-trial","345","1781978","0.0-11.0-300.0","","","","false","","","","","","","","","","650","","547","","3","1","arrowright","1","arrowright","[0.675,0.325,0.15,0.85]","","",""
"sailing-trial","346","1785627","0.0-11.0-301.0","","","","false","","","","","","","","","","null","","2014.800000011921","","2","0","null","null","arrowup","[0.675,0.325,0.15,0.85]","","",""
"sailing-trial","347","1790105","0.0-11.0-302.0","","","","false","","","","","","","","","","850.0999999642372","","933.6999999880791","","3","1","arrowright","1","arrowright","[0.675,0.325,0.15,0.85]","","",""
"sailing-trial","348","1794258","0.0-11.0-303.0","","","","false","","","","","","","","","","null","","1153.3999999761581","","1","0","null","null","arrowup","[0.675,0.325,0.15,0.85]","","",""
"sailing-trial","349","1800165","0.0-11.0-304.0","","","","false","","","","","","","","","","1138.800000011921","","1616.2000000476837","","3","1","arrowright","1","arrowright","[0.675,0.325,0.15,0.85]","","",""
"sailing-trial","350","1804630","0.0-11.0-305.0","","","","false","","","","","","","","","","null","","1266.800000011921","","3","1","null","null","arrowup","[0.675,0.325,0.15,0.85]","","",""
"sailing-trial","351","1808346","0.0-11.0-306.0","","","","false","","","","","","","","","","649.2999999523163","","270.0999999642372","","3","0","arrowright","1","arrowright","[0.675,0.325,0.15,0.85]","","",""
"sailing-trial","352","1811973","0.0-11.0-307.0","","","","false","","","","","","","","","","null","","1327.2999999523163","","1","1","null","null","arrowup","[0.675,0.325,0.15,0.85]","","",""
"sailing-trial","353","1815299","0.0-11.0-308.0","","","","false","","","","","","","","","","570.5","","158","","1","0","arrowleft","0","arrowright","[0.675,0.325,0.15,0.85]","","",""
"sailing-trial","354","1820017","0.0-11.0-309.0","","","","false","","","","","","","","","","null","","2370.7000000476837","","3","0","null","null","arrowup","[0.675,0.325,0.15,0.85]","","",""
"sailing-trial","355","1824768","0.0-11.0-310.0","","","","false","","","","","","","","","","1101","","372.89999997615814","","3","1","arrowright","1","arrowright","[0.675,0.325,0.15,0.85]","","",""
"sailing-trial","356","1827975","0.0-11.0-311.0","","","","false","","","","","","","","","","null","","1341.7000000476837","","1","0","null","null","arrowup","[0.675,0.325,0.15,0.85]","","",""
"sailing-trial","357","1831543","0.0-11.0-312.0","","","","false","","","","","","","","","","671.3000000119209","","265.89999997615814","","3","0","arrowright","1","arrowright","[0.15,0.85,0.675,0.325]","","",""
"sailing-trial","358","1833954","0.0-11.0-313.0","","","","false","","","","","","","","","","null","","1009.8999999761581","","3","0","null","null","arrowup","[0.15,0.85,0.675,0.325]","","",""
"sailing-trial","359","1837140","0.0-11.0-314.0","","","","false","","","","","","","","","","778.5999999642372","","24.600000023841858","","0","0","arrowleft","0","arrowleft","[0.15,0.85,0.675,0.325]","","",""
"sailing-trial","360","1839841","0.0-11.0-315.0","","","","false","","","","","","","","","","null","","842.9000000357628","","2","1","null","null","arrowup","[0.15,0.85,0.675,0.325]","","",""
"sailing-trial","361","1843489","0.0-11.0-316.0","","","","false","","","","","","","","","","118.69999998807907","","524.8000000119209","","2","1","arrowright","1","arrowleft","[0.15,0.85,0.675,0.325]","","",""
"sailing-trial","362","1846270","0.0-11.0-317.0","","","","false","","","","","","","","","","null","","919.0999999642372","","1","1","null","null","arrowup","[0.15,0.85,0.675,0.325]","","",""
"sailing-trial","363","1850099","0.0-11.0-318.0","","","","false","","","","","","","","","","193.5","","827.2999999523163","","2","1","arrowright","1","arrowleft","[0.15,0.85,0.675,0.325]","","",""
"sailing-trial","364","1851540","0.0-11.0-319.0","","","","false","","","","","","","","","","null","","229.19999998807907","","3","0","null","null","arrowup","[0.15,0.85,0.675,0.325]","","",""
"sailing-trial","365","1858245","0.0-11.0-320.0","","","","false","","","","","","","","","","1447.6000000238419","","2338.599999964237","","2","1","arrowright","1","arrowleft","[0.15,0.85,0.675,0.325]","","",""
"sailing-trial","366","1860311","0.0-11.0-321.0","","","","false","","","","","","","","","","null","","383.7000000476837","","3","1","null","null","arrowup","[0.15,0.85,0.675,0.325]","","",""
"sailing-trial","367","1863466","0.0-11.0-322.0","","","","false","","","","","","","","","","173.29999995231628","","733","","2","0","arrowright","1","arrowleft","[0.15,0.85,0.675,0.325]","","",""
"sailing-trial","368","1865851","0.0-11.0-323.0","","","","false","","","","[{""event"":""fullscreenenter"",""trial"":3,""time"":6698},{""event"":""fullscreenexit"",""trial"":369,""time"":1868124},{""event"":""blur"",""trial"":369,""time"":1868129},{""event"":""focus"",""trial"":369,""time"":1871179}]","false","","","","","null","","937.3999999761581","","0","0","null","null","arrowup","[0.15,0.85,0.675,0.325]","","",""
"sailing-trial","369","1880016","0.0-11.0-324.0","","","","false","","","","","","","","","","7678.100000023842","","1726.800000011921","","2","1","arrowright","1","arrowleft","[0.15,0.85,0.675,0.325]","","",""
"sailing-trial","370","1884118","0.0-11.0-325.0","","","","false","","","","","","","","","","null","","1614.1000000238419","","3","0","null","null","arrowup","[0.15,0.85,0.675,0.325]","","",""
"sailing-trial","371","1890441","0.0-11.0-326.0","","","","false","","","","","","","","","","1329","","1893.5999999642372","","2","1","arrowright","1","arrowleft","[0.15,0.85,0.675,0.325]","","",""
"sailing-trial","372","1893604","0.0-11.0-327.0","","","","false","","","","","","","","","","null","","1213.6000000238419","","2","1","null","null","arrowup","[0.15,0.85,0.675,0.325]","","",""
"sailing-trial","373","1899785","0.0-11.0-328.0","","","","false","","","","","","","","","","900.8000000119209","","965.4000000357628","","2","1","arrowright","1","arrowleft","[0.325,0.675,0.85,0.15]","","",""
"sailing-trial","374","1904884","0.0-11.0-329.0","","","","false","","","","","","","","","","null","","2088.199999988079","","0","0","null","null","arrowup","[0.325,0.675,0.85,0.15]","","",""
"sailing-trial","375","1910878","0.0-11.0-330.0","","","","false","","","","","","","","","","1648","","443.10000002384186","","2","1","arrowright","1","arrowleft","[0.325,0.675,0.85,0.15]","","",""
"sailing-trial","376","1915512","0.0-11.0-331.0","","","","false","","","","","","","","","","null","","1611.6000000238419","","0","0","null","null","arrowup","[0.325,0.675,0.85,0.15]","","",""
"sailing-trial","377","1929535","0.0-11.0-332.0","","","","false","","","","","","","","","","8097.699999988079","","1841.7999999523163","","0","0","arrowleft","0","arrowleft","[0.325,0.675,0.85,0.15]","","",""
"sailing-trial","378","1939908","0.0-11.0-333.0","","","","false","","","","","","","","","","null","","7729.300000011921","","2","1","null","null","arrowup","[0.325,0.675,0.85,0.15]","","",""
"sailing-trial","379","1946386","0.0-11.0-334.0","","","","false","","","","","","","","","","1089","","2162.100000023842","","2","1","arrowright","1","arrowleft","[0.325,0.675,0.85,0.15]","","",""
"sailing-trial","380","1949616","0.0-11.0-335.0","","","","false","","","","","","","","","","null","","1290.4000000357628","","3","0","null","null","arrowup","[0.325,0.675,0.85,0.15]","","",""
"sailing-trial","381","1953317","0.0-11.0-336.0","","","","false","","","","","","","","","","277.0999999642372","","230.69999998807907","","2","1","arrowright","1","arrowleft","[0.325,0.675,0.85,0.15]","","",""
"sailing-trial","382","1960095","0.0-11.0-337.0","","","","false","","","","","","","","","","null","","1183","","2","1","null","null","arrowup","[0.325,0.675,0.85,0.15]","","",""
"sailing-trial","383","1964325","0.0-11.0-338.0","","","","false","","","","","","","","","","1105.300000011921","","161.9000000357628","","2","1","arrowright","1","arrowleft","[0.325,0.675,0.85,0.15]","","",""
"sailing-trial","384","1966589","0.0-11.0-339.0","","","","false","","","","","","","","","","null","","289","","2","1","null","null","arrowup","[0.325,0.675,0.85,0.15]","","",""
"sailing-trial","385","1970286","0.0-11.0-340.0","","","","false","","","","","","","","","","451.89999997615814","","177.39999997615814","","2","1","arrowright","1","arrowleft","[0.325,0.675,0.85,0.15]","","",""
"sailing-trial","386","1972554","0.0-11.0-341.0","","","","false","","","","","","","","","","null","","345.4000000357628","","1","1","null","null","arrowup","[0.325,0.675,0.85,0.15]","","",""
"sailing-trial","387","1976000","0.0-11.0-342.0","","","","false","","","","","","","","","","395.69999998807907","","104.80000001192093","","2","1","arrowright","1","arrowleft","[0.325,0.675,0.85,0.15]","","",""
"sailing-trial","388","1978267","0.0-11.0-343.0","","","","false","","","","","","","","","","null","","404","","2","1","null","null","arrowup","[0.325,0.675,0.85,0.15]","","",""
"sailing-trial","389","1981846","0.0-11.0-344.0","","","","false","","","","","","","","","","433.5","","93.10000002384186","","2","1","arrowright","1","arrowleft","[0.325,0.675,0.85,0.15]","","",""
"sailing-trial","390","1984778","0.0-11.0-345.0","","","","false","","","","","","","","","","null","","1006.3000000119209","","1","1","null","null","arrowup","[0.325,0.675,0.85,0.15]","","",""
"sailing-trial","391","1988159","0.0-11.0-346.0","","","","false","","","","","","","","","","305.5999999642372","","67.90000003576279","","2","1","arrowright","1","arrowleft","[0.15,0.85,0.675,0.325]","","",""
"sailing-trial","392","1990358","0.0-11.0-347.0","","","","false","","","","","","","","","","null","","316","","1","1","null","null","arrowup","[0.15,0.85,0.675,0.325]","","",""
"sailing-trial","393","1993790","0.0-11.0-348.0","","","","false","","","","","","","","","","409.19999998807907","","106.30000001192093","","2","1","arrowright","1","arrowleft","[0.15,0.85,0.675,0.325]","","",""
"sailing-trial","394","1995492","0.0-11.0-349.0","","","","false","","","","","","","","","","null","","297.69999998807907","","2","0","null","null","arrowup","[0.15,0.85,0.675,0.325]","","",""
"sailing-trial","395","1999414","0.0-11.0-350.0","","","","false","","","","","","","","","","804.5","","88.5","","2","0","arrowright","1","arrowleft","[0.15,0.85,0.675,0.325]","","",""
"sailing-trial","396","2001637","0.0-11.0-351.0","","","","false","","","","","","","","","","null","","794.6000000238419","","3","0","null","null","arrowup","[0.15,0.85,0.675,0.325]","","",""
"sailing-trial","397","2006215","0.0-11.0-352.0","","","","false","","","","","","","","","","740.7000000476837","","812.5","","1","1","arrowleft","0","arrowright","[0.15,0.85,0.675,0.325]","","",""
"sailing-trial","398","2008963","0.0-11.0-353.0","","","","false","","","","","","","","","","null","","828.8999999761581","","1","1","null","null","arrowup","[0.15,0.85,0.675,0.325]","","",""
"sailing-trial","399","2012526","0.0-11.0-354.0","","","","false","","","","","","","","","","478.30000001192093","","67.89999997615814","","1","1","arrowleft","0","arrowright","[0.15,0.85,0.675,0.325]","","",""
"sailing-trial","400","2014608","0.0-11.0-355.0","","","","false","","","","","","","","","","null","","460.2000000476837","","1","1","null","null","arrowup","[0.15,0.85,0.675,0.325]","","",""
"sailing-trial","401","2018856","0.0-11.0-356.0","","","","false","","","","","","","","","","609.3000000119209","","85.30000001192093","","1","1","arrowleft","0","arrowright","[0.15,0.85,0.675,0.325]","","",""
"sailing-trial","402","2020723","0.0-11.0-357.0","","","","false","","","","","","","","","","null","","350.89999997615814","","3","0","null","null","arrowup","[0.15,0.85,0.675,0.325]","","",""
"sailing-trial","403","2025103","0.0-11.0-358.0","","","","false","","","","","","","","","","923.5","","360.69999998807907","","1","1","arrowleft","0","arrowright","[0.15,0.85,0.675,0.325]","","",""
"sailing-trial","404","2027747","0.0-11.0-359.0","","","","false","","","","","","","","","","null","","1205.199999988079","","0","0","null","null","arrowup","[0.15,0.85,0.675,0.325]","","",""
"sailing-trial","405","2032712","0.0-11.0-360.0","","","","false","","","","","","","","","","758.8999999761581","","1039.300000011921","","1","1","arrowleft","0","arrowright","[0.15,0.85,0.675,0.325]","","",""
"sailing-trial","406","2036125","0.0-11.0-361.0","","","","false","","","","","","","","","","null","","1752.4000000357628","","0","0","null","null","arrowup","[0.15,0.85,0.675,0.325]","","",""
"sailing-trial","407","2040958","0.0-11.0-362.0","","","","false","","","","","","","","","","1029.5","","58","","1","1","arrowleft","0","arrowright","[0.15,0.85,0.675,0.325]","","",""
"sailing-trial","408","2043490","0.0-11.0-363.0","","","","false","","","","","","","","","","null","","1073.3999999761581","","0","0","null","null","arrowup","[0.15,0.85,0.675,0.325]","","",""
"sailing-trial","409","2047754","0.0-11.0-364.0","","","","false","","","","","","","","","","964.7000000476837","","208.39999997615814","","1","1","arrowleft","0","arrowright","[0.15,0.85,0.675,0.325]","","",""
"sailing-trial","410","2050186","0.0-11.0-365.0","","","","false","","","","","","","","","","null","","339","","2","1","null","null","arrowup","[0.15,0.85,0.675,0.325]","","",""
"sailing-trial","411","2053315","0.0-11.0-366.0","","","","false","","","","","","","","","","403.19999998807907","","135","","1","0","arrowleft","0","arrowright","[0.325,0.675,0.85,0.15]","","",""
"sailing-trial","412","2055729","0.0-11.0-367.0","","","","false","","","","","","","","","","null","","1029.0999999642372","","3","0","null","null","arrowup","[0.325,0.675,0.85,0.15]","","",""
"sailing-trial","413","2059844","0.0-11.0-368.0","","","","false","","","","","","","","","","822.7000000476837","","178.30000001192093","","2","1","arrowright","1","arrowleft","[0.325,0.675,0.85,0.15]","","",""
"sailing-trial","414","2063027","0.0-11.0-369.0","","","","false","","","","","","","","","","null","","1239.699999988079","","0","1","null","null","arrowup","[0.325,0.675,0.85,0.15]","","",""
"sailing-trial","415","2067207","0.0-11.0-370.0","","","","false","","","","","","","","","","261.69999998807907","","310.10000002384186","","2","1","arrowright","1","arrowleft","[0.325,0.675,0.85,0.15]","","",""
"sailing-trial","416","2070039","0.0-11.0-371.0","","","","false","","","","","","","","","","null","","1211.1000000238419","","3","0","null","null","arrowup","[0.325,0.675,0.85,0.15]","","",""
"sailing-trial","417","2074352","0.0-11.0-372.0","","","","false","","","","","","","","","","1017.3999999761581","","239.39999997615814","","2","1","arrowright","1","arrowleft","[0.325,0.675,0.85,0.15]","","",""
"sailing-trial","418","2076862","0.0-11.0-373.0","","","","false","","","","","","","","","","null","","938.6999999880791","","3","0","null","null","arrowup","[0.325,0.675,0.85,0.15]","","",""
"sailing-trial","419","2080931","0.0-11.0-374.0","","","","false","","","","","","","","","","862","","241","","2","1","arrowright","1","arrowleft","[0.325,0.675,0.85,0.15]","","",""
"sailing-trial","420","2082969","0.0-11.0-375.0","","","","false","","","","","","","","","","null","","552.3000000119209","","1","0","null","null","arrowup","[0.325,0.675,0.85,0.15]","","",""
"sailing-trial","421","2087226","0.0-11.0-376.0","","","","false","","","","","","","","","","1036.5","","227","","2","1","arrowright","1","arrowleft","[0.325,0.675,0.85,0.15]","","",""
"sailing-trial","422","2089346","0.0-11.0-377.0","","","","false","","","","","","","","","","null","","411.30000001192093","","1","0","null","null","arrowup","[0.325,0.675,0.85,0.15]","","",""
"sailing-trial","423","2094206","0.0-11.0-378.0","","","","false","","","","","","","","","","905.0999999642372","","348.4000000357628","","2","1","arrowright","1","arrowleft","[0.325,0.675,0.85,0.15]","","",""
"sailing-trial","424","2097454","0.0-11.0-379.0","","","","false","","","","","","","","","","null","","1251.800000011921","","2","1","null","null","arrowup","[0.325,0.675,0.85,0.15]","","",""
"sailing-trial","425","2100868","0.0-11.0-380.0","","","","false","","","","","","","","","","386.2000000476837","","105.80000001192093","","2","1","arrowright","1","arrowleft","[0.325,0.675,0.85,0.15]","","",""
"sailing-trial","426","2103967","0.0-11.0-381.0","","","","false","","","","","","","","","","null","","446.69999998807907","","1","1","null","null","arrowup","[0.325,0.675,0.85,0.15]","","",""
"sailing-trial","427","2108224","0.0-11.0-382.0","","","","false","","","","","","","","","","847.0999999642372","","234.4000000357628","","2","0","arrowright","1","arrowleft","[0.85,0.15,0.325,0.675]","","",""
"sailing-trial","428","2111987","0.0-11.0-383.0","","","","false","","","","","","","","","","null","","1049.800000011921","","2","0","null","null","arrowup","[0.85,0.15,0.325,0.675]","","",""
"sailing-trial","429","2118422","0.0-11.0-384.0","","","","false","","","","","","","","","","2207","","296.0999999642372","","1","1","arrowleft","0","arrowright","[0.85,0.15,0.325,0.675]","","",""
"sailing-trial","430","2124254","0.0-11.0-385.0","","","","false","","","","","","","","","","null","","2565.7000000476837","","3","1","null","null","arrowup","[0.85,0.15,0.325,0.675]","","",""
"sailing-trial","431","2129235","0.0-11.0-386.0","","","","false","","","","","","","","","","856.6000000238419","","35.60000002384186","","1","0","arrowleft","0","arrowright","[0.85,0.15,0.325,0.675]","","",""
"sailing-trial","432","2132579","0.0-11.0-387.0","","","","false","","","","","","","","","","null","","1065","","1","1","null","null","arrowup","[0.85,0.15,0.325,0.675]","","",""
"sailing-trial","433","2138227","0.0-11.0-388.0","","","","false","","","","","","","","","","932.7000000476837","","1092.6000000238419","","0","1","arrowleft","0","arrowleft","[0.85,0.15,0.325,0.675]","","",""
"sailing-trial","434","2143490","0.0-11.0-389.0","","","","false","","","","","","","","","","null","","2352.400000035763","","2","1","null","null","arrowup","[0.85,0.15,0.325,0.675]","","",""
"sailing-trial","435","2147319","0.0-11.0-390.0","","","","false","","","","","","","","","","595.9000000357628","","238.80000001192093","","0","1","arrowleft","0","arrowleft","[0.85,0.15,0.325,0.675]","","",""
"sailing-trial","436","2150382","0.0-11.0-391.0","","","","false","","","","","","","","","","null","","901.1999999880791","","2","0","null","null","arrowup","[0.85,0.15,0.325,0.675]","","",""
"sailing-trial","437","2154532","0.0-11.0-392.0","","","","false","","","","","","","","","","868.5999999642372","","92.59999996423721","","0","1","arrowleft","0","arrowleft","[0.85,0.15,0.325,0.675]","","",""
"sailing-trial","438","2156839","0.0-11.0-393.0","","","","false","","","","","","","","","","null","","1007.3000000119209","","2","0","null","null","arrowup","[0.85,0.15,0.325,0.675]","","",""
"sailing-trial","439","2160811","0.0-11.0-394.0","","","","false","","","","","","","","","","588.6999999880791","","659.8000000119209","","0","1","arrowleft","0","arrowleft","[0.85,0.15,0.325,0.675]","","",""
"sailing-trial","440","2162981","0.0-11.0-395.0","","","","false","","","","","","","","","","null","","821.1000000238419","","1","0","null","null","arrowup","[0.85,0.15,0.325,0.675]","","",""
"sailing-trial","441","2166892","0.0-11.0-396.0","","","","false","","","","","","","","","","732.6000000238419","","178.69999998807907","","2","1","arrowright","1","arrowleft","[0.85,0.15,0.325,0.675]","","",""
"sailing-trial","442","2169350","0.0-11.0-397.0","","","","false","","","","","","","","","","null","","1109.5","","3","0","null","null","arrowup","[0.85,0.15,0.325,0.675]","","",""
"sailing-trial","443","2173402","0.0-11.0-398.0","","","","false","","","","","","","","","","630.0999999642372","","734.3999999761581","","0","1","arrowleft","0","arrowleft","[0.85,0.15,0.325,0.675]","","",""
"sailing-trial","444","2177472","0.0-11.0-399.0","","","","false","","","","","","","","","","null","","1495.6000000238419","","1","0","null","null","arrowup","[0.85,0.15,0.325,0.675]","","",""
"instructions","445","2186240","0.0-12.0","","","","","","","","","","8767.100000023842","","","","","","","","","","","","","","","","[{""page_index"":0,""viewing_time"":8766.199999988079}]"
"survey-debrief","446","2310040","0.0-13.0","","","","","","","","","","123797.5","","","","","","","","","","","","","","{""difficulty"":""3"",""fun"":""3"",""clarity"":""4"",""strategy"":""I used my brain"",""feedback"":""can you add some kind of music so its not boring? and it is really long so maybe half way in you can add a brain break game ""}","",""
