"trial_type","trial_index","time_elapsed","internal_node_id","value","metadata","success","timeout","failed_images","failed_audio","failed_video","browser_interaction","low_quality","rt","stimulus","response","button_pressed","island_rt","island_response","boat_rt","boat_response","boat","reward","island_key","island","boat_key","reward_probabilities","responses","num_errors","view_history"
"pavlovia","0","1","0.0-0.0","","","","","","","","","","","","","","","","","","","","","","","","","",""
"call-function","1","1","0.0-1.0","","{""task_version"":""sailing_part1_v1"",""task_condition"":""good"",""boats"":[""B"",""A"",""C"",""D""],""boats_demo"":[""H"",""F"",""G"",""E""],""islands"":[""B"",""A""],""subject_id"":""13956"",""age"":""18"",""gender"":""Male""}","","","","","","","","","","","","","","","","","","","","","","","",""
"preload","2","39001","0.0-2.0","","","true","false","[]","[]","[]","[{""event"":""fullscreenenter"",""trial"":3,""time"":41463}]","false","","","","","","","","","","","","","","","","",""
"fullscreen","3","42427","0.0-3.0","","","true","","","","","","","","","","","","","","","","","","","","","","",""
"audio-keyboard-response","4","44810","0.0-4.0-0.0","","","","","","","","","","2352.0000000000036","audio/beep_loop.wav"," ","","","","","","","","","","","","","",""
"audio-test","5","46425","0.0-4.0-1.0","","","","","","","","","","null","audio/turtle.mp3","","3","","","","","","","","","","","","",""
"audio-test","6","48559","0.0-4.0-2.0","","","","","","","","","","null","audio/shark.mp3","","2","","","","","","","","","","","","",""
"sailing-instructions","7","82359","0.0-5.0-0.0-0.0","","","","","","","","","","","","","","null","null","null","null","null","null","","","","","","",""
"sailing-trial","8","85713","0.0-5.0-0.0-1.0-0.0","","","","false","","","","","","","","","","2233.8000000044703","","null","","null","null","arrowleft","0","null","null","","",""
"sailing-trial","9","88012","0.0-5.0-0.0-1.0-1.0","","","","false","","","","","","","","","","1195.9000000059605","","null","","null","null","arrowright","1","null","null","","",""
"sailing-trial","10","90997","0.0-5.0-0.0-1.0-2.0","","","","false","","","","","","","","","","1861.0999999940395","","null","","null","null","arrowleft","0","null","null","","",""
"sailing-instructions","11","132472","0.0-5.0-0.0-2.0","","","","","","","","","","","","","","null","null","null","null","0","null","","","","","","",""
"sailing-trial","12","138112","0.0-5.0-0.0-3.0-0.0","","","","false","","","","","","","","","","null","","2169.9000000059605","","2","1","null","null","arrowleft","[1,1,1,1]","","",""
"sailing-trial","13","141728","0.0-5.0-0.0-3.0-1.0","","","","false","","","","","","","","","","null","","903.1000000014901","","3","1","null","null","arrowright","[1,1,1,1]","","",""
"sailing-trial","14","146152","0.0-5.0-0.0-3.0-2.0","","","","false","","","","","","","","","","null","","1303.7999999970198","","2","0","null","null","arrowleft","[0,0,0,0]","","",""
"sailing-instructions","15","153500","0.0-5.0-0.0-4.0","","","","","","","","","","","","","","null","null","null","null","null","null","","","","","","",""
"sailing-comprehension","16","172147","0.0-5.0-0.0-5.0","","","","","","","","","","16989.5","","","","","","","","","","","","","","[""true"",""true"",""false"",""true""]","0",""
"sailing-instructions","17","232966","0.0-6.0-0.0-0.0","","","","","","","","","","","","","","null","null","null","null","null","null","","","","","","",""
"sailing-comprehension","18","247578","0.0-6.0-0.0-1.0","","","","","","","","","","13637.90000000596","","","","","","","","","","","","","","[""true"",""false"",""true""]","0",""
"sailing-instructions","19","260726","0.0-7.0-0.0-0.0","","","","","","","","","","","","","","null","null","null","null","null","null","","","","","","",""
"sailing-trial","20","267142","0.0-7.0-0.0-1.0-0.0","","","","false","","","","","","","","","","null","","3930.1999999955297","","0","0","null","null","arrowup","[0.2,0.8,0.2,0.8]","","",""
"sailing-trial","21","271124","0.0-7.0-0.0-1.0-1.0","","","","false","","","","","","","","","","null","","1730","","1","1","null","null","arrowup","[0.2,0.8,0.2,0.8]","","",""
"sailing-trial","22","274959","0.0-7.0-0.0-1.0-2.0","","","","false","","","","","","","","","","null","","1749.3999999985099","","2","0","null","null","arrowup","[0.2,0.8,0.2,0.8]","","",""
"sailing-trial","23","279958","0.0-7.0-0.0-1.0-3.0","","","","false","","","","","","","","","","null","","3104.89999999851","","3","1","null","null","arrowup","[0.2,0.8,0.2,0.8]","","",""
"sailing-comprehension","24","285669","0.0-7.0-0.0-2.0","","","","","","","","","","4728.80000000447","","","","","","","","","","","","","","[""false""]","0",""
"sailing-instructions","25","295725","0.0-8.0-0.0-0.0","","","","","","","","","","","","","","null","null","null","null","null","null","","","","","","",""
"sailing-comprehension","26","299820","0.0-8.0-0.0-1.0","","","","","","","","","","3245","","","","","","","","","","","","","","[""true""]","0",""
"sailing-instructions","27","322603","0.0-9.0-0.0-0.0","","","","","","","","","","","","","","null","null","null","null","null","null","","","","","","",""
"sailing-trial","28","326743","0.0-9.0-0.0-1.0-0.0","","","","false","","","","","","","","","","868.6999999955297","","31.400000005960464","","3","0","arrowright","1","arrowright","[0.2,0.8,0.2,0.8]","","",""
"sailing-trial","29","331309","0.0-9.0-0.0-1.0-1.0","","","","false","","","","","","","","","","1103.6000000014901","","19.100000001490116","","2","0","arrowright","1","arrowleft","[0.2,0.8,0.2,0.8]","","",""
"sailing-trial","30","334740","0.0-9.0-0.0-1.0-2.0","","","","false","","","","","","","","","","null","","1375.5","","0","1","null","null","arrowup","[0.2,0.8,0.2,0.8]","","",""
"sailing-trial","31","339041","0.0-9.0-0.0-1.0-3.0","","","","false","","","","","","","","","","909.4000000059605","","406.1000000014901","","0","1","arrowleft","0","arrowleft","[0.2,0.8,0.2,0.8]","","",""
"sailing-trial","32","342124","0.0-9.0-0.0-1.0-4.0","","","","false","","","","","","","","","","null","","1221.5","","3","1","null","null","arrowup","[0.2,0.8,0.2,0.8]","","",""
"sailing-trial","33","346240","0.0-9.0-0.0-1.0-5.0","","","","false","","","","","","","","","","976.7000000029802","","32","","1","1","arrowleft","0","arrowright","[0.2,0.8,0.2,0.8]","","",""
"sailing-instructions","34","370386","0.0-10.0","","","","","","","","","","","","","","null","null","null","null","null","null","","","","","","",""
"sailing-trial","35","375172","0.0-11.0-0.0","","","","false","","","","","","","","","","720.1000000014901","","297.80000000447035","","3","1","arrowright","1","arrowright","[0.675,0.325,0.15,0.85]","","",""
"sailing-trial","36","378138","0.0-11.0-1.0","","","","false","","","","","","","","","","null","","1046.5","","0","0","null","null","arrowup","[0.675,0.325,0.15,0.85]","","",""
"sailing-trial","37","382823","0.0-11.0-2.0","","","","false","","","","","","","","","","915.2000000029802","","305.8999999985099","","2","0","arrowright","1","arrowleft","[0.675,0.325,0.15,0.85]","","",""
"sailing-trial","38","387222","0.0-11.0-3.0","","","","false","","","","","","","","","","null","","1156.1999999955297","","3","1","null","null","arrowup","[0.675,0.325,0.15,0.85]","","",""
"sailing-trial","39","392290","0.0-11.0-4.0","","","","false","","","","","","","","","","1713.5","","380.1000000014901","","3","1","arrowright","1","arrowright","[0.675,0.325,0.15,0.85]","","",""
"sailing-trial","40","397040","0.0-11.0-5.0","","","","false","","","","","","","","","","null","","1141.7999999970198","","0","1","null","null","arrowup","[0.675,0.325,0.15,0.85]","","",""
"sailing-trial","41","400972","0.0-11.0-6.0","","","","false","","","","","","","","","","618.6000000014901","","328.8999999985099","","0","1","arrowleft","0","arrowleft","[0.675,0.325,0.15,0.85]","","",""
"sailing-trial","42","404371","0.0-11.0-7.0","","","","false","","","","","","","","","","null","","938.6000000014901","","1","0","null","null","arrowup","[0.675,0.325,0.15,0.85]","","",""
"sailing-trial","43","407754","0.0-11.0-8.0","","","","false","","","","","","","","","","1009.1000000014901","","62.600000001490116","","0","0","arrowleft","0","arrowleft","[0.675,0.325,0.15,0.85]","","",""
"sailing-trial","44","411334","0.0-11.0-9.0","","","","false","","","","","","","","","","null","","1126.6000000014901","","1","0","null","null","arrowup","[0.675,0.325,0.15,0.85]","","",""
"sailing-trial","45","415090","0.0-11.0-10.0","","","","false","","","","","","","","","","667","","14.100000001490116","","3","1","arrowright","1","arrowright","[0.675,0.325,0.15,0.85]","","",""
"sailing-trial","46","418139","0.0-11.0-11.0","","","","false","","","","","","","","","","null","","976.7999999970198","","2","1","null","null","arrowup","[0.675,0.325,0.15,0.85]","","",""
"sailing-trial","47","422167","0.0-11.0-12.0","","","","false","","","","","","","","","","527.1000000014901","","254.30000000447035","","2","0","arrowright","1","arrowleft","[0.675,0.325,0.15,0.85]","","",""
"sailing-trial","48","425871","0.0-11.0-13.0","","","","false","","","","","","","","","","null","","869.8999999985099","","2","0","null","null","arrowup","[0.675,0.325,0.15,0.85]","","",""
"sailing-trial","49","430125","0.0-11.0-14.0","","","","false","","","","","","","","","","861.7000000029802","","40.100000001490116","","3","0","arrowright","1","arrowright","[0.675,0.325,0.15,0.85]","","",""
"sailing-trial","50","433454","0.0-11.0-15.0","","","","false","","","","","","","","","","null","","926.8999999985099","","3","0","null","null","arrowup","[0.675,0.325,0.15,0.85]","","",""
"sailing-trial","51","438138","0.0-11.0-16.0","","","","false","","","","","","","","","","600.7000000029802","","996.5","","0","1","arrowleft","0","arrowleft","[0.675,0.325,0.15,0.85]","","",""
"sailing-trial","52","440988","0.0-11.0-17.0","","","","false","","","","","","","","","","null","","949.7999999970198","","0","1","null","null","arrowup","[0.675,0.325,0.15,0.85]","","",""
"sailing-trial","53","444806","0.0-11.0-18.0","","","","false","","","","","","","","","","613.1999999955297","","313.3999999985099","","0","1","arrowleft","0","arrowleft","[0.675,0.325,0.15,0.85]","","",""
"sailing-trial","54","448024","0.0-11.0-19.0","","","","false","","","","","","","","","","null","","891.4000000059605","","1","0","null","null","arrowup","[0.675,0.325,0.15,0.85]","","",""
"sailing-trial","55","451572","0.0-11.0-20.0","","","","false","","","","","","","","","","499.6000000014901","","209.39999999850988","","0","1","arrowleft","0","arrowleft","[0.85,0.15,0.325,0.675]","","",""
"sailing-trial","56","454821","0.0-11.0-21.0","","","","false","","","","","","","","","","null","","977.7000000029802","","2","0","null","null","arrowup","[0.85,0.15,0.325,0.675]","","",""
"sailing-trial","57","460687","0.0-11.0-22.0","","","","false","","","","","","","","","","518.2000000029802","","1774.1000000014901","","0","1","arrowleft","0","arrowleft","[0.85,0.15,0.325,0.675]","","",""
"sailing-trial","58","464823","0.0-11.0-23.0","","","","false","","","","","","","","","","null","","1111.7999999970198","","2","0","null","null","arrowup","[0.85,0.15,0.325,0.675]","","",""
"sailing-trial","59","468955","0.0-11.0-24.0","","","","false","","","","","","","","","","1216","","124","","0","1","arrowleft","0","arrowleft","[0.85,0.15,0.325,0.675]","","",""
"sailing-trial","60","471921","0.0-11.0-25.0","","","","false","","","","","","","","","","null","","1137","","0","1","null","null","arrowup","[0.85,0.15,0.325,0.675]","","",""
"sailing-trial","61","476137","0.0-11.0-26.0","","","","false","","","","","","","","","","1247.1000000014901","","70.69999999552965","","0","1","arrowleft","0","arrowleft","[0.85,0.15,0.325,0.675]","","",""
"sailing-trial","62","480090","0.0-11.0-27.0","","","","false","","","","","","","","","","null","","961.2999999970198","","1","0","null","null","arrowup","[0.85,0.15,0.325,0.675]","","",""
"sailing-trial","63","485217","0.0-11.0-28.0","","","","false","","","","","","","","","","1620.3000000044703","","72.60000000149012","","0","0","arrowleft","0","arrowleft","[0.85,0.15,0.325,0.675]","","",""
"sailing-trial","64","488618","0.0-11.0-29.0","","","","false","","","","","","","","","","null","","987.5","","3","0","null","null","arrowup","[0.85,0.15,0.325,0.675]","","",""
"sailing-trial","65","492003","0.0-11.0-30.0","","","","false","","","","","","","","","","451.09999999403954","","3.100000001490116","","0","1","arrowleft","0","arrowleft","[0.85,0.15,0.325,0.675]","","",""
"sailing-trial","66","495794","0.0-11.0-31.0","","","","false","","","","","","","","","","null","","943.9000000059605","","1","0","null","null","arrowup","[0.85,0.15,0.325,0.675]","","",""
"sailing-trial","67","501120","0.0-11.0-32.0","","","","false","","","","","","","","","","543.7000000029802","","1140.7999999970198","","0","0","arrowleft","0","arrowleft","[0.85,0.15,0.325,0.675]","","",""
"sailing-trial","68","504171","0.0-11.0-33.0","","","","false","","","","","","","","","","null","","998.7000000029802","","3","0","null","null","arrowup","[0.85,0.15,0.325,0.675]","","",""
"sailing-trial","69","509353","0.0-11.0-34.0","","","","false","","","","","","","","","","2217.2000000029802","","24.100000001490116","","0","1","arrowleft","0","arrowleft","[0.85,0.15,0.325,0.675]","","",""
"sailing-trial","70","513032","0.0-11.0-35.0","","","","false","","","","","","","","","","null","","963.5","","2","0","null","null","arrowup","[0.85,0.15,0.325,0.675]","","",""
"sailing-trial","71","516982","0.0-11.0-36.0","","","","false","","","","","","","","","","491.5","","18.700000002980232","","0","0","arrowleft","0","arrowleft","[0.675,0.325,0.15,0.85]","","",""
"sailing-trial","72","519504","0.0-11.0-37.0","","","","false","","","","","","","","","","null","","651.7000000029802","","3","1","null","null","arrowup","[0.675,0.325,0.15,0.85]","","",""
"sailing-trial","73","524586","0.0-11.0-38.0","","","","false","","","","","","","","","","740.7000000029802","","1351.7000000029802","","3","1","arrowright","1","arrowright","[0.675,0.325,0.15,0.85]","","",""
"sailing-trial","74","527166","0.0-11.0-39.0","","","","false","","","","","","","","","","null","","688.7000000029802","","2","0","null","null","arrowup","[0.675,0.325,0.15,0.85]","","",""
"sailing-trial","75","530903","0.0-11.0-40.0","","","","false","","","","","","","","","","544.2999999970198","","376.8999999985099","","3","1","arrowright","1","arrowright","[0.675,0.325,0.15,0.85]","","",""
"sailing-trial","76","533603","0.0-11.0-41.0","","","","false","","","","","","","","","","null","","867.3000000044703","","3","1","null","null","arrowup","[0.675,0.325,0.15,0.85]","","",""
"sailing-trial","77","537862","0.0-11.0-42.0","","","","false","","","","","","","","","","494.79999999701977","","529.6999999955297","","3","0","arrowright","1","arrowright","[0.675,0.325,0.15,0.85]","","",""
"sailing-trial","78","541503","0.0-11.0-43.0","","","","false","","","","","","","","","","null","","988.5999999940395","","1","0","null","null","arrowup","[0.675,0.325,0.15,0.85]","","",""
"sailing-trial","79","546567","0.0-11.0-44.0","","","","false","","","","","","","","","","713.8999999985099","","686.1999999955297","","3","0","arrowright","1","arrowright","[0.675,0.325,0.15,0.85]","","",""
"sailing-trial","80","550503","0.0-11.0-45.0","","","","false","","","","","","","","","","null","","2072.5","","1","1","null","null","arrowup","[0.675,0.325,0.15,0.85]","","",""
"sailing-trial","81","554378","0.0-11.0-46.0","","","","false","","","","","","","","","","561","","117.79999999701977","","1","0","arrowleft","0","arrowright","[0.675,0.325,0.15,0.85]","","",""
"sailing-trial","82","557363","0.0-11.0-47.0","","","","false","","","","","","","","","","null","","978.2000000029802","","2","0","null","null","arrowup","[0.675,0.325,0.15,0.85]","","",""
"sailing-trial","83","560869","0.0-11.0-48.0","","","","false","","","","","","","","","","462.90000000596046","","224.60000000149012","","0","1","arrowleft","0","arrowleft","[0.675,0.325,0.15,0.85]","","",""
"sailing-trial","84","563166","0.0-11.0-49.0","","","","false","","","","","","","","","","null","","1010.2000000029802","","2","0","null","null","arrowup","[0.675,0.325,0.15,0.85]","","",""
"sailing-trial","85","565835","0.0-11.0-50.0","","","","false","","","","","","","","","","450.09999999403954","","36.70000000298023","","0","0","arrowleft","0","arrowleft","[0.675,0.325,0.15,0.85]","","",""
"sailing-trial","86","568735","0.0-11.0-51.0","","","","false","","","","","","","","","","null","","1270.5","","3","1","null","null","arrowup","[0.675,0.325,0.15,0.85]","","",""
"sailing-trial","87","573295","0.0-11.0-52.0","","","","false","","","","","","","","","","566.3999999985099","","649.2999999970198","","3","0","arrowright","1","arrowright","[0.675,0.325,0.15,0.85]","","",""
"sailing-trial","88","576478","0.0-11.0-53.0","","","","false","","","","","","","","","","null","","931.1999999955297","","1","0","null","null","arrowup","[0.675,0.325,0.15,0.85]","","",""
"sailing-trial","89","580606","0.0-11.0-54.0","","","","false","","","","","","","","","","499.8999999985099","","368.79999999701977","","3","0","arrowright","1","arrowright","[0.85,0.15,0.325,0.675]","","",""
"sailing-trial","90","583086","0.0-11.0-55.0","","","","false","","","","","","","","","","null","","560.7999999970198","","2","1","null","null","arrowup","[0.85,0.15,0.325,0.675]","","",""
"sailing-trial","91","586918","0.0-11.0-56.0","","","","false","","","","","","","","","","622.7999999970198","","339.3999999985099","","0","1","arrowleft","0","arrowleft","[0.85,0.15,0.325,0.675]","","",""
"sailing-trial","92","590831","0.0-11.0-57.0","","","","false","","","","","","","","","","null","","1567.8999999985099","","1","0","null","null","arrowup","[0.85,0.15,0.325,0.675]","","",""
"sailing-trial","93","594701","0.0-11.0-58.0","","","","false","","","","","","","","","","460.8999999985099","","561.1999999955297","","0","1","arrowleft","0","arrowleft","[0.85,0.15,0.325,0.675]","","",""
"sailing-trial","94","597162","0.0-11.0-59.0","","","","false","","","","","","","","","","null","","1173.8000000044703","","1","0","null","null","arrowup","[0.85,0.15,0.325,0.675]","","",""
"sailing-trial","95","604736","0.0-11.0-60.0","","","","false","","","","","","","","","","3290.0999999940395","","241.39999999850988","","0","0","arrowleft","0","arrowleft","[0.85,0.15,0.325,0.675]","","",""
"sailing-trial","96","607502","0.0-11.0-61.0","","","","false","","","","","","","","","","null","","809.7999999970198","","1","1","null","null","arrowup","[0.85,0.15,0.325,0.675]","","",""
"sailing-trial","97","611305","0.0-11.0-62.0","","","","false","","","","","","","","","","886.3000000044703","","654.3000000044703","","3","0","arrowright","1","arrowright","[0.85,0.15,0.325,0.675]","","",""
"sailing-trial","98","614135","0.0-11.0-63.0","","","","false","","","","","","","","","","null","","1004.6000000014901","","3","1","null","null","arrowup","[0.85,0.15,0.325,0.675]","","",""
"sailing-trial","99","618869","0.0-11.0-64.0","","","","false","","","","","","","","","","1680.1000000014901","","307.20000000298023","","3","1","arrowright","1","arrowright","[0.85,0.15,0.325,0.675]","","",""
"sailing-trial","100","620946","0.0-11.0-65.0","","","","false","","","","","","","","","","null","","758","","2","0","null","null","arrowup","[0.85,0.15,0.325,0.675]","","",""
"sailing-trial","101","624819","0.0-11.0-66.0","","","","false","","","","","","","","","","786.2999999970198","","334.8999999985099","","3","1","arrowright","1","arrowright","[0.85,0.15,0.325,0.675]","","",""
"sailing-trial","102","628383","0.0-11.0-67.0","","","","false","","","","","","","","","","null","","1266.8999999985099","","2","0","null","null","arrowup","[0.85,0.15,0.325,0.675]","","",""
"sailing-trial","103","631736","0.0-11.0-68.0","","","","false","","","","","","","","","","498.69999999552965","","44.100000001490116","","3","1","arrowright","1","arrowright","[0.85,0.15,0.325,0.675]","","",""
"sailing-trial","104","634937","0.0-11.0-69.0","","","","false","","","","","","","","","","null","","907.3999999985099","","2","0","null","null","arrowup","[0.85,0.15,0.325,0.675]","","",""
"sailing-trial","105","638946","0.0-11.0-70.0","","","","false","","","","","","","","","","570.2999999970198","","310.30000000447035","","3","0","arrowright","1","arrowright","[0.85,0.15,0.325,0.675]","","",""
"sailing-trial","106","641717","0.0-11.0-71.0","","","","false","","","","","","","","","","null","","991.7999999970198","","3","1","null","null","arrowup","[0.85,0.15,0.325,0.675]","","",""
"sailing-trial","107","647042","0.0-11.0-72.0","","","","false","","","","","","","","","","1668.1000000014901","","232.90000000596046","","3","0","arrowright","1","arrowright","[0.15,0.85,0.675,0.325]","","",""
"sailing-trial","108","649450","0.0-11.0-73.0","","","","false","","","","","","","","","","null","","664.8999999985099","","0","0","null","null","arrowup","[0.15,0.85,0.675,0.325]","","",""
"sailing-trial","109","653054","0.0-11.0-74.0","","","","false","","","","","","","","","","486.19999999552965","","100.20000000298023","","3","0","arrowright","1","arrowright","[0.15,0.85,0.675,0.325]","","",""
"sailing-trial","110","655900","0.0-11.0-75.0","","","","false","","","","","","","","","","null","","1083.5","","2","1","null","null","arrowup","[0.15,0.85,0.675,0.325]","","",""
"sailing-trial","111","659867","0.0-11.0-76.0","","","","false","","","","","","","","","","675.3999999985099","","102.20000000298023","","0","0","arrowleft","0","arrowleft","[0.15,0.85,0.675,0.325]","","",""
"sailing-trial","112","662735","0.0-11.0-77.0","","","","false","","","","","","","","","","null","","1083.8999999985099","","2","1","null","null","arrowup","[0.15,0.85,0.675,0.325]","","",""
"sailing-trial","113","666184","0.0-11.0-78.0","","","","false","","","","","","","","","","543.7000000029802","","65.5","","2","1","arrowright","1","arrowleft","[0.15,0.85,0.675,0.325]","","",""
"sailing-trial","114","669158","0.0-11.0-79.0","","","","false","","","","","","","","","","null","","948.5","","0","0","null","null","arrowup","[0.15,0.85,0.675,0.325]","","",""
"sailing-trial","115","673317","0.0-11.0-80.0","","","","false","","","","","","","","","","505.20000000298023","","665.2000000029802","","2","1","arrowright","1","arrowleft","[0.15,0.85,0.675,0.325]","","",""
"sailing-trial","116","676459","0.0-11.0-81.0","","","","false","","","","","","","","","","null","","1886.5","","3","0","null","null","arrowup","[0.15,0.85,0.675,0.325]","","",""
"sailing-trial","117","679901","0.0-11.0-82.0","","","","false","","","","","","","","","","523.2000000029802","","210.29999999701977","","2","1","arrowright","1","arrowleft","[0.15,0.85,0.675,0.325]","","",""
"sailing-trial","118","682035","0.0-11.0-83.0","","","","false","","","","","","","","","","null","","880.3000000044703","","2","0","null","null","arrowup","[0.15,0.85,0.675,0.325]","","",""
"sailing-trial","119","685616","0.0-11.0-84.0","","","","false","","","","","","","","","","478.69999999552965","","224.79999999701977","","2","1","arrowright","1","arrowleft","[0.15,0.85,0.675,0.325]","","",""
"sailing-trial","120","688659","0.0-11.0-85.0","","","","false","","","","","","","","","","null","","943.7000000029802","","3","0","null","null","arrowup","[0.15,0.85,0.675,0.325]","","",""
"sailing-trial","121","691591","0.0-11.0-86.0","","","","false","","","","","","","","","","625","","28.69999999552965","","2","0","arrowright","1","arrowleft","[0.15,0.85,0.675,0.325]","","",""
"sailing-trial","122","695196","0.0-11.0-87.0","","","","false","","","","","","","","","","null","","1609","","1","0","null","null","arrowup","[0.15,0.85,0.675,0.325]","","",""
"sailing-trial","123","699075","0.0-11.0-88.0","","","","false","","","","","","","","","","648.1000000014901","","281.70000000298023","","0","0","arrowleft","0","arrowleft","[0.325,0.675,0.85,0.15]","","",""
"sailing-trial","124","701484","0.0-11.0-89.0","","","","false","","","","","","","","","","null","","638.0999999940395","","2","1","null","null","arrowup","[0.325,0.675,0.85,0.15]","","",""
"sailing-trial","125","704767","0.0-11.0-90.0","","","","false","","","","","","","","","","441.6000000014901","","67.5","","2","1","arrowright","1","arrowleft","[0.325,0.675,0.85,0.15]","","",""
"sailing-trial","126","707484","0.0-11.0-91.0","","","","false","","","","","","","","","","null","","911.8999999985099","","2","1","null","null","arrowup","[0.325,0.675,0.85,0.15]","","",""
"sailing-trial","127","711199","0.0-11.0-92.0","","","","false","","","","","","","","","","519","","13.899999998509884","","2","1","arrowright","1","arrowleft","[0.325,0.675,0.85,0.15]","","",""
"sailing-trial","128","714017","0.0-11.0-93.0","","","","false","","","","","","","","","","null","","895.5","","0","1","null","null","arrowup","[0.325,0.675,0.85,0.15]","","",""
"sailing-trial","129","718772","0.0-11.0-94.0","","","","false","","","","","","","","","","526.8000000044703","","410.19999999552965","","0","0","arrowleft","0","arrowleft","[0.325,0.675,0.85,0.15]","","",""
"sailing-trial","130","721380","0.0-11.0-95.0","","","","false","","","","","","","","","","null","","809.4000000059605","","3","0","null","null","arrowup","[0.325,0.675,0.85,0.15]","","",""
"sailing-trial","131","725000","0.0-11.0-96.0","","","","false","","","","","","","","","","458.8999999985099","","406","","2","1","arrowright","1","arrowleft","[0.325,0.675,0.85,0.15]","","",""
"sailing-trial","132","727243","0.0-11.0-97.0","","","","false","","","","","","","","","","null","","964","","3","0","null","null","arrowup","[0.325,0.675,0.85,0.15]","","",""
"sailing-trial","133","730882","0.0-11.0-98.0","","","","false","","","","","","","","","","447","","29.299999997019768","","2","1","arrowright","1","arrowleft","[0.325,0.675,0.85,0.15]","","",""
"sailing-trial","134","734967","0.0-11.0-99.0","","","","false","","","","","","","","","","null","","2175.5","","0","1","null","null","arrowup","[0.325,0.675,0.85,0.15]","","",""
"sailing-trial","135","738087","0.0-11.0-100.0","","","","false","","","","","","","","","","470.30000000447035","","362.8999999985099","","2","0","arrowright","1","arrowleft","[0.325,0.675,0.85,0.15]","","",""
"sailing-trial","136","741236","0.0-11.0-101.0","","","","false","","","","","","","","","","null","","929.1999999955297","","0","0","null","null","arrowup","[0.325,0.675,0.85,0.15]","","",""
"sailing-trial","137","744756","0.0-11.0-102.0","","","","false","","","","","","","","","","456.5","","254.5","","2","0","arrowright","1","arrowleft","[0.325,0.675,0.85,0.15]","","",""
"sailing-trial","138","747720","0.0-11.0-103.0","","","","false","","","","","","","","","","null","","982.3999999985099","","0","0","null","null","arrowup","[0.325,0.675,0.85,0.15]","","",""
"sailing-trial","139","751534","0.0-11.0-104.0","","","","false","","","","","","","","","","458","","322.70000000298023","","1","0","arrowleft","0","arrowright","[0.325,0.675,0.85,0.15]","","",""
"sailing-trial","140","754914","0.0-11.0-105.0","","","","false","","","","","","","","","","null","","1421.5","","3","0","null","null","arrowup","[0.325,0.675,0.85,0.15]","","",""
"sailing-trial","141","758800","0.0-11.0-106.0","","","","false","","","","","","","","","","450.59999999403954","","252.70000000298023","","0","0","arrowleft","0","arrowleft","[0.15,0.85,0.675,0.325]","","",""
"sailing-trial","142","761899","0.0-11.0-107.0","","","","false","","","","","","","","","","null","","1165.6000000014901","","2","1","null","null","arrowup","[0.15,0.85,0.675,0.325]","","",""
"sailing-trial","143","765400","0.0-11.0-108.0","","","","false","","","","","","","","","","520.3999999985099","","32.30000000447035","","2","1","arrowright","1","arrowleft","[0.15,0.85,0.675,0.325]","","",""
"sailing-trial","144","768383","0.0-11.0-109.0","","","","false","","","","","","","","","","null","","965.7000000029802","","3","1","null","null","arrowup","[0.15,0.85,0.675,0.325]","","",""
"sailing-trial","145","771933","0.0-11.0-110.0","","","","false","","","","","","","","","","482","","225.20000000298023","","2","1","arrowright","1","arrowleft","[0.15,0.85,0.675,0.325]","","",""
"sailing-trial","146","775081","0.0-11.0-111.0","","","","false","","","","","","","","","","null","","1031.1000000014901","","3","0","null","null","arrowup","[0.15,0.85,0.675,0.325]","","",""
"sailing-trial","147","778168","0.0-11.0-112.0","","","","false","","","","","","","","","","540.3999999985099","","250.60000000149012","","2","0","arrowright","1","arrowleft","[0.15,0.85,0.675,0.325]","","",""
"sailing-trial","148","780798","0.0-11.0-113.0","","","","false","","","","","","","","","","null","","767.4000000059605","","0","0","null","null","arrowup","[0.15,0.85,0.675,0.325]","","",""
"sailing-trial","149","784645","0.0-11.0-114.0","","","","false","","","","","","","","","","917","","320.29999999701977","","2","0","arrowright","1","arrowleft","[0.15,0.85,0.675,0.325]","","",""
"sailing-trial","150","787149","0.0-11.0-115.0","","","","false","","","","","","","","","","null","","710.8999999985099","","3","1","null","null","arrowup","[0.15,0.85,0.675,0.325]","","",""
"sailing-trial","151","790681","0.0-11.0-116.0","","","","false","","","","","","","","","","527","","127.80000000447035","","3","1","arrowright","1","arrowright","[0.15,0.85,0.675,0.325]","","",""
"sailing-trial","152","793532","0.0-11.0-117.0","","","","false","","","","","","","","","","null","","931.6000000014901","","1","1","null","null","arrowup","[0.15,0.85,0.675,0.325]","","",""
"sailing-trial","153","797064","0.0-11.0-118.0","","","","false","","","","","","","","","","656.1999999955297","","80.10000000149012","","1","1","arrowleft","0","arrowright","[0.15,0.85,0.675,0.325]","","",""
"sailing-trial","154","799882","0.0-11.0-119.0","","","","false","","","","","","","","","","null","","931.8000000044703","","1","1","null","null","arrowup","[0.15,0.85,0.675,0.325]","","",""
"sailing-trial","155","803616","0.0-11.0-120.0","","","","false","","","","","","","","","","782.6000000014901","","164.89999999850988","","1","1","arrowleft","0","arrowright","[0.15,0.85,0.675,0.325]","","",""
"sailing-trial","156","805781","0.0-11.0-121.0","","","","false","","","","","","","","","","null","","997.1000000014901","","1","0","null","null","arrowup","[0.15,0.85,0.675,0.325]","","",""
"sailing-trial","157","809166","0.0-11.0-122.0","","","","false","","","","","","","","","","576.8999999985099","","136.60000000149012","","1","1","arrowleft","0","arrowright","[0.15,0.85,0.675,0.325]","","",""
"sailing-trial","158","812079","0.0-11.0-123.0","","","","false","","","","","","","","","","null","","948.7000000029802","","3","0","null","null","arrowup","[0.15,0.85,0.675,0.325]","","",""
"sailing-trial","159","815615","0.0-11.0-124.0","","","","false","","","","","","","","","","487.69999999552965","","235","","1","1","arrowleft","0","arrowright","[0.15,0.85,0.675,0.325]","","",""
"sailing-trial","160","818749","0.0-11.0-125.0","","","","false","","","","","","","","","","null","","1170.7000000029802","","2","1","null","null","arrowup","[0.15,0.85,0.675,0.325]","","",""
"sailing-trial","161","823032","0.0-11.0-126.0","","","","false","","","","","","","","","","466.70000000298023","","570","","1","1","arrowleft","0","arrowright","[0.675,0.325,0.15,0.85]","","",""
"sailing-trial","162","826332","0.0-11.0-127.0","","","","false","","","","","","","","","","null","","1012.2000000029802","","0","1","null","null","arrowup","[0.675,0.325,0.15,0.85]","","",""
"sailing-trial","163","829915","0.0-11.0-128.0","","","","false","","","","","","","","","","561.7999999970198","","163.70000000298023","","3","1","arrowright","1","arrowright","[0.675,0.325,0.15,0.85]","","",""
"sailing-trial","164","832664","0.0-11.0-129.0","","","","false","","","","","","","","","","null","","853.6000000014901","","1","1","null","null","arrowup","[0.675,0.325,0.15,0.85]","","",""
"sailing-trial","165","836482","0.0-11.0-130.0","","","","false","","","","","","","","","","565","","354.09999999403954","","3","1","arrowright","1","arrowright","[0.675,0.325,0.15,0.85]","","",""
"sailing-trial","166","839315","0.0-11.0-131.0","","","","false","","","","","","","","","","null","","998.3999999985099","","3","1","null","null","arrowup","[0.675,0.325,0.15,0.85]","","",""
"sailing-trial","167","842697","0.0-11.0-132.0","","","","false","","","","","","","","","","613.3999999985099","","3.5","","3","1","arrowright","1","arrowright","[0.675,0.325,0.15,0.85]","","",""
"sailing-trial","168","846880","0.0-11.0-133.0","","","","false","","","","","","","","","","null","","2430.39999999851","","3","1","null","null","arrowup","[0.675,0.325,0.15,0.85]","","",""
"sailing-trial","169","850780","0.0-11.0-134.0","","","","false","","","","","","","","","","975.5","","285.6000000014901","","3","1","arrowright","1","arrowright","[0.675,0.325,0.15,0.85]","","",""
"sailing-trial","170","853695","0.0-11.0-135.0","","","","false","","","","","","","","","","null","","1045.3999999985099","","2","0","null","null","arrowup","[0.675,0.325,0.15,0.85]","","",""
"sailing-trial","171","857363","0.0-11.0-136.0","","","","false","","","","","","","","","","489.30000000447035","","310.79999999701977","","3","1","arrowright","1","arrowright","[0.675,0.325,0.15,0.85]","","",""
"sailing-trial","172","860111","0.0-11.0-137.0","","","","false","","","","","","","","","","null","","929.3000000044703","","2","0","null","null","arrowup","[0.675,0.325,0.15,0.85]","","",""
"sailing-trial","173","863613","0.0-11.0-138.0","","","","false","","","","","","","","","","502.09999999403954","","224.5","","3","1","arrowright","1","arrowright","[0.675,0.325,0.15,0.85]","","",""
"sailing-trial","174","866230","0.0-11.0-139.0","","","","false","","","","","","","","","","null","","844.3999999985099","","0","1","null","null","arrowup","[0.675,0.325,0.15,0.85]","","",""
"sailing-trial","175","869780","0.0-11.0-140.0","","","","false","","","","","","","","","","465.29999999701977","","315.8999999985099","","3","1","arrowright","1","arrowright","[0.675,0.325,0.15,0.85]","","",""
"sailing-trial","176","873064","0.0-11.0-141.0","","","","false","","","","","","","","","","null","","1518.5","","3","1","null","null","arrowup","[0.675,0.325,0.15,0.85]","","",""
"sailing-trial","177","876544","0.0-11.0-142.0","","","","false","","","","","","","","","","463.20000000298023","","229.89999999850988","","3","0","arrowright","1","arrowright","[0.675,0.325,0.15,0.85]","","",""
"sailing-trial","178","879546","0.0-11.0-143.0","","","","false","","","","","","","","","","null","","1219.5","","0","1","null","null","arrowup","[0.675,0.325,0.15,0.85]","","",""
"sailing-trial","179","882863","0.0-11.0-144.0","","","","false","","","","","","","","","","506.8999999985099","","70.59999999403954","","0","1","arrowleft","0","arrowleft","[0.675,0.325,0.15,0.85]","","",""
"sailing-trial","180","885603","0.0-11.0-145.0","","","","false","","","","","","","","","","null","","964.4000000059605","","1","0","null","null","arrowup","[0.675,0.325,0.15,0.85]","","",""
"sailing-trial","181","889030","0.0-11.0-146.0","","","","false","","","","","","","","","","466.79999999701977","","300.8999999985099","","0","1","arrowleft","0","arrowleft","[0.675,0.325,0.15,0.85]","","",""
"sailing-trial","182","892046","0.0-11.0-147.0","","","","false","","","","","","","","","","null","","1213.2999999970198","","2","1","null","null","arrowup","[0.675,0.325,0.15,0.85]","","",""
"sailing-trial","183","895197","0.0-11.0-148.0","","","","false","","","","","","","","","","516.7999999970198","","14.5","","0","1","arrowleft","0","arrowleft","[0.85,0.15,0.325,0.675]","","",""
"sailing-trial","184","897975","0.0-11.0-149.0","","","","false","","","","","","","","","","null","","992.6000000014901","","1","0","null","null","arrowup","[0.85,0.15,0.325,0.675]","","",""
"sailing-trial","185","901513","0.0-11.0-150.0","","","","false","","","","","","","","","","420.5","","197.30000000447035","","0","1","arrowleft","0","arrowleft","[0.85,0.15,0.325,0.675]","","",""
"sailing-trial","186","904128","0.0-11.0-151.0","","","","false","","","","","","","","","","null","","936.3999999985099","","1","0","null","null","arrowup","[0.85,0.15,0.325,0.675]","","",""
"sailing-trial","187","907762","0.0-11.0-152.0","","","","false","","","","","","","","","","513.7999999970198","","278.6000000014901","","0","1","arrowleft","0","arrowleft","[0.85,0.15,0.325,0.675]","","",""
"sailing-trial","188","911729","0.0-11.0-153.0","","","","false","","","","","","","","","","null","","1782.5","","2","1","null","null","arrowup","[0.85,0.15,0.325,0.675]","","",""
"sailing-trial","189","916229","0.0-11.0-154.0","","","","false","","","","","","","","","","794.1000000014901","","813.5","","0","1","arrowleft","0","arrowleft","[0.85,0.15,0.325,0.675]","","",""
"sailing-trial","190","919230","0.0-11.0-155.0","","","","false","","","","","","","","","","null","","864.1000000014901","","0","1","null","null","arrowup","[0.85,0.15,0.325,0.675]","","",""
"sailing-trial","191","924980","0.0-11.0-156.0","","","","false","","","","","","","","","","1866.5","","655.6000000014901","","0","1","arrowleft","0","arrowleft","[0.85,0.15,0.325,0.675]","","",""
"sailing-trial","192","928160","0.0-11.0-157.0","","","","false","","","","","","","","","","null","","1215","","0","0","null","null","arrowup","[0.85,0.15,0.325,0.675]","","",""
"sailing-trial","193","931612","0.0-11.0-158.0","","","","false","","","","","","","","","","425","","259.29999999701977","","0","1","arrowleft","0","arrowleft","[0.85,0.15,0.325,0.675]","","",""
"sailing-trial","194","934513","0.0-11.0-159.0","","","","false","","","","","","","","","","null","","1114.3999999985099","","3","1","null","null","arrowup","[0.85,0.15,0.325,0.675]","","",""
"sailing-trial","195","937830","0.0-11.0-160.0","","","","false","","","","","","","","","","493.3999999985099","","68","","3","1","arrowright","1","arrowright","[0.85,0.15,0.325,0.675]","","",""
"sailing-trial","196","940462","0.0-11.0-161.0","","","","false","","","","","","","","","","null","","913.3000000044703","","2","1","null","null","arrowup","[0.85,0.15,0.325,0.675]","","",""
"sailing-trial","197","943829","0.0-11.0-162.0","","","","false","","","","","","","","","","470.5","","63.20000000298023","","2","1","arrowright","1","arrowleft","[0.85,0.15,0.325,0.675]","","",""
"sailing-trial","198","946519","0.0-11.0-163.0","","","","false","","","","","","","","","","null","","1137.7000000029802","","3","0","null","null","arrowup","[0.85,0.15,0.325,0.675]","","",""
"sailing-trial","199","949780","0.0-11.0-164.0","","","","false","","","","","","","","","","586.5","","52.80000000447035","","2","1","arrowright","1","arrowleft","[0.85,0.15,0.325,0.675]","","",""
"sailing-trial","200","952563","0.0-11.0-165.0","","","","false","","","","","","","","","","null","","967.7999999970198","","3","1","null","null","arrowup","[0.85,0.15,0.325,0.675]","","",""
"sailing-trial","201","956646","0.0-11.0-166.0","","","","false","","","","","","","","","","649.8999999985099","","722","","2","1","arrowright","1","arrowleft","[0.85,0.15,0.325,0.675]","","",""
"sailing-trial","202","958790","0.0-11.0-167.0","","","","false","","","","","","","","","","null","","936.5","","2","0","null","null","arrowup","[0.85,0.15,0.325,0.675]","","",""
"sailing-trial","203","961792","0.0-11.0-168.0","","","","false","","","","","","","","","","521.5","","217.80000000447035","","3","0","arrowright","1","arrowright","[0.85,0.15,0.325,0.675]","","",""
"sailing-trial","204","964241","0.0-11.0-169.0","","","","false","","","","","","","","","","null","","929.3999999985099","","1","0","null","null","arrowup","[0.85,0.15,0.325,0.675]","","",""
"sailing-trial","205","967668","0.0-11.0-170.0","","","","false","","","","","","","","","","448.79999999701977","","346","","0","0","arrowleft","0","arrowleft","[0.85,0.15,0.325,0.675]","","",""
"sailing-trial","206","970344","0.0-11.0-171.0","","","","false","","","","","","","","","","null","","754.6000000014901","","0","1","null","null","arrowup","[0.85,0.15,0.325,0.675]","","",""
"sailing-trial","207","973227","0.0-11.0-172.0","","","","false","","","","","","","","","","406.29999999701977","","60.30000000447035","","0","0","arrowleft","0","arrowleft","[0.675,0.325,0.15,0.85]","","",""
"sailing-trial","208","982094","0.0-11.0-173.0","","","","false","","","","","","","","","","null","","6853.70000000298","","3","1","null","null","arrowup","[0.675,0.325,0.15,0.85]","","",""
"sailing-trial","209","985811","0.0-11.0-174.0","","","","false","","","","","","","","","","516.2000000029802","","420.70000000298023","","3","1","arrowright","1","arrowright","[0.675,0.325,0.15,0.85]","","",""
"sailing-trial","210","988692","0.0-11.0-175.0","","","","false","","","","","","","","","","null","","1417.5","","0","0","null","null","arrowup","[0.675,0.325,0.15,0.85]","","",""
"sailing-trial","211","992434","0.0-11.0-176.0","","","","false","","","","","","","","","","647.7999999970198","","55.79999999701977","","3","0","arrowright","1","arrowright","[0.675,0.325,0.15,0.85]","","",""
"sailing-trial","212","995145","0.0-11.0-177.0","","","","false","","","","","","","","","","null","","914.3999999985099","","3","1","null","null","arrowup","[0.675,0.325,0.15,0.85]","","",""
"sailing-trial","213","998795","0.0-11.0-178.0","","","","false","","","","","","","","","","719.1000000014901","","107","","3","1","arrowright","1","arrowright","[0.675,0.325,0.15,0.85]","","",""
"sailing-trial","214","1001561","0.0-11.0-179.0","","","","false","","","","","","","","","","null","","956.8000000044703","","0","1","null","null","arrowup","[0.675,0.325,0.15,0.85]","","",""
"sailing-trial","215","1005045","0.0-11.0-180.0","","","","false","","","","","","","","","","427.70000000298023","","286.29999999701977","","0","1","arrowleft","0","arrowleft","[0.675,0.325,0.15,0.85]","","",""
"sailing-trial","216","1007927","0.0-11.0-181.0","","","","false","","","","","","","","","","null","","1008","","0","0","null","null","arrowup","[0.675,0.325,0.15,0.85]","","",""
"sailing-trial","217","1011477","0.0-11.0-182.0","","","","false","","","","","","","","","","488.79999999701977","","279.3999999985099","","0","1","arrowleft","0","arrowleft","[0.675,0.325,0.15,0.85]","","",""
"sailing-trial","218","1013891","0.0-11.0-183.0","","","","false","","","","","","","","","","null","","972.6000000014901","","1","0","null","null","arrowup","[0.675,0.325,0.15,0.85]","","",""
"sailing-trial","219","1019395","0.0-11.0-184.0","","","","false","","","","","","","","","","581.3000000044703","","125","","0","1","arrowleft","0","arrowleft","[0.675,0.325,0.15,0.85]","","",""
"sailing-trial","220","1021640","0.0-11.0-185.0","","","","false","","","","","","","","","","null","","899.5","","1","0","null","null","arrowup","[0.675,0.325,0.15,0.85]","","",""
"sailing-trial","221","1024772","0.0-11.0-186.0","","","","false","","","","","","","","","","496.70000000298023","","358.09999999403954","","0","0","arrowleft","0","arrowleft","[0.675,0.325,0.15,0.85]","","",""
"sailing-trial","222","1027394","0.0-11.0-187.0","","","","false","","","","","","","","","","null","","850.8999999985099","","1","1","null","null","arrowup","[0.675,0.325,0.15,0.85]","","",""
"sailing-trial","223","1031071","0.0-11.0-188.0","","","","false","","","","","","","","","","550.6999999955297","","615.4000000059605","","1","0","arrowleft","0","arrowright","[0.85,0.15,0.325,0.675]","","",""
"sailing-trial","224","1033861","0.0-11.0-189.0","","","","false","","","","","","","","","","null","","967.7999999970198","","1","1","null","null","arrowup","[0.85,0.15,0.325,0.675]","","",""
"sailing-trial","225","1037328","0.0-11.0-190.0","","","","false","","","","","","","","","","561.8000000044703","","10.200000002980232","","0","1","arrowleft","0","arrowleft","[0.85,0.15,0.325,0.675]","","",""
"sailing-trial","226","1040210","0.0-11.0-191.0","","","","false","","","","","","","","","","null","","1112.3999999985099","","0","1","null","null","arrowup","[0.85,0.15,0.325,0.675]","","",""
"sailing-trial","227","1043745","0.0-11.0-192.0","","","","false","","","","","","","","","","424.59999999403954","","324.3999999985099","","0","1","arrowleft","0","arrowleft","[0.85,0.15,0.325,0.675]","","",""
"sailing-trial","228","1046141","0.0-11.0-193.0","","","","false","","","","","","","","","","null","","893.7000000029802","","2","0","null","null","arrowup","[0.85,0.15,0.325,0.675]","","",""
"sailing-trial","229","1049643","0.0-11.0-194.0","","","","false","","","","","","","","","","358.20000000298023","","341.80000000447035","","0","1","arrowleft","0","arrowleft","[0.85,0.15,0.325,0.675]","","",""
"sailing-trial","230","1052410","0.0-11.0-195.0","","","","false","","","","","","","","","","null","","970.7000000029802","","3","1","null","null","arrowup","[0.85,0.15,0.325,0.675]","","",""
"sailing-trial","231","1055943","0.0-11.0-196.0","","","","false","","","","","","","","","","692.1000000014901","","163.70000000298023","","0","1","arrowleft","0","arrowleft","[0.85,0.15,0.325,0.675]","","",""
"sailing-trial","232","1058544","0.0-11.0-197.0","","","","false","","","","","","","","","","null","","833.7000000029802","","2","1","null","null","arrowup","[0.85,0.15,0.325,0.675]","","",""
"sailing-trial","233","1062461","0.0-11.0-198.0","","","","false","","","","","","","","","","820.2999999970198","","296.19999999552965","","0","1","arrowleft","0","arrowleft","[0.85,0.15,0.325,0.675]","","",""
"sailing-trial","234","1064844","0.0-11.0-199.0","","","","false","","","","","","","","","","null","","793","","2","0","null","null","arrowup","[0.85,0.15,0.325,0.675]","","",""
"sailing-trial","235","1067999","0.0-11.0-200.0","","","","false","","","","","","","","","","490.3999999985099","","162.19999999552965","","0","0","arrowleft","0","arrowleft","[0.85,0.15,0.325,0.675]","","",""
"sailing-trial","236","1070029","0.0-11.0-201.0","","","","false","","","","","","","","","","null","","801","","2","0","null","null","arrowup","[0.85,0.15,0.325,0.675]","","",""
"sailing-trial","237","1073326","0.0-11.0-202.0","","","","false","","","","","","","","","","442.80000000447035","","63.099999994039536","","0","1","arrowleft","0","arrowleft","[0.85,0.15,0.325,0.675]","","",""
"sailing-trial","238","1075959","0.0-11.0-203.0","","","","false","","","","","","","","","","null","","809.1999999955297","","3","1","null","null","arrowup","[0.85,0.15,0.325,0.675]","","",""
"sailing-trial","239","1079026","0.0-11.0-204.0","","","","false","","","","","","","","","","469.5","","331.1000000014901","","0","0","arrowleft","0","arrowleft","[0.85,0.15,0.325,0.675]","","",""
"sailing-trial","240","1081219","0.0-11.0-205.0","","","","false","","","","","","","","","","null","","926.5","","2","0","null","null","arrowup","[0.85,0.15,0.325,0.675]","","",""
"sailing-trial","241","1085427","0.0-11.0-206.0","","","","false","","","","","","","","","","570.7999999970198","","831.1999999955297","","0","1","arrowleft","0","arrowleft","[0.675,0.325,0.15,0.85]","","",""
"sailing-trial","242","1087959","0.0-11.0-207.0","","","","false","","","","","","","","","","null","","743.3999999985099","","1","1","null","null","arrowup","[0.675,0.325,0.15,0.85]","","",""
"sailing-trial","243","1091444","0.0-11.0-208.0","","","","false","","","","","","","","","","470","","470","","0","1","arrowleft","0","arrowleft","[0.675,0.325,0.15,0.85]","","",""
"sailing-trial","244","1094027","0.0-11.0-209.0","","","","false","","","","","","","","","","null","","809.5","","3","1","null","null","arrowup","[0.675,0.325,0.15,0.85]","","",""
"sailing-trial","245","1097676","0.0-11.0-210.0","","","","false","","","","","","","","","","488.19999999552965","","340.29999999701977","","0","1","arrowleft","0","arrowleft","[0.675,0.325,0.15,0.85]","","",""
"sailing-trial","246","1100014","0.0-11.0-211.0","","","","false","","","","","","","","","","null","","1051","","0","0","null","null","arrowup","[0.675,0.325,0.15,0.85]","","",""
"sailing-trial","247","1103159","0.0-11.0-212.0","","","","false","","","","","","","","","","473.1000000014901","","67.5","","0","1","arrowleft","0","arrowleft","[0.675,0.325,0.15,0.85]","","",""
"sailing-trial","248","1105475","0.0-11.0-213.0","","","","false","","","","","","","","","","null","","889.7999999970198","","2","0","null","null","arrowup","[0.675,0.325,0.15,0.85]","","",""
"sailing-trial","249","1109010","0.0-11.0-214.0","","","","false","","","","","","","","","","539.7000000029802","","184.80000000447035","","0","1","arrowleft","0","arrowleft","[0.675,0.325,0.15,0.85]","","",""
"sailing-trial","250","1111759","0.0-11.0-215.0","","","","false","","","","","","","","","","null","","937.6000000014901","","0","1","null","null","arrowup","[0.675,0.325,0.15,0.85]","","",""
"sailing-trial","251","1115174","0.0-11.0-216.0","","","","false","","","","","","","","","","464.20000000298023","","14","","0","0","arrowleft","0","arrowleft","[0.675,0.325,0.15,0.85]","","",""
"sailing-trial","252","1117860","0.0-11.0-217.0","","","","false","","","","","","","","","","null","","918.5","","1","1","null","null","arrowup","[0.675,0.325,0.15,0.85]","","",""
"sailing-trial","253","1121409","0.0-11.0-218.0","","","","false","","","","","","","","","","410.5","","293.80000000447035","","1","1","arrowleft","0","arrowright","[0.675,0.325,0.15,0.85]","","",""
"sailing-trial","254","1124160","0.0-11.0-219.0","","","","false","","","","","","","","","","null","","918.5999999940395","","3","1","null","null","arrowup","[0.675,0.325,0.15,0.85]","","",""
"sailing-trial","255","1127610","0.0-11.0-220.0","","","","false","","","","","","","","","","516.7999999970198","","88.70000000298023","","1","1","arrowleft","0","arrowright","[0.675,0.325,0.15,0.85]","","",""
"sailing-trial","256","1129760","0.0-11.0-221.0","","","","false","","","","","","","","","","null","","863.4000000059605","","2","0","null","null","arrowup","[0.675,0.325,0.15,0.85]","","",""
"sailing-trial","257","1136126","0.0-11.0-222.0","","","","false","","","","","","","","","","2287.2999999970198","","1428.6999999955297","","1","1","arrowleft","0","arrowright","[0.15,0.85,0.675,0.325]","","",""
"sailing-trial","258","1139158","0.0-11.0-223.0","","","","false","","","","","","","","","","null","","1138.7999999970198","","0","0","null","null","arrowup","[0.15,0.85,0.675,0.325]","","",""
"sailing-trial","259","1142377","0.0-11.0-224.0","","","","false","","","","","","","","","","596.9000000059605","","372.20000000298023","","0","0","arrowleft","0","arrowleft","[0.15,0.85,0.675,0.325]","","",""
"sailing-trial","260","1145159","0.0-11.0-225.0","","","","false","","","","","","","","","","null","","1073.6000000014901","","1","1","null","null","arrowup","[0.15,0.85,0.675,0.325]","","",""
"sailing-trial","261","1148543","0.0-11.0-226.0","","","","false","","","","","","","","","","533.6999999955297","","1.5","","1","1","arrowleft","0","arrowright","[0.15,0.85,0.675,0.325]","","",""
"sailing-trial","262","1150864","0.0-11.0-227.0","","","","false","","","","","","","","","","null","","939.2000000029802","","3","0","null","null","arrowup","[0.15,0.85,0.675,0.325]","","",""
"sailing-trial","263","1154376","0.0-11.0-228.0","","","","false","","","","","","","","","","505.79999999701977","","199.5","","1","1","arrowleft","0","arrowright","[0.15,0.85,0.675,0.325]","","",""
"sailing-trial","264","1158208","0.0-11.0-229.0","","","","false","","","","","","","","","","null","","1261.7999999970198","","3","0","null","null","arrowup","[0.15,0.85,0.675,0.325]","","",""
"sailing-trial","265","1161775","0.0-11.0-230.0","","","","false","","","","","","","","","","651.1000000014901","","122.70000000298023","","1","1","arrowleft","0","arrowright","[0.15,0.85,0.675,0.325]","","",""
"sailing-trial","266","1164243","0.0-11.0-231.0","","","","false","","","","","","","","","","null","","816.7000000029802","","0","0","null","null","arrowup","[0.15,0.85,0.675,0.325]","","",""
"sailing-trial","267","1167726","0.0-11.0-232.0","","","","false","","","","","","","","","","544","","269.30000000447035","","1","1","arrowleft","0","arrowright","[0.15,0.85,0.675,0.325]","","",""
"sailing-trial","268","1170338","0.0-11.0-233.0","","","","false","","","","","","","","","","null","","979.2999999970198","","0","0","null","null","arrowup","[0.15,0.85,0.675,0.325]","","",""
"sailing-trial","269","1173892","0.0-11.0-234.0","","","","false","","","","","","","","","","584.5999999940395","","234.39999999850988","","1","1","arrowleft","0","arrowright","[0.15,0.85,0.675,0.325]","","",""
"sailing-trial","270","1177425","0.0-11.0-235.0","","","","false","","","","","","","","","","null","","778.0999999940395","","3","0","null","null","arrowup","[0.15,0.85,0.675,0.325]","","",""
"sailing-trial","271","1180839","0.0-11.0-236.0","","","","false","","","","","","","","","","992.1000000014901","","133.89999999850988","","1","0","arrowleft","0","arrowright","[0.15,0.85,0.675,0.325]","","",""
"sailing-trial","272","1183217","0.0-11.0-237.0","","","","false","","","","","","","","","","null","","827.1999999955297","","2","0","null","null","arrowup","[0.15,0.85,0.675,0.325]","","",""
"sailing-trial","273","1186140","0.0-11.0-238.0","","","","false","","","","","","","","","","451.90000000596046","","268.70000000298023","","1","0","arrowleft","0","arrowright","[0.325,0.675,0.85,0.15]","","",""
"sailing-trial","274","1188236","0.0-11.0-239.0","","","","false","","","","","","","","","","null","","733.3000000044703","","0","0","null","null","arrowup","[0.325,0.675,0.85,0.15]","","",""
"sailing-trial","275","1191833","0.0-11.0-240.0","","","","false","","","","","","","","","","521.5","","635","","3","0","arrowright","1","arrowright","[0.325,0.675,0.85,0.15]","","",""
"sailing-trial","276","1194558","0.0-11.0-241.0","","","","false","","","","","","","","","","null","","826.5","","3","1","null","null","arrowup","[0.325,0.675,0.85,0.15]","","",""
"sailing-trial","277","1197650","0.0-11.0-242.0","","","","false","","","","","","","","","","518.2999999970198","","200.29999999701977","","3","0","arrowright","1","arrowright","[0.325,0.675,0.85,0.15]","","",""
"sailing-trial","278","1200365","0.0-11.0-243.0","","","","false","","","","","","","","","","null","","1288","","0","0","null","null","arrowup","[0.325,0.675,0.85,0.15]","","",""
"sailing-trial","279","1203625","0.0-11.0-244.0","","","","false","","","","","","","","","","459.6000000014901","","401.20000000298023","","1","0","arrowleft","0","arrowright","[0.325,0.675,0.85,0.15]","","",""
"sailing-trial","280","1206508","0.0-11.0-245.0","","","","false","","","","","","","","","","null","","1099.3999999985099","","1","1","null","null","arrowup","[0.325,0.675,0.85,0.15]","","",""
"sailing-trial","281","1209368","0.0-11.0-246.0","","","","false","","","","","","","","","","366.8999999985099","","190","","1","0","arrowleft","0","arrowright","[0.325,0.675,0.85,0.15]","","",""
"sailing-trial","282","1212025","0.0-11.0-247.0","","","","false","","","","","","","","","","null","","871.5","","2","1","null","null","arrowup","[0.325,0.675,0.85,0.15]","","",""
"sailing-trial","283","1215409","0.0-11.0-248.0","","","","false","","","","","","","","","","500.70000000298023","","151.59999999403954","","2","1","arrowright","1","arrowleft","[0.325,0.675,0.85,0.15]","","",""
"sailing-trial","284","1218108","0.0-11.0-249.0","","","","false","","","","","","","","","","null","","835.1000000014901","","1","1","null","null","arrowup","[0.325,0.675,0.85,0.15]","","",""
"sailing-trial","285","1221359","0.0-11.0-250.0","","","","false","","","","","","","","","","483.79999999701977","","29.400000005960464","","2","1","arrowright","1","arrowleft","[0.325,0.675,0.85,0.15]","","",""
"sailing-trial","286","1224348","0.0-11.0-251.0","","","","false","","","","","","","","","","null","","1242.5999999940395","","0","0","null","null","arrowup","[0.325,0.675,0.85,0.15]","","",""
"sailing-trial","287","1228276","0.0-11.0-252.0","","","","false","","","","","","","","","","1120.8999999985099","","20.80000000447035","","2","1","arrowright","1","arrowleft","[0.325,0.675,0.85,0.15]","","",""
"sailing-trial","288","1231961","0.0-11.0-253.0","","","","false","","","","","","","","","","null","","1175.6999999955297","","0","1","null","null","arrowup","[0.325,0.675,0.85,0.15]","","",""
"sailing-trial","289","1235294","0.0-11.0-254.0","","","","false","","","","","","","","","","471","","151.79999999701977","","2","1","arrowright","1","arrowleft","[0.15,0.85,0.675,0.325]","","",""
"sailing-trial","290","1238011","0.0-11.0-255.0","","","","false","","","","","","","","","","null","","877.5","","1","1","null","null","arrowup","[0.15,0.85,0.675,0.325]","","",""
"sailing-trial","291","1241478","0.0-11.0-256.0","","","","false","","","","","","","","","","531.7000000029802","","277.69999999552965","","2","1","arrowright","1","arrowleft","[0.15,0.85,0.675,0.325]","","",""
"sailing-trial","292","1243762","0.0-11.0-257.0","","","","false","","","","","","","","","","null","","1083.2000000029802","","2","0","null","null","arrowup","[0.15,0.85,0.675,0.325]","","",""
"sailing-trial","293","1246960","0.0-11.0-258.0","","","","false","","","","","","","","","","433.20000000298023","","471.3999999985099","","2","0","arrowright","1","arrowleft","[0.15,0.85,0.675,0.325]","","",""
"sailing-trial","294","1248955","0.0-11.0-259.0","","","","false","","","","","","","","","","null","","855.6000000014901","","0","0","null","null","arrowup","[0.15,0.85,0.675,0.325]","","",""
"sailing-trial","295","1252578","0.0-11.0-260.0","","","","false","","","","","","","","","","599.5","","296.5","","1","1","arrowleft","0","arrowright","[0.15,0.85,0.675,0.325]","","",""
"sailing-trial","296","1254674","0.0-11.0-261.0","","","","false","","","","","","","","","","null","","803.8999999985099","","0","0","null","null","arrowup","[0.15,0.85,0.675,0.325]","","",""
"sailing-trial","297","1258228","0.0-11.0-262.0","","","","false","","","","","","","","","","461","","272.80000000447035","","1","1","arrowleft","0","arrowright","[0.15,0.85,0.675,0.325]","","",""
"sailing-trial","298","1261295","0.0-11.0-263.0","","","","false","","","","","","","","","","null","","1134.1000000014901","","1","1","null","null","arrowup","[0.15,0.85,0.675,0.325]","","",""
"sailing-trial","299","1265277","0.0-11.0-264.0","","","","false","","","","","","","","","","1083.6000000014901","","62.20000000298023","","1","1","arrowleft","0","arrowright","[0.15,0.85,0.675,0.325]","","",""
"sailing-trial","300","1267806","0.0-11.0-265.0","","","","false","","","","","","","","","","null","","1083.2000000029802","","3","0","null","null","arrowup","[0.15,0.85,0.675,0.325]","","",""
"sailing-trial","301","1271211","0.0-11.0-266.0","","","","false","","","","","","","","","","464.8999999985099","","190.89999999850988","","1","1","arrowleft","0","arrowright","[0.15,0.85,0.675,0.325]","","",""
"sailing-trial","302","1273382","0.0-11.0-267.0","","","","false","","","","","","","","","","null","","827.5","","0","0","null","null","arrowup","[0.15,0.85,0.675,0.325]","","",""
"sailing-trial","303","1277261","0.0-11.0-268.0","","","","false","","","","","","","","","","832.6000000014901","","250.89999999850988","","1","1","arrowleft","0","arrowright","[0.15,0.85,0.675,0.325]","","",""
"sailing-trial","304","1279693","0.0-11.0-269.0","","","","false","","","","","","","","","","null","","1097.5","","2","0","null","null","arrowup","[0.15,0.85,0.675,0.325]","","",""
"sailing-trial","305","1283260","0.0-11.0-270.0","","","","false","","","","","","","","","","542.1000000014901","","230.39999999850988","","1","1","arrowleft","0","arrowright","[0.15,0.85,0.675,0.325]","","",""
"sailing-trial","306","1285826","0.0-11.0-271.0","","","","false","","","","","","","","","","null","","855.7999999970198","","1","1","null","null","arrowup","[0.15,0.85,0.675,0.325]","","",""
"sailing-trial","307","1289411","0.0-11.0-272.0","","","","false","","","","","","","","","","419.19999999552965","","264.8999999985099","","1","1","arrowleft","0","arrowright","[0.325,0.675,0.85,0.15]","","",""
"sailing-trial","308","1292376","0.0-11.0-273.0","","","","false","","","","","","","","","","null","","1122.6000000014901","","2","1","null","null","arrowup","[0.325,0.675,0.85,0.15]","","",""
"sailing-trial","309","1295744","0.0-11.0-274.0","","","","false","","","","","","","","","","435.79999999701977","","127.09999999403954","","1","1","arrowleft","0","arrowright","[0.325,0.675,0.85,0.15]","","",""
"sailing-trial","310","1298127","0.0-11.0-275.0","","","","false","","","","","","","","","","null","","560.1999999955297","","0","1","null","null","arrowup","[0.325,0.675,0.85,0.15]","","",""
"sailing-trial","311","1300840","0.0-11.0-276.0","","","","false","","","","","","","","","","316.59999999403954","","160.10000000149012","","1","0","arrowleft","0","arrowright","[0.325,0.675,0.85,0.15]","","",""
"sailing-trial","312","1303210","0.0-11.0-277.0","","","","false","","","","","","","","","","null","","763.8999999985099","","2","1","null","null","arrowup","[0.325,0.675,0.85,0.15]","","",""
"sailing-trial","313","1306093","0.0-11.0-278.0","","","","false","","","","","","","","","","435.5","","186.89999999850988","","2","0","arrowright","1","arrowleft","[0.325,0.675,0.85,0.15]","","",""
"sailing-trial","314","1308195","0.0-11.0-279.0","","","","false","","","","","","","","","","null","","874.1000000014901","","0","0","null","null","arrowup","[0.325,0.675,0.85,0.15]","","",""
"sailing-trial","315","1311694","0.0-11.0-280.0","","","","false","","","","","","","","","","590","","238.39999999850988","","1","1","arrowleft","0","arrowright","[0.325,0.675,0.85,0.15]","","",""
"sailing-trial","316","1314876","0.0-11.0-281.0","","","","false","","","","","","","","","","null","","1486.5","","1","1","null","null","arrowup","[0.325,0.675,0.85,0.15]","","",""
"sailing-trial","317","1318494","0.0-11.0-282.0","","","","false","","","","","","","","","","512.5","","262.1000000014901","","1","1","arrowleft","0","arrowright","[0.325,0.675,0.85,0.15]","","",""
"sailing-trial","318","1320877","0.0-11.0-283.0","","","","false","","","","","","","","","","null","","788.3999999985099","","3","0","null","null","arrowup","[0.325,0.675,0.85,0.15]","","",""
"sailing-trial","319","1324194","0.0-11.0-284.0","","","","false","","","","","","","","","","441.79999999701977","","96.69999999552965","","1","1","arrowleft","0","arrowright","[0.325,0.675,0.85,0.15]","","",""
"sailing-trial","320","1326792","0.0-11.0-285.0","","","","false","","","","","","","","","","null","","821.0999999940395","","3","1","null","null","arrowup","[0.325,0.675,0.85,0.15]","","",""
"sailing-trial","321","1330276","0.0-11.0-286.0","","","","false","","","","","","","","","","529.5","","281.59999999403954","","1","1","arrowleft","0","arrowright","[0.325,0.675,0.85,0.15]","","",""
"sailing-trial","322","1332960","0.0-11.0-287.0","","","","false","","","","","","","","","","null","","945.3999999985099","","1","1","null","null","arrowup","[0.325,0.675,0.85,0.15]","","",""
"sailing-trial","323","1336277","0.0-11.0-288.0","","","","false","","","","","","","","","","454.1000000014901","","179.30000000447035","","1","1","arrowleft","0","arrowright","[0.325,0.675,0.85,0.15]","","",""
"sailing-trial","324","1338627","0.0-11.0-289.0","","","","false","","","","","","","","","","null","","768.6000000014901","","2","1","null","null","arrowup","[0.325,0.675,0.85,0.15]","","",""
"sailing-trial","325","1341305","0.0-11.0-290.0","","","","false","","","","","","","","","","372","","220.5","","1","0","arrowleft","0","arrowright","[0.325,0.675,0.85,0.15]","","",""
"sailing-trial","326","1343010","0.0-11.0-291.0","","","","false","","","","","","","","","","null","","648","","0","0","null","null","arrowup","[0.325,0.675,0.85,0.15]","","",""
"sailing-trial","327","1345673","0.0-11.0-292.0","","","","false","","","","","","","","","","402.20000000298023","","209.59999999403954","","2","0","arrowright","1","arrowleft","[0.675,0.325,0.15,0.85]","","",""
"sailing-trial","328","1347779","0.0-11.0-293.0","","","","false","","","","","","","","","","null","","818.6999999955297","","1","0","null","null","arrowup","[0.675,0.325,0.15,0.85]","","",""
"sailing-trial","329","1351242","0.0-11.0-294.0","","","","false","","","","","","","","","","420.79999999701977","","262.5","","3","1","arrowright","1","arrowright","[0.675,0.325,0.15,0.85]","","",""
"sailing-trial","330","1353292","0.0-11.0-295.0","","","","false","","","","","","","","","","null","","786.2999999970198","","2","0","null","null","arrowup","[0.675,0.325,0.15,0.85]","","",""
"sailing-trial","331","1356675","0.0-11.0-296.0","","","","false","","","","","","","","","","393.59999999403954","","248.39999999850988","","3","1","arrowright","1","arrowright","[0.675,0.325,0.15,0.85]","","",""
"sailing-trial","332","1359250","0.0-11.0-297.0","","","","false","","","","","","","","","","null","","1334.6000000014901","","1","0","null","null","arrowup","[0.675,0.325,0.15,0.85]","","",""
"sailing-trial","333","1362436","0.0-11.0-298.0","","","","false","","","","","","","","","","459.79999999701977","","187.39999999850988","","3","0","arrowright","1","arrowright","[0.675,0.325,0.15,0.85]","","",""
"sailing-trial","334","1364925","0.0-11.0-299.0","","","","false","","","","","","","","","","null","","776.2000000029802","","2","1","null","null","arrowup","[0.675,0.325,0.15,0.85]","","",""
"sailing-trial","335","1368493","0.0-11.0-300.0","","","","false","","","","","","","","","","457.1000000014901","","254.19999999552965","","2","1","arrowright","1","arrowleft","[0.675,0.325,0.15,0.85]","","",""
"sailing-trial","336","1370385","0.0-11.0-301.0","","","","false","","","","","","","","","","null","","693.3000000044703","","1","0","null","null","arrowup","[0.675,0.325,0.15,0.85]","","",""
"sailing-trial","337","1373210","0.0-11.0-302.0","","","","false","","","","","","","","","","424.70000000298023","","139.79999999701977","","2","0","arrowright","1","arrowleft","[0.675,0.325,0.15,0.85]","","",""
"sailing-trial","338","1375291","0.0-11.0-303.0","","","","false","","","","","","","","","","null","","968.5","","0","0","null","null","arrowup","[0.675,0.325,0.15,0.85]","","",""
"sailing-trial","339","1377940","0.0-11.0-304.0","","","","false","","","","","","","","","","353.20000000298023","","31","","2","0","arrowright","1","arrowleft","[0.675,0.325,0.15,0.85]","","",""
"sailing-trial","340","1380443","0.0-11.0-305.0","","","","false","","","","","","","","","","null","","746.2000000029802","","0","1","null","null","arrowup","[0.675,0.325,0.15,0.85]","","",""
"sailing-trial","341","1384343","0.0-11.0-306.0","","","","false","","","","","","","","","","620.6000000014901","","486.20000000298023","","3","1","arrowright","1","arrowright","[0.675,0.325,0.15,0.85]","","",""
"sailing-trial","342","1386826","0.0-11.0-307.0","","","","false","","","","","","","","","","null","","749.6000000014901","","3","1","null","null","arrowup","[0.675,0.325,0.15,0.85]","","",""
"sailing-trial","343","1390058","0.0-11.0-308.0","","","","false","","","","","","","","","","451.80000000447035","","163.39999999850988","","3","1","arrowright","1","arrowright","[0.675,0.325,0.15,0.85]","","",""
"sailing-trial","344","1392708","0.0-11.0-309.0","","","","false","","","","","","","","","","null","","958.7999999970198","","3","1","null","null","arrowup","[0.675,0.325,0.15,0.85]","","",""
"sailing-trial","345","1395718","0.0-11.0-310.0","","","","false","","","","","","","","","","561.1999999955297","","134","","3","0","arrowright","1","arrowright","[0.85,0.15,0.325,0.675]","","",""
"sailing-trial","346","1397839","0.0-11.0-311.0","","","","false","","","","","","","","","","null","","818.8999999985099","","1","0","null","null","arrowup","[0.85,0.15,0.325,0.675]","","",""
"sailing-trial","347","1400499","0.0-11.0-312.0","","","","false","","","","","","","","","","358.70000000298023","","37.100000001490116","","3","0","arrowright","1","arrowright","[0.85,0.15,0.325,0.675]","","",""
"sailing-trial","348","1403059","0.0-11.0-313.0","","","","false","","","","","","","","","","null","","821.8000000044703","","3","1","null","null","arrowup","[0.85,0.15,0.325,0.675]","","",""
"sailing-trial","349","1406891","0.0-11.0-314.0","","","","false","","","","","","","","","","685.0999999940395","","322.8999999985099","","3","1","arrowright","1","arrowright","[0.85,0.15,0.325,0.675]","","",""
"sailing-trial","350","1410024","0.0-11.0-315.0","","","","false","","","","","","","","","","null","","1876","","1","0","null","null","arrowup","[0.85,0.15,0.325,0.675]","","",""
"sailing-trial","351","1415825","0.0-11.0-316.0","","","","false","","","","","","","","","","407.79999999701977","","3070.60000000149","","3","0","arrowright","1","arrowright","[0.85,0.15,0.325,0.675]","","",""
"sailing-trial","352","1418207","0.0-11.0-317.0","","","","false","","","","","","","","","","null","","621.8999999985099","","0","1","null","null","arrowup","[0.85,0.15,0.325,0.675]","","",""
"sailing-trial","353","1421015","0.0-11.0-318.0","","","","false","","","","","","","","","","467.29999999701977","","33.599999994039536","","0","0","arrowleft","0","arrowleft","[0.85,0.15,0.325,0.675]","","",""
"sailing-trial","354","1423674","0.0-11.0-319.0","","","","false","","","","","","","","","","null","","1005.3999999985099","","1","1","null","null","arrowup","[0.85,0.15,0.325,0.675]","","",""
"sailing-trial","355","1426975","0.0-11.0-320.0","","","","false","","","","","","","","","","399.8999999985099","","90.70000000298023","","1","1","arrowleft","0","arrowright","[0.85,0.15,0.325,0.675]","","",""
"sailing-trial","356","1429542","0.0-11.0-321.0","","","","false","","","","","","","","","","null","","812.7999999970198","","3","1","null","null","arrowup","[0.85,0.15,0.325,0.675]","","",""
"sailing-trial","357","1432992","0.0-11.0-322.0","","","","false","","","","","","","","","","409.5","","306.8999999985099","","1","1","arrowleft","0","arrowright","[0.85,0.15,0.325,0.675]","","",""
"sailing-trial","358","1435196","0.0-11.0-323.0","","","","false","","","","","","","","","","null","","911.5999999940395","","1","0","null","null","arrowup","[0.85,0.15,0.325,0.675]","","",""
"sailing-trial","359","1438015","0.0-11.0-324.0","","","","false","","","","","","","","","","391.79999999701977","","181.5","","3","0","arrowright","1","arrowright","[0.85,0.15,0.325,0.675]","","",""
"sailing-trial","360","1439890","0.0-11.0-325.0","","","","false","","","","","","","","","","null","","787.2999999970198","","2","0","null","null","arrowup","[0.85,0.15,0.325,0.675]","","",""
"sailing-trial","361","1442527","0.0-11.0-326.0","","","","false","","","","","","","","","","414.19999999552965","","3.600000001490116","","3","0","arrowright","1","arrowright","[0.85,0.15,0.325,0.675]","","",""
"sailing-trial","362","1445141","0.0-11.0-327.0","","","","false","","","","","","","","","","null","","845.2999999970198","","1","1","null","null","arrowup","[0.85,0.15,0.325,0.675]","","",""
"sailing-trial","363","1448190","0.0-11.0-328.0","","","","false","","","","","","","","","","515","","313.8999999985099","","1","0","arrowleft","0","arrowright","[0.85,0.15,0.325,0.675]","","",""
"sailing-trial","364","1450790","0.0-11.0-329.0","","","","false","","","","","","","","","","null","","831.4000000059605","","2","1","null","null","arrowup","[0.85,0.15,0.325,0.675]","","",""
"sailing-trial","365","1453485","0.0-11.0-330.0","","","","false","","","","","","","","","","329.3999999985099","","86.5","","1","0","arrowleft","0","arrowright","[0.85,0.15,0.325,0.675]","","",""
"sailing-trial","366","1455566","0.0-11.0-331.0","","","","false","","","","","","","","","","null","","718.6000000014901","","0","0","null","null","arrowup","[0.85,0.15,0.325,0.675]","","",""
"sailing-trial","367","1459406","0.0-11.0-332.0","","","","false","","","","","","","","","","1284","","94.79999999701977","","2","0","arrowright","1","arrowleft","[0.675,0.325,0.15,0.85]","","",""
"sailing-trial","368","1461907","0.0-11.0-333.0","","","","false","","","","","","","","","","null","","699.7999999970198","","3","1","null","null","arrowup","[0.675,0.325,0.15,0.85]","","",""
"sailing-trial","369","1465356","0.0-11.0-334.0","","","","false","","","","","","","","","","432.30000000447035","","298.8999999985099","","3","1","arrowright","1","arrowright","[0.675,0.325,0.15,0.85]","","",""
"sailing-trial","370","1468424","0.0-11.0-335.0","","","","false","","","","","","","","","","null","","747.6000000014901","","0","1","null","null","arrowup","[0.675,0.325,0.15,0.85]","","",""
"sailing-trial","371","1471806","0.0-11.0-336.0","","","","false","","","","","","","","","","484.90000000596046","","209.5","","3","1","arrowright","1","arrowright","[0.675,0.325,0.15,0.85]","","",""
"sailing-trial","372","1474390","0.0-11.0-337.0","","","","false","","","","","","","","","","null","","840.2000000029802","","3","1","null","null","arrowup","[0.675,0.325,0.15,0.85]","","",""
"sailing-trial","373","1478090","0.0-11.0-338.0","","","","false","","","","","","","","","","576.8999999985099","","232.79999999701977","","3","1","arrowright","1","arrowright","[0.675,0.325,0.15,0.85]","","",""
"sailing-trial","374","1481041","0.0-11.0-339.0","","","","false","","","","","","","","","","null","","1135.2999999970198","","0","1","null","null","arrowup","[0.675,0.325,0.15,0.85]","","",""
"sailing-trial","375","1484141","0.0-11.0-340.0","","","","false","","","","","","","","","","389.6000000014901","","148.70000000298023","","3","1","arrowright","1","arrowright","[0.675,0.325,0.15,0.85]","","",""
"sailing-trial","376","1486574","0.0-11.0-341.0","","","","false","","","","","","","","","","null","","713.1999999955297","","0","1","null","null","arrowup","[0.675,0.325,0.15,0.85]","","",""
"sailing-trial","377","1490273","0.0-11.0-342.0","","","","false","","","","","","","","","","648.3000000044703","","457.69999999552965","","3","1","arrowright","1","arrowright","[0.675,0.325,0.15,0.85]","","",""
"sailing-trial","378","1492989","0.0-11.0-343.0","","","","false","","","","","","","","","","null","","943.2000000029802","","1","1","null","null","arrowup","[0.675,0.325,0.15,0.85]","","",""
"sailing-trial","379","1496156","0.0-11.0-344.0","","","","false","","","","","","","","","","464.1000000014901","","1.3999999985098839","","3","1","arrowright","1","arrowright","[0.675,0.325,0.15,0.85]","","",""
"sailing-trial","380","1498940","0.0-11.0-345.0","","","","false","","","","","","","","","","null","","1051.7000000029802","","3","1","null","null","arrowup","[0.675,0.325,0.15,0.85]","","",""
"sailing-trial","381","1501785","0.0-11.0-346.0","","","","false","","","","","","","","","","456.1000000014901","","298.5","","3","0","arrowright","1","arrowright","[0.675,0.325,0.15,0.85]","","",""
"sailing-trial","382","1503886","0.0-11.0-347.0","","","","false","","","","","","","","","","null","","800.5999999940395","","2","0","null","null","arrowup","[0.675,0.325,0.15,0.85]","","",""
"sailing-trial","383","1507539","0.0-11.0-348.0","","","","false","","","","","","","","","","387.70000000298023","","334.1000000014901","","3","1","arrowright","1","arrowright","[0.85,0.15,0.325,0.675]","","",""
"sailing-trial","384","1510157","0.0-11.0-349.0","","","","false","","","","","","","","","","null","","828.5","","0","1","null","null","arrowup","[0.85,0.15,0.325,0.675]","","",""
"sailing-trial","385","1513222","0.0-11.0-350.0","","","","false","","","","","","","","","","449.5","","49.399999998509884","","3","1","arrowright","1","arrowright","[0.85,0.15,0.325,0.675]","","",""
"sailing-trial","386","1515337","0.0-11.0-351.0","","","","false","","","","","","","","","","null","","880.5","","2","0","null","null","arrowup","[0.85,0.15,0.325,0.675]","","",""
"sailing-trial","387","1518872","0.0-11.0-352.0","","","","false","","","","","","","","","","461.8999999985099","","285","","3","1","arrowright","1","arrowright","[0.85,0.15,0.325,0.675]","","",""
"sailing-trial","388","1522906","0.0-11.0-353.0","","","","false","","","","","","","","","","null","","2201.5","","3","1","null","null","arrowup","[0.85,0.15,0.325,0.675]","","",""
"sailing-trial","389","1526107","0.0-11.0-354.0","","","","false","","","","","","","","","","517","","217.59999999403954","","3","0","arrowright","1","arrowright","[0.85,0.15,0.325,0.675]","","",""
"sailing-trial","390","1528973","0.0-11.0-355.0","","","","false","","","","","","","","","","null","","810.1000000014901","","3","1","null","null","arrowup","[0.85,0.15,0.325,0.675]","","",""
"sailing-trial","391","1532922","0.0-11.0-356.0","","","","false","","","","","","","","","","475","","97.60000000149012","","3","1","arrowright","1","arrowright","[0.85,0.15,0.325,0.675]","","",""
"sailing-trial","392","1536956","0.0-11.0-357.0","","","","false","","","","","","","","","","null","","2239.5","","0","1","null","null","arrowup","[0.85,0.15,0.325,0.675]","","",""
"sailing-trial","393","1540473","0.0-11.0-358.0","","","","false","","","","","","","","","","397.5","","17.399999998509884","","0","1","arrowleft","0","arrowleft","[0.85,0.15,0.325,0.675]","","",""
"sailing-trial","394","1544105","0.0-11.0-359.0","","","","false","","","","","","","","","","null","","1834.5","","0","1","null","null","arrowup","[0.85,0.15,0.325,0.675]","","",""
"sailing-trial","395","1547555","0.0-11.0-360.0","","","","false","","","","","","","","","","514.5","","134.60000000149012","","0","1","arrowleft","0","arrowleft","[0.85,0.15,0.325,0.675]","","",""
"sailing-trial","396","1550355","0.0-11.0-361.0","","","","false","","","","","","","","","","null","","1016","","3","1","null","null","arrowup","[0.85,0.15,0.325,0.675]","","",""
"sailing-trial","397","1554240","0.0-11.0-362.0","","","","false","","","","","","","","","","999.3000000044703","","139.10000000149012","","0","1","arrowleft","0","arrowleft","[0.85,0.15,0.325,0.675]","","",""
"sailing-trial","398","1557573","0.0-11.0-363.0","","","","false","","","","","","","","","","null","","1572.6000000014901","","0","1","null","null","arrowup","[0.85,0.15,0.325,0.675]","","",""
"sailing-trial","399","1560458","0.0-11.0-364.0","","","","false","","","","","","","","","","730.3999999985099","","63.69999999552965","","0","0","arrowleft","0","arrowleft","[0.325,0.675,0.85,0.15]","","",""
"sailing-trial","400","1563055","0.0-11.0-365.0","","","","false","","","","","","","","","","null","","1048.7999999970198","","0","0","null","null","arrowup","[0.325,0.675,0.85,0.15]","","",""
"sailing-trial","401","1565931","0.0-11.0-366.0","","","","false","","","","","","","","","","388.70000000298023","","252.5","","3","0","arrowright","1","arrowright","[0.325,0.675,0.85,0.15]","","",""
"sailing-trial","402","1568281","0.0-11.0-367.0","","","","false","","","","","","","","","","null","","1176.7000000029802","","1","0","null","null","arrowup","[0.325,0.675,0.85,0.15]","","",""
"sailing-trial","403","1571973","0.0-11.0-368.0","","","","false","","","","","","","","","","530.2999999970198","","281","","0","1","arrowleft","0","arrowleft","[0.325,0.675,0.85,0.15]","","",""
"sailing-trial","404","1574506","0.0-11.0-369.0","","","","false","","","","","","","","","","null","","605.7000000029802","","1","1","null","null","arrowup","[0.325,0.675,0.85,0.15]","","",""
"sailing-trial","405","1577407","0.0-11.0-370.0","","","","false","","","","","","","","","","514","","147.79999999701977","","0","0","arrowleft","0","arrowleft","[0.325,0.675,0.85,0.15]","","",""
"sailing-trial","406","1580138","0.0-11.0-371.0","","","","false","","","","","","","","","","null","","906.7999999970198","","2","1","null","null","arrowup","[0.325,0.675,0.85,0.15]","","",""
"sailing-trial","407","1583622","0.0-11.0-372.0","","","","false","","","","","","","","","","392.3999999985099","","281.5","","2","1","arrowright","1","arrowleft","[0.325,0.675,0.85,0.15]","","",""
"sailing-trial","408","1586421","0.0-11.0-373.0","","","","false","","","","","","","","","","null","","981.5999999940395","","2","1","null","null","arrowup","[0.325,0.675,0.85,0.15]","","",""
"sailing-trial","409","1590739","0.0-11.0-374.0","","","","false","","","","","","","","","","593.2000000029802","","262.5","","2","1","arrowright","1","arrowleft","[0.325,0.675,0.85,0.15]","","",""
"sailing-trial","410","1593572","0.0-11.0-375.0","","","","false","","","","","","","","","","null","","1104.2999999970198","","1","1","null","null","arrowup","[0.325,0.675,0.85,0.15]","","",""
"sailing-trial","411","1597039","0.0-11.0-376.0","","","","false","","","","","","","","","","488.6000000014901","","271.79999999701977","","2","1","arrowright","1","arrowleft","[0.325,0.675,0.85,0.15]","","",""
"sailing-trial","412","1599487","0.0-11.0-377.0","","","","false","","","","","","","","","","null","","727.2000000029802","","0","1","null","null","arrowup","[0.325,0.675,0.85,0.15]","","",""
"sailing-trial","413","1602721","0.0-11.0-378.0","","","","false","","","","","","","","","","547.8999999985099","","117.5","","2","1","arrowright","1","arrowleft","[0.325,0.675,0.85,0.15]","","",""
"sailing-trial","414","1604834","0.0-11.0-379.0","","","","false","","","","","","","","","","null","","816.1999999955297","","1","0","null","null","arrowup","[0.325,0.675,0.85,0.15]","","",""
"sailing-trial","415","1608237","0.0-11.0-380.0","","","","false","","","","","","","","","","387.70000000298023","","270.09999999403954","","2","1","arrowright","1","arrowleft","[0.325,0.675,0.85,0.15]","","",""
"sailing-trial","416","1610704","0.0-11.0-381.0","","","","false","","","","","","","","","","null","","775.7999999970198","","1","1","null","null","arrowup","[0.325,0.675,0.85,0.15]","","",""
"sailing-trial","417","1613738","0.0-11.0-382.0","","","","false","","","","","","","","","","403.5","","97","","2","1","arrowright","1","arrowleft","[0.325,0.675,0.85,0.15]","","",""
"sailing-trial","418","1616221","0.0-11.0-383.0","","","","false","","","","","","","","","","null","","777.1000000014901","","0","1","null","null","arrowup","[0.325,0.675,0.85,0.15]","","",""
"sailing-trial","419","1619696","0.0-11.0-384.0","","","","false","","","","","","","","","","452.5","","336.80000000447035","","2","0","arrowright","1","arrowleft","[0.675,0.325,0.15,0.85]","","",""
"sailing-trial","420","1622505","0.0-11.0-385.0","","","","false","","","","","","","","","","null","","969.8000000044703","","3","1","null","null","arrowup","[0.675,0.325,0.15,0.85]","","",""
"sailing-trial","421","1626336","0.0-11.0-386.0","","","","false","","","","","","","","","","741.9000000059605","","652.0999999940395","","2","0","arrowright","1","arrowleft","[0.675,0.325,0.15,0.85]","","",""
"sailing-trial","422","1628446","0.0-11.0-387.0","","","","false","","","","","","","","","","null","","913.2999999970198","","1","0","null","null","arrowup","[0.675,0.325,0.15,0.85]","","",""
"sailing-trial","423","1633237","0.0-11.0-388.0","","","","false","","","","","","","","","","417.1000000014901","","135.79999999701977","","3","1","arrowright","1","arrowright","[0.675,0.325,0.15,0.85]","","",""
"sailing-trial","424","1635422","0.0-11.0-389.0","","","","false","","","","","","","","","","null","","875.9000000059605","","2","0","null","null","arrowup","[0.675,0.325,0.15,0.85]","","",""
"sailing-trial","425","1639055","0.0-11.0-390.0","","","","false","","","","","","","","","","335.80000000447035","","110.39999999850988","","3","1","arrowright","1","arrowright","[0.675,0.325,0.15,0.85]","","",""
"sailing-trial","426","1641870","0.0-11.0-391.0","","","","false","","","","","","","","","","null","","969.9000000059605","","3","1","null","null","arrowup","[0.675,0.325,0.15,0.85]","","",""
"sailing-trial","427","1644900","0.0-11.0-392.0","","","","false","","","","","","","","","","640","","110.39999999850988","","3","0","arrowright","1","arrowright","[0.675,0.325,0.15,0.85]","","",""
"sailing-trial","428","1647002","0.0-11.0-393.0","","","","false","","","","","","","","","","null","","964.6000000014901","","1","0","null","null","arrowup","[0.675,0.325,0.15,0.85]","","",""
"sailing-trial","429","1650487","0.0-11.0-394.0","","","","false","","","","","","","","","","425.19999999552965","","243","","3","1","arrowright","1","arrowright","[0.675,0.325,0.15,0.85]","","",""
"sailing-trial","430","1653054","0.0-11.0-395.0","","","","false","","","","","","","","","","null","","766.5","","3","1","null","null","arrowup","[0.675,0.325,0.15,0.85]","","",""
"sailing-trial","431","1656420","0.0-11.0-396.0","","","","false","","","","","","","","","","352.90000000596046","","234.39999999850988","","3","1","arrowright","1","arrowright","[0.675,0.325,0.15,0.85]","","",""
"sailing-trial","432","1658660","0.0-11.0-397.0","","","","false","","","","","","","","","","null","","781.1000000014901","","2","0","null","null","arrowup","[0.675,0.325,0.15,0.85]","","",""
"sailing-trial","433","1662237","0.0-11.0-398.0","","","","false","","","","","","","","","","490.8999999985099","","189.29999999701977","","3","1","arrowright","1","arrowright","[0.675,0.325,0.15,0.85]","","",""
"sailing-trial","434","1664742","0.0-11.0-399.0","","","","false","","","","","","","","","","null","","1288.3000000044703","","2","0","null","null","arrowup","[0.675,0.325,0.15,0.85]","","",""
"instructions","435","1668866","0.0-12.0","","","","","","","","","","4123.39999999851","","","","","","","","","","","","","","","","[{""page_index"":0,""viewing_time"":4123.29999999702}]"
"survey-debrief","436","1706099","0.0-13.0","","","","","","","","","","37232.89999999851","","","","","","","","","","","","","","{""difficulty"":""3"",""fun"":""2"",""clarity"":""5"",""strategy"":""Yes, I write things down to see the frequency of getting the treasure. "",""feedback"":""""}","",""
