"trial_type","trial_index","time_elapsed","internal_node_id","value","metadata","success","timeout","failed_images","failed_audio","failed_video","browser_interaction","low_quality","rt","stimulus","response","button_pressed","island_rt","island_response","boat_rt","boat_response","boat","reward","island_key","island","boat_key","reward_probabilities","responses","num_errors","view_history"
"pavlovia","0","2","0.0-0.0","","","","","","","","","","","","","","","","","","","","","","","","","",""
"call-function","1","3","0.0-1.0","","{""task_version"":""sailing_part1_v1"",""task_condition"":""good"",""boats"":[""A"",""B"",""D"",""C""],""boats_demo"":[""E"",""G"",""F"",""H""],""islands"":[""B"",""A""],""subject_id"":""13840"",""age"":""11"",""gender"":""Male""}","","","","","","","","","","","","","","","","","","","","","","","",""
"preload","2","2317","0.0-2.0","","","true","false","[]","[]","[]","[{""event"":""fullscreenenter"",""trial"":3,""time"":5372}]","false","","","","","","","","","","","","","","","","",""
"fullscreen","3","6364","0.0-3.0","","","true","","","","","","","","","","","","","","","","","","","","","","",""
"audio-keyboard-response","4","9593","0.0-4.0-0.0","","","","","","","","","","3173.3333333333335","audio/beep_loop.wav"," ","","","","","","","","","","","","","",""
"audio-test","5","11241","0.0-4.0-1.0","","","","","","","","","","null","audio/turtle.mp3","","3","","","","","","","","","","","","",""
"audio-test","6","13312","0.0-4.0-2.0","","","","","","","","","","null","audio/shark.mp3","","2","","","","","","","","","","","","",""
"sailing-instructions","7","45399","0.0-5.0-0.0-0.0","","","","","","","","","","","","","","null","null","null","null","null","null","","","","","","",""
"sailing-trial","8","49382","0.0-5.0-0.0-1.0-0.0","","","","false","","","","","","","","","","2869.800000011921","","null","","null","null","arrowleft","0","null","null","","",""
"sailing-trial","9","51794","0.0-5.0-0.0-1.0-1.0","","","","false","","","","","","","","","","1303.7000000476837","","null","","null","null","arrowright","1","null","null","","",""
"sailing-trial","10","54892","0.0-5.0-0.0-1.0-2.0","","","","false","","","","","","","","","","1978.4000000357628","","null","","null","null","arrowleft","0","null","null","","",""
"sailing-instructions","11","98482","0.0-5.0-0.0-2.0","","","","","","","","","","","","","","null","null","null","null","0","null","","","","","","",""
"sailing-trial","12","104373","0.0-5.0-0.0-3.0-0.0","","","","false","","","","","","","","","","null","","2268.300000011921","","2","1","null","null","arrowleft","[1,1,1,1]","","",""
"sailing-trial","13","108692","0.0-5.0-0.0-3.0-1.0","","","","false","","","","","","","","","","null","","1161.800000011921","","3","1","null","null","arrowright","[1,1,1,1]","","",""
"sailing-trial","14","113972","0.0-5.0-0.0-3.0-2.0","","","","false","","","","","","","","","","null","","1854.5999999642372","","3","0","null","null","arrowright","[0,0,0,0]","","",""
"sailing-instructions","15","121101","0.0-5.0-0.0-4.0","","","","","","","","","","","","","","null","null","null","null","null","null","","","","","","",""
"sailing-comprehension","16","143867","0.0-5.0-0.0-5.0","","","","","","","","","","19255.80000001192","","","","","","","","","","","","","","[""true"",""true"",""false"",""true""]","0",""
"sailing-instructions","17","221386","0.0-6.0-0.0-0.0","","","","","","","","","","","","","","null","null","null","null","null","null","","","","","","",""
"sailing-comprehension","18","252253","0.0-6.0-0.0-1.0","","","","","","","","","","28186.19999998808","","","","","","","","","","","","","","[""true"",""false"",""true""]","0",""
"sailing-instructions","19","267024","0.0-7.0-0.0-0.0","","","","","","","","","","","","","","null","null","null","null","null","null","","","","","","",""
"sailing-trial","20","272299","0.0-7.0-0.0-1.0-0.0","","","","false","","","","","","","","","","null","","2634.399999976158","","0","0","null","null","arrowup","[0.2,0.8,0.2,0.8]","","",""
"sailing-trial","21","277174","0.0-7.0-0.0-1.0-1.0","","","","false","","","","","","","","","","null","","2226.300000011921","","1","1","null","null","arrowup","[0.2,0.8,0.2,0.8]","","",""
"sailing-trial","22","281809","0.0-7.0-0.0-1.0-2.0","","","","false","","","","","","","","","","null","","2100.599999964237","","2","1","null","null","arrowup","[0.2,0.8,0.2,0.8]","","",""
"sailing-trial","23","289974","0.0-7.0-0.0-1.0-3.0","","","","false","","","","","","","","","","null","","5757.900000035763","","3","1","null","null","arrowup","[0.2,0.8,0.2,0.8]","","",""
"sailing-comprehension","24","312018","0.0-7.0-0.0-2.0","","","","","","","","","","14518.900000035763","","","","","","","","","","","","","","[""false""]","0",""
"sailing-instructions","25","323055","0.0-8.0-0.0-0.0","","","","","","","","","","","","","","null","null","null","null","null","null","","","","","","",""
"sailing-comprehension","26","333370","0.0-8.0-0.0-1.0","","","","","","","","","","5310.800000011921","","","","","","","","","","","","","","[""true""]","0",""
"sailing-instructions","27","368412","0.0-9.0-0.0-0.0","","","","","","","","","","","","","","null","null","null","null","null","null","","","","","","",""
"sailing-trial","28","375156","0.0-9.0-0.0-1.0-0.0","","","","false","","","","","","","","","","1512.8999999761581","","1264.2000000476837","","3","0","arrowright","1","arrowright","[0.2,0.8,0.2,0.8]","","",""
"sailing-trial","29","381925","0.0-9.0-0.0-1.0-1.0","","","","false","","","","","","","","","","742.5999999642372","","1979.800000011921","","0","1","arrowleft","0","arrowleft","[0.2,0.8,0.2,0.8]","","",""
"sailing-trial","30","386255","0.0-9.0-0.0-1.0-2.0","","","","false","","","","","","","","","","null","","1865.6000000238419","","0","0","null","null","arrowup","[0.2,0.8,0.2,0.8]","","",""
"sailing-trial","31","392436","0.0-9.0-0.0-1.0-3.0","","","","false","","","","","","","","","","1367","","772.2000000476837","","1","0","arrowleft","0","arrowright","[0.2,0.8,0.2,0.8]","","",""
"sailing-trial","32","398089","0.0-9.0-0.0-1.0-4.0","","","","false","","","","","","","","","","null","","2957.899999976158","","3","1","null","null","arrowup","[0.2,0.8,0.2,0.8]","","",""
"sailing-trial","33","404471","0.0-9.0-0.0-1.0-5.0","","","","false","","","","","","","","","","2061.5","","280.5","","0","0","arrowleft","0","arrowleft","[0.2,0.8,0.2,0.8]","","",""
"sailing-instructions","34","511293","0.0-10.0","","","","","","","","","","","","","","null","null","null","null","null","null","","","","","","",""
"sailing-trial","35","518523","0.0-11.0-0.0","","","","false","","","","","","","","","","1696.5","","475.60000002384186","","3","1","arrowright","1","arrowright","[0.325,0.675,0.85,0.15]","","",""
"sailing-trial","36","525024","0.0-11.0-1.0","","","","false","","","","","","","","","","null","","1822.9000000357628","","2","1","null","null","arrowup","[0.325,0.675,0.85,0.15]","","",""
"sailing-trial","37","530855","0.0-11.0-2.0","","","","false","","","","","","","","","","1082.300000011921","","734.5999999642372","","3","0","arrowright","1","arrowright","[0.325,0.675,0.85,0.15]","","",""
"sailing-trial","38","535639","0.0-11.0-3.0","","","","false","","","","","","","","","","null","","1764.4000000357628","","3","0","null","null","arrowup","[0.325,0.675,0.85,0.15]","","",""
"sailing-trial","39","540802","0.0-11.0-4.0","","","","false","","","","","","","","","","927.7000000476837","","144","","0","0","arrowleft","0","arrowleft","[0.325,0.675,0.85,0.15]","","",""
"sailing-trial","40","544972","0.0-11.0-5.0","","","","false","","","","","","","","","","null","","1155.800000011921","","0","0","null","null","arrowup","[0.325,0.675,0.85,0.15]","","",""
"sailing-trial","41","551591","0.0-11.0-6.0","","","","false","","","","","","","","","","1175.300000011921","","48.5","","1","1","arrowleft","0","arrowright","[0.325,0.675,0.85,0.15]","","",""
"sailing-trial","42","555747","0.0-11.0-7.0","","","","false","","","","","","","","","","null","","1157.800000011921","","0","0","null","null","arrowup","[0.325,0.675,0.85,0.15]","","",""
"sailing-trial","43","563757","0.0-11.0-8.0","","","","false","","","","","","","","","","897.3999999761581","","1056.9000000357628","","1","1","arrowleft","0","arrowright","[0.325,0.675,0.85,0.15]","","",""
"sailing-trial","44","570575","0.0-11.0-9.0","","","","false","","","","","","","","","","null","","1094.699999988079","","2","1","null","null","arrowup","[0.325,0.675,0.85,0.15]","","",""
"sailing-trial","45","575550","0.0-11.0-10.0","","","","false","","","","","","","","","","761.5","","208.80000001192093","","1","0","arrowleft","0","arrowright","[0.325,0.675,0.85,0.15]","","",""
"sailing-trial","46","582957","0.0-11.0-11.0","","","","false","","","","","","","","","","null","","1966.8999999761581","","1","1","null","null","arrowup","[0.325,0.675,0.85,0.15]","","",""
"sailing-trial","47","589241","0.0-11.0-12.0","","","","false","","","","","","","","","","632.2000000476837","","756.6000000238419","","2","1","arrowright","1","arrowleft","[0.325,0.675,0.85,0.15]","","",""
"sailing-trial","48","593416","0.0-11.0-13.0","","","","false","","","","","","","","","","null","","1301.3999999761581","","3","0","null","null","arrowup","[0.325,0.675,0.85,0.15]","","",""
"sailing-trial","49","600974","0.0-11.0-14.0","","","","false","","","","","","","","","","715.1000000238419","","378.69999998807907","","2","1","arrowright","1","arrowleft","[0.325,0.675,0.85,0.15]","","",""
"sailing-trial","50","604190","0.0-11.0-15.0","","","","false","","","","","","","","","","null","","996.1000000238419","","2","1","null","null","arrowup","[0.325,0.675,0.85,0.15]","","",""
"sailing-trial","51","609118","0.0-11.0-16.0","","","","false","","","","","","","","","","674.1999999880791","","233.80000001192093","","2","0","arrowright","1","arrowleft","[0.15,0.85,0.675,0.325]","","",""
"sailing-trial","52","613135","0.0-11.0-17.0","","","","false","","","","","","","","","","null","","990.2000000476837","","0","0","null","null","arrowup","[0.15,0.85,0.675,0.325]","","",""
"sailing-trial","53","619041","0.0-11.0-18.0","","","","false","","","","","","","","","","905","","152.5","","2","1","arrowright","1","arrowleft","[0.15,0.85,0.675,0.325]","","",""
"sailing-trial","54","623150","0.0-11.0-19.0","","","","false","","","","","","","","","","null","","1099.3999999761581","","2","0","null","null","arrowup","[0.15,0.85,0.675,0.325]","","",""
"sailing-trial","55","631204","0.0-11.0-20.0","","","","false","","","","","","","","","","3678.400000035763","","374.69999998807907","","2","0","arrowright","1","arrowleft","[0.15,0.85,0.675,0.325]","","",""
"sailing-trial","56","637075","0.0-11.0-21.0","","","","false","","","","","","","","","","null","","1104.699999988079","","3","1","null","null","arrowup","[0.15,0.85,0.675,0.325]","","",""
"sailing-trial","57","644109","0.0-11.0-22.0","","","","false","","","","","","","","","","523.5","","300.4000000357628","","1","1","arrowleft","0","arrowright","[0.15,0.85,0.675,0.325]","","",""
"sailing-trial","58","652209","0.0-11.0-23.0","","","","false","","","","","","","","","","null","","5419.300000011921","","3","1","null","null","arrowup","[0.15,0.85,0.675,0.325]","","",""
"sailing-trial","59","657989","0.0-11.0-24.0","","","","false","","","","","","","","","","917.5","","848.0999999642372","","0","0","arrowleft","0","arrowleft","[0.15,0.85,0.675,0.325]","","",""
"sailing-trial","60","661656","0.0-11.0-25.0","","","","false","","","","","","","","","","null","","1720","","0","0","null","null","arrowup","[0.15,0.85,0.675,0.325]","","",""
"sailing-trial","61","667841","0.0-11.0-26.0","","","","false","","","","","","","","","","996.9000000357628","","180.39999997615814","","1","1","arrowleft","0","arrowright","[0.15,0.85,0.675,0.325]","","",""
"sailing-trial","62","671855","0.0-11.0-27.0","","","","false","","","","","","","","","","null","","1004.5","","2","0","null","null","arrowup","[0.15,0.85,0.675,0.325]","","",""
"sailing-trial","63","679391","0.0-11.0-28.0","","","","false","","","","","","","","","","710.1999999880791","","494.10000002384186","","3","1","arrowright","1","arrowright","[0.15,0.85,0.675,0.325]","","",""
"sailing-trial","64","683503","0.0-11.0-29.0","","","","false","","","","","","","","","","null","","1097.1000000238419","","3","0","null","null","arrowup","[0.15,0.85,0.675,0.325]","","",""
"sailing-trial","65","688205","0.0-11.0-30.0","","","","false","","","","","","","","","","637.3999999761581","","62.60000002384186","","3","0","arrowright","1","arrowright","[0.15,0.85,0.675,0.325]","","",""
"sailing-trial","66","692200","0.0-11.0-31.0","","","","false","","","","","","","","","","null","","980.1000000238419","","0","0","null","null","arrowup","[0.15,0.85,0.675,0.325]","","",""
"sailing-trial","67","702591","0.0-11.0-32.0","","","","false","","","","","","","","","","967.5","","827.7999999523163","","1","1","arrowleft","0","arrowright","[0.15,0.85,0.675,0.325]","","",""
"sailing-trial","68","707525","0.0-11.0-33.0","","","","false","","","","","","","","","","null","","1628.3999999761581","","0","1","null","null","arrowup","[0.15,0.85,0.675,0.325]","","",""
"sailing-trial","69","714858","0.0-11.0-34.0","","","","false","","","","","","","","","","2554.300000011921","","951","","1","1","arrowleft","0","arrowright","[0.325,0.675,0.85,0.15]","","",""
"sailing-trial","70","720606","0.0-11.0-35.0","","","","false","","","","","","","","","","null","","2709.099999964237","","3","0","null","null","arrowup","[0.325,0.675,0.85,0.15]","","",""
"sailing-trial","71","728238","0.0-11.0-36.0","","","","false","","","","","","","","","","2226.600000023842","","1366.7000000476837","","1","0","arrowleft","0","arrowright","[0.325,0.675,0.85,0.15]","","",""
"sailing-trial","72","732605","0.0-11.0-37.0","","","","false","","","","","","","","","","null","","1349.699999988079","","0","0","null","null","arrowup","[0.325,0.675,0.85,0.15]","","",""
"sailing-trial","73","745955","0.0-11.0-38.0","","","","false","","","","","","","","","","8931.400000035763","","383.0999999642372","","1","0","arrowleft","0","arrowright","[0.325,0.675,0.85,0.15]","","",""
"sailing-trial","74","750472","0.0-11.0-39.0","","","","false","","","","","","","","","","null","","1498.4000000357628","","2","0","null","null","arrowup","[0.325,0.675,0.85,0.15]","","",""
"sailing-trial","75","756408","0.0-11.0-40.0","","","","false","","","","","","","","","","1229.0999999642372","","468.19999998807907","","2","1","arrowright","1","arrowleft","[0.325,0.675,0.85,0.15]","","",""
"sailing-trial","76","761083","0.0-11.0-41.0","","","","false","","","","","","","","","","null","","1672.699999988079","","1","0","null","null","arrowup","[0.325,0.675,0.85,0.15]","","",""
"sailing-trial","77","769075","0.0-11.0-42.0","","","","false","","","","","","","","","","1142","","810.5999999642372","","2","1","arrowright","1","arrowleft","[0.325,0.675,0.85,0.15]","","",""
"sailing-trial","78","777482","0.0-11.0-43.0","","","","false","","","","","","","","","","null","","5401.399999976158","","3","0","null","null","arrowup","[0.325,0.675,0.85,0.15]","","",""
"sailing-trial","79","784658","0.0-11.0-44.0","","","","false","","","","","","","","","","1263.3999999761581","","439.30000001192093","","2","1","arrowright","1","arrowleft","[0.325,0.675,0.85,0.15]","","",""
"sailing-trial","80","790209","0.0-11.0-45.0","","","","false","","","","","","","","","","null","","1432.6000000238419","","1","1","null","null","arrowup","[0.325,0.675,0.85,0.15]","","",""
"sailing-trial","81","796392","0.0-11.0-46.0","","","","false","","","","","","","","","","910.4000000357628","","268.80000001192093","","2","1","arrowright","1","arrowleft","[0.325,0.675,0.85,0.15]","","",""
"sailing-trial","82","804891","0.0-11.0-47.0","","","","false","","","","","","","","","","null","","1394.699999988079","","2","1","null","null","arrowup","[0.325,0.675,0.85,0.15]","","",""
"sailing-trial","83","811575","0.0-11.0-48.0","","","","false","","","","","","","","","","663.8999999761581","","54.80000001192093","","2","1","arrowright","1","arrowleft","[0.325,0.675,0.85,0.15]","","",""
"sailing-trial","84","817308","0.0-11.0-49.0","","","","false","","","","","","","","","","null","","1538.9000000357628","","1","1","null","null","arrowup","[0.325,0.675,0.85,0.15]","","",""
"sailing-trial","85","822425","0.0-11.0-50.0","","","","false","","","","","","","","","","587.8000000119209","","228","","2","1","arrowright","1","arrowleft","[0.325,0.675,0.85,0.15]","","",""
"sailing-trial","86","828426","0.0-11.0-51.0","","","","false","","","","","","","","","","null","","1550.800000011921","","1","1","null","null","arrowup","[0.325,0.675,0.85,0.15]","","",""
"sailing-trial","87","834874","0.0-11.0-52.0","","","","false","","","","","","","","","","1383.199999988079","","20.099999964237213","","2","1","arrowright","1","arrowleft","[0.15,0.85,0.675,0.325]","","",""
"sailing-trial","88","843074","0.0-11.0-53.0","","","","false","","","","","","","","","","null","","2469.399999976158","","2","1","null","null","arrowup","[0.15,0.85,0.675,0.325]","","",""
"sailing-trial","89","853675","0.0-11.0-54.0","","","","false","","","","","","","","","","627.1999999880791","","325.0999999642372","","2","1","arrowright","1","arrowleft","[0.15,0.85,0.675,0.325]","","",""
"sailing-trial","90","864192","0.0-11.0-55.0","","","","false","","","","","","","","","","null","","4231.600000023842","","2","1","null","null","arrowup","[0.15,0.85,0.675,0.325]","","",""
"sailing-trial","91","872208","0.0-11.0-56.0","","","","false","","","","","","","","","","627.6000000238419","","125.60000002384186","","2","1","arrowright","1","arrowleft","[0.15,0.85,0.675,0.325]","","",""
"sailing-trial","92","877253","0.0-11.0-57.0","","","","false","","","","","","","","","","null","","2040.6000000238419","","0","0","null","null","arrowup","[0.15,0.85,0.675,0.325]","","",""
"sailing-trial","93","886441","0.0-11.0-58.0","","","","false","","","","","","","","","","686.8999999761581","","1756.699999988079","","2","1","arrowright","1","arrowleft","[0.15,0.85,0.675,0.325]","","",""
"sailing-trial","94","890775","0.0-11.0-59.0","","","","false","","","","","","","","","","null","","1491.8999999761581","","1","1","null","null","arrowup","[0.15,0.85,0.675,0.325]","","",""
"sailing-trial","95","898409","0.0-11.0-60.0","","","","false","","","","","","","","","","3451.300000011921","","480.80000001192093","","2","1","arrowright","1","arrowleft","[0.15,0.85,0.675,0.325]","","",""
"sailing-trial","96","903863","0.0-11.0-61.0","","","","false","","","","","","","","","","null","","2446.899999976158","","1","0","null","null","arrowup","[0.15,0.85,0.675,0.325]","","",""
"sailing-trial","97","912641","0.0-11.0-62.0","","","","false","","","","","","","","","","1553.5999999642372","","387.4000000357628","","2","1","arrowright","1","arrowleft","[0.15,0.85,0.675,0.325]","","",""
"sailing-trial","98","918232","0.0-11.0-63.0","","","","false","","","","","","","","","","null","","2581.100000023842","","3","0","null","null","arrowup","[0.15,0.85,0.675,0.325]","","",""
"sailing-trial","99","923323","0.0-11.0-64.0","","","","false","","","","","","","","","","636.4000000357628","","427.30000001192093","","2","0","arrowright","1","arrowleft","[0.15,0.85,0.675,0.325]","","",""
"sailing-trial","100","929741","0.0-11.0-65.0","","","","false","","","","","","","","","","null","","2186.300000011921","","1","1","null","null","arrowup","[0.15,0.85,0.675,0.325]","","",""
"sailing-trial","101","936808","0.0-11.0-66.0","","","","false","","","","","","","","","","577.8000000119209","","235.5","","2","1","arrowright","1","arrowleft","[0.15,0.85,0.675,0.325]","","",""
"sailing-trial","102","945126","0.0-11.0-67.0","","","","false","","","","","","","","","","null","","3899.899999976158","","1","1","null","null","arrowup","[0.15,0.85,0.675,0.325]","","",""
"sailing-trial","103","951008","0.0-11.0-68.0","","","","false","","","","","","","","","","911.6000000238419","","1076","","1","1","arrowleft","0","arrowright","[0.15,0.85,0.675,0.325]","","",""
"sailing-trial","104","955242","0.0-11.0-69.0","","","","false","","","","","","","","","","null","","2294.199999988079","","0","0","null","null","arrowup","[0.15,0.85,0.675,0.325]","","",""
"sailing-trial","105","960673","0.0-11.0-70.0","","","","false","","","","","","","","","","1251.6000000238419","","343.89999997615814","","1","0","arrowleft","0","arrowright","[0.15,0.85,0.675,0.325]","","",""
"sailing-trial","106","965874","0.0-11.0-71.0","","","","false","","","","","","","","","","null","","3672.600000023842","","3","0","null","null","arrowup","[0.15,0.85,0.675,0.325]","","",""
"sailing-trial","107","971048","0.0-11.0-72.0","","","","false","","","","","","","","","","1104.5999999642372","","12.600000023841858","","2","0","arrowright","1","arrowleft","[0.15,0.85,0.675,0.325]","","",""
"sailing-trial","108","978508","0.0-11.0-73.0","","","","false","","","","","","","","","","null","","4428.100000023842","","3","1","null","null","arrowup","[0.15,0.85,0.675,0.325]","","",""
"sailing-trial","109","984875","0.0-11.0-74.0","","","","false","","","","","","","","","","695.8000000119209","","1478.300000011921","","3","1","arrowright","1","arrowright","[0.325,0.675,0.85,0.15]","","",""
"sailing-trial","110","988711","0.0-11.0-75.0","","","","false","","","","","","","","","","null","","1548.199999988079","","1","0","null","null","arrowup","[0.325,0.675,0.85,0.15]","","",""
"sailing-trial","111","993485","0.0-11.0-76.0","","","","false","","","","","","","","","","238.19999998807907","","492.30000001192093","","3","0","arrowright","1","arrowright","[0.325,0.675,0.85,0.15]","","",""
"sailing-trial","112","998989","0.0-11.0-77.0","","","","false","","","","","","","","","","null","","2493.199999988079","","0","0","null","null","arrowup","[0.325,0.675,0.85,0.15]","","",""
"sailing-trial","113","1004725","0.0-11.0-78.0","","","","false","","","","","","","","","","725.9000000357628","","563","","1","1","arrowleft","0","arrowright","[0.325,0.675,0.85,0.15]","","",""
"sailing-trial","114","1008886","0.0-11.0-79.0","","","","false","","","","","","","","","","null","","1157.699999988079","","1","0","null","null","arrowup","[0.325,0.675,0.85,0.15]","","",""
"sailing-trial","115","1018726","0.0-11.0-80.0","","","","false","","","","","","","","","","781.6999999880791","","1395.9000000357628","","2","1","arrowright","1","arrowleft","[0.325,0.675,0.85,0.15]","","",""
"sailing-trial","116","1025058","0.0-11.0-81.0","","","","false","","","","","","","","","","null","","2610.699999988079","","0","1","null","null","arrowup","[0.325,0.675,0.85,0.15]","","",""
"sailing-trial","117","1031259","0.0-11.0-82.0","","","","false","","","","","","","","","","611.6000000238419","","385.80000001192093","","2","1","arrowright","1","arrowleft","[0.325,0.675,0.85,0.15]","","",""
"sailing-trial","118","1035358","0.0-11.0-83.0","","","","false","","","","","","","","","","null","","1871.1000000238419","","0","1","null","null","arrowup","[0.325,0.675,0.85,0.15]","","",""
"sailing-trial","119","1039608","0.0-11.0-84.0","","","","false","","","","","","","","","","760.0999999642372","","215.79999995231628","","2","1","arrowright","1","arrowleft","[0.325,0.675,0.85,0.15]","","",""
"sailing-trial","120","1043983","0.0-11.0-85.0","","","","false","","","","","","","","","","null","","2844.199999988079","","0","0","null","null","arrowup","[0.325,0.675,0.85,0.15]","","",""
"sailing-trial","121","1048074","0.0-11.0-86.0","","","","false","","","","","","","","","","583.1000000238419","","337.30000001192093","","2","1","arrowright","1","arrowleft","[0.325,0.675,0.85,0.15]","","",""
"sailing-trial","122","1051457","0.0-11.0-87.0","","","","false","","","","","","","","","","null","","1443.7000000476837","","1","1","null","null","arrowup","[0.325,0.675,0.85,0.15]","","",""
"sailing-trial","123","1055842","0.0-11.0-88.0","","","","false","","","","","","","","","","1194.9000000357628","","90.5","","2","1","arrowright","1","arrowleft","[0.325,0.675,0.85,0.15]","","",""
"sailing-trial","124","1059225","0.0-11.0-89.0","","","","false","","","","","","","","","","null","","1549.1000000238419","","2","1","null","null","arrowup","[0.325,0.675,0.85,0.15]","","",""
"sailing-trial","125","1064459","0.0-11.0-90.0","","","","false","","","","","","","","","","2106.800000011921","","183.5","","2","1","arrowright","1","arrowleft","[0.325,0.675,0.85,0.15]","","",""
"sailing-trial","126","1067424","0.0-11.0-91.0","","","","false","","","","","","","","","","null","","1321.4000000357628","","3","0","null","null","arrowup","[0.325,0.675,0.85,0.15]","","",""
"sailing-trial","127","1071808","0.0-11.0-92.0","","","","false","","","","","","","","","","599.0999999642372","","648.3999999761581","","2","1","arrowright","1","arrowleft","[0.325,0.675,0.85,0.15]","","",""
"sailing-trial","128","1077593","0.0-11.0-93.0","","","","false","","","","","","","","","","null","","3867.400000035763","","2","1","null","null","arrowup","[0.325,0.675,0.85,0.15]","","",""
"sailing-trial","129","1082355","0.0-11.0-94.0","","","","false","","","","","","","","","","544.2999999523163","","208.30000001192093","","2","0","arrowright","1","arrowleft","[0.15,0.85,0.675,0.325]","","",""
"sailing-trial","130","1086590","0.0-11.0-95.0","","","","false","","","","","","","","","","null","","1215.300000011921","","3","0","null","null","arrowup","[0.15,0.85,0.675,0.325]","","",""
"sailing-trial","131","1091315","0.0-11.0-96.0","","","","false","","","","","","","","","","580.5999999642372","","50.60000002384186","","0","0","arrowleft","0","arrowleft","[0.15,0.85,0.675,0.325]","","",""
"sailing-trial","132","1094826","0.0-11.0-97.0","","","","false","","","","","","","","","","null","","1061.0999999642372","","0","1","null","null","arrowup","[0.15,0.85,0.675,0.325]","","",""
"sailing-trial","133","1101304","0.0-11.0-98.0","","","","false","","","","","","","","","","778.1999999880791","","1676.699999988079","","0","0","arrowleft","0","arrowleft","[0.15,0.85,0.675,0.325]","","",""
"sailing-trial","134","1104543","0.0-11.0-99.0","","","","false","","","","","","","","","","null","","1037.199999988079","","3","1","null","null","arrowup","[0.15,0.85,0.675,0.325]","","",""
"sailing-trial","135","1108775","0.0-11.0-100.0","","","","false","","","","","","","","","","916.0999999642372","","51.80000001192093","","3","1","arrowright","1","arrowright","[0.15,0.85,0.675,0.325]","","",""
"sailing-trial","136","1112860","0.0-11.0-101.0","","","","false","","","","","","","","","","null","","1461.800000011921","","1","1","null","null","arrowup","[0.15,0.85,0.675,0.325]","","",""
"sailing-trial","137","1118371","0.0-11.0-102.0","","","","false","","","","","","","","","","1209.5","","277.39999997615814","","3","0","arrowright","1","arrowright","[0.15,0.85,0.675,0.325]","","",""
"sailing-trial","138","1122509","0.0-11.0-103.0","","","","false","","","","","","","","","","null","","2123.800000011921","","2","1","null","null","arrowup","[0.15,0.85,0.675,0.325]","","",""
"sailing-trial","139","1126542","0.0-11.0-104.0","","","","false","","","","","","","","","","614.8000000119209","","176.60000002384186","","3","1","arrowright","1","arrowright","[0.15,0.85,0.675,0.325]","","",""
"sailing-trial","140","1130226","0.0-11.0-105.0","","","","false","","","","","","","","","","null","","1508.8999999761581","","0","0","null","null","arrowup","[0.15,0.85,0.675,0.325]","","",""
"sailing-trial","141","1134860","0.0-11.0-106.0","","","","false","","","","","","","","","","571.3999999761581","","933.8000000119209","","2","1","arrowright","1","arrowleft","[0.15,0.85,0.675,0.325]","","",""
"sailing-trial","142","1138078","0.0-11.0-107.0","","","","false","","","","","","","","","","null","","1206.9000000357628","","2","1","null","null","arrowup","[0.15,0.85,0.675,0.325]","","",""
"sailing-trial","143","1141742","0.0-11.0-108.0","","","","false","","","","","","","","","","525.3000000119209","","709.3000000119209","","2","0","arrowright","1","arrowleft","[0.15,0.85,0.675,0.325]","","",""
"sailing-trial","144","1144258","0.0-11.0-109.0","","","","false","","","","","","","","","","null","","1357.5999999642372","","0","0","null","null","arrowup","[0.15,0.85,0.675,0.325]","","",""
"sailing-trial","145","1149146","0.0-11.0-110.0","","","","false","","","","","","","","","","844.5999999642372","","1303.5","","1","1","arrowleft","0","arrowright","[0.15,0.85,0.675,0.325]","","",""
"sailing-trial","146","1151473","0.0-11.0-111.0","","","","false","","","","","","","","","","null","","1052.300000011921","","0","0","null","null","arrowup","[0.15,0.85,0.675,0.325]","","",""
"sailing-trial","147","1155595","0.0-11.0-112.0","","","","false","","","","","","","","","","640.5","","423.69999998807907","","1","1","arrowleft","0","arrowright","[0.15,0.85,0.675,0.325]","","",""
"sailing-trial","148","1158059","0.0-11.0-113.0","","","","false","","","","","","","","","","null","","1082.0999999642372","","3","0","null","null","arrowup","[0.15,0.85,0.675,0.325]","","",""
"sailing-trial","149","1161361","0.0-11.0-114.0","","","","false","","","","","","","","","","491.5999999642372","","216.60000002384186","","1","1","arrowleft","0","arrowright","[0.15,0.85,0.675,0.325]","","",""
"sailing-trial","150","1164546","0.0-11.0-115.0","","","","false","","","","","","","","","","null","","1107.6000000238419","","3","1","null","null","arrowup","[0.15,0.85,0.675,0.325]","","",""
"sailing-trial","151","1168069","0.0-11.0-116.0","","","","false","","","","","","","","","","402.10000002384186","","365.39999997615814","","1","0","arrowleft","0","arrowright","[0.325,0.675,0.85,0.15]","","",""
"sailing-trial","152","1171246","0.0-11.0-117.0","","","","false","","","","","","","","","","null","","1007","","2","1","null","null","arrowup","[0.325,0.675,0.85,0.15]","","",""
"sailing-trial","153","1175211","0.0-11.0-118.0","","","","false","","","","","","","","","","773.4000000357628","","126.5","","1","1","arrowleft","0","arrowright","[0.325,0.675,0.85,0.15]","","",""
"sailing-trial","154","1178030","0.0-11.0-119.0","","","","false","","","","","","","","","","null","","1024.5","","2","1","null","null","arrowup","[0.325,0.675,0.85,0.15]","","",""
"sailing-trial","155","1183606","0.0-11.0-120.0","","","","false","","","","","","","","","","789.3999999761581","","1254.300000011921","","1","0","arrowleft","0","arrowright","[0.325,0.675,0.85,0.15]","","",""
"sailing-trial","156","1185993","0.0-11.0-121.0","","","","false","","","","","","","","","","null","","961.1999999880791","","3","0","null","null","arrowup","[0.325,0.675,0.85,0.15]","","",""
"sailing-trial","157","1189646","0.0-11.0-122.0","","","","false","","","","","","","","","","628.4000000357628","","94","","2","1","arrowright","1","arrowleft","[0.325,0.675,0.85,0.15]","","",""
"sailing-trial","158","1192646","0.0-11.0-123.0","","","","false","","","","","","","","","","null","","966.0999999642372","","0","1","null","null","arrowup","[0.325,0.675,0.85,0.15]","","",""
"sailing-trial","159","1196596","0.0-11.0-124.0","","","","false","","","","","","","","","","732.8000000119209","","323.5","","2","1","arrowright","1","arrowleft","[0.325,0.675,0.85,0.15]","","",""
"sailing-trial","160","1199396","0.0-11.0-125.0","","","","false","","","","","","","","","","null","","910.3999999761581","","1","1","null","null","arrowup","[0.325,0.675,0.85,0.15]","","",""
"sailing-trial","161","1202546","0.0-11.0-126.0","","","","false","","","","","","","","","","107.5","","11.600000023841858","","2","1","arrowright","1","arrowleft","[0.325,0.675,0.85,0.15]","","",""
"sailing-trial","162","1205846","0.0-11.0-127.0","","","","false","","","","","","","","","","null","","912.5","","0","0","null","null","arrowup","[0.325,0.675,0.85,0.15]","","",""
"sailing-trial","163","1209462","0.0-11.0-128.0","","","","false","","","","","","","","","","475.5","","464","","2","1","arrowright","1","arrowleft","[0.325,0.675,0.85,0.15]","","",""
"sailing-trial","164","1212362","0.0-11.0-129.0","","","","false","","","","","","","","","","null","","714.9000000357628","","2","1","null","null","arrowup","[0.325,0.675,0.85,0.15]","","",""
"sailing-trial","165","1216079","0.0-11.0-130.0","","","","false","","","","","","","","","","359.69999998807907","","135.5","","2","1","arrowright","1","arrowleft","[0.325,0.675,0.85,0.15]","","",""
"sailing-trial","166","1218518","0.0-11.0-131.0","","","","false","","","","","","","","","","null","","1026.1000000238419","","3","0","null","null","arrowup","[0.325,0.675,0.85,0.15]","","",""
"sailing-trial","167","1222580","0.0-11.0-132.0","","","","false","","","","","","","","","","661.8000000119209","","391.4000000357628","","2","1","arrowright","1","arrowleft","[0.85,0.15,0.325,0.675]","","",""
"sailing-trial","168","1225413","0.0-11.0-133.0","","","","false","","","","","","","","","","null","","948.9000000357628","","2","1","null","null","arrowup","[0.85,0.15,0.325,0.675]","","",""
"sailing-trial","169","1229530","0.0-11.0-134.0","","","","false","","","","","","","","","","395.30000001192093","","704.1000000238419","","2","1","arrowright","1","arrowleft","[0.85,0.15,0.325,0.675]","","",""
"sailing-trial","170","1233798","0.0-11.0-135.0","","","","false","","","","","","","","","","null","","2450.300000011921","","1","0","null","null","arrowup","[0.85,0.15,0.325,0.675]","","",""
"sailing-trial","171","1237607","0.0-11.0-136.0","","","","false","","","","","","","","","","774.5999999642372","","205.5","","2","0","arrowright","1","arrowleft","[0.85,0.15,0.325,0.675]","","",""
"sailing-trial","172","1241977","0.0-11.0-137.0","","","","false","","","","","","","","","","null","","2631.199999988079","","1","0","null","null","arrowup","[0.85,0.15,0.325,0.675]","","",""
"sailing-trial","173","1245983","0.0-11.0-138.0","","","","false","","","","","","","","","","1234.9000000357628","","577.6999999880791","","2","0","arrowright","1","arrowleft","[0.85,0.15,0.325,0.675]","","",""
"sailing-trial","174","1249863","0.0-11.0-139.0","","","","false","","","","","","","","","","null","","1288.9000000357628","","3","1","null","null","arrowup","[0.85,0.15,0.325,0.675]","","",""
"sailing-trial","175","1254048","0.0-11.0-140.0","","","","false","","","","","","","","","","642.5","","292.5","","3","0","arrowright","1","arrowright","[0.85,0.15,0.325,0.675]","","",""
"sailing-trial","176","1256594","0.0-11.0-141.0","","","","false","","","","","","","","","","null","","1075.7000000476837","","0","0","null","null","arrowup","[0.85,0.15,0.325,0.675]","","",""
"sailing-trial","177","1259789","0.0-11.0-142.0","","","","false","","","","","","","","","","641.8999999761581","","86.30000001192093","","1","0","arrowleft","0","arrowright","[0.85,0.15,0.325,0.675]","","",""
"sailing-trial","178","1263164","0.0-11.0-143.0","","","","false","","","","","","","","","","null","","1430.9000000357628","","3","1","null","null","arrowup","[0.85,0.15,0.325,0.675]","","",""
"sailing-trial","179","1266613","0.0-11.0-144.0","","","","false","","","","","","","","","","477.5","","58.5","","3","1","arrowright","1","arrowright","[0.85,0.15,0.325,0.675]","","",""
"sailing-trial","180","1269830","0.0-11.0-145.0","","","","false","","","","","","","","","","null","","1101.0999999642372","","3","1","null","null","arrowup","[0.85,0.15,0.325,0.675]","","",""
"sailing-trial","181","1273288","0.0-11.0-146.0","","","","false","","","","","","","","","","480.30000001192093","","136.9000000357628","","3","0","arrowright","1","arrowright","[0.85,0.15,0.325,0.675]","","",""
"sailing-trial","182","1275835","0.0-11.0-147.0","","","","false","","","","","","","","","","null","","985.8999999761581","","3","0","null","null","arrowup","[0.85,0.15,0.325,0.675]","","",""
"sailing-trial","183","1279201","0.0-11.0-148.0","","","","false","","","","","","","","","","677.6999999880791","","91.39999997615814","","2","0","arrowright","1","arrowleft","[0.85,0.15,0.325,0.675]","","",""
"sailing-trial","184","1281594","0.0-11.0-149.0","","","","false","","","","","","","","","","null","","959.8000000119209","","1","0","null","null","arrowup","[0.85,0.15,0.325,0.675]","","",""
"sailing-trial","185","1284836","0.0-11.0-150.0","","","","false","","","","","","","","","","530.6999999880791","","301.39999997615814","","2","0","arrowright","1","arrowleft","[0.675,0.325,0.15,0.85]","","",""
"sailing-trial","186","1287662","0.0-11.0-151.0","","","","false","","","","","","","","","","null","","839.8000000119209","","3","1","null","null","arrowup","[0.675,0.325,0.15,0.85]","","",""
"sailing-trial","187","1291145","0.0-11.0-152.0","","","","false","","","","","","","","","","516.6999999880791","","140.9000000357628","","0","1","arrowleft","0","arrowleft","[0.675,0.325,0.15,0.85]","","",""
"sailing-trial","188","1293947","0.0-11.0-153.0","","","","false","","","","","","","","","","null","","933","","3","1","null","null","arrowup","[0.675,0.325,0.15,0.85]","","",""
"sailing-trial","189","1298032","0.0-11.0-154.0","","","","false","","","","","","","","","","900","","177.80000001192093","","0","0","arrowleft","0","arrowleft","[0.675,0.325,0.15,0.85]","","",""
"sailing-trial","190","1300601","0.0-11.0-155.0","","","","false","","","","","","","","","","null","","1095","","1","0","null","null","arrowup","[0.675,0.325,0.15,0.85]","","",""
"sailing-trial","191","1304210","0.0-11.0-156.0","","","","false","","","","","","","","","","382.89999997615814","","426.5","","3","1","arrowright","1","arrowright","[0.675,0.325,0.15,0.85]","","",""
"sailing-trial","192","1306343","0.0-11.0-157.0","","","","false","","","","","","","","","","null","","562.7000000476837","","1","0","null","null","arrowup","[0.675,0.325,0.15,0.85]","","",""
"sailing-trial","193","1310212","0.0-11.0-158.0","","","","false","","","","","","","","","","469.7999999523163","","382.9000000357628","","3","1","arrowright","1","arrowright","[0.675,0.325,0.15,0.85]","","",""
"sailing-trial","194","1313347","0.0-11.0-159.0","","","","false","","","","","","","","","","null","","1100.0999999642372","","3","1","null","null","arrowup","[0.675,0.325,0.15,0.85]","","",""
"sailing-trial","195","1318513","0.0-11.0-160.0","","","","false","","","","","","","","","","702.3000000119209","","1416.5999999642372","","3","1","arrowright","1","arrowright","[0.675,0.325,0.15,0.85]","","",""
"sailing-trial","196","1321463","0.0-11.0-161.0","","","","false","","","","","","","","","","null","","1073.3999999761581","","0","1","null","null","arrowup","[0.675,0.325,0.15,0.85]","","",""
"sailing-trial","197","1325063","0.0-11.0-162.0","","","","false","","","","","","","","","","521.7000000476837","","97.59999996423721","","3","1","arrowright","1","arrowright","[0.675,0.325,0.15,0.85]","","",""
"sailing-trial","198","1327747","0.0-11.0-163.0","","","","false","","","","","","","","","","null","","880.5","","0","1","null","null","arrowup","[0.675,0.325,0.15,0.85]","","",""
"sailing-trial","199","1332011","0.0-11.0-164.0","","","","false","","","","","","","","","","573.9000000357628","","604.8000000119209","","3","0","arrowright","1","arrowright","[0.675,0.325,0.15,0.85]","","",""
"sailing-trial","200","1334794","0.0-11.0-165.0","","","","false","","","","","","","","","","null","","1012","","2","0","null","null","arrowup","[0.675,0.325,0.15,0.85]","","",""
"sailing-trial","201","1338589","0.0-11.0-166.0","","","","false","","","","","","","","","","926.3000000119209","","430","","3","0","arrowright","1","arrowright","[0.15,0.85,0.675,0.325]","","",""
"sailing-trial","202","1341447","0.0-11.0-167.0","","","","false","","","","","","","","","","null","","1006.5","","1","1","null","null","arrowup","[0.15,0.85,0.675,0.325]","","",""
"sailing-trial","203","1345630","0.0-11.0-168.0","","","","false","","","","","","","","","","826.5","","369.5999999642372","","1","1","arrowleft","0","arrowright","[0.15,0.85,0.675,0.325]","","",""
"sailing-trial","204","1348263","0.0-11.0-169.0","","","","false","","","","","","","","","","null","","849.3999999761581","","2","1","null","null","arrowup","[0.15,0.85,0.675,0.325]","","",""
"sailing-trial","205","1351730","0.0-11.0-170.0","","","","false","","","","","","","","","","353.80000001192093","","231.19999998807907","","2","1","arrowright","1","arrowleft","[0.15,0.85,0.675,0.325]","","",""
"sailing-trial","206","1354102","0.0-11.0-171.0","","","","false","","","","","","","","","","null","","891.3000000119209","","0","0","null","null","arrowup","[0.15,0.85,0.675,0.325]","","",""
"sailing-trial","207","1357779","0.0-11.0-172.0","","","","false","","","","","","","","","","479.69999998807907","","343.7999999523163","","2","1","arrowright","1","arrowleft","[0.15,0.85,0.675,0.325]","","",""
"sailing-trial","208","1360397","0.0-11.0-173.0","","","","false","","","","","","","","","","null","","772.6999999880791","","1","1","null","null","arrowup","[0.15,0.85,0.675,0.325]","","",""
"sailing-trial","209","1364242","0.0-11.0-174.0","","","","false","","","","","","","","","","465.60000002384186","","428.30000001192093","","2","0","arrowright","1","arrowleft","[0.15,0.85,0.675,0.325]","","",""
"sailing-trial","210","1366742","0.0-11.0-175.0","","","","false","","","","","","","","","","null","","1022.5999999642372","","3","0","null","null","arrowup","[0.15,0.85,0.675,0.325]","","",""
"sailing-trial","211","1370729","0.0-11.0-176.0","","","","false","","","","","","","","","","663.5","","381.19999998807907","","1","1","arrowleft","0","arrowright","[0.15,0.85,0.675,0.325]","","",""
"sailing-trial","212","1372854","0.0-11.0-177.0","","","","false","","","","","","","","","","null","","770","","0","0","null","null","arrowup","[0.15,0.85,0.675,0.325]","","",""
"sailing-trial","213","1376597","0.0-11.0-178.0","","","","false","","","","","","","","","","496.4000000357628","","300.10000002384186","","1","1","arrowleft","0","arrowright","[0.15,0.85,0.675,0.325]","","",""
"sailing-trial","214","1379247","0.0-11.0-179.0","","","","false","","","","","","","","","","null","","833.5","","1","1","null","null","arrowup","[0.15,0.85,0.675,0.325]","","",""
"sailing-trial","215","1383029","0.0-11.0-180.0","","","","false","","","","","","","","","","699.6999999880791","","216.60000002384186","","1","1","arrowleft","0","arrowright","[0.15,0.85,0.675,0.325]","","",""
"sailing-trial","216","1385161","0.0-11.0-181.0","","","","false","","","","","","","","","","null","","871.2000000476837","","0","0","null","null","arrowup","[0.15,0.85,0.675,0.325]","","",""
"sailing-trial","217","1388912","0.0-11.0-182.0","","","","false","","","","","","","","","","435.5","","475.9000000357628","","1","1","arrowleft","0","arrowright","[0.325,0.675,0.85,0.15]","","",""
"sailing-trial","218","1391647","0.0-11.0-183.0","","","","false","","","","","","","","","","null","","806.5999999642372","","2","1","null","null","arrowup","[0.325,0.675,0.85,0.15]","","",""
"sailing-trial","219","1395512","0.0-11.0-184.0","","","","false","","","","","","","","","","559.8999999761581","","307","","1","0","arrowleft","0","arrowright","[0.325,0.675,0.85,0.15]","","",""
"sailing-trial","220","1398164","0.0-11.0-185.0","","","","false","","","","","","","","","","null","","1185.0999999642372","","0","0","null","null","arrowup","[0.325,0.675,0.85,0.15]","","",""
"sailing-trial","221","1401689","0.0-11.0-186.0","","","","false","","","","","","","","","","553.0999999642372","","73.10000002384186","","3","0","arrowright","1","arrowright","[0.325,0.675,0.85,0.15]","","",""
"sailing-trial","222","1403916","0.0-11.0-187.0","","","","false","","","","","","","","","","null","","864.0999999642372","","0","0","null","null","arrowup","[0.325,0.675,0.85,0.15]","","",""
"sailing-trial","223","1407629","0.0-11.0-188.0","","","","false","","","","","","","","","","483.69999998807907","","389.69999998807907","","2","1","arrowright","1","arrowleft","[0.325,0.675,0.85,0.15]","","",""
"sailing-trial","224","1410513","0.0-11.0-189.0","","","","false","","","","","","","","","","null","","948.6000000238419","","2","1","null","null","arrowup","[0.325,0.675,0.85,0.15]","","",""
"sailing-trial","225","1413384","0.0-11.0-190.0","","","","false","","","","","","","","","","142.4000000357628","","370.60000002384186","","1","0","arrowleft","0","arrowright","[0.325,0.675,0.85,0.15]","","",""
"sailing-trial","226","1416447","0.0-11.0-191.0","","","","false","","","","","","","","","","null","","956.9000000357628","","2","1","null","null","arrowup","[0.325,0.675,0.85,0.15]","","",""
"sailing-trial","227","1420262","0.0-11.0-192.0","","","","false","","","","","","","","","","201.29999995231628","","349.4000000357628","","2","1","arrowright","1","arrowleft","[0.325,0.675,0.85,0.15]","","",""
"sailing-trial","228","1423280","0.0-11.0-193.0","","","","false","","","","","","","","","","null","","1159.4000000357628","","2","1","null","null","arrowup","[0.325,0.675,0.85,0.15]","","",""
"sailing-trial","229","1426390","0.0-11.0-194.0","","","","false","","","","","","","","","","636.6999999880791","","148.60000002384186","","2","0","arrowright","1","arrowleft","[0.325,0.675,0.85,0.15]","","",""
"sailing-trial","230","1428953","0.0-11.0-195.0","","","","false","","","","","","","","","","null","","1118.0999999642372","","3","0","null","null","arrowup","[0.325,0.675,0.85,0.15]","","",""
"sailing-trial","231","1433213","0.0-11.0-196.0","","","","false","","","","","","","","","","753.0999999642372","","454","","2","1","arrowright","1","arrowleft","[0.325,0.675,0.85,0.15]","","",""
"sailing-trial","232","1435535","0.0-11.0-197.0","","","","false","","","","","","","","","","null","","739.8999999761581","","0","0","null","null","arrowup","[0.325,0.675,0.85,0.15]","","",""
"sailing-trial","233","1439094","0.0-11.0-198.0","","","","false","","","","","","","","","","480.5999999642372","","473.19999998807907","","2","0","arrowright","1","arrowleft","[0.325,0.675,0.85,0.15]","","",""
"sailing-trial","234","1441394","0.0-11.0-199.0","","","","false","","","","","","","","","","null","","844.1999999880791","","3","0","null","null","arrowup","[0.325,0.675,0.85,0.15]","","",""
"sailing-trial","235","1445064","0.0-11.0-200.0","","","","false","","","","","","","","","","734.3999999761581","","39.5","","1","0","arrowleft","0","arrowright","[0.675,0.325,0.15,0.85]","","",""
"sailing-trial","236","1447393","0.0-11.0-201.0","","","","false","","","","","","","","","","null","","874","","1","0","null","null","arrowup","[0.675,0.325,0.15,0.85]","","",""
"sailing-trial","237","1451445","0.0-11.0-202.0","","","","false","","","","","","","","","","641.3999999761581","","424.4000000357628","","1","1","arrowleft","0","arrowright","[0.675,0.325,0.15,0.85]","","",""
"sailing-trial","238","1454296","0.0-11.0-203.0","","","","false","","","","","","","","","","null","","625.0999999642372","","0","1","null","null","arrowup","[0.675,0.325,0.15,0.85]","","",""
"sailing-trial","239","1458465","0.0-11.0-204.0","","","","false","","","","","","","","","","904.0999999642372","","100.10000002384186","","0","1","arrowleft","0","arrowleft","[0.675,0.325,0.15,0.85]","","",""
"sailing-trial","240","1460911","0.0-11.0-205.0","","","","false","","","","","","","","","","null","","1006.3999999761581","","2","0","null","null","arrowup","[0.675,0.325,0.15,0.85]","","",""
"sailing-trial","241","1464230","0.0-11.0-206.0","","","","false","","","","","","","","","","446.60000002384186","","27.100000023841858","","0","1","arrowleft","0","arrowleft","[0.675,0.325,0.15,0.85]","","",""
"sailing-trial","242","1467247","0.0-11.0-207.0","","","","false","","","","","","","","","","null","","1144.300000011921","","1","1","null","null","arrowup","[0.675,0.325,0.15,0.85]","","",""
"sailing-trial","243","1471397","0.0-11.0-208.0","","","","false","","","","","","","","","","698.8000000119209","","518.5","","0","1","arrowleft","0","arrowleft","[0.675,0.325,0.15,0.85]","","",""
"sailing-trial","244","1475777","0.0-11.0-209.0","","","","false","","","","","","","","","","null","","1463.699999988079","","2","0","null","null","arrowup","[0.675,0.325,0.15,0.85]","","",""
"sailing-trial","245","1479464","0.0-11.0-210.0","","","","false","","","","","","","","","","571.4000000357628","","239.89999997615814","","0","1","arrowleft","0","arrowleft","[0.675,0.325,0.15,0.85]","","",""
"sailing-trial","246","1484778","0.0-11.0-211.0","","","","false","","","","","","","","","","null","","3850.300000011921","","1","0","null","null","arrowup","[0.675,0.325,0.15,0.85]","","",""
"sailing-trial","247","1488413","0.0-11.0-212.0","","","","false","","","","","","","","","","640","","147.80000001192093","","0","1","arrowleft","0","arrowleft","[0.675,0.325,0.15,0.85]","","",""
"sailing-trial","248","1491247","0.0-11.0-213.0","","","","false","","","","","","","","","","null","","746.5","","3","1","null","null","arrowup","[0.675,0.325,0.15,0.85]","","",""
"sailing-trial","249","1494946","0.0-11.0-214.0","","","","false","","","","","","","","","","627","","268.39999997615814","","0","1","arrowleft","0","arrowleft","[0.675,0.325,0.15,0.85]","","",""
"sailing-trial","250","1497561","0.0-11.0-215.0","","","","false","","","","","","","","","","null","","1025.6000000238419","","3","0","null","null","arrowup","[0.675,0.325,0.15,0.85]","","",""
"sailing-trial","251","1502796","0.0-11.0-216.0","","","","false","","","","","","","","","","715.6000000238419","","1525.8999999761581","","0","1","arrowleft","0","arrowleft","[0.85,0.15,0.325,0.675]","","",""
"sailing-trial","252","1505261","0.0-11.0-217.0","","","","false","","","","","","","","","","null","","960.3000000119209","","1","0","null","null","arrowup","[0.85,0.15,0.325,0.675]","","",""
"sailing-trial","253","1509612","0.0-11.0-218.0","","","","false","","","","","","","","","","839.2999999523163","","559","","0","1","arrowleft","0","arrowleft","[0.85,0.15,0.325,0.675]","","",""
"sailing-trial","254","1511790","0.0-11.0-219.0","","","","false","","","","","","","","","","null","","867.1999999880791","","3","0","null","null","arrowup","[0.85,0.15,0.325,0.675]","","",""
"sailing-trial","255","1515613","0.0-11.0-220.0","","","","false","","","","","","","","","","551.5","","168.69999998807907","","0","1","arrowleft","0","arrowleft","[0.85,0.15,0.325,0.675]","","",""
"sailing-trial","256","1517649","0.0-11.0-221.0","","","","false","","","","","","","","","","null","","738.9000000357628","","1","0","null","null","arrowup","[0.85,0.15,0.325,0.675]","","",""
"sailing-trial","257","1521366","0.0-11.0-222.0","","","","false","","","","","","","","","","432.89999997615814","","471.19999998807907","","0","1","arrowleft","0","arrowleft","[0.85,0.15,0.325,0.675]","","",""
"sailing-trial","258","1523863","0.0-11.0-223.0","","","","false","","","","","","","","","","null","","894.8000000119209","","2","0","null","null","arrowup","[0.85,0.15,0.325,0.675]","","",""
"sailing-trial","259","1527847","0.0-11.0-224.0","","","","false","","","","","","","","","","823.3000000119209","","253.0999999642372","","0","1","arrowleft","0","arrowleft","[0.85,0.15,0.325,0.675]","","",""
"sailing-trial","260","1530045","0.0-11.0-225.0","","","","false","","","","","","","","","","null","","823.5999999642372","","1","0","null","null","arrowup","[0.85,0.15,0.325,0.675]","","",""
"sailing-trial","261","1533847","0.0-11.0-226.0","","","","false","","","","","","","","","","477.60000002384186","","487.60000002384186","","0","1","arrowleft","0","arrowleft","[0.85,0.15,0.325,0.675]","","",""
"sailing-trial","262","1536375","0.0-11.0-227.0","","","","false","","","","","","","","","","null","","982","","2","0","null","null","arrowup","[0.85,0.15,0.325,0.675]","","",""
"sailing-trial","263","1539914","0.0-11.0-228.0","","","","false","","","","","","","","","","488.5","","31.19999998807907","","0","1","arrowleft","0","arrowleft","[0.85,0.15,0.325,0.675]","","",""
"sailing-trial","264","1542118","0.0-11.0-229.0","","","","false","","","","","","","","","","null","","666.8000000119209","","2","0","null","null","arrowup","[0.85,0.15,0.325,0.675]","","",""
"sailing-trial","265","1547212","0.0-11.0-230.0","","","","false","","","","","","","","","","526.9000000357628","","1625.300000011921","","0","1","arrowleft","0","arrowleft","[0.85,0.15,0.325,0.675]","","",""
"sailing-trial","266","1549997","0.0-11.0-231.0","","","","false","","","","","","","","","","null","","777.8000000119209","","3","1","null","null","arrowup","[0.85,0.15,0.325,0.675]","","",""
"sailing-trial","267","1555680","0.0-11.0-232.0","","","","false","","","","","","","","","","640.0999999642372","","2182.099999964237","","0","1","arrowleft","0","arrowleft","[0.85,0.15,0.325,0.675]","","",""
"sailing-trial","268","1558548","0.0-11.0-233.0","","","","false","","","","","","","","","","null","","809.3999999761581","","3","1","null","null","arrowup","[0.85,0.15,0.325,0.675]","","",""
"sailing-trial","269","1562598","0.0-11.0-234.0","","","","false","","","","","","","","","","602.3999999761581","","384.19999998807907","","0","1","arrowleft","0","arrowleft","[0.85,0.15,0.325,0.675]","","",""
"sailing-trial","270","1566447","0.0-11.0-235.0","","","","false","","","","","","","","","","null","","1474.300000011921","","3","1","null","null","arrowup","[0.85,0.15,0.325,0.675]","","",""
"sailing-trial","271","1570613","0.0-11.0-236.0","","","","false","","","","","","","","","","584.8000000119209","","689.3000000119209","","0","1","arrowleft","0","arrowleft","[0.675,0.325,0.15,0.85]","","",""
"sailing-trial","272","1574712","0.0-11.0-237.0","","","","false","","","","","","","","","","null","","2259.300000011921","","0","1","null","null","arrowup","[0.675,0.325,0.15,0.85]","","",""
"sailing-trial","273","1580913","0.0-11.0-238.0","","","","false","","","","","","","","","","867.4000000357628","","2046.7000000476837","","0","1","arrowleft","0","arrowleft","[0.675,0.325,0.15,0.85]","","",""
"sailing-trial","274","1583581","0.0-11.0-239.0","","","","false","","","","","","","","","","null","","673.6000000238419","","0","1","null","null","arrowup","[0.675,0.325,0.15,0.85]","","",""
"sailing-trial","275","1587547","0.0-11.0-240.0","","","","false","","","","","","","","","","602","","494","","0","1","arrowleft","0","arrowleft","[0.675,0.325,0.15,0.85]","","",""
"sailing-trial","276","1592414","0.0-11.0-241.0","","","","false","","","","","","","","","","null","","2714.300000011921","","2","1","null","null","arrowup","[0.675,0.325,0.15,0.85]","","",""
"sailing-trial","277","1596362","0.0-11.0-242.0","","","","false","","","","","","","","","","603.5","","418.9000000357628","","0","1","arrowleft","0","arrowleft","[0.675,0.325,0.15,0.85]","","",""
"sailing-trial","278","1599170","0.0-11.0-243.0","","","","false","","","","","","","","","","null","","813.6000000238419","","2","0","null","null","arrowup","[0.675,0.325,0.15,0.85]","","",""
"sailing-trial","279","1602829","0.0-11.0-244.0","","","","false","","","","","","","","","","376.10000002384186","","433.80000001192093","","0","1","arrowleft","0","arrowleft","[0.675,0.325,0.15,0.85]","","",""
"sailing-trial","280","1605678","0.0-11.0-245.0","","","","false","","","","","","","","","","null","","869.3999999761581","","0","0","null","null","arrowup","[0.675,0.325,0.15,0.85]","","",""
"sailing-trial","281","1609347","0.0-11.0-246.0","","","","false","","","","","","","","","","704.6000000238419","","34.89999997615814","","0","1","arrowleft","0","arrowleft","[0.675,0.325,0.15,0.85]","","",""
"sailing-trial","282","1611964","0.0-11.0-247.0","","","","false","","","","","","","","","","null","","707.6999999880791","","3","1","null","null","arrowup","[0.675,0.325,0.15,0.85]","","",""
"sailing-trial","283","1616824","0.0-11.0-248.0","","","","false","","","","","","","","","","429.5999999642372","","421.9000000357628","","0","0","arrowleft","0","arrowleft","[0.675,0.325,0.15,0.85]","","",""
"sailing-trial","284","1619663","0.0-11.0-249.0","","","","false","","","","","","","","","","null","","937.3000000119209","","2","1","null","null","arrowup","[0.675,0.325,0.15,0.85]","","",""
"sailing-trial","285","1623392","0.0-11.0-250.0","","","","false","","","","","","","","","","777.3999999761581","","132","","2","0","arrowright","1","arrowleft","[0.675,0.325,0.15,0.85]","","",""
"sailing-trial","286","1625684","0.0-11.0-251.0","","","","false","","","","","","","","","","null","","849.6999999880791","","1","0","null","null","arrowup","[0.675,0.325,0.15,0.85]","","",""
"sailing-trial","287","1629511","0.0-11.0-252.0","","","","false","","","","","","","","","","584.8999999761581","","744.8000000119209","","3","0","arrowright","1","arrowright","[0.325,0.675,0.85,0.15]","","",""
"sailing-trial","288","1632029","0.0-11.0-253.0","","","","false","","","","","","","","","","null","","1044.199999988079","","3","0","null","null","arrowup","[0.325,0.675,0.85,0.15]","","",""
"sailing-trial","289","1638513","0.0-11.0-254.0","","","","false","","","","","","","","","","728.1999999880791","","400.9000000357628","","2","1","arrowright","1","arrowleft","[0.325,0.675,0.85,0.15]","","",""
"sailing-trial","290","1644164","0.0-11.0-255.0","","","","false","","","","","","","","","","null","","973.9000000357628","","1","1","null","null","arrowup","[0.325,0.675,0.85,0.15]","","",""
"sailing-trial","291","1648046","0.0-11.0-256.0","","","","false","","","","","","","","","","636.8999999761581","","459.69999998807907","","2","0","arrowright","1","arrowleft","[0.325,0.675,0.85,0.15]","","",""
"sailing-trial","292","1650831","0.0-11.0-257.0","","","","false","","","","","","","","","","null","","851","","2","1","null","null","arrowup","[0.325,0.675,0.85,0.15]","","",""
"sailing-trial","293","1665846","0.0-11.0-258.0","","","","true","","","","","","","","","","null","","null","","null","null","null","null","null","[0.325,0.675,0.85,0.15]","","",""
"sailing-trial","294","1670097","0.0-11.0-259.0","","","","false","","","","","","","","","","null","","2208.2000000476837","","2","1","null","null","arrowup","[0.325,0.675,0.85,0.15]","","",""
"sailing-trial","295","1673950","0.0-11.0-260.0","","","","false","","","","","","","","","","971","","370.5","","0","0","arrowleft","0","arrowleft","[0.325,0.675,0.85,0.15]","","",""
"sailing-trial","296","1676341","0.0-11.0-261.0","","","","false","","","","","","","","","","null","","849.8999999761581","","0","0","null","null","arrowup","[0.325,0.675,0.85,0.15]","","",""
"sailing-trial","297","1680463","0.0-11.0-262.0","","","","false","","","","","","","","","","581.6000000238419","","581.1000000238419","","2","1","arrowright","1","arrowleft","[0.325,0.675,0.85,0.15]","","",""
"sailing-trial","298","1683231","0.0-11.0-263.0","","","","false","","","","","","","","","","null","","882.3999999761581","","2","1","null","null","arrowup","[0.325,0.675,0.85,0.15]","","",""
"sailing-trial","299","1687114","0.0-11.0-264.0","","","","false","","","","","","","","","","420.30000001192093","","323","","2","1","arrowright","1","arrowleft","[0.325,0.675,0.85,0.15]","","",""
"sailing-trial","300","1690485","0.0-11.0-265.0","","","","false","","","","","","","","","","null","","2281.300000011921","","2","0","null","null","arrowup","[0.325,0.675,0.85,0.15]","","",""
"sailing-trial","301","1694663","0.0-11.0-266.0","","","","false","","","","","","","","","","1186.699999988079","","90.60000002384186","","2","1","arrowright","1","arrowleft","[0.325,0.675,0.85,0.15]","","",""
"sailing-trial","302","1696783","0.0-11.0-267.0","","","","false","","","","","","","","","","null","","759.6999999880791","","3","0","null","null","arrowup","[0.325,0.675,0.85,0.15]","","",""
"sailing-trial","303","1700530","0.0-11.0-268.0","","","","false","","","","","","","","","","495.30000001192093","","410.39999997615814","","2","1","arrowright","1","arrowleft","[0.325,0.675,0.85,0.15]","","",""
"sailing-trial","304","1703258","0.0-11.0-269.0","","","","false","","","","","","","","","","null","","963.8999999761581","","0","0","null","null","arrowup","[0.325,0.675,0.85,0.15]","","",""
"sailing-trial","305","1710221","0.0-11.0-270.0","","","","false","","","","","","","","","","4306.5","","34.799999952316284","","2","0","arrowright","1","arrowleft","[0.15,0.85,0.675,0.325]","","",""
"sailing-trial","306","1712747","0.0-11.0-271.0","","","","false","","","","","","","","","","null","","765.4000000357628","","1","1","null","null","arrowup","[0.15,0.85,0.675,0.325]","","",""
"sailing-trial","307","1716779","0.0-11.0-272.0","","","","false","","","","","","","","","","1181.1000000238419","","55","","1","1","arrowleft","0","arrowright","[0.15,0.85,0.675,0.325]","","",""
"sailing-trial","308","1719005","0.0-11.0-273.0","","","","false","","","","","","","","","","null","","898.1000000238419","","3","0","null","null","arrowup","[0.15,0.85,0.675,0.325]","","",""
"sailing-trial","309","1722563","0.0-11.0-274.0","","","","false","","","","","","","","","","445.5","","281.5999999642372","","1","1","arrowleft","0","arrowright","[0.15,0.85,0.675,0.325]","","",""
"sailing-trial","310","1725031","0.0-11.0-275.0","","","","false","","","","","","","","","","null","","624","","3","1","null","null","arrowup","[0.15,0.85,0.675,0.325]","","",""
"sailing-trial","311","1728164","0.0-11.0-276.0","","","","false","","","","","","","","","","499.4000000357628","","87.39999997615814","","1","1","arrowleft","0","arrowright","[0.15,0.85,0.675,0.325]","","",""
"sailing-trial","312","1730948","0.0-11.0-277.0","","","","false","","","","","","","","","","null","","211.9000000357628","","3","1","null","null","arrowup","[0.15,0.85,0.675,0.325]","","",""
"sailing-trial","313","1734078","0.0-11.0-278.0","","","","false","","","","","","","","","","455.30000001192093","","584.9000000357628","","1","0","arrowleft","0","arrowright","[0.15,0.85,0.675,0.325]","","",""
"sailing-trial","314","1737030","0.0-11.0-279.0","","","","false","","","","","","","","","","null","","1101.800000011921","","1","1","null","null","arrowup","[0.15,0.85,0.675,0.325]","","",""
"sailing-trial","315","1741263","0.0-11.0-280.0","","","","false","","","","","","","","","","1146.6000000238419","","207.5999999642372","","1","1","arrowleft","0","arrowright","[0.15,0.85,0.675,0.325]","","",""
"sailing-trial","316","1743645","0.0-11.0-281.0","","","","false","","","","","","","","","","null","","955.1999999880791","","2","0","null","null","arrowup","[0.15,0.85,0.675,0.325]","","",""
"sailing-trial","317","1747063","0.0-11.0-282.0","","","","false","","","","","","","","","","530","","33.30000001192093","","1","1","arrowleft","0","arrowright","[0.15,0.85,0.675,0.325]","","",""
"sailing-trial","318","1749548","0.0-11.0-283.0","","","","false","","","","","","","","","","null","","599.5","","1","1","null","null","arrowup","[0.15,0.85,0.675,0.325]","","",""
"sailing-trial","319","1753280","0.0-11.0-284.0","","","","false","","","","","","","","","","816.9000000357628","","63.5","","1","1","arrowleft","0","arrowright","[0.15,0.85,0.675,0.325]","","",""
"sailing-trial","320","1755696","0.0-11.0-285.0","","","","false","","","","","","","","","","null","","586","","1","1","null","null","arrowup","[0.15,0.85,0.675,0.325]","","",""
"sailing-trial","321","1760112","0.0-11.0-286.0","","","","false","","","","","","","","","","769","","327.60000002384186","","1","0","arrowleft","0","arrowright","[0.15,0.85,0.675,0.325]","","",""
"sailing-trial","322","1762205","0.0-11.0-287.0","","","","false","","","","","","","","","","null","","765.0999999642372","","1","0","null","null","arrowup","[0.15,0.85,0.675,0.325]","","",""
"sailing-trial","323","1765528","0.0-11.0-288.0","","","","false","","","","","","","","","","597.2000000476837","","111.30000001192093","","3","0","arrowright","1","arrowright","[0.15,0.85,0.675,0.325]","","",""
"sailing-trial","324","1767679","0.0-11.0-289.0","","","","false","","","","","","","","","","null","","761.1000000238419","","0","0","null","null","arrowup","[0.15,0.85,0.675,0.325]","","",""
"sailing-trial","325","1771230","0.0-11.0-290.0","","","","false","","","","","","","","","","572.1000000238419","","89.89999997615814","","2","1","arrowright","1","arrowleft","[0.325,0.675,0.85,0.15]","","",""
"sailing-trial","326","1773128","0.0-11.0-291.0","","","","false","","","","","","","","","","null","","561.3000000119209","","3","0","null","null","arrowup","[0.325,0.675,0.85,0.15]","","",""
"sailing-trial","327","1776412","0.0-11.0-292.0","","","","false","","","","","","","","","","368","","48.30000001192093","","1","1","arrowleft","0","arrowright","[0.325,0.675,0.85,0.15]","","",""
"sailing-trial","328","1779397","0.0-11.0-293.0","","","","false","","","","","","","","","","null","","949","","1","1","null","null","arrowup","[0.325,0.675,0.85,0.15]","","",""
"sailing-trial","329","1782979","0.0-11.0-294.0","","","","false","","","","","","","","","","797.1999999880791","","203.5","","2","1","arrowright","1","arrowleft","[0.325,0.675,0.85,0.15]","","",""
"sailing-trial","330","1785648","0.0-11.0-295.0","","","","false","","","","","","","","","","null","","911.3000000119209","","3","1","null","null","arrowup","[0.325,0.675,0.85,0.15]","","",""
"sailing-trial","331","1789330","0.0-11.0-296.0","","","","false","","","","","","","","","","76.5","","263.5","","2","1","arrowright","1","arrowleft","[0.325,0.675,0.85,0.15]","","",""
"sailing-trial","332","1792416","0.0-11.0-297.0","","","","false","","","","","","","","","","null","","1267.199999988079","","1","0","null","null","arrowup","[0.325,0.675,0.85,0.15]","","",""
"sailing-trial","333","1796314","0.0-11.0-298.0","","","","false","","","","","","","","","","877.6999999880791","","197.5999999642372","","2","1","arrowright","1","arrowleft","[0.325,0.675,0.85,0.15]","","",""
"sailing-trial","334","1798841","0.0-11.0-299.0","","","","false","","","","","","","","","","null","","805.6000000238419","","0","0","null","null","arrowup","[0.325,0.675,0.85,0.15]","","",""
"sailing-trial","335","1802166","0.0-11.0-300.0","","","","false","","","","","","","","","","791.4000000357628","","254","","2","0","arrowright","1","arrowleft","[0.325,0.675,0.85,0.15]","","",""
"sailing-trial","336","1804310","0.0-11.0-301.0","","","","false","","","","","","","","","","null","","847.8999999761581","","0","0","null","null","arrowup","[0.325,0.675,0.85,0.15]","","",""
"sailing-trial","337","1807863","0.0-11.0-302.0","","","","false","","","","","","","","","","471.69999998807907","","314.69999998807907","","2","1","arrowright","1","arrowleft","[0.325,0.675,0.85,0.15]","","",""
"sailing-trial","338","1809995","0.0-11.0-303.0","","","","false","","","","","","","","","","null","","837.1999999880791","","3","0","null","null","arrowup","[0.325,0.675,0.85,0.15]","","",""
"sailing-trial","339","1813255","0.0-11.0-304.0","","","","false","","","","","","","","","","386.10000002384186","","250.79999995231628","","2","0","arrowright","1","arrowleft","[0.325,0.675,0.85,0.15]","","",""
"sailing-trial","340","1815563","0.0-11.0-305.0","","","","false","","","","","","","","","","null","","821.2999999523163","","2","0","null","null","arrowup","[0.325,0.675,0.85,0.15]","","",""
"sailing-trial","341","1819013","0.0-11.0-306.0","","","","false","","","","","","","","","","532.0999999642372","","61.19999998807907","","1","1","arrowleft","0","arrowright","[0.325,0.675,0.85,0.15]","","",""
"sailing-trial","342","1821713","0.0-11.0-307.0","","","","false","","","","","","","","","","null","","638.1000000238419","","1","1","null","null","arrowup","[0.325,0.675,0.85,0.15]","","",""
"sailing-trial","343","1824956","0.0-11.0-308.0","","","","false","","","","","","","","","","136.10000002384186","","291.19999998807907","","1","0","arrowleft","0","arrowright","[0.325,0.675,0.85,0.15]","","",""
"sailing-trial","344","1827681","0.0-11.0-309.0","","","","false","","","","","","","","","","null","","778.9000000357628","","0","1","null","null","arrowup","[0.325,0.675,0.85,0.15]","","",""
"sailing-trial","345","1831727","0.0-11.0-310.0","","","","false","","","","","","","","","","752.3000000119209","","570.1999999880791","","0","0","arrowleft","0","arrowleft","[0.675,0.325,0.15,0.85]","","",""
"sailing-trial","346","1834398","0.0-11.0-311.0","","","","false","","","","","","","","","","null","","566.1999999880791","","3","1","null","null","arrowup","[0.675,0.325,0.15,0.85]","","",""
"sailing-trial","347","1838447","0.0-11.0-312.0","","","","false","","","","","","","","","","826.3999999761581","","335.80000001192093","","3","1","arrowright","1","arrowright","[0.675,0.325,0.15,0.85]","","",""
"sailing-trial","348","1840441","0.0-11.0-313.0","","","","false","","","","","","","","","","null","","619.1999999880791","","2","0","null","null","arrowup","[0.675,0.325,0.15,0.85]","","",""
"sailing-trial","349","1843608","0.0-11.0-314.0","","","","false","","","","","","","","","","486.10000002384186","","32.799999952316284","","3","0","arrowright","1","arrowright","[0.675,0.325,0.15,0.85]","","",""
"sailing-trial","350","1846596","0.0-11.0-315.0","","","","false","","","","","","","","","","null","","891.8999999761581","","1","1","null","null","arrowup","[0.675,0.325,0.15,0.85]","","",""
"sailing-trial","351","1849513","0.0-11.0-316.0","","","","false","","","","","","","","","","605.9000000357628","","211.20000004768372","","1","0","arrowleft","0","arrowright","[0.675,0.325,0.15,0.85]","","",""
"sailing-trial","352","1852095","0.0-11.0-317.0","","","","false","","","","","","","","","","null","","1144.699999988079","","0","0","null","null","arrowup","[0.675,0.325,0.15,0.85]","","",""
"sailing-trial","353","1855463","0.0-11.0-318.0","","","","false","","","","","","","","","","1032","","39.5","","2","0","arrowright","1","arrowleft","[0.675,0.325,0.15,0.85]","","",""
"sailing-trial","354","1858331","0.0-11.0-319.0","","","","false","","","","","","","","","","null","","931","","1","1","null","null","arrowup","[0.675,0.325,0.15,0.85]","","",""
"sailing-trial","355","1861964","0.0-11.0-320.0","","","","false","","","","","","","","","","772.8999999761581","","425.80000001192093","","1","0","arrowleft","0","arrowright","[0.675,0.325,0.15,0.85]","","",""
"sailing-trial","356","1864299","0.0-11.0-321.0","","","","false","","","","","","","","","","null","","672.3999999761581","","2","0","null","null","arrowup","[0.675,0.325,0.15,0.85]","","",""
"sailing-trial","357","1867914","0.0-11.0-322.0","","","","false","","","","","","","","","","589.5","","186.5","","0","1","arrowleft","0","arrowleft","[0.675,0.325,0.15,0.85]","","",""
"sailing-trial","358","1870531","0.0-11.0-323.0","","","","false","","","","","","","","","","null","","652.8999999761581","","3","1","null","null","arrowup","[0.675,0.325,0.15,0.85]","","",""
"sailing-trial","359","1874047","0.0-11.0-324.0","","","","false","","","","","","","","","","326.60000002384186","","335.5999999642372","","0","1","arrowleft","0","arrowleft","[0.675,0.325,0.15,0.85]","","",""
"sailing-trial","360","1876780","0.0-11.0-325.0","","","","false","","","","","","","","","","null","","1537.2000000476837","","3","0","null","null","arrowup","[0.675,0.325,0.15,0.85]","","",""
"sailing-trial","361","1879930","0.0-11.0-326.0","","","","false","","","","","","","","","","539.3000000119209","","16.80000001192093","","0","1","arrowleft","0","arrowleft","[0.675,0.325,0.15,0.85]","","",""
"sailing-trial","362","1882598","0.0-11.0-327.0","","","","false","","","","","","","","","","null","","884.1999999880791","","2","1","null","null","arrowup","[0.675,0.325,0.15,0.85]","","",""
"sailing-trial","363","1886413","0.0-11.0-328.0","","","","false","","","","","","","","","","640.0999999642372","","112.40000003576279","","0","1","arrowleft","0","arrowleft","[0.675,0.325,0.15,0.85]","","",""
"sailing-trial","364","1890495","0.0-11.0-329.0","","","","false","","","","","","","","","","null","","2792.7000000476837","","2","0","null","null","arrowup","[0.675,0.325,0.15,0.85]","","",""
"sailing-trial","365","1894048","0.0-11.0-330.0","","","","false","","","","","","","","","","398.10000002384186","","148.20000004768372","","0","1","arrowleft","0","arrowleft","[0.675,0.325,0.15,0.85]","","",""
"sailing-trial","366","1897131","0.0-11.0-331.0","","","","false","","","","","","","","","","null","","1167.4000000357628","","2","1","null","null","arrowup","[0.675,0.325,0.15,0.85]","","",""
"sailing-trial","367","1902645","0.0-11.0-332.0","","","","false","","","","","","","","","","1456.3999999761581","","1178.800000011921","","0","1","arrowleft","0","arrowleft","[0.675,0.325,0.15,0.85]","","",""
"sailing-trial","368","1906291","0.0-11.0-333.0","","","","false","","","","","","","","","","null","","1991.9000000357628","","1","0","null","null","arrowup","[0.675,0.325,0.15,0.85]","","",""
"sailing-trial","369","1916280","0.0-11.0-334.0","","","","false","","","","","","","","","","629.3999999761581","","6403.800000011921","","0","1","arrowleft","0","arrowleft","[0.85,0.15,0.325,0.675]","","",""
"sailing-trial","370","1920115","0.0-11.0-335.0","","","","false","","","","","","","","","","null","","1776.6000000238419","","0","1","null","null","arrowup","[0.85,0.15,0.325,0.675]","","",""
"sailing-trial","371","1923075","0.0-11.0-336.0","","","","false","","","","","","","","","","452.80000001192093","","7.299999952316284","","0","0","arrowleft","0","arrowleft","[0.85,0.15,0.325,0.675]","","",""
"sailing-trial","372","1925227","0.0-11.0-337.0","","","","false","","","","","","","","","","null","","716.7999999523163","","1","0","null","null","arrowup","[0.85,0.15,0.325,0.675]","","",""
"sailing-trial","373","1929147","0.0-11.0-338.0","","","","false","","","","","","","","","","800.6000000238419","","155.5999999642372","","0","1","arrowleft","0","arrowleft","[0.85,0.15,0.325,0.675]","","",""
"sailing-trial","374","1931324","0.0-11.0-339.0","","","","false","","","","","","","","","","null","","838.2000000476837","","1","0","null","null","arrowup","[0.85,0.15,0.325,0.675]","","",""
"sailing-trial","375","1934947","0.0-11.0-340.0","","","","false","","","","","","","","","","495.80000001192093","","182.10000002384186","","0","1","arrowleft","0","arrowleft","[0.85,0.15,0.325,0.675]","","",""
"sailing-trial","376","1937712","0.0-11.0-341.0","","","","false","","","","","","","","","","null","","1416.800000011921","","2","0","null","null","arrowup","[0.85,0.15,0.325,0.675]","","",""
"sailing-trial","377","1940539","0.0-11.0-342.0","","","","false","","","","","","","","","","515.5","","170.5","","0","0","arrowleft","0","arrowleft","[0.85,0.15,0.325,0.675]","","",""
"sailing-trial","378","1943147","0.0-11.0-343.0","","","","false","","","","","","","","","","null","","702.2999999523163","","2","1","null","null","arrowup","[0.85,0.15,0.325,0.675]","","",""
"sailing-trial","379","1946598","0.0-11.0-344.0","","","","false","","","","","","","","","","563","","10.5","","2","1","arrowright","1","arrowleft","[0.85,0.15,0.325,0.675]","","",""
"sailing-trial","380","1948743","0.0-11.0-345.0","","","","false","","","","","","","","","","null","","810.7999999523163","","1","0","null","null","arrowup","[0.85,0.15,0.325,0.675]","","",""
"sailing-trial","381","1952547","0.0-11.0-346.0","","","","false","","","","","","","","","","646.8000000119209","","269.5999999642372","","2","1","arrowright","1","arrowleft","[0.85,0.15,0.325,0.675]","","",""
"sailing-trial","382","1954868","0.0-11.0-347.0","","","","false","","","","","","","","","","null","","859.5","","3","0","null","null","arrowup","[0.85,0.15,0.325,0.675]","","",""
"sailing-trial","383","1958619","0.0-11.0-348.0","","","","false","","","","","","","","","","576.1999999880791","","463.30000001192093","","2","0","arrowright","1","arrowleft","[0.85,0.15,0.325,0.675]","","",""
"sailing-trial","384","1960862","0.0-11.0-349.0","","","","false","","","","","","","","","","null","","864.8999999761581","","2","0","null","null","arrowup","[0.85,0.15,0.325,0.675]","","",""
"sailing-trial","385","1965064","0.0-11.0-350.0","","","","false","","","","","","","","","","814.3000000119209","","491","","3","1","arrowright","1","arrowright","[0.675,0.325,0.15,0.85]","","",""
"sailing-trial","386","1967545","0.0-11.0-351.0","","","","false","","","","","","","","","","null","","644.9000000357628","","0","1","null","null","arrowup","[0.675,0.325,0.15,0.85]","","",""
"sailing-trial","387","1970546","0.0-11.0-352.0","","","","false","","","","","","","","","","84.60000002384186","","73.40000003576279","","3","1","arrowright","1","arrowright","[0.675,0.325,0.15,0.85]","","",""
"sailing-trial","388","1972573","0.0-11.0-353.0","","","","false","","","","","","","","","","null","","930.7999999523163","","1","0","null","null","arrowup","[0.675,0.325,0.15,0.85]","","",""
"sailing-trial","389","1975723","0.0-11.0-354.0","","","","false","","","","","","","","","","461.60000002384186","","355.5999999642372","","3","0","arrowright","1","arrowright","[0.675,0.325,0.15,0.85]","","",""
"sailing-trial","390","1977948","0.0-11.0-355.0","","","","false","","","","","","","","","","null","","605.8999999761581","","0","1","null","null","arrowup","[0.675,0.325,0.15,0.85]","","",""
"sailing-trial","391","1980932","0.0-11.0-356.0","","","","false","","","","","","","","","","78.89999997615814","","45.80000001192093","","0","1","arrowleft","0","arrowleft","[0.675,0.325,0.15,0.85]","","",""
"sailing-trial","392","1984082","0.0-11.0-357.0","","","","false","","","","","","","","","","null","","317","","0","1","null","null","arrowup","[0.675,0.325,0.15,0.85]","","",""
"sailing-trial","393","1987498","0.0-11.0-358.0","","","","false","","","","","","","","","","344","","225.5","","0","1","arrowleft","0","arrowleft","[0.675,0.325,0.15,0.85]","","",""
"sailing-trial","394","1989632","0.0-11.0-359.0","","","","false","","","","","","","","","","null","","356","","0","1","null","null","arrowup","[0.675,0.325,0.15,0.85]","","",""
"sailing-trial","395","1993114","0.0-11.0-360.0","","","","false","","","","","","","","","","805.6000000238419","","83.80000001192093","","0","1","arrowleft","0","arrowleft","[0.675,0.325,0.15,0.85]","","",""
"sailing-trial","396","1994667","0.0-11.0-361.0","","","","false","","","","","","","","","","null","","306.89999997615814","","2","0","null","null","arrowup","[0.675,0.325,0.15,0.85]","","",""
"sailing-trial","397","1998447","0.0-11.0-362.0","","","","false","","","","","","","","","","464.5999999642372","","419.5999999642372","","0","1","arrowleft","0","arrowleft","[0.675,0.325,0.15,0.85]","","",""
"sailing-trial","398","2000226","0.0-11.0-363.0","","","","false","","","","","","","","","","null","","140.19999998807907","","2","0","null","null","arrowup","[0.675,0.325,0.15,0.85]","","",""
"sailing-trial","399","2003292","0.0-11.0-364.0","","","","false","","","","","","","","","","431.80000001192093","","577.6999999880791","","0","0","arrowleft","0","arrowleft","[0.675,0.325,0.15,0.85]","","",""
"sailing-trial","400","2005383","0.0-11.0-365.0","","","","false","","","","","","","","","","null","","1051","","0","0","null","null","arrowup","[0.675,0.325,0.15,0.85]","","",""
"sailing-trial","401","2008640","0.0-11.0-366.0","","","","false","","","","","","","","","","981.3000000119209","","110.30000001192093","","3","0","arrowright","1","arrowright","[0.85,0.15,0.325,0.675]","","",""
"sailing-trial","402","2010965","0.0-11.0-367.0","","","","false","","","","","","","","","","null","","665.2999999523163","","3","1","null","null","arrowup","[0.85,0.15,0.325,0.675]","","",""
"sailing-trial","403","2015247","0.0-11.0-368.0","","","","false","","","","","","","","","","415.69999998807907","","966.6000000238419","","3","1","arrowright","1","arrowright","[0.85,0.15,0.325,0.675]","","",""
"sailing-trial","404","2017914","0.0-11.0-369.0","","","","false","","","","","","","","","","null","","818.8000000119209","","0","1","null","null","arrowup","[0.85,0.15,0.325,0.675]","","",""
"sailing-trial","405","2020911","0.0-11.0-370.0","","","","false","","","","","","","","","","261.10000002384186","","436.9000000357628","","3","0","arrowright","1","arrowright","[0.85,0.15,0.325,0.675]","","",""
"sailing-trial","406","2023679","0.0-11.0-371.0","","","","false","","","","","","","","","","null","","759.5","","3","1","null","null","arrowup","[0.85,0.15,0.325,0.675]","","",""
"sailing-trial","407","2027264","0.0-11.0-372.0","","","","false","","","","","","","","","","514.5","","228.5999999642372","","3","1","arrowright","1","arrowright","[0.85,0.15,0.325,0.675]","","",""
"sailing-trial","408","2028863","0.0-11.0-373.0","","","","false","","","","","","","","","","null","","286.69999998807907","","0","0","null","null","arrowup","[0.85,0.15,0.325,0.675]","","",""
"sailing-trial","409","2031681","0.0-11.0-374.0","","","","false","","","","","","","","","","553.1000000238419","","82.90000003576279","","3","0","arrowright","1","arrowright","[0.85,0.15,0.325,0.675]","","",""
"sailing-trial","410","2033238","0.0-11.0-375.0","","","","false","","","","","","","","","","null","","171.9000000357628","","2","0","null","null","arrowup","[0.85,0.15,0.325,0.675]","","",""
"sailing-trial","411","2036839","0.0-11.0-376.0","","","","false","","","","","","","","","","948.1999999880791","","328.89999997615814","","1","0","arrowleft","0","arrowright","[0.85,0.15,0.325,0.675]","","",""
"sailing-trial","412","2039465","0.0-11.0-377.0","","","","false","","","","","","","","","","null","","691.3999999761581","","0","1","null","null","arrowup","[0.85,0.15,0.325,0.675]","","",""
"sailing-trial","413","2042280","0.0-11.0-378.0","","","","false","","","","","","","","","","125.69999998807907","","25.30000001192093","","0","1","arrowleft","0","arrowleft","[0.85,0.15,0.325,0.675]","","",""
"sailing-trial","414","2044154","0.0-11.0-379.0","","","","false","","","","","","","","","","null","","718.3000000119209","","1","0","null","null","arrowup","[0.85,0.15,0.325,0.675]","","",""
"sailing-trial","415","2047532","0.0-11.0-380.0","","","","false","","","","","","","","","","397.69999998807907","","245.60000002384186","","0","1","arrowleft","0","arrowleft","[0.85,0.15,0.325,0.675]","","",""
"sailing-trial","416","2049415","0.0-11.0-381.0","","","","false","","","","","","","","","","null","","112.60000002384186","","0","1","null","null","arrowup","[0.85,0.15,0.325,0.675]","","",""
"sailing-trial","417","2052621","0.0-11.0-382.0","","","","false","","","","","","","","","","390.19999998807907","","230.4000000357628","","0","0","arrowleft","0","arrowleft","[0.325,0.675,0.85,0.15]","","",""
"sailing-trial","418","2054986","0.0-11.0-383.0","","","","false","","","","","","","","","","null","","611.2000000476837","","0","0","null","null","arrowup","[0.325,0.675,0.85,0.15]","","",""
"sailing-trial","419","2059697","0.0-11.0-384.0","","","","false","","","","","","","","","","566.5999999642372","","1311.199999988079","","2","1","arrowright","1","arrowleft","[0.325,0.675,0.85,0.15]","","",""
"sailing-trial","420","2061745","0.0-11.0-385.0","","","","false","","","","","","","","","","null","","760.7999999523163","","3","0","null","null","arrowup","[0.325,0.675,0.85,0.15]","","",""
"sailing-trial","421","2065280","0.0-11.0-386.0","","","","false","","","","","","","","","","504.5","","76.79999995231628","","2","1","arrowright","1","arrowleft","[0.325,0.675,0.85,0.15]","","",""
"sailing-trial","422","2066529","0.0-11.0-387.0","","","","false","","","","","","","","","","null","","133.19999998807907","","3","0","null","null","arrowup","[0.325,0.675,0.85,0.15]","","",""
"sailing-trial","423","2070965","0.0-11.0-388.0","","","","false","","","","","","","","","","793","","91.09999996423721","","2","1","arrowright","1","arrowleft","[0.325,0.675,0.85,0.15]","","",""
"sailing-trial","424","2073535","0.0-11.0-389.0","","","","false","","","","","","","","","","null","","1255","","1","0","null","null","arrowup","[0.325,0.675,0.85,0.15]","","",""
"sailing-trial","425","2078731","0.0-11.0-390.0","","","","false","","","","","","","","","","1384.6000000238419","","658.8999999761581","","2","1","arrowright","1","arrowleft","[0.325,0.675,0.85,0.15]","","",""
"sailing-trial","426","2081582","0.0-11.0-391.0","","","","false","","","","","","","","","","null","","994","","2","1","null","null","arrowup","[0.325,0.675,0.85,0.15]","","",""
"sailing-trial","427","2085897","0.0-11.0-392.0","","","","false","","","","","","","","","","1303.3999999761581","","95.90000003576279","","2","1","arrowright","1","arrowleft","[0.325,0.675,0.85,0.15]","","",""
"sailing-trial","428","2088555","0.0-11.0-393.0","","","","false","","","","","","","","","","null","","1370","","2","0","null","null","arrowup","[0.325,0.675,0.85,0.15]","","",""
"sailing-trial","429","2092531","0.0-11.0-394.0","","","","false","","","","","","","","","","716.1999999880791","","338.30000001192093","","2","1","arrowright","1","arrowleft","[0.325,0.675,0.85,0.15]","","",""
"sailing-trial","430","2097298","0.0-11.0-395.0","","","","false","","","","","","","","","","null","","817.3000000119209","","1","1","null","null","arrowup","[0.325,0.675,0.85,0.15]","","",""
"sailing-trial","431","2101497","0.0-11.0-396.0","","","","false","","","","","","","","","","617.1999999880791","","3.699999988079071","","2","1","arrowright","1","arrowleft","[0.325,0.675,0.85,0.15]","","",""
"sailing-trial","432","2105849","0.0-11.0-397.0","","","","false","","","","","","","","","","null","","2401.699999988079","","1","1","null","null","arrowup","[0.325,0.675,0.85,0.15]","","",""
"sailing-trial","433","2109679","0.0-11.0-398.0","","","","false","","","","","","","","","","1189","","63.90000003576279","","0","0","arrowleft","0","arrowleft","[0.325,0.675,0.85,0.15]","","",""
"sailing-trial","434","2113463","0.0-11.0-399.0","","","","false","","","","","","","","","","null","","1711.5999999642372","","1","1","null","null","arrowup","[0.325,0.675,0.85,0.15]","","",""
"instructions","435","2119087","0.0-12.0","","","","","","","","","","5623","","","","","","","","","","","","","","","","[{""page_index"":0,""viewing_time"":5622.399999976158}]"
"survey-debrief","436","2161869","0.0-13.0","","","","","","","","","","42778.60000002384","","","","","","","","","","","","","","{""difficulty"":""3"",""fun"":""4"",""clarity"":""5"",""strategy"":""no"",""feedback"":""no""}","",""
