"trial_type","trial_index","time_elapsed","internal_node_id","value","metadata","success","timeout","failed_images","failed_audio","failed_video","browser_interaction","low_quality","rt","stimulus","response","button_pressed","island_rt","island_response","boat_rt","boat_response","boat","reward","island_key","island","boat_key","reward_probabilities","responses","num_errors","view_history"
"pavlovia","0","4","0.0-0.0","","","","","","","","","","","","","","","","","","","","","","","","","",""
"call-function","1","5","0.0-1.0","","{""task_version"":""sailing_part1_v1"",""task_condition"":""good"",""boats"":[""B"",""A"",""C"",""D""],""boats_demo"":[""F"",""E"",""G"",""H""],""islands"":[""B"",""A""],""subject_id"":""14960"",""age"":""22"",""gender"":""Male""}","","","","","","","","","","","","","","","","","","","","","","","",""
"preload","2","13395","0.0-2.0","","","true","false","[]","[]","[]","[{""event"":""fullscreenenter"",""trial"":3,""time"":20457}]","false","","","","","","","","","","","","","","","","",""
"fullscreen","3","21432","0.0-3.0","","","true","","","","","","","","","","","","","","","","","","","","","","",""
"audio-keyboard-response","4","24444","0.0-4.0-0.0","","","","","","","","","","2149.3333333333335","audio/beep_loop.wav"," ","","","","","","","","","","","","","",""
"audio-test","5","29339","0.0-4.0-1.0","","","","","","","","","","null","audio/turtle.mp3","","3","","","","","","","","","","","","",""
"audio-test","6","32162","0.0-4.0-2.0","","","","","","","","","","null","audio/shark.mp3","","2","","","","","","","","","","","","",""
"sailing-instructions","7","66556","0.0-5.0-0.0-0.0","","","","","","","","","","","","","","null","null","null","null","null","null","","","","","","",""
"sailing-trial","8","72505","0.0-5.0-0.0-1.0-0.0","","","","false","","","","","","","","","","4809.4000000059605","","null","","null","null","arrowleft","0","null","null","","",""
"sailing-trial","9","74495","0.0-5.0-0.0-1.0-1.0","","","","false","","","","","","","","","","867.5999999940395","","null","","null","null","arrowright","1","null","null","","",""
"sailing-trial","10","76657","0.0-5.0-0.0-1.0-2.0","","","","false","","","","","","","","","","1015.5","","null","","null","null","arrowleft","0","null","null","","",""
"sailing-instructions","11","152970","0.0-5.0-0.0-2.0","","","","","","","","","","","","","","null","null","null","null","0","null","","","","","","",""
"sailing-trial","12","157228","0.0-5.0-0.0-3.0-0.0","","","","false","","","","","","","","","","null","","918.5","","2","1","null","null","arrowleft","[1,1,1,1]","","",""
"sailing-trial","13","160334","0.0-5.0-0.0-3.0-1.0","","","","false","","","","","","","","","","null","","592.3000000119209","","3","1","null","null","arrowright","[1,1,1,1]","","",""
"sailing-trial","14","162991","0.0-5.0-0.0-3.0-2.0","","","","false","","","","","","","","","","null","","105.80000001192093","","2","0","null","null","arrowleft","[0,0,0,0]","","",""
"sailing-instructions","15","170489","0.0-5.0-0.0-4.0","","","","","","","","","","","","","","null","null","null","null","null","null","","","","","","",""
"sailing-comprehension","16","184817","0.0-5.0-0.0-5.0","","","","","","","","","","12439.700000017881","","","","","","","","","","","","","","[""true"",""true"",""false"",""true""]","0",""
"sailing-instructions","17","251839","0.0-6.0-0.0-0.0","","","","","","","","","","","","","","null","null","null","null","null","null","","","","","","",""
"sailing-comprehension","18","266119","0.0-6.0-0.0-1.0","","","","","","","","","","13162.90000000596","","","","","","","","","","","","","","[""true"",""false"",""true""]","0",""
"sailing-instructions","19","285984","0.0-7.0-0.0-0.0","","","","","","","","","","","","","","null","null","null","null","null","null","","","","","","",""
"sailing-trial","20","291574","0.0-7.0-0.0-1.0-0.0","","","","false","","","","","","","","","","null","","2541.899999976158","","0","0","null","null","arrowup","[0.2,0.8,0.2,0.8]","","",""
"sailing-trial","21","299403","0.0-7.0-0.0-1.0-1.0","","","","false","","","","","","","","","","null","","4783.800000011921","","1","0","null","null","arrowup","[0.2,0.8,0.2,0.8]","","",""
"sailing-trial","22","302214","0.0-7.0-0.0-1.0-2.0","","","","false","","","","","","","","","","null","","589.0999999940395","","2","0","null","null","arrowup","[0.2,0.8,0.2,0.8]","","",""
"sailing-trial","23","305077","0.0-7.0-0.0-1.0-3.0","","","","false","","","","","","","","","","null","","956.5999999940395","","3","1","null","null","arrowup","[0.2,0.8,0.2,0.8]","","",""
"sailing-comprehension","24","311384","0.0-7.0-0.0-2.0","","","","","","","","","","5419.4000000059605","","","","","","","","","","","","","","[""false""]","0",""
"sailing-instructions","25","327316","0.0-8.0-0.0-0.0","","","","","","","","","","","","","","null","null","null","null","null","null","","","","","","",""
"sailing-comprehension","26","331540","0.0-8.0-0.0-1.0","","","","","","","","","","3727.199999988079","","","","","","","","","","","","","","[""true""]","0",""
"sailing-instructions","27","365373","0.0-9.0-0.0-0.0","","","","","","","","","","","","","","null","null","null","null","null","null","","","","","","",""
"sailing-trial","28","371140","0.0-9.0-0.0-1.0-0.0","","","","false","","","","","","","","","","1368.800000011921","","152.2000000178814","","1","1","arrowleft","0","arrowright","[0.2,0.8,0.2,0.8]","","",""
"sailing-trial","29","375780","0.0-9.0-0.0-1.0-1.0","","","","false","","","","","","","","","","483.80000001192093","","1198.5","","1","1","arrowleft","0","arrowright","[0.2,0.8,0.2,0.8]","","",""
"sailing-trial","30","379500","0.0-9.0-0.0-1.0-2.0","","","","false","","","","","","","","","","null","","1022.0999999940395","","0","0","null","null","arrowup","[0.2,0.8,0.2,0.8]","","",""
"sailing-trial","31","384753","0.0-9.0-0.0-1.0-3.0","","","","false","","","","","","","","","","733.7999999821186","","366.09999999403954","","2","0","arrowright","1","arrowleft","[0.2,0.8,0.2,0.8]","","",""
"sailing-trial","32","388559","0.0-9.0-0.0-1.0-4.0","","","","false","","","","","","","","","","null","","1350.5999999940395","","3","1","null","null","arrowup","[0.2,0.8,0.2,0.8]","","",""
"sailing-trial","33","392897","0.0-9.0-0.0-1.0-5.0","","","","false","","","","","","","","","","1036.5","","332","","3","1","arrowright","1","arrowright","[0.2,0.8,0.2,0.8]","","",""
"sailing-instructions","34","419448","0.0-10.0","","","","","","","","","","","","","","null","null","null","null","null","null","","","","","","",""
"sailing-trial","35","427651","0.0-11.0-0.0","","","","false","","","","","","","","","","4213.0999999940395","","283.69999998807907","","0","1","arrowleft","0","arrowleft","[0.85,0.15,0.675,0.325]","","",""
"sailing-trial","36","431625","0.0-11.0-1.0","","","","false","","","","","","","","","","null","","938.3000000119209","","2","0","null","null","arrowup","[0.85,0.15,0.675,0.325]","","",""
"sailing-trial","37","435461","0.0-11.0-2.0","","","","false","","","","","","","","","","642.4000000059605","","90.80000001192093","","0","1","arrowleft","0","arrowleft","[0.85,0.15,0.675,0.325]","","",""
"sailing-trial","38","439488","0.0-11.0-3.0","","","","false","","","","","","","","","","null","","1007","","1","0","null","null","arrowup","[0.85,0.15,0.675,0.325]","","",""
"sailing-trial","39","443119","0.0-11.0-4.0","","","","false","","","","","","","","","","477.39999997615814","","33.400000005960464","","0","1","arrowleft","0","arrowleft","[0.85,0.15,0.675,0.325]","","",""
"sailing-trial","40","445812","0.0-11.0-5.0","","","","false","","","","","","","","","","null","","655.1999999880791","","2","1","null","null","arrowup","[0.85,0.15,0.675,0.325]","","",""
"sailing-trial","41","450550","0.0-11.0-6.0","","","","false","","","","","","","","","","420.90000000596046","","255.2000000178814","","0","0","arrowleft","0","arrowleft","[0.85,0.15,0.675,0.325]","","",""
"sailing-trial","42","453503","0.0-11.0-7.0","","","","false","","","","","","","","","","null","","1119","","0","1","null","null","arrowup","[0.85,0.15,0.675,0.325]","","",""
"sailing-trial","43","457558","0.0-11.0-8.0","","","","false","","","","","","","","","","873.8000000119209","","80.90000000596046","","0","1","arrowleft","0","arrowleft","[0.85,0.15,0.675,0.325]","","",""
"sailing-trial","44","461853","0.0-11.0-9.0","","","","false","","","","","","","","","","null","","1284.5999999940395","","1","0","null","null","arrowup","[0.85,0.15,0.675,0.325]","","",""
"sailing-trial","45","465451","0.0-11.0-10.0","","","","false","","","","","","","","","","595.4000000059605","","74.90000000596046","","0","1","arrowleft","0","arrowleft","[0.85,0.15,0.675,0.325]","","",""
"sailing-trial","46","468627","0.0-11.0-11.0","","","","false","","","","","","","","","","null","","901.4000000059605","","2","1","null","null","arrowup","[0.85,0.15,0.675,0.325]","","",""
"sailing-trial","47","472571","0.0-11.0-12.0","","","","false","","","","","","","","","","795.7000000178814","","121.5","","0","1","arrowleft","0","arrowleft","[0.85,0.15,0.675,0.325]","","",""
"sailing-trial","48","475660","0.0-11.0-13.0","","","","false","","","","","","","","","","null","","1241.7999999821186","","0","1","null","null","arrowup","[0.85,0.15,0.675,0.325]","","",""
"sailing-trial","49","479485","0.0-11.0-14.0","","","","false","","","","","","","","","","722.9000000059605","","163.59999999403954","","0","1","arrowleft","0","arrowleft","[0.85,0.15,0.675,0.325]","","",""
"sailing-trial","50","483763","0.0-11.0-15.0","","","","false","","","","","","","","","","null","","1258.5999999940395","","1","0","null","null","arrowup","[0.85,0.15,0.675,0.325]","","",""
"sailing-trial","51","487239","0.0-11.0-16.0","","","","false","","","","","","","","","","551","","322.7000000178814","","0","0","arrowleft","0","arrowleft","[0.85,0.15,0.675,0.325]","","",""
"sailing-trial","52","490220","0.0-11.0-17.0","","","","false","","","","","","","","","","null","","1135.800000011921","","0","1","null","null","arrowup","[0.85,0.15,0.675,0.325]","","",""
"sailing-trial","53","493875","0.0-11.0-18.0","","","","false","","","","","","","","","","591.5","","136.5","","0","1","arrowleft","0","arrowleft","[0.85,0.15,0.675,0.325]","","",""
"sailing-trial","54","497787","0.0-11.0-19.0","","","","false","","","","","","","","","","null","","893.4000000059605","","1","0","null","null","arrowup","[0.85,0.15,0.675,0.325]","","",""
"sailing-trial","55","502651","0.0-11.0-20.0","","","","false","","","","","","","","","","563.8000000119209","","403","","0","1","arrowleft","0","arrowleft","[0.85,0.15,0.675,0.325]","","",""
"sailing-trial","56","506641","0.0-11.0-21.0","","","","false","","","","","","","","","","null","","1484.5","","0","1","null","null","arrowup","[0.85,0.15,0.675,0.325]","","",""
"sailing-trial","57","511194","0.0-11.0-22.0","","","","false","","","","","","","","","","861.5999999940395","","126.2999999821186","","0","1","arrowleft","0","arrowleft","[0.675,0.325,0.85,0.15]","","",""
"sailing-trial","58","515182","0.0-11.0-23.0","","","","false","","","","","","","","","","null","","1106.2000000178814","","1","1","null","null","arrowup","[0.675,0.325,0.85,0.15]","","",""
"sailing-trial","59","519522","0.0-11.0-24.0","","","","false","","","","","","","","","","1064.199999988079","","67.69999998807907","","0","1","arrowleft","0","arrowleft","[0.675,0.325,0.85,0.15]","","",""
"sailing-trial","60","523216","0.0-11.0-25.0","","","","false","","","","","","","","","","null","","670.5","","1","0","null","null","arrowup","[0.675,0.325,0.85,0.15]","","",""
"sailing-trial","61","527567","0.0-11.0-26.0","","","","false","","","","","","","","","","762","","313.80000001192093","","0","1","arrowleft","0","arrowleft","[0.675,0.325,0.85,0.15]","","",""
"sailing-trial","62","531354","0.0-11.0-27.0","","","","false","","","","","","","","","","null","","1858.9000000059605","","3","1","null","null","arrowup","[0.675,0.325,0.85,0.15]","","",""
"sailing-trial","63","534831","0.0-11.0-28.0","","","","false","","","","","","","","","","563.9000000059605","","268.30000001192093","","3","0","arrowright","1","arrowright","[0.675,0.325,0.85,0.15]","","",""
"sailing-trial","64","537182","0.0-11.0-29.0","","","","false","","","","","","","","","","null","","949.8000000119209","","1","0","null","null","arrowup","[0.675,0.325,0.85,0.15]","","",""
"sailing-trial","65","540965","0.0-11.0-30.0","","","","false","","","","","","","","","","626.1000000238419","","240.2000000178814","","0","1","arrowleft","0","arrowleft","[0.675,0.325,0.85,0.15]","","",""
"sailing-trial","66","543980","0.0-11.0-31.0","","","","false","","","","","","","","","","null","","1368.0999999940395","","3","0","null","null","arrowup","[0.675,0.325,0.85,0.15]","","",""
"sailing-trial","67","549097","0.0-11.0-32.0","","","","false","","","","","","","","","","577.5","","472.5","","0","0","arrowleft","0","arrowleft","[0.675,0.325,0.85,0.15]","","",""
"sailing-trial","68","551464","0.0-11.0-33.0","","","","false","","","","","","","","","","null","","949.1999999880791","","3","0","null","null","arrowup","[0.675,0.325,0.85,0.15]","","",""
"sailing-trial","69","555806","0.0-11.0-34.0","","","","false","","","","","","","","","","784.8000000119209","","335.2000000178814","","2","1","arrowright","1","arrowleft","[0.675,0.325,0.85,0.15]","","",""
"sailing-trial","70","558615","0.0-11.0-35.0","","","","false","","","","","","","","","","null","","957.5","","0","1","null","null","arrowup","[0.675,0.325,0.85,0.15]","","",""
"sailing-trial","71","562573","0.0-11.0-36.0","","","","false","","","","","","","","","","511.59999999403954","","321.30000001192093","","2","1","arrowright","1","arrowleft","[0.675,0.325,0.85,0.15]","","",""
"sailing-trial","72","565795","0.0-11.0-37.0","","","","false","","","","","","","","","","null","","981.4000000059605","","0","1","null","null","arrowup","[0.675,0.325,0.85,0.15]","","",""
"sailing-trial","73","569346","0.0-11.0-38.0","","","","false","","","","","","","","","","538.4000000059605","","227.09999999403954","","2","0","arrowright","1","arrowleft","[0.675,0.325,0.85,0.15]","","",""
"sailing-trial","74","572095","0.0-11.0-39.0","","","","false","","","","","","","","","","null","","869","","2","1","null","null","arrowup","[0.675,0.325,0.85,0.15]","","",""
"sailing-trial","75","575403","0.0-11.0-40.0","","","","false","","","","","","","","","","566.2999999821186","","277.19999998807907","","2","0","arrowright","1","arrowleft","[0.85,0.15,0.675,0.325]","","",""
"sailing-trial","76","579274","0.0-11.0-41.0","","","","false","","","","","","","","","","null","","841.7999999821186","","3","0","null","null","arrowup","[0.85,0.15,0.675,0.325]","","",""
"sailing-trial","77","582766","0.0-11.0-42.0","","","","false","","","","","","","","","","378.5","","246.5","","0","1","arrowleft","0","arrowleft","[0.85,0.15,0.675,0.325]","","",""
"sailing-trial","78","585824","0.0-11.0-43.0","","","","false","","","","","","","","","","null","","1059","","3","1","null","null","arrowup","[0.85,0.15,0.675,0.325]","","",""
"sailing-trial","79","589697","0.0-11.0-44.0","","","","false","","","","","","","","","","593","","317.5","","0","1","arrowleft","0","arrowleft","[0.85,0.15,0.675,0.325]","","",""
"sailing-trial","80","593676","0.0-11.0-45.0","","","","false","","","","","","","","","","null","","939","","3","0","null","null","arrowup","[0.85,0.15,0.675,0.325]","","",""
"sailing-trial","81","597327","0.0-11.0-46.0","","","","false","","","","","","","","","","440.19999998807907","","205.40000000596046","","0","1","arrowleft","0","arrowleft","[0.85,0.15,0.675,0.325]","","",""
"sailing-trial","82","602030","0.0-11.0-47.0","","","","false","","","","","","","","","","null","","2212.199999988079","","2","1","null","null","arrowup","[0.85,0.15,0.675,0.325]","","",""
"sailing-trial","83","605302","0.0-11.0-48.0","","","","false","","","","","","","","","","593.1999999880791","","218.90000000596046","","0","0","arrowleft","0","arrowleft","[0.85,0.15,0.675,0.325]","","",""
"sailing-trial","84","608131","0.0-11.0-49.0","","","","false","","","","","","","","","","null","","922","","3","1","null","null","arrowup","[0.85,0.15,0.675,0.325]","","",""
"sailing-trial","85","612103","0.0-11.0-50.0","","","","false","","","","","","","","","","624.2999999821186","","405.10000002384186","","0","1","arrowleft","0","arrowleft","[0.85,0.15,0.675,0.325]","","",""
"sailing-trial","86","614815","0.0-11.0-51.0","","","","false","","","","","","","","","","null","","1277.0999999940395","","0","0","null","null","arrowup","[0.85,0.15,0.675,0.325]","","",""
"sailing-trial","87","618161","0.0-11.0-52.0","","","","false","","","","","","","","","","523.8000000119209","","376","","0","0","arrowleft","0","arrowleft","[0.85,0.15,0.675,0.325]","","",""
"sailing-trial","88","621213","0.0-11.0-53.0","","","","false","","","","","","","","","","null","","1013.9000000059605","","3","1","null","null","arrowup","[0.85,0.15,0.675,0.325]","","",""
"sailing-trial","89","624205","0.0-11.0-54.0","","","","false","","","","","","","","","","521.5","","126.80000001192093","","3","0","arrowright","1","arrowright","[0.85,0.15,0.675,0.325]","","",""
"sailing-trial","90","626916","0.0-11.0-55.0","","","","false","","","","","","","","","","null","","921.5999999940395","","2","1","null","null","arrowup","[0.85,0.15,0.675,0.325]","","",""
"sailing-trial","91","630290","0.0-11.0-56.0","","","","false","","","","","","","","","","709.3000000119209","","202.59999999403954","","2","0","arrowright","1","arrowleft","[0.15,0.85,0.325,0.675]","","",""
"sailing-trial","92","632521","0.0-11.0-57.0","","","","false","","","","","","","","","","null","","853.1999999880791","","0","0","null","null","arrowup","[0.15,0.85,0.325,0.675]","","",""
"sailing-trial","93","636435","0.0-11.0-58.0","","","","false","","","","","","","","","","668.1000000238419","","315.80000001192093","","3","1","arrowright","1","arrowright","[0.15,0.85,0.325,0.675]","","",""
"sailing-trial","94","639280","0.0-11.0-59.0","","","","false","","","","","","","","","","null","","901.9000000059605","","2","1","null","null","arrowup","[0.15,0.85,0.325,0.675]","","",""
"sailing-trial","95","642734","0.0-11.0-60.0","","","","false","","","","","","","","","","474.59999999403954","","8.900000005960464","","3","1","arrowright","1","arrowright","[0.15,0.85,0.325,0.675]","","",""
"sailing-trial","96","645795","0.0-11.0-61.0","","","","false","","","","","","","","","","null","","1113.5999999940395","","1","1","null","null","arrowup","[0.15,0.85,0.325,0.675]","","",""
"sailing-trial","97","649716","0.0-11.0-62.0","","","","false","","","","","","","","","","651.9000000059605","","281.40000000596046","","3","1","arrowright","1","arrowright","[0.15,0.85,0.325,0.675]","","",""
"sailing-trial","98","652700","0.0-11.0-63.0","","","","false","","","","","","","","","","null","","1487.5","","0","0","null","null","arrowup","[0.15,0.85,0.325,0.675]","","",""
"sailing-trial","99","655909","0.0-11.0-64.0","","","","false","","","","","","","","","","476.59999999403954","","240.5","","3","0","arrowright","1","arrowright","[0.15,0.85,0.325,0.675]","","",""
"sailing-trial","100","658675","0.0-11.0-65.0","","","","false","","","","","","","","","","null","","902.5","","1","1","null","null","arrowup","[0.15,0.85,0.325,0.675]","","",""
"sailing-trial","101","662903","0.0-11.0-66.0","","","","false","","","","","","","","","","630.0999999940395","","651.5999999940395","","1","1","arrowleft","0","arrowright","[0.15,0.85,0.325,0.675]","","",""
"sailing-trial","102","665199","0.0-11.0-67.0","","","","false","","","","","","","","","","null","","838.2999999821186","","0","0","null","null","arrowup","[0.15,0.85,0.325,0.675]","","",""
"sailing-trial","103","668154","0.0-11.0-68.0","","","","false","","","","","","","","","","473.5","","99.40000000596046","","1","0","arrowleft","0","arrowright","[0.15,0.85,0.325,0.675]","","",""
"sailing-trial","104","670502","0.0-11.0-69.0","","","","false","","","","","","","","","","null","","947.5999999940395","","0","0","null","null","arrowup","[0.15,0.85,0.325,0.675]","","",""
"sailing-trial","105","673984","0.0-11.0-70.0","","","","false","","","","","","","","","","544.3000000119209","","86.90000000596046","","3","1","arrowright","1","arrowright","[0.15,0.85,0.325,0.675]","","",""
"sailing-trial","106","676844","0.0-11.0-71.0","","","","false","","","","","","","","","","null","","810","","0","1","null","null","arrowup","[0.15,0.85,0.325,0.675]","","",""
"sailing-trial","107","680210","0.0-11.0-72.0","","","","false","","","","","","","","","","533.5","","335.19999998807907","","3","0","arrowright","1","arrowright","[0.15,0.85,0.325,0.675]","","",""
"sailing-trial","108","682858","0.0-11.0-73.0","","","","false","","","","","","","","","","null","","846.6999999880791","","2","1","null","null","arrowup","[0.15,0.85,0.325,0.675]","","",""
"sailing-trial","109","686074","0.0-11.0-74.0","","","","false","","","","","","","","","","499.09999999403954","","256.7999999821186","","2","0","arrowright","1","arrowleft","[0.15,0.85,0.325,0.675]","","",""
"sailing-trial","110","688354","0.0-11.0-75.0","","","","false","","","","","","","","","","null","","832.4000000059605","","2","0","null","null","arrowup","[0.15,0.85,0.325,0.675]","","",""
"sailing-trial","111","692165","0.0-11.0-76.0","","","","false","","","","","","","","","","570.3000000119209","","287.19999998807907","","3","1","arrowright","1","arrowright","[0.325,0.675,0.15,0.85]","","",""
"sailing-trial","112","695294","0.0-11.0-77.0","","","","false","","","","","","","","","","null","","860.4000000059605","","1","1","null","null","arrowup","[0.325,0.675,0.15,0.85]","","",""
"sailing-trial","113","699047","0.0-11.0-78.0","","","","false","","","","","","","","","","484","","348","","3","1","arrowright","1","arrowright","[0.325,0.675,0.15,0.85]","","",""
"sailing-trial","114","701678","0.0-11.0-79.0","","","","false","","","","","","","","","","null","","807.0999999940395","","3","1","null","null","arrowup","[0.325,0.675,0.15,0.85]","","",""
"sailing-trial","115","705365","0.0-11.0-80.0","","","","false","","","","","","","","","","440.89999997615814","","374.40000000596046","","3","1","arrowright","1","arrowright","[0.325,0.675,0.15,0.85]","","",""
"sailing-trial","116","708008","0.0-11.0-81.0","","","","false","","","","","","","","","","null","","748","","0","1","null","null","arrowup","[0.325,0.675,0.15,0.85]","","",""
"sailing-trial","117","713144","0.0-11.0-82.0","","","","false","","","","","","","","","","1698.5","","237.89999997615814","","3","1","arrowright","1","arrowright","[0.325,0.675,0.15,0.85]","","",""
"sailing-trial","118","716170","0.0-11.0-83.0","","","","false","","","","","","","","","","null","","1226.5999999940395","","3","1","null","null","arrowup","[0.325,0.675,0.15,0.85]","","",""
"sailing-trial","119","719891","0.0-11.0-84.0","","","","false","","","","","","","","","","719.2000000178814","","136.90000000596046","","3","1","arrowright","1","arrowright","[0.325,0.675,0.15,0.85]","","",""
"sailing-trial","120","723066","0.0-11.0-85.0","","","","false","","","","","","","","","","null","","1127.2999999821186","","2","1","null","null","arrowup","[0.325,0.675,0.15,0.85]","","",""
"sailing-trial","121","728095","0.0-11.0-86.0","","","","false","","","","","","","","","","670.2000000178814","","309","","3","0","arrowright","1","arrowright","[0.325,0.675,0.15,0.85]","","",""
"sailing-trial","122","731967","0.0-11.0-87.0","","","","false","","","","","","","","","","null","","850.7000000178814","","2","0","null","null","arrowup","[0.325,0.675,0.15,0.85]","","",""
"sailing-trial","123","735932","0.0-11.0-88.0","","","","false","","","","","","","","","","581.7000000178814","","112","","3","1","arrowright","1","arrowright","[0.325,0.675,0.15,0.85]","","",""
"sailing-trial","124","738269","0.0-11.0-89.0","","","","false","","","","","","","","","","null","","841.5","","2","0","null","null","arrowup","[0.325,0.675,0.15,0.85]","","",""
"sailing-trial","125","741700","0.0-11.0-90.0","","","","false","","","","","","","","","","558.2999999821186","","61.400000005960464","","3","1","arrowright","1","arrowright","[0.325,0.675,0.15,0.85]","","",""
"sailing-trial","126","744558","0.0-11.0-91.0","","","","false","","","","","","","","","","null","","782.8000000119209","","1","1","null","null","arrowup","[0.325,0.675,0.15,0.85]","","",""
"sailing-trial","127","748463","0.0-11.0-92.0","","","","false","","","","","","","","","","754.0999999940395","","174.30000001192093","","3","1","arrowright","1","arrowright","[0.15,0.85,0.325,0.675]","","",""
"sailing-trial","128","751222","0.0-11.0-93.0","","","","false","","","","","","","","","","null","","844.6999999880791","","1","1","null","null","arrowup","[0.15,0.85,0.325,0.675]","","",""
"sailing-trial","129","755146","0.0-11.0-94.0","","","","false","","","","","","","","","","532.2999999821186","","386","","3","1","arrowright","1","arrowright","[0.15,0.85,0.325,0.675]","","",""
"sailing-trial","130","757545","0.0-11.0-95.0","","","","false","","","","","","","","","","null","","1000.6999999880791","","3","0","null","null","arrowup","[0.15,0.85,0.325,0.675]","","",""
"sailing-trial","131","760809","0.0-11.0-96.0","","","","false","","","","","","","","","","600.5999999940395","","183.5","","3","0","arrowright","1","arrowright","[0.15,0.85,0.325,0.675]","","",""
"sailing-trial","132","763177","0.0-11.0-97.0","","","","false","","","","","","","","","","null","","978.7999999821186","","2","0","null","null","arrowup","[0.15,0.85,0.325,0.675]","","",""
"sailing-trial","133","766715","0.0-11.0-98.0","","","","false","","","","","","","","","","518","","95.5","","1","1","arrowleft","0","arrowright","[0.15,0.85,0.325,0.675]","","",""
"sailing-trial","134","769341","0.0-11.0-99.0","","","","false","","","","","","","","","","null","","779.1000000238419","","1","1","null","null","arrowup","[0.15,0.85,0.325,0.675]","","",""
"sailing-trial","135","773109","0.0-11.0-100.0","","","","false","","","","","","","","","","514","","395","","1","1","arrowleft","0","arrowright","[0.15,0.85,0.325,0.675]","","",""
"sailing-trial","136","775126","0.0-11.0-101.0","","","","false","","","","","","","","","","null","","717.4000000059605","","2","0","null","null","arrowup","[0.15,0.85,0.325,0.675]","","",""
"sailing-trial","137","779530","0.0-11.0-102.0","","","","false","","","","","","","","","","790.6000000238419","","396.59999999403954","","1","1","arrowleft","0","arrowright","[0.15,0.85,0.325,0.675]","","",""
"sailing-trial","138","782304","0.0-11.0-103.0","","","","false","","","","","","","","","","null","","991.1999999880791","","1","1","null","null","arrowup","[0.15,0.85,0.325,0.675]","","",""
"sailing-trial","139","785978","0.0-11.0-104.0","","","","false","","","","","","","","","","539.6000000238419","","308.30000001192093","","1","1","arrowleft","0","arrowright","[0.15,0.85,0.325,0.675]","","",""
"sailing-trial","140","788849","0.0-11.0-105.0","","","","false","","","","","","","","","","null","","1458.0999999940395","","0","0","null","null","arrowup","[0.15,0.85,0.325,0.675]","","",""
"sailing-trial","141","793011","0.0-11.0-106.0","","","","false","","","","","","","","","","639.8000000119209","","282.30000001192093","","1","1","arrowleft","0","arrowright","[0.15,0.85,0.325,0.675]","","",""
"sailing-trial","142","795567","0.0-11.0-107.0","","","","false","","","","","","","","","","null","","670.6000000238419","","2","1","null","null","arrowup","[0.15,0.85,0.325,0.675]","","",""
"sailing-trial","143","798743","0.0-11.0-108.0","","","","false","","","","","","","","","","593.5","","163.2000000178814","","1","0","arrowleft","0","arrowright","[0.15,0.85,0.325,0.675]","","",""
"sailing-trial","144","801114","0.0-11.0-109.0","","","","false","","","","","","","","","","null","","948","","2","0","null","null","arrowup","[0.15,0.85,0.325,0.675]","","",""
"sailing-trial","145","804860","0.0-11.0-110.0","","","","false","","","","","","","","","","491.09999999403954","","297.09999999403954","","1","1","arrowleft","0","arrowright","[0.15,0.85,0.325,0.675]","","",""
"sailing-trial","146","807079","0.0-11.0-111.0","","","","false","","","","","","","","","","null","","778.7999999821186","","3","0","null","null","arrowup","[0.15,0.85,0.325,0.675]","","",""
"sailing-trial","147","810492","0.0-11.0-112.0","","","","false","","","","","","","","","","520.2000000178814","","242.40000000596046","","1","0","arrowleft","0","arrowright","[0.675,0.325,0.85,0.15]","","",""
"sailing-trial","148","812798","0.0-11.0-113.0","","","","false","","","","","","","","","","null","","884.4000000059605","","1","0","null","null","arrowup","[0.675,0.325,0.85,0.15]","","",""
"sailing-trial","149","816065","0.0-11.0-114.0","","","","false","","","","","","","","","","541.4000000059605","","223.90000000596046","","2","0","arrowright","1","arrowleft","[0.675,0.325,0.85,0.15]","","",""
"sailing-trial","150","818739","0.0-11.0-115.0","","","","false","","","","","","","","","","null","","804.5","","2","1","null","null","arrowup","[0.675,0.325,0.85,0.15]","","",""
"sailing-trial","151","822233","0.0-11.0-116.0","","","","false","","","","","","","","","","522.3999999761581","","7.0999999940395355","","2","1","arrowright","1","arrowleft","[0.675,0.325,0.85,0.15]","","",""
"sailing-trial","152","824956","0.0-11.0-117.0","","","","false","","","","","","","","","","null","","731.3999999761581","","0","1","null","null","arrowup","[0.675,0.325,0.85,0.15]","","",""
"sailing-trial","153","828827","0.0-11.0-118.0","","","","false","","","","","","","","","","566.5","","379.5","","2","1","arrowright","1","arrowleft","[0.675,0.325,0.85,0.15]","","",""
"sailing-trial","154","831389","0.0-11.0-119.0","","","","false","","","","","","","","","","null","","736.8999999761581","","2","1","null","null","arrowup","[0.675,0.325,0.85,0.15]","","",""
"sailing-trial","155","835077","0.0-11.0-120.0","","","","false","","","","","","","","","","422","","322.7000000178814","","2","1","arrowright","1","arrowleft","[0.675,0.325,0.85,0.15]","","",""
"sailing-trial","156","837754","0.0-11.0-121.0","","","","false","","","","","","","","","","null","","790.5999999940395","","2","1","null","null","arrowup","[0.675,0.325,0.85,0.15]","","",""
"sailing-trial","157","841775","0.0-11.0-122.0","","","","false","","","","","","","","","","542.7000000178814","","539.4000000059605","","2","1","arrowright","1","arrowleft","[0.675,0.325,0.85,0.15]","","",""
"sailing-trial","158","844921","0.0-11.0-123.0","","","","false","","","","","","","","","","null","","1311.7000000178814","","0","1","null","null","arrowup","[0.675,0.325,0.85,0.15]","","",""
"sailing-trial","159","848090","0.0-11.0-124.0","","","","false","","","","","","","","","","456.2999999821186","","341","","2","0","arrowright","1","arrowleft","[0.675,0.325,0.85,0.15]","","",""
"sailing-trial","160","850282","0.0-11.0-125.0","","","","false","","","","","","","","","","null","","765.6000000238419","","0","0","null","null","arrowup","[0.675,0.325,0.85,0.15]","","",""
"sailing-trial","161","853861","0.0-11.0-126.0","","","","false","","","","","","","","","","459.19999998807907","","264.2999999821186","","2","1","arrowright","1","arrowleft","[0.675,0.325,0.85,0.15]","","",""
"sailing-trial","162","856094","0.0-11.0-127.0","","","","false","","","","","","","","","","null","","880","","1","0","null","null","arrowup","[0.675,0.325,0.85,0.15]","","",""
"sailing-trial","163","859497","0.0-11.0-128.0","","","","false","","","","","","","","","","450.80000001192093","","35.900000005960464","","2","1","arrowright","1","arrowleft","[0.85,0.15,0.675,0.325]","","",""
"sailing-trial","164","862758","0.0-11.0-129.0","","","","false","","","","","","","","","","null","","1744.199999988079","","2","0","null","null","arrowup","[0.85,0.15,0.675,0.325]","","",""
"sailing-trial","165","867306","0.0-11.0-130.0","","","","false","","","","","","","","","","595.8000000119209","","1119.699999988079","","2","1","arrowright","1","arrowleft","[0.85,0.15,0.675,0.325]","","",""
"sailing-trial","166","869915","0.0-11.0-131.0","","","","false","","","","","","","","","","null","","807.5999999940395","","2","1","null","null","arrowup","[0.85,0.15,0.675,0.325]","","",""
"sailing-trial","167","873456","0.0-11.0-132.0","","","","false","","","","","","","","","","610.9000000059605","","18.899999976158142","","2","1","arrowright","1","arrowleft","[0.85,0.15,0.675,0.325]","","",""
"sailing-trial","168","877073","0.0-11.0-133.0","","","","false","","","","","","","","","","null","","2117.2999999821186","","1","0","null","null","arrowup","[0.85,0.15,0.675,0.325]","","",""
"sailing-trial","169","881203","0.0-11.0-134.0","","","","false","","","","","","","","","","585.0999999940395","","86.09999999403954","","2","1","arrowright","1","arrowleft","[0.85,0.15,0.675,0.325]","","",""
"sailing-trial","170","884698","0.0-11.0-135.0","","","","false","","","","","","","","","","null","","1989.699999988079","","3","0","null","null","arrowup","[0.85,0.15,0.675,0.325]","","",""
"sailing-trial","171","889013","0.0-11.0-136.0","","","","false","","","","","","","","","","655","","437","","2","1","arrowright","1","arrowleft","[0.85,0.15,0.675,0.325]","","",""
"sailing-trial","172","893352","0.0-11.0-137.0","","","","false","","","","","","","","","","null","","1202.5","","3","1","null","null","arrowup","[0.85,0.15,0.675,0.325]","","",""
"sailing-trial","173","901265","0.0-11.0-138.0","","","","false","","","","","","","","","","1395.3999999761581","","414.7999999821186","","2","1","arrowright","1","arrowleft","[0.85,0.15,0.675,0.325]","","",""
"sailing-trial","174","904083","0.0-11.0-139.0","","","","false","","","","","","","","","","null","","1061.7999999821186","","3","0","null","null","arrowup","[0.85,0.15,0.675,0.325]","","",""
"sailing-trial","175","907781","0.0-11.0-140.0","","","","false","","","","","","","","","","550.9000000059605","","306.5","","2","1","arrowright","1","arrowleft","[0.85,0.15,0.675,0.325]","","",""
"sailing-trial","176","911728","0.0-11.0-141.0","","","","false","","","","","","","","","","null","","932.1000000238419","","2","0","null","null","arrowup","[0.85,0.15,0.675,0.325]","","",""
"sailing-trial","177","915779","0.0-11.0-142.0","","","","false","","","","","","","","","","541.7999999821186","","570.0999999940395","","2","1","arrowright","1","arrowleft","[0.85,0.15,0.675,0.325]","","",""
"sailing-trial","178","919348","0.0-11.0-143.0","","","","false","","","","","","","","","","null","","1455.300000011921","","2","1","null","null","arrowup","[0.85,0.15,0.675,0.325]","","",""
"sailing-trial","179","925449","0.0-11.0-144.0","","","","false","","","","","","","","","","1260.5999999940395","","96.39999997615814","","2","1","arrowright","1","arrowleft","[0.85,0.15,0.675,0.325]","","",""
"sailing-trial","180","928674","0.0-11.0-145.0","","","","false","","","","","","","","","","null","","1393.4000000059605","","2","1","null","null","arrowup","[0.85,0.15,0.675,0.325]","","",""
"sailing-trial","181","932414","0.0-11.0-146.0","","","","false","","","","","","","","","","440.59999999403954","","207.59999999403954","","2","1","arrowright","1","arrowleft","[0.85,0.15,0.675,0.325]","","",""
"sailing-trial","182","936417","0.0-11.0-147.0","","","","false","","","","","","","","","","null","","1717.5999999940395","","1","1","null","null","arrowup","[0.85,0.15,0.675,0.325]","","",""
"sailing-trial","183","940612","0.0-11.0-148.0","","","","false","","","","","","","","","","1168.9000000059605","","95.90000000596046","","2","0","arrowright","1","arrowleft","[0.85,0.15,0.675,0.325]","","",""
"sailing-trial","184","943365","0.0-11.0-149.0","","","","false","","","","","","","","","","null","","930.4000000059605","","3","1","null","null","arrowup","[0.85,0.15,0.675,0.325]","","",""
"sailing-trial","185","947287","0.0-11.0-150.0","","","","false","","","","","","","","","","570.7000000178814","","334","","2","1","arrowright","1","arrowleft","[0.675,0.325,0.85,0.15]","","",""
"sailing-trial","186","949613","0.0-11.0-151.0","","","","false","","","","","","","","","","null","","1013.2000000178814","","0","0","null","null","arrowup","[0.675,0.325,0.85,0.15]","","",""
"sailing-trial","187","953655","0.0-11.0-152.0","","","","false","","","","","","","","","","673","","336.40000000596046","","2","1","arrowright","1","arrowleft","[0.675,0.325,0.85,0.15]","","",""
"sailing-trial","188","955846","0.0-11.0-153.0","","","","false","","","","","","","","","","null","","707.9000000059605","","3","0","null","null","arrowup","[0.675,0.325,0.85,0.15]","","",""
"sailing-trial","189","959971","0.0-11.0-154.0","","","","false","","","","","","","","","","543.2999999821186","","354.09999999403954","","2","1","arrowright","1","arrowleft","[0.675,0.325,0.85,0.15]","","",""
"sailing-trial","190","962122","0.0-11.0-155.0","","","","false","","","","","","","","","","null","","843","","3","0","null","null","arrowup","[0.675,0.325,0.85,0.15]","","",""
"sailing-trial","191","967140","0.0-11.0-156.0","","","","false","","","","","","","","","","653.7000000178814","","285.40000000596046","","2","0","arrowright","1","arrowleft","[0.675,0.325,0.85,0.15]","","",""
"sailing-trial","192","970342","0.0-11.0-157.0","","","","false","","","","","","","","","","null","","894.8000000119209","","1","1","null","null","arrowup","[0.675,0.325,0.85,0.15]","","",""
"sailing-trial","193","975028","0.0-11.0-158.0","","","","false","","","","","","","","","","1500.1000000238419","","235.5","","2","1","arrowright","1","arrowleft","[0.675,0.325,0.85,0.15]","","",""
"sailing-trial","194","978925","0.0-11.0-159.0","","","","false","","","","","","","","","","null","","857.4000000059605","","1","0","null","null","arrowup","[0.675,0.325,0.85,0.15]","","",""
"sailing-trial","195","985002","0.0-11.0-160.0","","","","false","","","","","","","","","","1655.5999999940395","","1387.7999999821186","","2","1","arrowright","1","arrowleft","[0.675,0.325,0.85,0.15]","","",""
"sailing-trial","196","987479","0.0-11.0-161.0","","","","false","","","","","","","","","","null","","976.9000000059605","","3","0","null","null","arrowup","[0.675,0.325,0.85,0.15]","","",""
"sailing-trial","197","990925","0.0-11.0-162.0","","","","false","","","","","","","","","","705.2999999821186","","280.09999999403954","","2","0","arrowright","1","arrowleft","[0.675,0.325,0.85,0.15]","","",""
"sailing-trial","198","994061","0.0-11.0-163.0","","","","false","","","","","","","","","","null","","1191.0999999940395","","0","1","null","null","arrowup","[0.675,0.325,0.85,0.15]","","",""
"sailing-trial","199","997618","0.0-11.0-164.0","","","","false","","","","","","","","","","537.5999999940395","","76.30000001192093","","0","1","arrowleft","0","arrowleft","[0.675,0.325,0.85,0.15]","","",""
"sailing-trial","200","1000294","0.0-11.0-165.0","","","","false","","","","","","","","","","null","","773.2999999821186","","3","1","null","null","arrowup","[0.675,0.325,0.85,0.15]","","",""
"sailing-trial","201","1003883","0.0-11.0-166.0","","","","false","","","","","","","","","","567.3000000119209","","144.40000000596046","","0","1","arrowleft","0","arrowleft","[0.675,0.325,0.85,0.15]","","",""
"sailing-trial","202","1007089","0.0-11.0-167.0","","","","false","","","","","","","","","","null","","1404.4000000059605","","0","1","null","null","arrowup","[0.675,0.325,0.85,0.15]","","",""
"sailing-trial","203","1010747","0.0-11.0-168.0","","","","false","","","","","","","","","","524.2000000178814","","222","","0","1","arrowleft","0","arrowleft","[0.85,0.15,0.675,0.325]","","",""
"sailing-trial","204","1014023","0.0-11.0-169.0","","","","false","","","","","","","","","","null","","1426.6000000238419","","0","1","null","null","arrowup","[0.85,0.15,0.675,0.325]","","",""
"sailing-trial","205","1017895","0.0-11.0-170.0","","","","false","","","","","","","","","","591.4000000059605","","230.40000000596046","","0","1","arrowleft","0","arrowleft","[0.85,0.15,0.675,0.325]","","",""
"sailing-trial","206","1020986","0.0-11.0-171.0","","","","false","","","","","","","","","","null","","868.6999999880791","","2","1","null","null","arrowup","[0.85,0.15,0.675,0.325]","","",""
"sailing-trial","207","1024793","0.0-11.0-172.0","","","","false","","","","","","","","","","687.1000000238419","","266.2999999821186","","2","1","arrowright","1","arrowleft","[0.85,0.15,0.675,0.325]","","",""
"sailing-trial","208","1027244","0.0-11.0-173.0","","","","false","","","","","","","","","","null","","771.1000000238419","","1","0","null","null","arrowup","[0.85,0.15,0.675,0.325]","","",""
"sailing-trial","209","1030943","0.0-11.0-174.0","","","","false","","","","","","","","","","645.1999999880791","","89","","2","1","arrowright","1","arrowleft","[0.85,0.15,0.675,0.325]","","",""
"sailing-trial","210","1033805","0.0-11.0-175.0","","","","false","","","","","","","","","","null","","1419.199999988079","","3","0","null","null","arrowup","[0.85,0.15,0.675,0.325]","","",""
"sailing-trial","211","1036981","0.0-11.0-176.0","","","","false","","","","","","","","","","556.1999999880791","","87.30000001192093","","2","0","arrowright","1","arrowleft","[0.85,0.15,0.675,0.325]","","",""
"sailing-trial","212","1039554","0.0-11.0-177.0","","","","false","","","","","","","","","","null","","787.0999999940395","","0","1","null","null","arrowup","[0.85,0.15,0.675,0.325]","","",""
"sailing-trial","213","1043110","0.0-11.0-178.0","","","","false","","","","","","","","","","393.7999999821186","","278.19999998807907","","0","1","arrowleft","0","arrowleft","[0.85,0.15,0.675,0.325]","","",""
"sailing-trial","214","1045636","0.0-11.0-179.0","","","","false","","","","","","","","","","null","","752.5","","0","1","null","null","arrowup","[0.85,0.15,0.675,0.325]","","",""
"sailing-trial","215","1049045","0.0-11.0-180.0","","","","false","","","","","","","","","","554.3000000119209","","35.69999998807907","","0","1","arrowleft","0","arrowleft","[0.85,0.15,0.675,0.325]","","",""
"sailing-trial","216","1051438","0.0-11.0-181.0","","","","false","","","","","","","","","","null","","1095","","0","0","null","null","arrowup","[0.85,0.15,0.675,0.325]","","",""
"sailing-trial","217","1054895","0.0-11.0-182.0","","","","false","","","","","","","","","","430.40000000596046","","165.60000002384186","","0","1","arrowleft","0","arrowleft","[0.85,0.15,0.675,0.325]","","",""
"sailing-trial","218","1057108","0.0-11.0-183.0","","","","false","","","","","","","","","","null","","737.8000000119209","","3","0","null","null","arrowup","[0.85,0.15,0.675,0.325]","","",""
"sailing-trial","219","1060977","0.0-11.0-184.0","","","","false","","","","","","","","","","569.7000000178814","","341.90000000596046","","0","1","arrowleft","0","arrowleft","[0.675,0.325,0.85,0.15]","","",""
"sailing-trial","220","1064552","0.0-11.0-185.0","","","","false","","","","","","","","","","null","","1675.4000000059605","","1","1","null","null","arrowup","[0.675,0.325,0.85,0.15]","","",""
"sailing-trial","221","1068075","0.0-11.0-186.0","","","","false","","","","","","","","","","569.3000000119209","","49.900000005960464","","0","1","arrowleft","0","arrowleft","[0.675,0.325,0.85,0.15]","","",""
"sailing-trial","222","1070276","0.0-11.0-187.0","","","","false","","","","","","","","","","null","","812.0999999940395","","1","0","null","null","arrowup","[0.675,0.325,0.85,0.15]","","",""
"sailing-trial","223","1073610","0.0-11.0-188.0","","","","false","","","","","","","","","","487.90000000596046","","10.199999988079071","","0","1","arrowleft","0","arrowleft","[0.675,0.325,0.85,0.15]","","",""
"sailing-trial","224","1077170","0.0-11.0-189.0","","","","false","","","","","","","","","","null","","2081.300000011921","","0","0","null","null","arrowup","[0.675,0.325,0.85,0.15]","","",""
"sailing-trial","225","1080428","0.0-11.0-190.0","","","","false","","","","","","","","","","471.80000001192093","","136.19999998807907","","0","0","arrowleft","0","arrowleft","[0.675,0.325,0.85,0.15]","","",""
"sailing-trial","226","1082574","0.0-11.0-191.0","","","","false","","","","","","","","","","null","","826.3000000119209","","3","0","null","null","arrowup","[0.675,0.325,0.85,0.15]","","",""
"sailing-trial","227","1086358","0.0-11.0-192.0","","","","false","","","","","","","","","","584","","154.5","","2","1","arrowright","1","arrowleft","[0.675,0.325,0.85,0.15]","","",""
"sailing-trial","228","1088917","0.0-11.0-193.0","","","","false","","","","","","","","","","null","","719.9000000059605","","0","1","null","null","arrowup","[0.675,0.325,0.85,0.15]","","",""
"sailing-trial","229","1092558","0.0-11.0-194.0","","","","false","","","","","","","","","","592.6999999880791","","3.5999999940395355","","0","1","arrowleft","0","arrowleft","[0.675,0.325,0.85,0.15]","","",""
"sailing-trial","230","1095185","0.0-11.0-195.0","","","","false","","","","","","","","","","null","","845.7999999821186","","2","1","null","null","arrowup","[0.675,0.325,0.85,0.15]","","",""
"sailing-trial","231","1099224","0.0-11.0-196.0","","","","false","","","","","","","","","","1110.5","","57.70000001788139","","2","1","arrowright","1","arrowleft","[0.675,0.325,0.85,0.15]","","",""
"sailing-trial","232","1101733","0.0-11.0-197.0","","","","false","","","","","","","","","","null","","709","","2","1","null","null","arrowup","[0.675,0.325,0.85,0.15]","","",""
"sailing-trial","233","1105242","0.0-11.0-198.0","","","","false","","","","","","","","","","485.40000000596046","","251.09999999403954","","2","1","arrowright","1","arrowleft","[0.675,0.325,0.85,0.15]","","",""
"sailing-trial","234","1107189","0.0-11.0-199.0","","","","false","","","","","","","","","","null","","677","","2","0","null","null","arrowup","[0.675,0.325,0.85,0.15]","","",""
"sailing-trial","235","1110475","0.0-11.0-200.0","","","","false","","","","","","","","","","631.7999999821186","","11.800000011920929","","2","0","arrowright","1","arrowleft","[0.325,0.675,0.15,0.85]","","",""
"sailing-trial","236","1112762","0.0-11.0-201.0","","","","false","","","","","","","","","","null","","817.0999999940395","","0","0","null","null","arrowup","[0.325,0.675,0.15,0.85]","","",""
"sailing-trial","237","1115706","0.0-11.0-202.0","","","","false","","","","","","","","","","449","","38.400000005960464","","2","0","arrowright","1","arrowleft","[0.325,0.675,0.15,0.85]","","",""
"sailing-trial","238","1117621","0.0-11.0-203.0","","","","false","","","","","","","","","","null","","545.9000000059605","","2","0","null","null","arrowup","[0.325,0.675,0.15,0.85]","","",""
"sailing-trial","239","1121164","0.0-11.0-204.0","","","","false","","","","","","","","","","413.69999998807907","","246.90000000596046","","3","1","arrowright","1","arrowright","[0.325,0.675,0.15,0.85]","","",""
"sailing-trial","240","1123557","0.0-11.0-205.0","","","","false","","","","","","","","","","null","","471.2000000178814","","2","1","null","null","arrowup","[0.325,0.675,0.15,0.85]","","",""
"sailing-trial","241","1127281","0.0-11.0-206.0","","","","false","","","","","","","","","","531.4000000059605","","254.40000000596046","","3","1","arrowright","1","arrowright","[0.325,0.675,0.15,0.85]","","",""
"sailing-trial","242","1130157","0.0-11.0-207.0","","","","false","","","","","","","","","","null","","909.5999999940395","","0","1","null","null","arrowup","[0.325,0.675,0.15,0.85]","","",""
"sailing-trial","243","1134661","0.0-11.0-208.0","","","","false","","","","","","","","","","1046.699999988079","","593","","3","1","arrowright","1","arrowright","[0.325,0.675,0.15,0.85]","","",""
"sailing-trial","244","1136811","0.0-11.0-209.0","","","","false","","","","","","","","","","null","","701.8000000119209","","2","0","null","null","arrowup","[0.325,0.675,0.15,0.85]","","",""
"sailing-trial","245","1140840","0.0-11.0-210.0","","","","false","","","","","","","","","","586","","247.90000000596046","","3","1","arrowright","1","arrowright","[0.325,0.675,0.15,0.85]","","",""
"sailing-trial","246","1142719","0.0-11.0-211.0","","","","false","","","","","","","","","","null","","699.3000000119209","","2","0","null","null","arrowup","[0.325,0.675,0.15,0.85]","","",""
"sailing-trial","247","1146479","0.0-11.0-212.0","","","","false","","","","","","","","","","615.1999999880791","","287.2000000178814","","3","1","arrowright","1","arrowright","[0.325,0.675,0.15,0.85]","","",""
"sailing-trial","248","1149835","0.0-11.0-213.0","","","","false","","","","","","","","","","null","","808.3999999761581","","2","1","null","null","arrowup","[0.325,0.675,0.15,0.85]","","",""
"sailing-trial","249","1153560","0.0-11.0-214.0","","","","false","","","","","","","","","","679.7999999821186","","41.29999998211861","","3","1","arrowright","1","arrowright","[0.325,0.675,0.15,0.85]","","",""
"sailing-trial","250","1158662","0.0-11.0-215.0","","","","false","","","","","","","","","","null","","3064.300000011921","","1","1","null","null","arrowup","[0.325,0.675,0.15,0.85]","","",""
"sailing-trial","251","1162884","0.0-11.0-216.0","","","","false","","","","","","","","","","641.5","","169.69999998807907","","3","1","arrowright","1","arrowright","[0.15,0.85,0.325,0.675]","","",""
"sailing-trial","252","1167463","0.0-11.0-217.0","","","","false","","","","","","","","","","null","","2470.9000000059605","","1","0","null","null","arrowup","[0.15,0.85,0.325,0.675]","","",""
"sailing-trial","253","1171876","0.0-11.0-218.0","","","","false","","","","","","","","","","431","","475.7000000178814","","3","1","arrowright","1","arrowright","[0.15,0.85,0.325,0.675]","","",""
"sailing-trial","254","1175633","0.0-11.0-219.0","","","","false","","","","","","","","","","null","","1440.199999988079","","1","1","null","null","arrowup","[0.15,0.85,0.325,0.675]","","",""
"sailing-trial","255","1182631","0.0-11.0-220.0","","","","false","","","","","","","","","","2227.5","","1591.699999988079","","3","1","arrowright","1","arrowright","[0.15,0.85,0.325,0.675]","","",""
"sailing-trial","256","1187731","0.0-11.0-221.0","","","","false","","","","","","","","","","null","","1706.800000011921","","1","1","null","null","arrowup","[0.15,0.85,0.325,0.675]","","",""
"sailing-trial","257","1193068","0.0-11.0-222.0","","","","false","","","","","","","","","","677.0999999940395","","8.400000005960464","","3","1","arrowright","1","arrowright","[0.15,0.85,0.325,0.675]","","",""
"sailing-trial","258","1197178","0.0-11.0-223.0","","","","false","","","","","","","","","","null","","1096","","2","0","null","null","arrowup","[0.15,0.85,0.325,0.675]","","",""
"sailing-trial","259","1202992","0.0-11.0-224.0","","","","false","","","","","","","","","","2202","","501.09999999403954","","3","1","arrowright","1","arrowright","[0.15,0.85,0.325,0.675]","","",""
"sailing-trial","260","1207121","0.0-11.0-225.0","","","","false","","","","","","","","","","null","","1100.300000011921","","2","0","null","null","arrowup","[0.15,0.85,0.325,0.675]","","",""
"sailing-trial","261","1215555","0.0-11.0-226.0","","","","false","","","","","","","","","","4850.799999982119","","652","","3","1","arrowright","1","arrowright","[0.15,0.85,0.325,0.675]","","",""
"sailing-trial","262","1222253","0.0-11.0-227.0","","","","false","","","","","","","","","","null","","4127.9000000059605","","3","1","null","null","arrowup","[0.15,0.85,0.325,0.675]","","",""
"sailing-trial","263","1231148","0.0-11.0-228.0","","","","false","","","","","","","","","","5316.800000011921","","198.09999999403954","","3","1","arrowright","1","arrowright","[0.15,0.85,0.325,0.675]","","",""
"sailing-trial","264","1236948","0.0-11.0-229.0","","","","false","","","","","","","","","","null","","3640.2000000178814","","2","1","null","null","arrowup","[0.15,0.85,0.325,0.675]","","",""
"sailing-trial","265","1240721","0.0-11.0-230.0","","","","false","","","","","","","","","","634.5","","25.19999998807907","","3","1","arrowright","1","arrowright","[0.15,0.85,0.325,0.675]","","",""
"sailing-trial","266","1244685","0.0-11.0-231.0","","","","false","","","","","","","","","","null","","944.5","","1","0","null","null","arrowup","[0.15,0.85,0.325,0.675]","","",""
"sailing-trial","267","1248616","0.0-11.0-232.0","","","","false","","","","","","","","","","647.1000000238419","","225.5","","3","1","arrowright","1","arrowright","[0.15,0.85,0.325,0.675]","","",""
"sailing-trial","268","1251343","0.0-11.0-233.0","","","","false","","","","","","","","","","null","","855","","3","1","null","null","arrowup","[0.15,0.85,0.325,0.675]","","",""
"sailing-trial","269","1255299","0.0-11.0-234.0","","","","false","","","","","","","","","","575.5","","249.69999998807907","","3","1","arrowright","1","arrowright","[0.15,0.85,0.325,0.675]","","",""
"sailing-trial","270","1259360","0.0-11.0-235.0","","","","false","","","","","","","","","","null","","1039.9000000059605","","1","0","null","null","arrowup","[0.15,0.85,0.325,0.675]","","",""
"sailing-trial","271","1264348","0.0-11.0-236.0","","","","false","","","","","","","","","","519","","410.80000001192093","","3","0","arrowright","1","arrowright","[0.85,0.15,0.675,0.325]","","",""
"sailing-trial","272","1267332","0.0-11.0-237.0","","","","false","","","","","","","","","","null","","710.8000000119209","","3","1","null","null","arrowup","[0.85,0.15,0.675,0.325]","","",""
"sailing-trial","273","1271255","0.0-11.0-238.0","","","","false","","","","","","","","","","520.1999999880791","","176","","3","1","arrowright","1","arrowright","[0.85,0.15,0.675,0.325]","","",""
"sailing-trial","274","1274033","0.0-11.0-239.0","","","","false","","","","","","","","","","null","","761","","0","1","null","null","arrowup","[0.85,0.15,0.675,0.325]","","",""
"sailing-trial","275","1278453","0.0-11.0-240.0","","","","false","","","","","","","","","","934.6999999880791","","150.5","","3","1","arrowright","1","arrowright","[0.85,0.15,0.675,0.325]","","",""
"sailing-trial","276","1281043","0.0-11.0-241.0","","","","false","","","","","","","","","","null","","804.4000000059605","","3","1","null","null","arrowup","[0.85,0.15,0.675,0.325]","","",""
"sailing-trial","277","1284237","0.0-11.0-242.0","","","","false","","","","","","","","","","540.8000000119209","","222.30000001192093","","3","0","arrowright","1","arrowright","[0.85,0.15,0.675,0.325]","","",""
"sailing-trial","278","1286829","0.0-11.0-243.0","","","","false","","","","","","","","","","null","","795","","2","1","null","null","arrowup","[0.85,0.15,0.675,0.325]","","",""
"sailing-trial","279","1290396","0.0-11.0-244.0","","","","false","","","","","","","","","","887.3000000119209","","45","","3","0","arrowright","1","arrowright","[0.85,0.15,0.675,0.325]","","",""
"sailing-trial","280","1293095","0.0-11.0-245.0","","","","false","","","","","","","","","","null","","876","","0","1","null","null","arrowup","[0.85,0.15,0.675,0.325]","","",""
"sailing-trial","281","1296937","0.0-11.0-246.0","","","","false","","","","","","","","","","575.3000000119209","","191.90000000596046","","0","1","arrowleft","0","arrowleft","[0.85,0.15,0.675,0.325]","","",""
"sailing-trial","282","1299062","0.0-11.0-247.0","","","","false","","","","","","","","","","null","","784.3000000119209","","3","0","null","null","arrowup","[0.85,0.15,0.675,0.325]","","",""
"sailing-trial","283","1303102","0.0-11.0-248.0","","","","false","","","","","","","","","","461.69999998807907","","255.59999999403954","","0","1","arrowleft","0","arrowleft","[0.85,0.15,0.675,0.325]","","",""
"sailing-trial","284","1305797","0.0-11.0-249.0","","","","false","","","","","","","","","","null","","997.3000000119209","","3","0","null","null","arrowup","[0.85,0.15,0.675,0.325]","","",""
"sailing-trial","285","1309233","0.0-11.0-250.0","","","","false","","","","","","","","","","566.6999999880791","","60","","0","1","arrowleft","0","arrowleft","[0.85,0.15,0.675,0.325]","","",""
"sailing-trial","286","1311579","0.0-11.0-251.0","","","","false","","","","","","","","","","null","","903.7000000178814","","3","0","null","null","arrowup","[0.85,0.15,0.675,0.325]","","",""
"sailing-trial","287","1315350","0.0-11.0-252.0","","","","false","","","","","","","","","","508","","252.5","","0","1","arrowleft","0","arrowleft","[0.85,0.15,0.675,0.325]","","",""
"sailing-trial","288","1318065","0.0-11.0-253.0","","","","false","","","","","","","","","","null","","1244.9000000059605","","0","0","null","null","arrowup","[0.85,0.15,0.675,0.325]","","",""
"sailing-trial","289","1321321","0.0-11.0-254.0","","","","false","","","","","","","","","","522.9000000059605","","222.40000000596046","","0","0","arrowleft","0","arrowleft","[0.325,0.675,0.15,0.85]","","",""
"sailing-trial","290","1327150","0.0-11.0-255.0","","","","false","","","","","","","","","","null","","3535.5","","0","0","null","null","arrowup","[0.325,0.675,0.15,0.85]","","",""
"sailing-trial","291","1331208","0.0-11.0-256.0","","","","false","","","","","","","","","","602.0999999940395","","187.5","","0","1","arrowleft","0","arrowleft","[0.325,0.675,0.15,0.85]","","",""
"sailing-trial","292","1334461","0.0-11.0-257.0","","","","false","","","","","","","","","","null","","1023.0999999940395","","2","0","null","null","arrowup","[0.325,0.675,0.15,0.85]","","",""
"sailing-trial","293","1338360","0.0-11.0-258.0","","","","false","","","","","","","","","","529.5999999940395","","858","","0","0","arrowleft","0","arrowleft","[0.325,0.675,0.15,0.85]","","",""
"sailing-trial","294","1341330","0.0-11.0-259.0","","","","false","","","","","","","","","","null","","1107.8999999761581","","0","1","null","null","arrowup","[0.325,0.675,0.15,0.85]","","",""
"sailing-trial","295","1344302","0.0-11.0-260.0","","","","false","","","","","","","","","","541.5999999940395","","7.0999999940395355","","0","0","arrowleft","0","arrowleft","[0.325,0.675,0.15,0.85]","","",""
"sailing-trial","296","1346798","0.0-11.0-261.0","","","","false","","","","","","","","","","null","","722","","3","1","null","null","arrowup","[0.325,0.675,0.15,0.85]","","",""
"sailing-trial","297","1351056","0.0-11.0-262.0","","","","false","","","","","","","","","","460.2000000178814","","237.39999997615814","","3","1","arrowright","1","arrowright","[0.325,0.675,0.15,0.85]","","",""
"sailing-trial","298","1353930","0.0-11.0-263.0","","","","false","","","","","","","","","","null","","659.4000000059605","","0","1","null","null","arrowup","[0.325,0.675,0.15,0.85]","","",""
"sailing-trial","299","1362573","0.0-11.0-264.0","","","","false","","","","","","","","","","651.3000000119209","","245.5","","3","1","arrowright","1","arrowright","[0.325,0.675,0.15,0.85]","","",""
"sailing-trial","300","1365794","0.0-11.0-265.0","","","","false","","","","","","","","","","null","","720.5","","0","0","null","null","arrowup","[0.325,0.675,0.15,0.85]","","",""
"sailing-trial","301","1369786","0.0-11.0-266.0","","","","false","","","","","","","","","","514.9000000059605","","175.90000000596046","","3","1","arrowright","1","arrowright","[0.325,0.675,0.15,0.85]","","",""
"sailing-trial","302","1372510","0.0-11.0-267.0","","","","false","","","","","","","","","","null","","721.4000000059605","","0","0","null","null","arrowup","[0.325,0.675,0.15,0.85]","","",""
"sailing-trial","303","1376518","0.0-11.0-268.0","","","","false","","","","","","","","","","544.5999999940395","","283.5","","3","1","arrowright","1","arrowright","[0.325,0.675,0.15,0.85]","","",""
"sailing-trial","304","1379144","0.0-11.0-269.0","","","","false","","","","","","","","","","null","","837","","3","1","null","null","arrowup","[0.325,0.675,0.15,0.85]","","",""
"sailing-trial","305","1382936","0.0-11.0-270.0","","","","false","","","","","","","","","","478.09999999403954","","195.59999999403954","","3","0","arrowright","1","arrowright","[0.85,0.15,0.675,0.325]","","",""
"sailing-trial","306","1385921","0.0-11.0-271.0","","","","false","","","","","","","","","","null","","911.5","","1","0","null","null","arrowup","[0.85,0.15,0.675,0.325]","","",""
"sailing-trial","307","1389675","0.0-11.0-272.0","","","","false","","","","","","","","","","841.6999999880791","","230.19999998807907","","3","0","arrowright","1","arrowright","[0.85,0.15,0.675,0.325]","","",""
"sailing-trial","308","1391780","0.0-11.0-273.0","","","","false","","","","","","","","","","null","","720.5","","1","0","null","null","arrowup","[0.85,0.15,0.675,0.325]","","",""
"sailing-trial","309","1395582","0.0-11.0-274.0","","","","false","","","","","","","","","","747.2000000178814","","165.69999998807907","","2","1","arrowright","1","arrowleft","[0.85,0.15,0.675,0.325]","","",""
"sailing-trial","310","1398954","0.0-11.0-275.0","","","","false","","","","","","","","","","null","","1508","","1","1","null","null","arrowup","[0.85,0.15,0.675,0.325]","","",""
"sailing-trial","311","1402158","0.0-11.0-276.0","","","","false","","","","","","","","","","595.7999999821186","","149.7000000178814","","2","0","arrowright","1","arrowleft","[0.85,0.15,0.675,0.325]","","",""
"sailing-trial","312","1404194","0.0-11.0-277.0","","","","false","","","","","","","","","","null","","709.6000000238419","","1","0","null","null","arrowup","[0.85,0.15,0.675,0.325]","","",""
"sailing-trial","313","1408115","0.0-11.0-278.0","","","","false","","","","","","","","","","481.19999998807907","","288.5","","0","1","arrowleft","0","arrowleft","[0.85,0.15,0.675,0.325]","","",""
"sailing-trial","314","1410557","0.0-11.0-279.0","","","","false","","","","","","","","","","null","","1058.3999999761581","","1","0","null","null","arrowup","[0.85,0.15,0.675,0.325]","","",""
"sailing-trial","315","1415336","0.0-11.0-280.0","","","","false","","","","","","","","","","438.19999998807907","","290.30000001192093","","0","0","arrowleft","0","arrowleft","[0.85,0.15,0.675,0.325]","","",""
"sailing-trial","316","1417510","0.0-11.0-281.0","","","","false","","","","","","","","","","null","","801.5999999940395","","1","0","null","null","arrowup","[0.85,0.15,0.675,0.325]","","",""
"sailing-trial","317","1421428","0.0-11.0-282.0","","","","false","","","","","","","","","","472.19999998807907","","14.099999994039536","","2","1","arrowright","1","arrowleft","[0.85,0.15,0.675,0.325]","","",""
"sailing-trial","318","1424152","0.0-11.0-283.0","","","","false","","","","","","","","","","null","","823.5","","3","1","null","null","arrowup","[0.85,0.15,0.675,0.325]","","",""
"sailing-trial","319","1427894","0.0-11.0-284.0","","","","false","","","","","","","","","","542.5999999940395","","106","","2","1","arrowright","1","arrowleft","[0.85,0.15,0.675,0.325]","","",""
"sailing-trial","320","1431630","0.0-11.0-285.0","","","","false","","","","","","","","","","null","","1844.699999988079","","3","1","null","null","arrowup","[0.85,0.15,0.675,0.325]","","",""
"sailing-trial","321","1435490","0.0-11.0-286.0","","","","false","","","","","","","","","","768.0999999940395","","152.19999998807907","","2","1","arrowright","1","arrowleft","[0.85,0.15,0.675,0.325]","","",""
"sailing-trial","322","1438072","0.0-11.0-287.0","","","","false","","","","","","","","","","null","","1038.5999999940395","","2","0","null","null","arrowup","[0.85,0.15,0.675,0.325]","","",""
"sailing-trial","323","1441508","0.0-11.0-288.0","","","","false","","","","","","","","","","563.9000000059605","","420.39999997615814","","2","0","arrowright","1","arrowleft","[0.85,0.15,0.675,0.325]","","",""
"sailing-trial","324","1444083","0.0-11.0-289.0","","","","false","","","","","","","","","","null","","791.0999999940395","","0","1","null","null","arrowup","[0.85,0.15,0.675,0.325]","","",""
"sailing-trial","325","1447339","0.0-11.0-290.0","","","","false","","","","","","","","","","467.80000001192093","","284","","3","0","arrowright","1","arrowright","[0.85,0.15,0.675,0.325]","","",""
"sailing-trial","326","1449867","0.0-11.0-291.0","","","","false","","","","","","","","","","null","","689.8999999761581","","0","1","null","null","arrowup","[0.85,0.15,0.675,0.325]","","",""
"sailing-trial","327","1452943","0.0-11.0-292.0","","","","false","","","","","","","","","","426.7000000178814","","160.5","","0","0","arrowleft","0","arrowleft","[0.85,0.15,0.675,0.325]","","",""
"sailing-trial","328","1454890","0.0-11.0-293.0","","","","false","","","","","","","","","","null","","648.4000000059605","","2","0","null","null","arrowup","[0.85,0.15,0.675,0.325]","","",""
"sailing-trial","329","1459027","0.0-11.0-294.0","","","","false","","","","","","","","","","662","","311.19999998807907","","0","1","arrowleft","0","arrowleft","[0.675,0.325,0.85,0.15]","","",""
"sailing-trial","330","1461900","0.0-11.0-295.0","","","","false","","","","","","","","","","null","","1002.7000000178814","","0","1","null","null","arrowup","[0.675,0.325,0.85,0.15]","","",""
"sailing-trial","331","1465508","0.0-11.0-296.0","","","","false","","","","","","","","","","490.69999998807907","","18.5","","0","1","arrowleft","0","arrowleft","[0.675,0.325,0.85,0.15]","","",""
"sailing-trial","332","1468218","0.0-11.0-297.0","","","","false","","","","","","","","","","null","","822.0999999940395","","1","0","null","null","arrowup","[0.675,0.325,0.85,0.15]","","",""
"sailing-trial","333","1473402","0.0-11.0-298.0","","","","false","","","","","","","","","","1147.1000000238419","","122.30000001192093","","0","1","arrowleft","0","arrowleft","[0.675,0.325,0.85,0.15]","","",""
"sailing-trial","334","1476578","0.0-11.0-299.0","","","","false","","","","","","","","","","null","","700.8999999761581","","2","1","null","null","arrowup","[0.675,0.325,0.85,0.15]","","",""
"sailing-trial","335","1480051","0.0-11.0-300.0","","","","false","","","","","","","","","","451.09999999403954","","188.80000001192093","","0","1","arrowleft","0","arrowleft","[0.675,0.325,0.85,0.15]","","",""
"sailing-trial","336","1483095","0.0-11.0-301.0","","","","false","","","","","","","","","","null","","954.5","","2","1","null","null","arrowup","[0.675,0.325,0.85,0.15]","","",""
"sailing-trial","337","1486751","0.0-11.0-302.0","","","","false","","","","","","","","","","654.4000000059605","","91.69999998807907","","0","1","arrowleft","0","arrowleft","[0.675,0.325,0.85,0.15]","","",""
"sailing-trial","338","1489874","0.0-11.0-303.0","","","","false","","","","","","","","","","null","","837.8999999761581","","2","1","null","null","arrowup","[0.675,0.325,0.85,0.15]","","",""
"sailing-trial","339","1494330","0.0-11.0-304.0","","","","false","","","","","","","","","","807.9000000059605","","245.40000000596046","","0","1","arrowleft","0","arrowleft","[0.675,0.325,0.85,0.15]","","",""
"sailing-trial","340","1497018","0.0-11.0-305.0","","","","false","","","","","","","","","","null","","914.6999999880791","","1","0","null","null","arrowup","[0.675,0.325,0.85,0.15]","","",""
"sailing-trial","341","1500716","0.0-11.0-306.0","","","","false","","","","","","","","","","597.2999999821186","","345.19999998807907","","0","0","arrowleft","0","arrowleft","[0.675,0.325,0.85,0.15]","","",""
"sailing-trial","342","1504828","0.0-11.0-307.0","","","","false","","","","","","","","","","null","","1820","","3","0","null","null","arrowup","[0.675,0.325,0.85,0.15]","","",""
"sailing-trial","343","1508014","0.0-11.0-308.0","","","","false","","","","","","","","","","448","","255.5","","0","0","arrowleft","0","arrowleft","[0.675,0.325,0.85,0.15]","","",""
"sailing-trial","344","1510155","0.0-11.0-309.0","","","","false","","","","","","","","","","null","","867.3999999761581","","3","0","null","null","arrowup","[0.675,0.325,0.85,0.15]","","",""
"sailing-trial","345","1513544","0.0-11.0-310.0","","","","false","","","","","","","","","","444.5","","105.2999999821186","","2","1","arrowright","1","arrowleft","[0.675,0.325,0.85,0.15]","","",""
"sailing-trial","346","1516070","0.0-11.0-311.0","","","","false","","","","","","","","","","null","","707.3000000119209","","1","1","null","null","arrowup","[0.675,0.325,0.85,0.15]","","",""
"sailing-trial","347","1519302","0.0-11.0-312.0","","","","false","","","","","","","","","","744.9000000059605","","34.599999994039536","","1","0","arrowleft","0","arrowright","[0.85,0.15,0.675,0.325]","","",""
"sailing-trial","348","1521855","0.0-11.0-313.0","","","","false","","","","","","","","","","null","","755.4000000059605","","0","1","null","null","arrowup","[0.85,0.15,0.675,0.325]","","",""
"sailing-trial","349","1525092","0.0-11.0-314.0","","","","false","","","","","","","","","","496.59999999403954","","297.59999999403954","","2","0","arrowright","1","arrowleft","[0.85,0.15,0.675,0.325]","","",""
"sailing-trial","350","1527084","0.0-11.0-315.0","","","","false","","","","","","","","","","null","","701.4000000059605","","3","0","null","null","arrowup","[0.85,0.15,0.675,0.325]","","",""
"sailing-trial","351","1530238","0.0-11.0-316.0","","","","false","","","","","","","","","","472.30000001192093","","257.2000000178814","","0","0","arrowleft","0","arrowleft","[0.85,0.15,0.675,0.325]","","",""
"sailing-trial","352","1532206","0.0-11.0-317.0","","","","false","","","","","","","","","","null","","679.1999999880791","","3","0","null","null","arrowup","[0.85,0.15,0.675,0.325]","","",""
"sailing-trial","353","1535821","0.0-11.0-318.0","","","","false","","","","","","","","","","421.09999999403954","","306.80000001192093","","2","1","arrowright","1","arrowleft","[0.85,0.15,0.675,0.325]","","",""
"sailing-trial","354","1538526","0.0-11.0-319.0","","","","false","","","","","","","","","","null","","825.3000000119209","","0","1","null","null","arrowup","[0.85,0.15,0.675,0.325]","","",""
"sailing-trial","355","1541264","0.0-11.0-320.0","","","","false","","","","","","","","","","437.69999998807907","","25.400000005960464","","2","0","arrowright","1","arrowleft","[0.85,0.15,0.675,0.325]","","",""
"sailing-trial","356","1543660","0.0-11.0-321.0","","","","false","","","","","","","","","","null","","607.1999999880791","","0","1","null","null","arrowup","[0.85,0.15,0.675,0.325]","","",""
"sailing-trial","357","1547136","0.0-11.0-322.0","","","","false","","","","","","","","","","399.39999997615814","","240","","0","1","arrowleft","0","arrowleft","[0.85,0.15,0.675,0.325]","","",""
"sailing-trial","358","1549149","0.0-11.0-323.0","","","","false","","","","","","","","","","null","","702.2000000178814","","3","0","null","null","arrowup","[0.85,0.15,0.675,0.325]","","",""
"sailing-trial","359","1552720","0.0-11.0-324.0","","","","false","","","","","","","","","","473.40000000596046","","94.5","","0","1","arrowleft","0","arrowleft","[0.85,0.15,0.675,0.325]","","",""
"sailing-trial","360","1555078","0.0-11.0-325.0","","","","false","","","","","","","","","","null","","798.3000000119209","","1","0","null","null","arrowup","[0.85,0.15,0.675,0.325]","","",""
"sailing-trial","361","1558903","0.0-11.0-326.0","","","","false","","","","","","","","","","677.0999999940395","","134.80000001192093","","0","1","arrowleft","0","arrowleft","[0.85,0.15,0.675,0.325]","","",""
"sailing-trial","362","1562107","0.0-11.0-327.0","","","","false","","","","","","","","","","null","","929.5999999940395","","2","1","null","null","arrowup","[0.85,0.15,0.675,0.325]","","",""
"sailing-trial","363","1565852","0.0-11.0-328.0","","","","false","","","","","","","","","","633.7999999821186","","213.59999999403954","","0","1","arrowleft","0","arrowleft","[0.85,0.15,0.675,0.325]","","",""
"sailing-trial","364","1569796","0.0-11.0-329.0","","","","false","","","","","","","","","","null","","933.1999999880791","","1","0","null","null","arrowup","[0.85,0.15,0.675,0.325]","","",""
"sailing-trial","365","1574077","0.0-11.0-330.0","","","","false","","","","","","","","","","833.2999999821186","","291","","0","1","arrowleft","0","arrowleft","[0.85,0.15,0.675,0.325]","","",""
"sailing-trial","366","1577005","0.0-11.0-331.0","","","","false","","","","","","","","","","null","","1040","","1","0","null","null","arrowup","[0.85,0.15,0.675,0.325]","","",""
"sailing-trial","367","1580992","0.0-11.0-332.0","","","","false","","","","","","","","","","436.39999997615814","","275.7999999821186","","0","1","arrowleft","0","arrowleft","[0.675,0.325,0.85,0.15]","","",""
"sailing-trial","368","1583837","0.0-11.0-333.0","","","","false","","","","","","","","","","null","","1369.2000000178814","","3","0","null","null","arrowup","[0.675,0.325,0.85,0.15]","","",""
"sailing-trial","369","1588689","0.0-11.0-334.0","","","","false","","","","","","","","","","1055.5","","881.3000000119209","","0","1","arrowleft","0","arrowleft","[0.675,0.325,0.85,0.15]","","",""
"sailing-trial","370","1591730","0.0-11.0-335.0","","","","false","","","","","","","","","","null","","999.9000000059605","","1","1","null","null","arrowup","[0.675,0.325,0.85,0.15]","","",""
"sailing-trial","371","1595040","0.0-11.0-336.0","","","","false","","","","","","","","","","773.1999999880791","","22.19999998807907","","0","0","arrowleft","0","arrowleft","[0.675,0.325,0.85,0.15]","","",""
"sailing-trial","372","1597862","0.0-11.0-337.0","","","","false","","","","","","","","","","null","","904.5","","3","0","null","null","arrowup","[0.675,0.325,0.85,0.15]","","",""
"sailing-trial","373","1600997","0.0-11.0-338.0","","","","false","","","","","","","","","","496.09999999403954","","240.89999997615814","","0","0","arrowleft","0","arrowleft","[0.675,0.325,0.85,0.15]","","",""
"sailing-trial","374","1603465","0.0-11.0-339.0","","","","false","","","","","","","","","","null","","674.5","","2","1","null","null","arrowup","[0.675,0.325,0.85,0.15]","","",""
"sailing-trial","375","1606838","0.0-11.0-340.0","","","","false","","","","","","","","","","478.89999997615814","","17.799999982118607","","2","1","arrowright","1","arrowleft","[0.675,0.325,0.85,0.15]","","",""
"sailing-trial","376","1610016","0.0-11.0-341.0","","","","false","","","","","","","","","","null","","1390.2000000178814","","0","1","null","null","arrowup","[0.675,0.325,0.85,0.15]","","",""
"sailing-trial","377","1613621","0.0-11.0-342.0","","","","false","","","","","","","","","","423","","352.7999999821186","","2","1","arrowright","1","arrowleft","[0.675,0.325,0.85,0.15]","","",""
"sailing-trial","378","1615851","0.0-11.0-343.0","","","","false","","","","","","","","","","null","","584.5","","1","0","null","null","arrowup","[0.675,0.325,0.85,0.15]","","",""
"sailing-trial","379","1619555","0.0-11.0-344.0","","","","false","","","","","","","","","","462.2000000178814","","351.40000000596046","","2","1","arrowright","1","arrowleft","[0.675,0.325,0.85,0.15]","","",""
"sailing-trial","380","1622098","0.0-11.0-345.0","","","","false","","","","","","","","","","null","","753.4000000059605","","2","1","null","null","arrowup","[0.675,0.325,0.85,0.15]","","",""
"sailing-trial","381","1625605","0.0-11.0-346.0","","","","false","","","","","","","","","","510.09999999403954","","33","","2","1","arrowright","1","arrowleft","[0.675,0.325,0.85,0.15]","","",""
"sailing-trial","382","1628444","0.0-11.0-347.0","","","","false","","","","","","","","","","null","","704.4000000059605","","2","1","null","null","arrowup","[0.675,0.325,0.85,0.15]","","",""
"sailing-trial","383","1632169","0.0-11.0-348.0","","","","false","","","","","","","","","","481.09999999403954","","95.5","","2","1","arrowright","1","arrowleft","[0.85,0.15,0.675,0.325]","","",""
"sailing-trial","384","1635245","0.0-11.0-349.0","","","","false","","","","","","","","","","null","","805.1000000238419","","0","1","null","null","arrowup","[0.85,0.15,0.675,0.325]","","",""
"sailing-trial","385","1640001","0.0-11.0-350.0","","","","false","","","","","","","","","","1263","","44.599999994039536","","2","1","arrowright","1","arrowleft","[0.85,0.15,0.675,0.325]","","",""
"sailing-trial","386","1644652","0.0-11.0-351.0","","","","false","","","","","","","","","","null","","2254.4000000059605","","3","1","null","null","arrowup","[0.85,0.15,0.675,0.325]","","",""
"sailing-trial","387","1649207","0.0-11.0-352.0","","","","false","","","","","","","","","","682.2000000178814","","285.69999998807907","","2","1","arrowright","1","arrowleft","[0.85,0.15,0.675,0.325]","","",""
"sailing-trial","388","1652515","0.0-11.0-353.0","","","","false","","","","","","","","","","null","","1274.199999988079","","3","1","null","null","arrowup","[0.85,0.15,0.675,0.325]","","",""
"sailing-trial","389","1659379","0.0-11.0-354.0","","","","false","","","","","","","","","","3527.7999999821186","","405.2000000178814","","2","1","arrowright","1","arrowleft","[0.85,0.15,0.675,0.325]","","",""
"sailing-trial","390","1662560","0.0-11.0-355.0","","","","false","","","","","","","","","","null","","1449.800000011921","","2","0","null","null","arrowup","[0.85,0.15,0.675,0.325]","","",""
"sailing-trial","391","1667314","0.0-11.0-356.0","","","","false","","","","","","","","","","635.9000000059605","","67.90000000596046","","2","0","arrowright","1","arrowleft","[0.85,0.15,0.675,0.325]","","",""
"sailing-trial","392","1669949","0.0-11.0-357.0","","","","false","","","","","","","","","","null","","1342.7000000178814","","1","0","null","null","arrowup","[0.85,0.15,0.675,0.325]","","",""
"sailing-trial","393","1674439","0.0-11.0-358.0","","","","false","","","","","","","","","","461.7999999821186","","297.40000000596046","","2","0","arrowright","1","arrowleft","[0.85,0.15,0.675,0.325]","","",""
"sailing-trial","394","1676319","0.0-11.0-359.0","","","","false","","","","","","","","","","null","","617.0999999940395","","1","0","null","null","arrowup","[0.85,0.15,0.675,0.325]","","",""
"sailing-trial","395","1679990","0.0-11.0-360.0","","","","false","","","","","","","","","","438.09999999403954","","326.59999999403954","","0","1","arrowleft","0","arrowleft","[0.85,0.15,0.675,0.325]","","",""
"sailing-trial","396","1681939","0.0-11.0-361.0","","","","false","","","","","","","","","","null","","663","","1","0","null","null","arrowup","[0.85,0.15,0.675,0.325]","","",""
"sailing-trial","397","1685195","0.0-11.0-362.0","","","","false","","","","","","","","","","520.8000000119209","","232.09999999403954","","0","0","arrowleft","0","arrowleft","[0.85,0.15,0.675,0.325]","","",""
"sailing-trial","398","1687100","0.0-11.0-363.0","","","","false","","","","","","","","","","null","","575.7999999821186","","0","0","null","null","arrowup","[0.85,0.15,0.675,0.325]","","",""
"sailing-trial","399","1691307","0.0-11.0-364.0","","","","false","","","","","","","","","","547","","291.90000000596046","","2","1","arrowright","1","arrowleft","[0.85,0.15,0.675,0.325]","","",""
"sailing-trial","400","1694658","0.0-11.0-365.0","","","","false","","","","","","","","","","null","","1030.3999999761581","","3","0","null","null","arrowup","[0.85,0.15,0.675,0.325]","","",""
"sailing-trial","401","1699538","0.0-11.0-366.0","","","","false","","","","","","","","","","1715","","235.59999999403954","","2","1","arrowright","1","arrowleft","[0.675,0.325,0.85,0.15]","","",""
"sailing-trial","402","1701749","0.0-11.0-367.0","","","","false","","","","","","","","","","null","","732.2999999821186","","0","0","null","null","arrowup","[0.675,0.325,0.85,0.15]","","",""
"sailing-trial","403","1705504","0.0-11.0-368.0","","","","false","","","","","","","","","","569.1999999880791","","118.80000001192093","","2","1","arrowright","1","arrowleft","[0.675,0.325,0.85,0.15]","","",""
"sailing-trial","404","1708693","0.0-11.0-369.0","","","","false","","","","","","","","","","null","","973.2000000178814","","3","1","null","null","arrowup","[0.675,0.325,0.85,0.15]","","",""
"sailing-trial","405","1712950","0.0-11.0-370.0","","","","false","","","","","","","","","","410.5","","879.5999999940395","","2","1","arrowright","1","arrowleft","[0.675,0.325,0.85,0.15]","","",""
"sailing-trial","406","1716722","0.0-11.0-371.0","","","","false","","","","","","","","","","null","","1188.5","","2","1","null","null","arrowup","[0.675,0.325,0.85,0.15]","","",""
"sailing-trial","407","1720928","0.0-11.0-372.0","","","","false","","","","","","","","","","1249.0999999940395","","117.2999999821186","","2","1","arrowright","1","arrowleft","[0.675,0.325,0.85,0.15]","","",""
"sailing-trial","408","1723656","0.0-11.0-373.0","","","","false","","","","","","","","","","null","","1106.199999988079","","3","0","null","null","arrowup","[0.675,0.325,0.85,0.15]","","",""
"sailing-trial","409","1727410","0.0-11.0-374.0","","","","false","","","","","","","","","","628.9000000059605","","91.80000001192093","","2","1","arrowright","1","arrowleft","[0.675,0.325,0.85,0.15]","","",""
"sailing-trial","410","1729984","0.0-11.0-375.0","","","","false","","","","","","","","","","null","","692.9000000059605","","0","1","null","null","arrowup","[0.675,0.325,0.85,0.15]","","",""
"sailing-trial","411","1734008","0.0-11.0-376.0","","","","false","","","","","","","","","","596.0999999940395","","351.30000001192093","","2","1","arrowright","1","arrowleft","[0.675,0.325,0.85,0.15]","","",""
"sailing-trial","412","1736431","0.0-11.0-377.0","","","","false","","","","","","","","","","null","","1056.2999999821186","","3","0","null","null","arrowup","[0.675,0.325,0.85,0.15]","","",""
"sailing-trial","413","1739562","0.0-11.0-378.0","","","","false","","","","","","","","","","474.40000000596046","","59.900000005960464","","2","0","arrowright","1","arrowleft","[0.675,0.325,0.85,0.15]","","",""
"sailing-trial","414","1742054","0.0-11.0-379.0","","","","false","","","","","","","","","","null","","1283.4000000059605","","3","0","null","null","arrowup","[0.675,0.325,0.85,0.15]","","",""
"sailing-trial","415","1745086","0.0-11.0-380.0","","","","false","","","","","","","","","","344.40000000596046","","7.799999982118607","","0","0","arrowleft","0","arrowleft","[0.675,0.325,0.85,0.15]","","",""
"sailing-trial","416","1747553","0.0-11.0-381.0","","","","false","","","","","","","","","","null","","671.8000000119209","","0","1","null","null","arrowup","[0.675,0.325,0.85,0.15]","","",""
"sailing-trial","417","1751560","0.0-11.0-382.0","","","","false","","","","","","","","","","501.90000000596046","","219.90000000596046","","0","1","arrowleft","0","arrowleft","[0.85,0.15,0.675,0.325]","","",""
"sailing-trial","418","1753530","0.0-11.0-383.0","","","","false","","","","","","","","","","null","","705.3000000119209","","3","0","null","null","arrowup","[0.85,0.15,0.675,0.325]","","",""
"sailing-trial","419","1757245","0.0-11.0-384.0","","","","false","","","","","","","","","","542.5","","208.09999999403954","","0","1","arrowleft","0","arrowleft","[0.85,0.15,0.675,0.325]","","",""
"sailing-trial","420","1760326","0.0-11.0-385.0","","","","false","","","","","","","","","","null","","1140.5","","3","0","null","null","arrowup","[0.85,0.15,0.675,0.325]","","",""
"sailing-trial","421","1764525","0.0-11.0-386.0","","","","false","","","","","","","","","","460.19999998807907","","106.39999997615814","","0","1","arrowleft","0","arrowleft","[0.85,0.15,0.675,0.325]","","",""
"sailing-trial","422","1767053","0.0-11.0-387.0","","","","false","","","","","","","","","","null","","660.3000000119209","","1","0","null","null","arrowup","[0.85,0.15,0.675,0.325]","","",""
"sailing-trial","423","1770659","0.0-11.0-388.0","","","","false","","","","","","","","","","460.5","","189","","0","1","arrowleft","0","arrowleft","[0.85,0.15,0.675,0.325]","","",""
"sailing-trial","424","1773082","0.0-11.0-389.0","","","","false","","","","","","","","","","null","","634.8999999761581","","1","0","null","null","arrowup","[0.85,0.15,0.675,0.325]","","",""
"sailing-trial","425","1776908","0.0-11.0-390.0","","","","false","","","","","","","","","","520.5999999940395","","165.40000000596046","","0","1","arrowleft","0","arrowleft","[0.85,0.15,0.675,0.325]","","",""
"sailing-trial","426","1781197","0.0-11.0-391.0","","","","false","","","","","","","","","","null","","1319.7000000178814","","0","1","null","null","arrowup","[0.85,0.15,0.675,0.325]","","",""
"sailing-trial","427","1786166","0.0-11.0-392.0","","","","false","","","","","","","","","","813.2999999821186","","638.5999999940395","","0","1","arrowleft","0","arrowleft","[0.85,0.15,0.675,0.325]","","",""
"sailing-trial","428","1791602","0.0-11.0-393.0","","","","false","","","","","","","","","","null","","3578.600000023842","","2","1","null","null","arrowup","[0.85,0.15,0.675,0.325]","","",""
"sailing-trial","429","1795243","0.0-11.0-394.0","","","","false","","","","","","","","","","541.6999999880791","","220.69999998807907","","0","1","arrowleft","0","arrowleft","[0.85,0.15,0.675,0.325]","","",""
"sailing-trial","430","1797878","0.0-11.0-395.0","","","","false","","","","","","","","","","null","","847.8999999761581","","1","0","null","null","arrowup","[0.85,0.15,0.675,0.325]","","",""
"sailing-trial","431","1801192","0.0-11.0-396.0","","","","false","","","","","","","","","","576.5","","264.5","","0","0","arrowleft","0","arrowleft","[0.85,0.15,0.675,0.325]","","",""
"sailing-trial","432","1803112","0.0-11.0-397.0","","","","false","","","","","","","","","","null","","700.6999999880791","","1","0","null","null","arrowup","[0.85,0.15,0.675,0.325]","","",""
"sailing-trial","433","1806960","0.0-11.0-398.0","","","","false","","","","","","","","","","503.10000002384186","","251.89999997615814","","2","1","arrowright","1","arrowleft","[0.85,0.15,0.675,0.325]","","",""
"sailing-trial","434","1809703","0.0-11.0-399.0","","","","false","","","","","","","","","","null","","920.4000000059605","","0","1","null","null","arrowup","[0.85,0.15,0.675,0.325]","","",""
"instructions","435","1814101","0.0-12.0","","","","","","","","","","4396.300000011921","","","","","","","","","","","","","","","","[{""page_index"":0,""viewing_time"":4394.800000011921}]"
"survey-debrief","436","1849345","0.0-13.0","","","","","","","","","","35238.09999999404","","","","","","","","","","","","","","{""difficulty"":""4"",""fun"":""3"",""clarity"":""5"",""strategy"":""I would wait till i see more X for a single house. Then I know its not that one. Process of elimination was used quite a lot."",""feedback"":""no""}","",""
