"trial_type","trial_index","time_elapsed","internal_node_id","value","metadata","success","timeout","failed_images","failed_audio","failed_video","browser_interaction","low_quality","rt","stimulus","response","button_pressed","island_rt","island_response","boat_rt","boat_response","boat","reward","island_key","island","boat_key","reward_probabilities","responses","num_errors","view_history"
"pavlovia","0","8","0.0-0.0","","","","","","","","","","","","","","","","","","","","","","","","","",""
"call-function","1","9","0.0-1.0","","{""task_version"":""sailing_part1_v1"",""task_condition"":""good"",""boats"":[""C"",""B"",""D"",""A""],""boats_demo"":[""G"",""F"",""E"",""H""],""islands"":[""B"",""A""],""subject_id"":""13995"",""age"":""20"",""gender"":""Female""}","","","","","","","","","","","","","","","","","","","","","","","",""
"preload","2","1446","0.0-2.0","","","true","false","[]","[]","[]","[{""event"":""fullscreenenter"",""trial"":3,""time"":5820}]","false","","","","","","","","","","","","","","","","",""
"fullscreen","3","6773","0.0-3.0","","","true","","","","","","","","","","","","","","","","","","","","","","",""
"audio-keyboard-response","4","10265","0.0-4.0-0.0","","","","","","","","","","3320","audio/beep_loop.wav","audiovolumedown","","","","","","","","","","","","","",""
"audio-test","5","13858","0.0-4.0-1.0","","","","","","","","","","null","audio/turtle.mp3","","3","","","","","","","","","","","","",""
"audio-test","6","16594","0.0-4.0-2.0","","","","","","","","","","null","audio/shark.mp3","","2","","","","","","","","","","","","",""
"sailing-instructions","7","53865","0.0-5.0-0.0-0.0","","","","","","","","","","","","","","null","null","null","null","null","null","","","","","","",""
"sailing-trial","8","61070","0.0-5.0-0.0-1.0-0.0","","","","false","","","","","","","","","","6073.400000000023","","null","","null","null","arrowleft","0","null","null","","",""
"sailing-trial","9","63037","0.0-5.0-0.0-1.0-1.0","","","","false","","","","","","","","","","850.4000000000233","","null","","null","null","arrowright","1","null","null","","",""
"sailing-trial","10","65816","0.0-5.0-0.0-1.0-2.0","","","","false","","","","","","","","","","1675.5","","null","","null","null","arrowright","1","null","null","","",""
"sailing-instructions","11","141986","0.0-5.0-0.0-2.0","","","","","","","","","","","","","","null","null","null","null","0","null","","","","","","",""
"sailing-trial","12","151400","0.0-5.0-0.0-3.0-0.0","","","","false","","","","","","","","","","null","","5541.699999999953","","2","1","null","null","arrowleft","[1,1,1,1]","","",""
"sailing-trial","13","155835","0.0-5.0-0.0-3.0-1.0","","","","false","","","","","","","","","","null","","1701.5","","3","1","null","null","arrowright","[1,1,1,1]","","",""
"sailing-trial","14","159787","0.0-5.0-0.0-3.0-2.0","","","","false","","","","","","","","","","null","","1027.8000000000466","","3","0","null","null","arrowright","[0,0,0,0]","","",""
"sailing-instructions","15","167243","0.0-5.0-0.0-4.0","","","","","","","","","","","","","","null","null","null","null","null","null","","","","","","",""
"sailing-comprehension","16","188682","0.0-5.0-0.0-5.0","","","","","","","","","","19839.5","","","","","","","","","","","","","","[""true"",""true"",""false"",""true""]","0",""
"sailing-instructions","17","267985","0.0-6.0-0.0-0.0","","","","","","","","","","","","","","null","null","null","null","null","null","","","","","","",""
"sailing-comprehension","18","296620","0.0-6.0-0.0-1.0","","","","","","","","","","26991.29999999993","","","","","","","","","","","","","","[""true"",""false"",""true""]","0",""
"sailing-instructions","19","311738","0.0-7.0-0.0-0.0","","","","","","","","","","","","","","null","null","null","null","null","null","","","","","","",""
"sailing-trial","20","317661","0.0-7.0-0.0-1.0-0.0","","","","false","","","","","","","","","","null","","3919.3000000000466","","0","0","null","null","arrowup","[0.2,0.8,0.2,0.8]","","",""
"sailing-trial","21","320960","0.0-7.0-0.0-1.0-1.0","","","","false","","","","","","","","","","null","","1355.9000000000233","","1","0","null","null","arrowup","[0.2,0.8,0.2,0.8]","","",""
"sailing-trial","22","323518","0.0-7.0-0.0-1.0-2.0","","","","false","","","","","","","","","","null","","585.6999999999534","","2","1","null","null","arrowup","[0.2,0.8,0.2,0.8]","","",""
"sailing-trial","23","326501","0.0-7.0-0.0-1.0-3.0","","","","false","","","","","","","","","","null","","1116.2000000000698","","3","0","null","null","arrowup","[0.2,0.8,0.2,0.8]","","",""
"sailing-comprehension","24","335589","0.0-7.0-0.0-2.0","","","","","","","","","","8353.20000000007","","","","","","","","","","","","","","[""false""]","0",""
"sailing-instructions","25","346394","0.0-8.0-0.0-0.0","","","","","","","","","","","","","","null","null","null","null","null","null","","","","","","",""
"sailing-comprehension","26","350921","0.0-8.0-0.0-1.0","","","","","","","","","","3883.79999999993","","","","","","","","","","","","","","[""true""]","0",""
"sailing-instructions","27","373011","0.0-9.0-0.0-0.0","","","","","","","","","","","","","","null","null","null","null","null","null","","","","","","",""
"sailing-trial","28","378336","0.0-9.0-0.0-1.0-0.0","","","","false","","","","","","","","","","1356.5999999999767","","1101.6999999999534","","3","1","arrowright","1","arrowright","[0.2,0.8,0.2,0.8]","","",""
"sailing-trial","29","383305","0.0-9.0-0.0-1.0-1.0","","","","false","","","","","","","","","","948.8000000000466","","1115.6999999999534","","1","1","arrowleft","0","arrowright","[0.2,0.8,0.2,0.8]","","",""
"sailing-trial","30","387267","0.0-9.0-0.0-1.0-2.0","","","","false","","","","","","","","","","null","","2211.399999999907","","0","0","null","null","arrowup","[0.2,0.8,0.2,0.8]","","",""
"sailing-trial","31","392012","0.0-9.0-0.0-1.0-3.0","","","","false","","","","","","","","","","1010.1000000000931","","1030.0999999999767","","2","0","arrowright","1","arrowleft","[0.2,0.8,0.2,0.8]","","",""
"sailing-trial","32","395783","0.0-9.0-0.0-1.0-4.0","","","","false","","","","","","","","","","null","","1694.7999999999302","","3","1","null","null","arrowup","[0.2,0.8,0.2,0.8]","","",""
"sailing-trial","33","399788","0.0-9.0-0.0-1.0-5.0","","","","false","","","","","","","","","","673.8000000000466","","754.2999999999302","","0","0","arrowleft","0","arrowleft","[0.2,0.8,0.2,0.8]","","",""
"sailing-instructions","34","427666","0.0-10.0","","","","","","","","","","","","","","null","null","null","null","null","null","","","","","","",""
"sailing-trial","35","432929","0.0-11.0-0.0","","","","false","","","","","","","","","","1808","","367.0999999999767","","3","1","arrowright","1","arrowright","[0.15,0.85,0.675,0.325]","","",""
"sailing-trial","36","436512","0.0-11.0-1.0","","","","false","","","","","","","","","","null","","1144","","0","0","null","null","arrowup","[0.15,0.85,0.675,0.325]","","",""
"sailing-trial","37","440650","0.0-11.0-2.0","","","","false","","","","","","","","","","713.0999999999767","","299.5999999999767","","1","1","arrowleft","0","arrowright","[0.15,0.85,0.675,0.325]","","",""
"sailing-trial","38","443981","0.0-11.0-3.0","","","","false","","","","","","","","","","null","","1411.5999999999767","","1","0","null","null","arrowup","[0.15,0.85,0.675,0.325]","","",""
"sailing-trial","39","447214","0.0-11.0-4.0","","","","false","","","","","","","","","","551.6999999999534","","34.10000000009313","","3","0","arrowright","1","arrowright","[0.15,0.85,0.675,0.325]","","",""
"sailing-trial","40","449776","0.0-11.0-5.0","","","","false","","","","","","","","","","null","","1073.0999999999767","","0","0","null","null","arrowup","[0.15,0.85,0.675,0.325]","","",""
"sailing-trial","41","453070","0.0-11.0-6.0","","","","false","","","","","","","","","","719.3000000000466","","27","","0","0","arrowleft","0","arrowleft","[0.15,0.85,0.675,0.325]","","",""
"sailing-trial","42","456135","0.0-11.0-7.0","","","","false","","","","","","","","","","null","","1103.2000000000698","","2","1","null","null","arrowup","[0.15,0.85,0.675,0.325]","","",""
"sailing-trial","43","459608","0.0-11.0-8.0","","","","false","","","","","","","","","","577.2999999999302","","348.5","","2","0","arrowright","1","arrowleft","[0.15,0.85,0.675,0.325]","","",""
"sailing-trial","44","462338","0.0-11.0-9.0","","","","false","","","","","","","","","","null","","1016.4000000000233","","3","0","null","null","arrowup","[0.15,0.85,0.675,0.325]","","",""
"sailing-trial","45","465856","0.0-11.0-10.0","","","","false","","","","","","","","","","534.5","","97.30000000004657","","1","1","arrowleft","0","arrowright","[0.15,0.85,0.675,0.325]","","",""
"sailing-trial","46","468308","0.0-11.0-11.0","","","","false","","","","","","","","","","null","","806","","0","0","null","null","arrowup","[0.15,0.85,0.675,0.325]","","",""
"sailing-trial","47","471990","0.0-11.0-12.0","","","","false","","","","","","","","","","446.5","","372.30000000004657","","1","1","arrowleft","0","arrowright","[0.15,0.85,0.675,0.325]","","",""
"sailing-trial","48","473898","0.0-11.0-13.0","","","","false","","","","","","","","","","null","","413","","0","0","null","null","arrowup","[0.15,0.85,0.675,0.325]","","",""
"sailing-trial","49","477994","0.0-11.0-14.0","","","","false","","","","","","","","","","996.5999999999767","","246.90000000002328","","1","1","arrowleft","0","arrowright","[0.15,0.85,0.675,0.325]","","",""
"sailing-trial","50","480677","0.0-11.0-15.0","","","","false","","","","","","","","","","null","","840.0999999999767","","1","1","null","null","arrowup","[0.15,0.85,0.675,0.325]","","",""
"sailing-trial","51","484825","0.0-11.0-16.0","","","","false","","","","","","","","","","1085.7000000000698","","308.79999999993015","","1","1","arrowleft","0","arrowright","[0.15,0.85,0.675,0.325]","","",""
"sailing-trial","52","487344","0.0-11.0-17.0","","","","false","","","","","","","","","","null","","995.4000000000233","","2","0","null","null","arrowup","[0.15,0.85,0.675,0.325]","","",""
"sailing-trial","53","491079","0.0-11.0-18.0","","","","false","","","","","","","","","","489","","500.5","","1","1","arrowleft","0","arrowright","[0.15,0.85,0.675,0.325]","","",""
"sailing-trial","54","493927","0.0-11.0-19.0","","","","false","","","","","","","","","","null","","1232.5999999999767","","3","0","null","null","arrowup","[0.15,0.85,0.675,0.325]","","",""
"sailing-trial","55","497629","0.0-11.0-20.0","","","","false","","","","","","","","","","506.30000000004657","","378.79999999993015","","1","1","arrowleft","0","arrowright","[0.15,0.85,0.675,0.325]","","",""
"sailing-trial","56","500448","0.0-11.0-21.0","","","","false","","","","","","","","","","null","","1054.9000000000233","","1","1","null","null","arrowup","[0.15,0.85,0.675,0.325]","","",""
"sailing-trial","57","504282","0.0-11.0-22.0","","","","false","","","","","","","","","","759.7000000000698","","263.79999999993015","","1","1","arrowleft","0","arrowright","[0.325,0.675,0.85,0.15]","","",""
"sailing-trial","58","506599","0.0-11.0-23.0","","","","false","","","","","","","","","","null","","570.3000000000466","","0","1","null","null","arrowup","[0.325,0.675,0.85,0.15]","","",""
"sailing-trial","59","510250","0.0-11.0-24.0","","","","false","","","","","","","","","","423.4000000000233","","331.5","","1","1","arrowleft","0","arrowright","[0.325,0.675,0.85,0.15]","","",""
"sailing-trial","60","512651","0.0-11.0-25.0","","","","false","","","","","","","","","","null","","682","","3","1","null","null","arrowup","[0.325,0.675,0.85,0.15]","","",""
"sailing-trial","61","515870","0.0-11.0-26.0","","","","false","","","","","","","","","","451.9000000000233","","7","","1","1","arrowleft","0","arrowright","[0.325,0.675,0.85,0.15]","","",""
"sailing-trial","62","517528","0.0-11.0-27.0","","","","false","","","","","","","","","","null","","449.60000000009313","","0","0","null","null","arrowup","[0.325,0.675,0.85,0.15]","","",""
"sailing-trial","63","520427","0.0-11.0-28.0","","","","false","","","","","","","","","","435.29999999993015","","199.10000000009313","","1","0","arrowleft","0","arrowright","[0.325,0.675,0.85,0.15]","","",""
"sailing-trial","64","523238","0.0-11.0-29.0","","","","false","","","","","","","","","","null","","905.5999999999767","","2","1","null","null","arrowup","[0.325,0.675,0.85,0.15]","","",""
"sailing-trial","65","526379","0.0-11.0-30.0","","","","false","","","","","","","","","","514.7000000000698","","224.59999999997672","","0","0","arrowleft","0","arrowleft","[0.325,0.675,0.85,0.15]","","",""
"sailing-trial","66","528227","0.0-11.0-31.0","","","","false","","","","","","","","","","null","","614.7000000000698","","0","0","null","null","arrowup","[0.325,0.675,0.85,0.15]","","",""
"sailing-trial","67","533008","0.0-11.0-32.0","","","","false","","","","","","","","","","385.29999999993015","","386.5","","3","0","arrowright","1","arrowright","[0.325,0.675,0.85,0.15]","","",""
"sailing-trial","68","535206","0.0-11.0-33.0","","","","false","","","","","","","","","","null","","374.60000000009313","","2","1","null","null","arrowup","[0.325,0.675,0.85,0.15]","","",""
"sailing-trial","69","539397","0.0-11.0-34.0","","","","false","","","","","","","","","","624.3000000000466","","758.2000000000698","","3","0","arrowright","1","arrowright","[0.325,0.675,0.85,0.15]","","",""
"sailing-trial","70","541907","0.0-11.0-35.0","","","","false","","","","","","","","","","null","","705.2000000000698","","2","1","null","null","arrowup","[0.325,0.675,0.85,0.15]","","",""
"sailing-trial","71","545742","0.0-11.0-36.0","","","","false","","","","","","","","","","805.4000000000233","","279.5999999999767","","2","1","arrowright","1","arrowleft","[0.325,0.675,0.85,0.15]","","",""
"sailing-trial","72","548494","0.0-11.0-37.0","","","","false","","","","","","","","","","null","","987.5","","0","1","null","null","arrowup","[0.325,0.675,0.85,0.15]","","",""
"sailing-trial","73","552077","0.0-11.0-38.0","","","","false","","","","","","","","","","458.5","","295","","2","1","arrowright","1","arrowleft","[0.325,0.675,0.85,0.15]","","",""
"sailing-trial","74","554394","0.0-11.0-39.0","","","","false","","","","","","","","","","null","","541.9000000000233","","2","1","null","null","arrowup","[0.325,0.675,0.85,0.15]","","",""
"sailing-trial","75","557794","0.0-11.0-40.0","","","","false","","","","","","","","","","468.80000000004657","","311.19999999995343","","2","1","arrowright","1","arrowleft","[0.85,0.15,0.325,0.675]","","",""
"sailing-trial","76","559689","0.0-11.0-41.0","","","","false","","","","","","","","","","null","","857.5","","3","0","null","null","arrowup","[0.85,0.15,0.325,0.675]","","",""
"sailing-trial","77","563580","0.0-11.0-42.0","","","","false","","","","","","","","","","755.4000000000233","","221.89999999990687","","2","1","arrowright","1","arrowleft","[0.85,0.15,0.325,0.675]","","",""
"sailing-trial","78","566882","0.0-11.0-43.0","","","","false","","","","","","","","","","null","","1601.5","","0","1","null","null","arrowup","[0.85,0.15,0.325,0.675]","","",""
"sailing-trial","79","570499","0.0-11.0-44.0","","","","false","","","","","","","","","","710.0999999999767","","80.59999999997672","","0","1","arrowleft","0","arrowleft","[0.85,0.15,0.325,0.675]","","",""
"sailing-trial","80","573097","0.0-11.0-45.0","","","","false","","","","","","","","","","null","","1005.1999999999534","","1","0","null","null","arrowup","[0.85,0.15,0.325,0.675]","","",""
"sailing-trial","81","577751","0.0-11.0-46.0","","","","false","","","","","","","","","","386.5","","256.9000000000233","","2","0","arrowright","1","arrowleft","[0.85,0.15,0.325,0.675]","","",""
"sailing-trial","82","581118","0.0-11.0-47.0","","","","false","","","","","","","","","","null","","1548.5","","0","1","null","null","arrowup","[0.85,0.15,0.325,0.675]","","",""
"sailing-trial","83","584706","0.0-11.0-48.0","","","","false","","","","","","","","","","513.2999999999302","","232.20000000006985","","1","0","arrowleft","0","arrowright","[0.85,0.15,0.325,0.675]","","",""
"sailing-trial","84","586700","0.0-11.0-49.0","","","","false","","","","","","","","","","null","","765.0999999999767","","2","0","null","null","arrowup","[0.85,0.15,0.325,0.675]","","",""
"sailing-trial","85","590016","0.0-11.0-50.0","","","","false","","","","","","","","","","312.5999999999767","","478","","3","0","arrowright","1","arrowright","[0.85,0.15,0.325,0.675]","","",""
"sailing-trial","86","591728","0.0-11.0-51.0","","","","false","","","","","","","","","","null","","705.7000000000698","","0","0","null","null","arrowup","[0.85,0.15,0.325,0.675]","","",""
"sailing-trial","87","595438","0.0-11.0-52.0","","","","false","","","","","","","","","","402.5","","469.80000000004657","","0","1","arrowleft","0","arrowleft","[0.85,0.15,0.325,0.675]","","",""
"sailing-trial","88","599157","0.0-11.0-53.0","","","","false","","","","","","","","","","null","","720.9000000000233","","0","0","null","null","arrowup","[0.85,0.15,0.325,0.675]","","",""
"sailing-trial","89","603937","0.0-11.0-54.0","","","","false","","","","","","","","","","405.30000000004657","","1604.0999999999767","","2","0","arrowright","1","arrowleft","[0.85,0.15,0.325,0.675]","","",""
"sailing-trial","90","605906","0.0-11.0-55.0","","","","false","","","","","","","","","","null","","674.9000000000233","","1","0","null","null","arrowup","[0.85,0.15,0.325,0.675]","","",""
"sailing-trial","91","608956","0.0-11.0-56.0","","","","false","","","","","","","","","","385.20000000006985","","325.80000000004657","","3","0","arrowright","1","arrowright","[0.15,0.85,0.675,0.325]","","",""
"sailing-trial","92","611359","0.0-11.0-57.0","","","","false","","","","","","","","","","null","","693.5","","1","1","null","null","arrowup","[0.15,0.85,0.675,0.325]","","",""
"sailing-trial","93","615060","0.0-11.0-58.0","","","","false","","","","","","","","","","632.0999999999767","","334.5","","1","1","arrowleft","0","arrowright","[0.15,0.85,0.675,0.325]","","",""
"sailing-trial","94","616809","0.0-11.0-59.0","","","","false","","","","","","","","","","null","","631.5","","0","0","null","null","arrowup","[0.15,0.85,0.675,0.325]","","",""
"sailing-trial","95","621307","0.0-11.0-60.0","","","","false","","","","","","","","","","1576","","593.1999999999534","","2","0","arrowright","1","arrowleft","[0.15,0.85,0.675,0.325]","","",""
"sailing-trial","96","623318","0.0-11.0-61.0","","","","false","","","","","","","","","","null","","785.2999999999302","","0","0","null","null","arrowup","[0.15,0.85,0.675,0.325]","","",""
"sailing-trial","97","626780","0.0-11.0-62.0","","","","false","","","","","","","","","","453.9000000000233","","168.80000000004657","","1","1","arrowleft","0","arrowright","[0.15,0.85,0.675,0.325]","","",""
"sailing-trial","98","628477","0.0-11.0-63.0","","","","false","","","","","","","","","","null","","379","","2","0","null","null","arrowup","[0.15,0.85,0.675,0.325]","","",""
"sailing-trial","99","633248","0.0-11.0-64.0","","","","false","","","","","","","","","","995.6000000000931","","824.2999999999302","","1","1","arrowleft","0","arrowright","[0.15,0.85,0.675,0.325]","","",""
"sailing-trial","100","636064","0.0-11.0-65.0","","","","false","","","","","","","","","","null","","883.4000000000233","","1","1","null","null","arrowup","[0.15,0.85,0.675,0.325]","","",""
"sailing-trial","101","639657","0.0-11.0-66.0","","","","false","","","","","","","","","","869.3000000000466","","335.30000000004657","","1","0","arrowleft","0","arrowright","[0.15,0.85,0.675,0.325]","","",""
"sailing-trial","102","641968","0.0-11.0-67.0","","","","false","","","","","","","","","","null","","575.8999999999069","","0","1","null","null","arrowup","[0.15,0.85,0.675,0.325]","","",""
"sailing-trial","103","645716","0.0-11.0-68.0","","","","false","","","","","","","","","","671.8000000000466","","260.9000000000233","","1","1","arrowleft","0","arrowright","[0.15,0.85,0.675,0.325]","","",""
"sailing-trial","104","647688","0.0-11.0-69.0","","","","false","","","","","","","","","","null","","724.2000000000698","","0","0","null","null","arrowup","[0.15,0.85,0.675,0.325]","","",""
"sailing-trial","105","652470","0.0-11.0-70.0","","","","false","","","","","","","","","","1773.8000000000466","","291.10000000009313","","0","1","arrowleft","0","arrowleft","[0.15,0.85,0.675,0.325]","","",""
"sailing-trial","106","654387","0.0-11.0-71.0","","","","false","","","","","","","","","","null","","881.8000000000466","","1","0","null","null","arrowup","[0.15,0.85,0.675,0.325]","","",""
"sailing-trial","107","657955","0.0-11.0-72.0","","","","false","","","","","","","","","","725","","66.69999999995343","","1","1","arrowleft","0","arrowright","[0.325,0.675,0.85,0.15]","","",""
"sailing-trial","108","662989","0.0-11.0-73.0","","","","false","","","","","","","","","","null","","2036.8000000000466","","3","0","null","null","arrowup","[0.325,0.675,0.85,0.15]","","",""
"sailing-trial","109","666505","0.0-11.0-74.0","","","","false","","","","","","","","","","543.5","","47.90000000002328","","1","1","arrowleft","0","arrowright","[0.325,0.675,0.85,0.15]","","",""
"sailing-trial","110","669266","0.0-11.0-75.0","","","","false","","","","","","","","","","null","","1347.4000000000233","","3","0","null","null","arrowup","[0.325,0.675,0.85,0.15]","","",""
"sailing-trial","111","673708","0.0-11.0-76.0","","","","false","","","","","","","","","","387","","60","","0","0","arrowleft","0","arrowleft","[0.325,0.675,0.85,0.15]","","",""
"sailing-trial","112","676092","0.0-11.0-77.0","","","","false","","","","","","","","","","null","","423.69999999995343","","0","1","null","null","arrowup","[0.325,0.675,0.85,0.15]","","",""
"sailing-trial","113","680576","0.0-11.0-78.0","","","","false","","","","","","","","","","410.0999999999767","","77.69999999995343","","3","0","arrowright","1","arrowright","[0.325,0.675,0.85,0.15]","","",""
"sailing-trial","114","682478","0.0-11.0-79.0","","","","false","","","","","","","","","","null","","165.5","","2","1","null","null","arrowup","[0.325,0.675,0.85,0.15]","","",""
"sailing-trial","115","685306","0.0-11.0-80.0","","","","false","","","","","","","","","","163.59999999997672","","146.89999999990687","","0","0","arrowleft","0","arrowleft","[0.325,0.675,0.85,0.15]","","",""
"sailing-trial","116","687178","0.0-11.0-81.0","","","","false","","","","","","","","","","null","","117","","1","1","null","null","arrowup","[0.325,0.675,0.85,0.15]","","",""
"sailing-trial","117","690744","0.0-11.0-82.0","","","","false","","","","","","","","","","612.5999999999767","","191.5","","1","1","arrowleft","0","arrowright","[0.325,0.675,0.85,0.15]","","",""
"sailing-trial","118","694646","0.0-11.0-83.0","","","","false","","","","","","","","","","null","","2146.6999999999534","","1","1","null","null","arrowup","[0.325,0.675,0.85,0.15]","","",""
"sailing-trial","119","697296","0.0-11.0-84.0","","","","false","","","","","","","","","","66.5","","57","","1","1","arrowleft","0","arrowright","[0.325,0.675,0.85,0.15]","","",""
"sailing-trial","120","698963","0.0-11.0-85.0","","","","false","","","","","","","","","","null","","15.900000000023283","","2","1","null","null","arrowup","[0.325,0.675,0.85,0.15]","","",""
"sailing-trial","121","701715","0.0-11.0-86.0","","","","false","","","","","","","","","","89.40000000002328","","112.20000000006985","","1","1","arrowleft","0","arrowright","[0.325,0.675,0.85,0.15]","","",""
"sailing-trial","122","702908","0.0-11.0-87.0","","","","false","","","","","","","","","","null","","36.20000000006985","","3","0","null","null","arrowup","[0.325,0.675,0.85,0.15]","","",""
"sailing-trial","123","705866","0.0-11.0-88.0","","","","false","","","","","","","","","","205.30000000004657","","124.79999999993015","","1","1","arrowleft","0","arrowright","[0.325,0.675,0.85,0.15]","","",""
"sailing-trial","124","707800","0.0-11.0-89.0","","","","false","","","","","","","","","","null","","115.59999999997672","","2","1","null","null","arrowup","[0.325,0.675,0.85,0.15]","","",""
"sailing-trial","125","710942","0.0-11.0-90.0","","","","false","","","","","","","","","","136.40000000002328","","96.59999999997672","","1","1","arrowleft","0","arrowright","[0.15,0.85,0.675,0.325]","","",""
"sailing-trial","126","712256","0.0-11.0-91.0","","","","false","","","","","","","","","","null","","110.20000000006985","","0","0","null","null","arrowup","[0.15,0.85,0.675,0.325]","","",""
"sailing-trial","127","714937","0.0-11.0-92.0","","","","false","","","","","","","","","","365.5","","119","","0","0","arrowleft","0","arrowleft","[0.15,0.85,0.675,0.325]","","",""
"sailing-trial","128","716946","0.0-11.0-93.0","","","","false","","","","","","","","","","null","","831.3999999999069","","0","0","null","null","arrowup","[0.15,0.85,0.675,0.325]","","",""
"sailing-trial","129","719436","0.0-11.0-94.0","","","","false","","","","","","","","","","56.20000000006985","","144.10000000009313","","3","0","arrowright","1","arrowright","[0.15,0.85,0.675,0.325]","","",""
"sailing-trial","130","721638","0.0-11.0-95.0","","","","false","","","","","","","","","","null","","423.4000000000233","","1","1","null","null","arrowup","[0.15,0.85,0.675,0.325]","","",""
"sailing-trial","131","724504","0.0-11.0-96.0","","","","false","","","","","","","","","","44.90000000002328","","112.89999999990687","","1","1","arrowleft","0","arrowright","[0.15,0.85,0.675,0.325]","","",""
"sailing-trial","132","725834","0.0-11.0-97.0","","","","false","","","","","","","","","","null","","36.39999999990687","","3","0","null","null","arrowup","[0.15,0.85,0.675,0.325]","","",""
"sailing-trial","133","728673","0.0-11.0-98.0","","","","false","","","","","","","","","","68.59999999997672","","174.39999999990687","","2","1","arrowright","1","arrowleft","[0.15,0.85,0.675,0.325]","","",""
"sailing-trial","134","730670","0.0-11.0-99.0","","","","false","","","","","","","","","","null","","435.5","","2","1","null","null","arrowup","[0.15,0.85,0.675,0.325]","","",""
"sailing-trial","135","733529","0.0-11.0-100.0","","","","false","","","","","","","","","","68.59999999997672","","40","","2","1","arrowright","1","arrowleft","[0.15,0.85,0.675,0.325]","","",""
"sailing-trial","136","735590","0.0-11.0-101.0","","","","false","","","","","","","","","","null","","280.80000000004657","","2","1","null","null","arrowup","[0.15,0.85,0.675,0.325]","","",""
"sailing-trial","137","738391","0.0-11.0-102.0","","","","false","","","","","","","","","","179.5","","75.29999999993015","","2","1","arrowright","1","arrowleft","[0.15,0.85,0.675,0.325]","","",""
"sailing-trial","138","740124","0.0-11.0-103.0","","","","false","","","","","","","","","","null","","6.800000000046566","","2","1","null","null","arrowup","[0.15,0.85,0.675,0.325]","","",""
"sailing-trial","139","742876","0.0-11.0-104.0","","","","false","","","","","","","","","","85","","2.1000000000931323","","2","1","arrowright","1","arrowleft","[0.15,0.85,0.675,0.325]","","",""
"sailing-trial","140","744065","0.0-11.0-105.0","","","","false","","","","","","","","","","null","","43.199999999953434","","0","0","null","null","arrowup","[0.15,0.85,0.675,0.325]","","",""
"sailing-trial","141","747474","0.0-11.0-106.0","","","","false","","","","","","","","","","485.4000000000233","","136.20000000006985","","2","1","arrowright","1","arrowleft","[0.325,0.675,0.85,0.15]","","",""
"sailing-trial","142","748804","0.0-11.0-107.0","","","","false","","","","","","","","","","null","","73.30000000004657","","2","0","null","null","arrowup","[0.325,0.675,0.85,0.15]","","",""
"sailing-trial","143","752078","0.0-11.0-108.0","","","","false","","","","","","","","","","124.5","","552.2000000000698","","1","1","arrowleft","0","arrowright","[0.325,0.675,0.85,0.15]","","",""
"sailing-trial","144","753861","0.0-11.0-109.0","","","","false","","","","","","","","","","null","","69.60000000009313","","1","1","null","null","arrowup","[0.325,0.675,0.85,0.15]","","",""
"sailing-trial","145","756729","0.0-11.0-110.0","","","","false","","","","","","","","","","68.20000000006985","","120.70000000006985","","2","1","arrowright","1","arrowleft","[0.325,0.675,0.85,0.15]","","",""
"sailing-trial","146","758647","0.0-11.0-111.0","","","","false","","","","","","","","","","null","","128.20000000006985","","1","1","null","null","arrowup","[0.325,0.675,0.85,0.15]","","",""
"sailing-trial","147","761546","0.0-11.0-112.0","","","","false","","","","","","","","","","122.60000000009313","","86.19999999995343","","1","1","arrowleft","0","arrowright","[0.325,0.675,0.85,0.15]","","",""
"sailing-trial","148","764414","0.0-11.0-113.0","","","","false","","","","","","","","","","null","","882.6000000000931","","3","1","null","null","arrowup","[0.325,0.675,0.85,0.15]","","",""
"sailing-trial","149","766736","0.0-11.0-114.0","","","","false","","","","","","","","","","3.5","","283.9000000000233","","2","0","arrowright","1","arrowleft","[0.325,0.675,0.85,0.15]","","",""
"sailing-trial","150","769233","0.0-11.0-115.0","","","","false","","","","","","","","","","null","","532.2000000000698","","2","1","null","null","arrowup","[0.325,0.675,0.85,0.15]","","",""
"sailing-trial","151","771586","0.0-11.0-116.0","","","","false","","","","","","","","","","156.30000000004657","","86.90000000002328","","3","0","arrowright","1","arrowright","[0.325,0.675,0.85,0.15]","","",""
"sailing-trial","152","773246","0.0-11.0-117.0","","","","false","","","","","","","","","","null","","361.70000000006985","","0","0","null","null","arrowup","[0.325,0.675,0.85,0.15]","","",""
"sailing-trial","153","776465","0.0-11.0-118.0","","","","false","","","","","","","","","","322.79999999993015","","142.5","","2","1","arrowright","1","arrowleft","[0.325,0.675,0.85,0.15]","","",""
"sailing-trial","154","778299","0.0-11.0-119.0","","","","false","","","","","","","","","","null","","283.4000000000233","","3","1","null","null","arrowup","[0.325,0.675,0.85,0.15]","","",""
"sailing-trial","155","781252","0.0-11.0-120.0","","","","false","","","","","","","","","","139.19999999995343","","124.80000000004657","","2","1","arrowright","1","arrowleft","[0.325,0.675,0.85,0.15]","","",""
"sailing-trial","156","782585","0.0-11.0-121.0","","","","false","","","","","","","","","","null","","35.20000000006985","","3","0","null","null","arrowup","[0.325,0.675,0.85,0.15]","","",""
"sailing-trial","157","785603","0.0-11.0-122.0","","","","false","","","","","","","","","","233.20000000006985","","10.099999999976717","","2","1","arrowright","1","arrowleft","[0.325,0.675,0.85,0.15]","","",""
"sailing-trial","158","787134","0.0-11.0-123.0","","","","false","","","","","","","","","","null","","0.39999999990686774","","0","0","null","null","arrowup","[0.325,0.675,0.85,0.15]","","",""
"sailing-trial","159","790254","0.0-11.0-124.0","","","","false","","","","","","","","","","274.9000000000233","","95.80000000004657","","1","1","arrowleft","0","arrowright","[0.325,0.675,0.85,0.15]","","",""
"sailing-trial","160","792269","0.0-11.0-125.0","","","","false","","","","","","","","","","null","","453.20000000006985","","2","1","null","null","arrowup","[0.325,0.675,0.85,0.15]","","",""
"sailing-trial","161","795653","0.0-11.0-126.0","","","","false","","","","","","","","","","379.79999999993015","","60.90000000002328","","1","1","arrowleft","0","arrowright","[0.15,0.85,0.675,0.325]","","",""
"sailing-trial","162","797520","0.0-11.0-127.0","","","","false","","","","","","","","","","null","","154.30000000004657","","2","1","null","null","arrowup","[0.15,0.85,0.675,0.325]","","",""
"sailing-trial","163","800455","0.0-11.0-128.0","","","","false","","","","","","","","","","9.5","","145.79999999993015","","1","1","arrowleft","0","arrowright","[0.15,0.85,0.675,0.325]","","",""
"sailing-trial","164","802189","0.0-11.0-129.0","","","","false","","","","","","","","","","null","","141.5","","0","1","null","null","arrowup","[0.15,0.85,0.675,0.325]","","",""
"sailing-trial","165","805022","0.0-11.0-130.0","","","","false","","","","","","","","","","21.79999999993015","","81","","1","1","arrowleft","0","arrowright","[0.15,0.85,0.675,0.325]","","",""
"sailing-trial","166","806922","0.0-11.0-131.0","","","","false","","","","","","","","","","null","","66.59999999997672","","1","1","null","null","arrowup","[0.15,0.85,0.675,0.325]","","",""
"sailing-trial","167","809454","0.0-11.0-132.0","","","","false","","","","","","","","","","186","","120.10000000009313","","1","0","arrowleft","0","arrowright","[0.15,0.85,0.675,0.325]","","",""
"sailing-trial","168","810754","0.0-11.0-133.0","","","","false","","","","","","","","","","null","","166.5","","0","0","null","null","arrowup","[0.15,0.85,0.675,0.325]","","",""
"sailing-trial","169","813054","0.0-11.0-134.0","","","","false","","","","","","","","","","23.5","","82.40000000002328","","0","0","arrowleft","0","arrowleft","[0.15,0.85,0.675,0.325]","","",""
"sailing-trial","170","814977","0.0-11.0-135.0","","","","false","","","","","","","","","","null","","194.90000000002328","","3","1","null","null","arrowup","[0.15,0.85,0.675,0.325]","","",""
"sailing-trial","171","817185","0.0-11.0-136.0","","","","false","","","","","","","","","","71.69999999995343","","64.80000000004657","","0","0","arrowleft","0","arrowleft","[0.15,0.85,0.675,0.325]","","",""
"sailing-trial","172","819543","0.0-11.0-137.0","","","","false","","","","","","","","","","null","","603.7999999999302","","2","1","null","null","arrowup","[0.15,0.85,0.675,0.325]","","",""
"sailing-trial","173","822004","0.0-11.0-138.0","","","","false","","","","","","","","","","65.20000000006985","","257","","0","0","arrowleft","0","arrowleft","[0.15,0.85,0.675,0.325]","","",""
"sailing-trial","174","826093","0.0-11.0-139.0","","","","false","","","","","","","","","","null","","2974.5","","3","0","null","null","arrowup","[0.15,0.85,0.675,0.325]","","",""
"sailing-trial","175","831213","0.0-11.0-140.0","","","","false","","","","","","","","","","1016.1999999999534","","101.5","","3","0","arrowright","1","arrowright","[0.15,0.85,0.675,0.325]","","",""
"sailing-trial","176","835080","0.0-11.0-141.0","","","","false","","","","","","","","","","null","","1765.1000000000931","","1","1","null","null","arrowup","[0.15,0.85,0.675,0.325]","","",""
"sailing-trial","177","853758","0.0-11.0-142.0","","","","true","","","","","","","","","","3667.5","","null","","null","null","arrowleft","0","null","[0.15,0.85,0.675,0.325]","","",""
"sailing-trial","178","868774","0.0-11.0-143.0","","","","true","","","","","","","","","","null","","null","","null","null","null","null","null","[0.15,0.85,0.675,0.325]","","",""
"sailing-trial","179","873741","0.0-11.0-144.0","","","","false","","","","","","","","","","955.7999999998137","","11.099999999860302","","3","0","arrowright","1","arrowright","[0.325,0.675,0.85,0.15]","","",""
"sailing-trial","180","878691","0.0-11.0-145.0","","","","false","","","","","","","","","","null","","279.19999999995343","","1","1","null","null","arrowup","[0.325,0.675,0.85,0.15]","","",""
"sailing-trial","181","882326","0.0-11.0-146.0","","","","false","","","","","","","","","","327.30000000004657","","37.5","","0","1","arrowleft","0","arrowleft","[0.325,0.675,0.85,0.15]","","",""
"sailing-trial","182","886284","0.0-11.0-147.0","","","","false","","","","","","","","","","null","","1221.5","","3","0","null","null","arrowup","[0.325,0.675,0.85,0.15]","","",""
"sailing-trial","183","889514","0.0-11.0-148.0","","","","false","","","","","","","","","","1025.5","","62.4000000001397","","0","0","arrowleft","0","arrowleft","[0.325,0.675,0.85,0.15]","","",""
"sailing-trial","184","891904","0.0-11.0-149.0","","","","false","","","","","","","","","","null","","1302.0999999998603","","0","0","null","null","arrowup","[0.325,0.675,0.85,0.15]","","",""
"sailing-trial","185","898634","0.0-11.0-150.0","","","","false","","","","","","","","","","476.19999999995343","","3964.5","","3","0","arrowright","1","arrowright","[0.325,0.675,0.85,0.15]","","",""
"sailing-trial","186","902848","0.0-11.0-151.0","","","","false","","","","","","","","","","null","","1414","","2","1","null","null","arrowup","[0.325,0.675,0.85,0.15]","","",""
"sailing-trial","187","906533","0.0-11.0-152.0","","","","false","","","","","","","","","","570.5","","27.5999999998603","","0","1","arrowleft","0","arrowleft","[0.325,0.675,0.85,0.15]","","",""
"sailing-trial","188","909973","0.0-11.0-153.0","","","","false","","","","","","","","","","null","","2153.899999999907","","1","0","null","null","arrowup","[0.325,0.675,0.85,0.15]","","",""
"sailing-trial","189","913352","0.0-11.0-154.0","","","","false","","","","","","","","","","435.10000000009313","","36.9000000001397","","1","1","arrowleft","0","arrowright","[0.325,0.675,0.85,0.15]","","",""
"sailing-trial","190","917620","0.0-11.0-155.0","","","","false","","","","","","","","","","null","","1255.4000000001397","","3","0","null","null","arrowup","[0.325,0.675,0.85,0.15]","","",""
"sailing-trial","191","921624","0.0-11.0-156.0","","","","false","","","","","","","","","","877.8999999999069","","141.5","","0","0","arrowleft","0","arrowleft","[0.325,0.675,0.85,0.15]","","",""
"sailing-trial","192","924834","0.0-11.0-157.0","","","","false","","","","","","","","","","null","","304.5","","3","0","null","null","arrowup","[0.325,0.675,0.85,0.15]","","",""
"sailing-trial","193","928237","0.0-11.0-158.0","","","","false","","","","","","","","","","333.0999999998603","","426.30000000004657","","2","1","arrowright","1","arrowleft","[0.325,0.675,0.85,0.15]","","",""
"sailing-trial","194","931892","0.0-11.0-159.0","","","","false","","","","","","","","","","null","","2260.100000000093","","1","0","null","null","arrowup","[0.325,0.675,0.85,0.15]","","",""
"sailing-trial","195","938356","0.0-11.0-160.0","","","","false","","","","","","","","","","3556","","44.200000000186265","","1","1","arrowleft","0","arrowright","[0.85,0.15,0.325,0.675]","","",""
"sailing-trial","196","940049","0.0-11.0-161.0","","","","false","","","","","","","","","","null","","378.69999999995343","","0","0","null","null","arrowup","[0.85,0.15,0.325,0.675]","","",""
"sailing-trial","197","944608","0.0-11.0-162.0","","","","false","","","","","","","","","","457.0999999998603","","106.19999999995343","","1","0","arrowleft","0","arrowright","[0.85,0.15,0.325,0.675]","","",""
"sailing-trial","198","948743","0.0-11.0-163.0","","","","false","","","","","","","","","","null","","1128.7000000001863","","1","0","null","null","arrowup","[0.85,0.15,0.325,0.675]","","",""
"sailing-trial","199","956527","0.0-11.0-164.0","","","","false","","","","","","","","","","2056","","2908.899999999907","","3","1","arrowright","1","arrowright","[0.85,0.15,0.325,0.675]","","",""
"sailing-trial","200","959076","0.0-11.0-165.0","","","","false","","","","","","","","","","null","","749.1000000000931","","1","1","null","null","arrowup","[0.85,0.15,0.325,0.675]","","",""
"sailing-trial","201","967447","0.0-11.0-166.0","","","","false","","","","","","","","","","5201.09999999986","","499.69999999995343","","3","1","arrowright","1","arrowright","[0.85,0.15,0.325,0.675]","","",""
"sailing-trial","202","970033","0.0-11.0-167.0","","","","false","","","","","","","","","","null","","1437.8999999999069","","1","0","null","null","arrowup","[0.85,0.15,0.325,0.675]","","",""
"sailing-trial","203","973192","0.0-11.0-168.0","","","","false","","","","","","","","","","442","","380.69999999995343","","1","0","arrowleft","0","arrowright","[0.85,0.15,0.325,0.675]","","",""
"sailing-trial","204","975933","0.0-11.0-169.0","","","","false","","","","","","","","","","null","","1116.5999999998603","","2","1","null","null","arrowup","[0.85,0.15,0.325,0.675]","","",""
"sailing-trial","205","984631","0.0-11.0-170.0","","","","false","","","","","","","","","","3223.8000000000466","","3015.6999999999534","","3","0","arrowright","1","arrowright","[0.85,0.15,0.325,0.675]","","",""
"sailing-trial","206","987171","0.0-11.0-171.0","","","","false","","","","","","","","","","null","","1456.1999999999534","","1","0","null","null","arrowup","[0.85,0.15,0.325,0.675]","","",""
"sailing-trial","207","991551","0.0-11.0-172.0","","","","false","","","","","","","","","","346","","176.5999999998603","","1","0","arrowleft","0","arrowright","[0.85,0.15,0.325,0.675]","","",""
"sailing-trial","208","993312","0.0-11.0-173.0","","","","false","","","","","","","","","","null","","553.4000000001397","","2","0","null","null","arrowup","[0.85,0.15,0.325,0.675]","","",""
"sailing-trial","209","997151","0.0-11.0-174.0","","","","false","","","","","","","","","","526","","85.19999999995343","","1","0","arrowleft","0","arrowright","[0.85,0.15,0.325,0.675]","","",""
"sailing-trial","210","1000239","0.0-11.0-175.0","","","","false","","","","","","","","","","null","","576.8000000000466","","3","1","null","null","arrowup","[0.85,0.15,0.325,0.675]","","",""
"sailing-trial","211","1007711","0.0-11.0-176.0","","","","false","","","","","","","","","","5316.699999999953","","75.5","","2","0","arrowright","1","arrowleft","[0.675,0.325,0.15,0.85]","","",""
"sailing-trial","212","1013571","0.0-11.0-177.0","","","","false","","","","","","","","","","null","","4735.300000000047","","2","0","null","null","arrowup","[0.675,0.325,0.15,0.85]","","",""
"sailing-trial","213","1025295","0.0-11.0-178.0","","","","false","","","","","","","","","","6576.800000000047","","1117.3000000000466","","1","1","arrowleft","0","arrowright","[0.675,0.325,0.15,0.85]","","",""
"sailing-trial","214","1027078","0.0-11.0-179.0","","","","false","","","","","","","","","","null","","229.89999999990687","","3","1","null","null","arrowup","[0.675,0.325,0.15,0.85]","","",""
"sailing-trial","215","1035582","0.0-11.0-180.0","","","","false","","","","","","","","","","5009.09999999986","","74.0999999998603","","3","1","arrowright","1","arrowright","[0.675,0.325,0.15,0.85]","","",""
"sailing-trial","216","1036851","0.0-11.0-181.0","","","","false","","","","","","","","","","null","","172.69999999995343","","2","0","null","null","arrowup","[0.675,0.325,0.15,0.85]","","",""
"sailing-trial","217","1044300","0.0-11.0-182.0","","","","false","","","","","","","","","","4066.100000000093","","5.7999999998137355","","1","1","arrowleft","0","arrowright","[0.675,0.325,0.15,0.85]","","",""
"sailing-trial","218","1046662","0.0-11.0-183.0","","","","false","","","","","","","","","","null","","1184.3000000000466","","0","0","null","null","arrowup","[0.675,0.325,0.15,0.85]","","",""
"sailing-trial","219","1053931","0.0-11.0-184.0","","","","false","","","","","","","","","","5196.39999999979","","50.200000000186265","","1","0","arrowleft","0","arrowright","[0.675,0.325,0.15,0.85]","","",""
"sailing-trial","220","1055783","0.0-11.0-185.0","","","","false","","","","","","","","","","null","","715.1999999999534","","1","0","null","null","arrowup","[0.675,0.325,0.15,0.85]","","",""
"sailing-trial","221","1065470","0.0-11.0-186.0","","","","false","","","","","","","","","","6392.100000000093","","563.3000000000466","","1","1","arrowleft","0","arrowright","[0.675,0.325,0.15,0.85]","","",""
"sailing-trial","222","1066801","0.0-11.0-187.0","","","","false","","","","","","","","","","null","","54","","1","0","null","null","arrowup","[0.675,0.325,0.15,0.85]","","",""
"sailing-trial","223","1075790","0.0-11.0-188.0","","","","false","","","","","","","","","","4953.40000000014","","1744.5","","1","0","arrowleft","0","arrowright","[0.675,0.325,0.15,0.85]","","",""
"sailing-trial","224","1079175","0.0-11.0-189.0","","","","false","","","","","","","","","","null","","1354.1999999999534","","1","1","null","null","arrowup","[0.675,0.325,0.15,0.85]","","",""
"sailing-trial","225","1085120","0.0-11.0-190.0","","","","false","","","","","","","","","","3122.3000000000466","","548.1999999999534","","3","0","arrowright","1","arrowright","[0.675,0.325,0.15,0.85]","","",""
"sailing-trial","226","1088010","0.0-11.0-191.0","","","","false","","","","","","","","","","null","","1007.1999999999534","","0","1","null","null","arrowup","[0.675,0.325,0.15,0.85]","","",""
"sailing-trial","227","1103017","0.0-11.0-192.0","","","","true","","","","","","","","","","null","","null","","null","null","null","null","null","[0.85,0.15,0.325,0.675]","","",""
"sailing-trial","228","1108799","0.0-11.0-193.0","","","","false","","","","","","","","","","null","","2788.6999999999534","","2","0","null","null","arrowup","[0.85,0.15,0.325,0.675]","","",""
"sailing-trial","229","1111291","0.0-11.0-194.0","","","","false","","","","","","","","","","394.69999999995343","","2.199999999953434","","2","0","arrowright","1","arrowleft","[0.85,0.15,0.325,0.675]","","",""
"sailing-trial","230","1112689","0.0-11.0-195.0","","","","false","","","","","","","","","","null","","345.80000000004657","","2","0","null","null","arrowup","[0.85,0.15,0.325,0.675]","","",""
"sailing-trial","231","1115532","0.0-11.0-196.0","","","","false","","","","","","","","","","186.9000000001397","","97","","3","1","arrowright","1","arrowright","[0.85,0.15,0.325,0.675]","","",""
"sailing-trial","232","1116754","0.0-11.0-197.0","","","","false","","","","","","","","","","null","","90.5999999998603","","1","0","null","null","arrowup","[0.85,0.15,0.325,0.675]","","",""
"sailing-trial","233","1119667","0.0-11.0-198.0","","","","false","","","","","","","","","","158.5","","75.69999999995343","","3","1","arrowright","1","arrowright","[0.85,0.15,0.325,0.675]","","",""
"sailing-trial","234","1121250","0.0-11.0-199.0","","","","false","","","","","","","","","","null","","28.0999999998603","","3","1","null","null","arrowup","[0.85,0.15,0.325,0.675]","","",""
"sailing-trial","235","1124487","0.0-11.0-200.0","","","","false","","","","","","","","","","145.4000000001397","","157.5999999998603","","3","1","arrowright","1","arrowright","[0.85,0.15,0.325,0.675]","","",""
"sailing-trial","236","1126152","0.0-11.0-201.0","","","","false","","","","","","","","","","null","","106.60000000009313","","3","1","null","null","arrowup","[0.85,0.15,0.325,0.675]","","",""
"sailing-trial","237","1128699","0.0-11.0-202.0","","","","false","","","","","","","","","","83.80000000004657","","226.5","","3","0","arrowright","1","arrowright","[0.85,0.15,0.325,0.675]","","",""
"sailing-trial","238","1129999","0.0-11.0-203.0","","","","false","","","","","","","","","","null","","77","","3","0","null","null","arrowup","[0.85,0.15,0.325,0.675]","","",""
"sailing-trial","239","1132789","0.0-11.0-204.0","","","","false","","","","","","","","","","156.19999999995343","","78.9000000001397","","0","1","arrowleft","0","arrowleft","[0.85,0.15,0.325,0.675]","","",""
"sailing-trial","240","1134539","0.0-11.0-205.0","","","","false","","","","","","","","","","null","","45","","3","1","null","null","arrowup","[0.85,0.15,0.325,0.675]","","",""
"sailing-trial","241","1137490","0.0-11.0-206.0","","","","false","","","","","","","","","","186.19999999995343","","121.60000000009313","","0","1","arrowleft","0","arrowleft","[0.85,0.15,0.325,0.675]","","",""
"sailing-trial","242","1139238","0.0-11.0-207.0","","","","false","","","","","","","","","","null","","45.800000000046566","","0","1","null","null","arrowup","[0.85,0.15,0.325,0.675]","","",""
"sailing-trial","243","1141691","0.0-11.0-208.0","","","","false","","","","","","","","","","198.30000000004657","","163.5","","0","0","arrowleft","0","arrowleft","[0.85,0.15,0.325,0.675]","","",""
"sailing-trial","244","1144100","0.0-11.0-209.0","","","","false","","","","","","","","","","null","","1204.1000000000931","","1","0","null","null","arrowup","[0.85,0.15,0.325,0.675]","","",""
"sailing-trial","245","1147127","0.0-11.0-210.0","","","","false","","","","","","","","","","206.80000000004657","","5.699999999953434","","0","1","arrowleft","0","arrowleft","[0.675,0.325,0.15,0.85]","","",""
"sailing-trial","246","1148908","0.0-11.0-211.0","","","","false","","","","","","","","","","null","","105.89999999990687","","3","1","null","null","arrowup","[0.675,0.325,0.15,0.85]","","",""
"sailing-trial","247","1153489","0.0-11.0-212.0","","","","false","","","","","","","","","","97.19999999995343","","2195","","0","0","arrowleft","0","arrowleft","[0.675,0.325,0.15,0.85]","","",""
"sailing-trial","248","1155051","0.0-11.0-213.0","","","","false","","","","","","","","","","null","","526.3999999999069","","2","0","null","null","arrowup","[0.675,0.325,0.15,0.85]","","",""
"sailing-trial","249","1158912","0.0-11.0-214.0","","","","false","","","","","","","","","","575.6999999999534","","182.80000000004657","","0","1","arrowleft","0","arrowleft","[0.675,0.325,0.15,0.85]","","",""
"sailing-trial","250","1161629","0.0-11.0-215.0","","","","false","","","","","","","","","","null","","1022.5","","0","1","null","null","arrowup","[0.675,0.325,0.15,0.85]","","",""
"sailing-trial","251","1166447","0.0-11.0-216.0","","","","false","","","","","","","","","","555.6999999999534","","1131.1999999999534","","0","1","arrowleft","0","arrowleft","[0.675,0.325,0.15,0.85]","","",""
"sailing-trial","252","1168380","0.0-11.0-217.0","","","","false","","","","","","","","","","null","","47.60000000009313","","0","1","null","null","arrowup","[0.675,0.325,0.15,0.85]","","",""
"sailing-trial","253","1171631","0.0-11.0-218.0","","","","false","","","","","","","","","","246.10000000009313","","132.60000000009313","","0","1","arrowleft","0","arrowleft","[0.675,0.325,0.15,0.85]","","",""
"sailing-trial","254","1172921","0.0-11.0-219.0","","","","false","","","","","","","","","","null","","53.300000000046566","","2","0","null","null","arrowup","[0.675,0.325,0.15,0.85]","","",""
"sailing-trial","255","1176131","0.0-11.0-220.0","","","","false","","","","","","","","","","115.80000000004657","","91.80000000004657","","0","1","arrowleft","0","arrowleft","[0.675,0.325,0.15,0.85]","","",""
"sailing-trial","256","1178884","0.0-11.0-221.0","","","","false","","","","","","","","","","null","","1034.3999999999069","","3","1","null","null","arrowup","[0.675,0.325,0.15,0.85]","","",""
"sailing-trial","257","1182284","0.0-11.0-222.0","","","","false","","","","","","","","","","492.10000000009313","","43.800000000046566","","0","1","arrowleft","0","arrowleft","[0.675,0.325,0.15,0.85]","","",""
"sailing-trial","258","1186735","0.0-11.0-223.0","","","","false","","","","","","","","","","null","","2627.6999999999534","","1","1","null","null","arrowup","[0.675,0.325,0.15,0.85]","","",""
"sailing-trial","259","1190298","0.0-11.0-224.0","","","","false","","","","","","","","","","448.19999999995343","","363.39999999990687","","0","0","arrowleft","0","arrowleft","[0.675,0.325,0.15,0.85]","","",""
"sailing-trial","260","1193753","0.0-11.0-225.0","","","","false","","","","","","","","","","null","","1626.5999999998603","","1","1","null","null","arrowup","[0.675,0.325,0.15,0.85]","","",""
"sailing-trial","261","1197570","0.0-11.0-226.0","","","","false","","","","","","","","","","89.30000000004657","","815.9000000001397","","0","1","arrowleft","0","arrowleft","[0.675,0.325,0.15,0.85]","","",""
"sailing-trial","262","1199730","0.0-11.0-227.0","","","","false","","","","","","","","","","null","","1071.5","","1","0","null","null","arrowup","[0.675,0.325,0.15,0.85]","","",""
"sailing-trial","263","1203271","0.0-11.0-228.0","","","","false","","","","","","","","","","595.6999999999534","","87.39999999990687","","3","1","arrowright","1","arrowright","[0.675,0.325,0.15,0.85]","","",""
"sailing-trial","264","1204480","0.0-11.0-229.0","","","","false","","","","","","","","","","null","","183","","0","0","null","null","arrowup","[0.675,0.325,0.15,0.85]","","",""
"sailing-trial","265","1211420","0.0-11.0-230.0","","","","false","","","","","","","","","","385.89999999990687","","3866.5","","0","0","arrowleft","0","arrowleft","[0.15,0.85,0.675,0.325]","","",""
"sailing-trial","266","1213929","0.0-11.0-231.0","","","","false","","","","","","","","","","null","","755.3000000000466","","2","0","null","null","arrowup","[0.15,0.85,0.675,0.325]","","",""
"sailing-trial","267","1216799","0.0-11.0-232.0","","","","false","","","","","","","","","","405.89999999990687","","33.800000000046566","","3","0","arrowright","1","arrowright","[0.15,0.85,0.675,0.325]","","",""
"sailing-trial","268","1219559","0.0-11.0-233.0","","","","false","","","","","","","","","","null","","1474.5","","1","0","null","null","arrowup","[0.15,0.85,0.675,0.325]","","",""
"sailing-trial","269","1244111","0.0-11.0-234.0","","","","true","","","","","","","","","","9546.40000000014","","null","","null","null","arrowleft","0","null","[0.15,0.85,0.675,0.325]","","",""
"sailing-trial","270","1248464","0.0-11.0-235.0","","","","false","","","","","","","","","","null","","1335.1999999999534","","3","0","null","null","arrowup","[0.15,0.85,0.675,0.325]","","",""
"sailing-trial","271","1252115","0.0-11.0-236.0","","","","false","","","","","","","","","","771.2999999998137","","36.10000000009313","","0","0","arrowleft","0","arrowleft","[0.15,0.85,0.675,0.325]","","",""
"sailing-trial","272","1255084","0.0-11.0-237.0","","","","false","","","","","","","","","","null","","1220.6999999999534","","1","1","null","null","arrowup","[0.15,0.85,0.675,0.325]","","",""
"sailing-trial","273","1258143","0.0-11.0-238.0","","","","false","","","","","","","","","","330.19999999995343","","113.80000000004657","","3","0","arrowright","1","arrowright","[0.15,0.85,0.675,0.325]","","",""
"sailing-trial","274","1260034","0.0-11.0-239.0","","","","false","","","","","","","","","","null","","610.1999999999534","","3","0","null","null","arrowup","[0.15,0.85,0.675,0.325]","","",""
"sailing-trial","275","1263148","0.0-11.0-240.0","","","","false","","","","","","","","","","749.9000000001397","","61.4000000001397","","0","0","arrowleft","0","arrowleft","[0.15,0.85,0.675,0.325]","","",""
"sailing-trial","276","1265387","0.0-11.0-241.0","","","","false","","","","","","","","","","null","","494.80000000004657","","1","1","null","null","arrowup","[0.15,0.85,0.675,0.325]","","",""
"sailing-trial","277","1268592","0.0-11.0-242.0","","","","false","","","","","","","","","","307","","154","","1","1","arrowleft","0","arrowright","[0.15,0.85,0.675,0.325]","","",""
"sailing-trial","278","1270028","0.0-11.0-243.0","","","","false","","","","","","","","","","null","","151.0999999998603","","3","0","null","null","arrowup","[0.15,0.85,0.675,0.325]","","",""
"sailing-trial","279","1275568","0.0-11.0-244.0","","","","false","","","","","","","","","","846.5","","2025.5","","0","0","arrowleft","0","arrowleft","[0.15,0.85,0.675,0.325]","","",""
"sailing-trial","280","1278493","0.0-11.0-245.0","","","","false","","","","","","","","","","null","","1186.6000000000931","","1","1","null","null","arrowup","[0.15,0.85,0.675,0.325]","","",""
"sailing-trial","281","1281593","0.0-11.0-246.0","","","","false","","","","","","","","","","299.30000000004657","","90.39999999990687","","1","1","arrowleft","0","arrowright","[0.15,0.85,0.675,0.325]","","",""
"sailing-trial","282","1283660","0.0-11.0-247.0","","","","false","","","","","","","","","","null","","148.60000000009313","","1","1","null","null","arrowup","[0.15,0.85,0.675,0.325]","","",""
"sailing-trial","283","1287110","0.0-11.0-248.0","","","","false","","","","","","","","","","381.69999999995343","","45.699999999953434","","0","1","arrowleft","0","arrowleft","[0.15,0.85,0.675,0.325]","","",""
"sailing-trial","284","1288989","0.0-11.0-249.0","","","","false","","","","","","","","","","null","","772.5999999998603","","0","0","null","null","arrowup","[0.15,0.85,0.675,0.325]","","",""
"sailing-trial","285","1292445","0.0-11.0-250.0","","","","false","","","","","","","","","","462.30000000004657","","36.800000000046566","","2","1","arrowright","1","arrowleft","[0.15,0.85,0.675,0.325]","","",""
"sailing-trial","286","1294362","0.0-11.0-251.0","","","","false","","","","","","","","","","null","","187","","3","1","null","null","arrowup","[0.15,0.85,0.675,0.325]","","",""
"sailing-trial","287","1296995","0.0-11.0-252.0","","","","false","","","","","","","","","","11.5","","53.0999999998603","","2","1","arrowright","1","arrowleft","[0.15,0.85,0.675,0.325]","","",""
"sailing-trial","288","1298797","0.0-11.0-253.0","","","","false","","","","","","","","","","null","","238.30000000004657","","2","1","null","null","arrowup","[0.15,0.85,0.675,0.325]","","",""
"sailing-trial","289","1301158","0.0-11.0-254.0","","","","false","","","","","","","","","","54.5","","65.19999999995343","","2","0","arrowright","1","arrowleft","[0.325,0.675,0.85,0.15]","","",""
"sailing-trial","290","1302388","0.0-11.0-255.0","","","","false","","","","","","","","","","null","","176.60000000009313","","1","0","null","null","arrowup","[0.325,0.675,0.85,0.15]","","",""
"sailing-trial","291","1304848","0.0-11.0-256.0","","","","false","","","","","","","","","","276.5","","68.5","","3","0","arrowright","1","arrowright","[0.325,0.675,0.85,0.15]","","",""
"sailing-trial","292","1306618","0.0-11.0-257.0","","","","false","","","","","","","","","","null","","215.0999999998603","","1","0","null","null","arrowup","[0.325,0.675,0.85,0.15]","","",""
"sailing-trial","293","1309298","0.0-11.0-258.0","","","","false","","","","","","","","","","274.39999999990687","","143.5999999998603","","0","0","arrowleft","0","arrowleft","[0.325,0.675,0.85,0.15]","","",""
"sailing-trial","294","1312008","0.0-11.0-259.0","","","","false","","","","","","","","","","null","","1544.2999999998137","","2","0","null","null","arrowup","[0.325,0.675,0.85,0.15]","","",""
"sailing-trial","295","1315132","0.0-11.0-260.0","","","","false","","","","","","","","","","407.19999999995343","","193.5","","1","1","arrowleft","0","arrowright","[0.325,0.675,0.85,0.15]","","",""
"sailing-trial","296","1316278","0.0-11.0-261.0","","","","false","","","","","","","","","","null","","9.399999999906868","","3","0","null","null","arrowup","[0.325,0.675,0.85,0.15]","","",""
"sailing-trial","297","1319989","0.0-11.0-262.0","","","","false","","","","","","","","","","246.89999999990687","","984.8999999999069","","0","0","arrowleft","0","arrowleft","[0.325,0.675,0.85,0.15]","","",""
"sailing-trial","298","1321749","0.0-11.0-263.0","","","","false","","","","","","","","","","null","","663","","1","0","null","null","arrowup","[0.325,0.675,0.85,0.15]","","",""
"sailing-trial","299","1325171","0.0-11.0-264.0","","","","false","","","","","","","","","","395.5","","186.10000000009313","","1","1","arrowleft","0","arrowright","[0.325,0.675,0.85,0.15]","","",""
"sailing-trial","300","1326829","0.0-11.0-265.0","","","","false","","","","","","","","","","null","","543","","3","0","null","null","arrowup","[0.325,0.675,0.85,0.15]","","",""
"sailing-trial","301","1331178","0.0-11.0-266.0","","","","false","","","","","","","","","","376.19999999995343","","24.899999999906868","","1","0","arrowleft","0","arrowright","[0.325,0.675,0.85,0.15]","","",""
"sailing-trial","302","1333289","0.0-11.0-267.0","","","","false","","","","","","","","","","null","","145.9000000001397","","2","1","null","null","arrowup","[0.325,0.675,0.85,0.15]","","",""
"sailing-trial","303","1336738","0.0-11.0-268.0","","","","false","","","","","","","","","","454.30000000004657","","208.5","","2","1","arrowright","1","arrowleft","[0.325,0.675,0.85,0.15]","","",""
"sailing-trial","304","1338691","0.0-11.0-269.0","","","","false","","","","","","","","","","null","","183.60000000009313","","2","1","null","null","arrowup","[0.325,0.675,0.85,0.15]","","",""
"sailing-trial","305","1341287","0.0-11.0-270.0","","","","false","","","","","","","","","","220.9000000001397","","104.5999999998603","","2","0","arrowright","1","arrowleft","[0.675,0.325,0.15,0.85]","","",""
"sailing-trial","306","1343006","0.0-11.0-271.0","","","","false","","","","","","","","","","null","","145.9000000001397","","1","1","null","null","arrowup","[0.675,0.325,0.15,0.85]","","",""
"sailing-trial","307","1345841","0.0-11.0-272.0","","","","false","","","","","","","","","","168.10000000009313","","56.5","","3","1","arrowright","1","arrowright","[0.675,0.325,0.15,0.85]","","",""
"sailing-trial","308","1347257","0.0-11.0-273.0","","","","false","","","","","","","","","","null","","130.0999999998603","","2","0","null","null","arrowup","[0.675,0.325,0.15,0.85]","","",""
"sailing-trial","309","1350027","0.0-11.0-274.0","","","","false","","","","","","","","","","166.5","","45.5","","0","1","arrowleft","0","arrowleft","[0.675,0.325,0.15,0.85]","","",""
"sailing-trial","310","1351725","0.0-11.0-275.0","","","","false","","","","","","","","","","null","","94.9000000001397","","1","1","null","null","arrowup","[0.675,0.325,0.15,0.85]","","",""
"sailing-trial","311","1354028","0.0-11.0-276.0","","","","false","","","","","","","","","","7.800000000046566","","124.89999999990687","","1","0","arrowleft","0","arrowright","[0.675,0.325,0.15,0.85]","","",""
"sailing-trial","312","1355547","0.0-11.0-277.0","","","","false","","","","","","","","","","null","","211.19999999995343","","1","0","null","null","arrowup","[0.675,0.325,0.15,0.85]","","",""
"sailing-trial","313","1358877","0.0-11.0-278.0","","","","false","","","","","","","","","","56","","626.3000000000466","","0","1","arrowleft","0","arrowleft","[0.675,0.325,0.15,0.85]","","",""
"sailing-trial","314","1360711","0.0-11.0-279.0","","","","false","","","","","","","","","","null","","203.39999999990687","","3","1","null","null","arrowup","[0.675,0.325,0.15,0.85]","","",""
"sailing-trial","315","1363847","0.0-11.0-280.0","","","","false","","","","","","","","","","243","","105.5","","3","1","arrowright","1","arrowright","[0.675,0.325,0.15,0.85]","","",""
"sailing-trial","316","1365949","0.0-11.0-281.0","","","","false","","","","","","","","","","null","","865.6999999999534","","2","0","null","null","arrowup","[0.675,0.325,0.15,0.85]","","",""
"sailing-trial","317","1369469","0.0-11.0-282.0","","","","false","","","","","","","","","","413","","134.5","","2","0","arrowright","1","arrowleft","[0.675,0.325,0.15,0.85]","","",""
"sailing-trial","318","1371546","0.0-11.0-283.0","","","","false","","","","","","","","","","null","","334","","3","1","null","null","arrowup","[0.675,0.325,0.15,0.85]","","",""
"sailing-trial","319","1374800","0.0-11.0-284.0","","","","false","","","","","","","","","","176.69999999995343","","186.30000000004657","","3","1","arrowright","1","arrowright","[0.675,0.325,0.15,0.85]","","",""
"sailing-trial","320","1377281","0.0-11.0-285.0","","","","false","","","","","","","","","","null","","852.5999999998603","","0","1","null","null","arrowup","[0.675,0.325,0.15,0.85]","","",""
"sailing-trial","321","1380477","0.0-11.0-286.0","","","","false","","","","","","","","","","190.89999999990687","","54.800000000046566","","3","0","arrowright","1","arrowright","[0.675,0.325,0.15,0.85]","","",""
"sailing-trial","322","1382382","0.0-11.0-287.0","","","","false","","","","","","","","","","null","","265.39999999990687","","0","1","null","null","arrowup","[0.675,0.325,0.15,0.85]","","",""
"sailing-trial","323","1385817","0.0-11.0-288.0","","","","false","","","","","","","","","","840","","330.69999999995343","","2","0","arrowright","1","arrowleft","[0.675,0.325,0.15,0.85]","","",""
"sailing-trial","324","1390586","0.0-11.0-289.0","","","","false","","","","","","","","","","null","","2855.100000000093","","0","1","null","null","arrowup","[0.675,0.325,0.15,0.85]","","",""
"sailing-trial","325","1400305","0.0-11.0-290.0","","","","false","","","","","","","","","","886.9000000001397","","4838.100000000093","","0","0","arrowleft","0","arrowleft","[0.675,0.325,0.15,0.85]","","",""
"sailing-trial","326","1411874","0.0-11.0-291.0","","","","false","","","","","","","","","","null","","5477.40000000014","","0","1","null","null","arrowup","[0.675,0.325,0.15,0.85]","","",""
"sailing-trial","327","1421693","0.0-11.0-292.0","","","","false","","","","","","","","","","4735.59999999986","","38","","3","1","arrowright","1","arrowright","[0.85,0.15,0.325,0.675]","","",""
"sailing-trial","328","1424894","0.0-11.0-293.0","","","","false","","","","","","","","","","null","","997.6999999999534","","3","1","null","null","arrowup","[0.85,0.15,0.325,0.675]","","",""
"sailing-trial","329","1435047","0.0-11.0-294.0","","","","false","","","","","","","","","","4025.8000000000466","","3432.5999999998603","","0","1","arrowleft","0","arrowleft","[0.85,0.15,0.325,0.675]","","",""
"sailing-trial","330","1442609","0.0-11.0-295.0","","","","false","","","","","","","","","","null","","4542.199999999953","","1","0","null","null","arrowup","[0.85,0.15,0.325,0.675]","","",""
"sailing-trial","331","1450438","0.0-11.0-296.0","","","","false","","","","","","","","","","4923.299999999814","","102.9000000001397","","3","1","arrowright","1","arrowright","[0.85,0.15,0.325,0.675]","","",""
"sailing-trial","332","1452183","0.0-11.0-297.0","","","","false","","","","","","","","","","null","","24.0999999998603","","0","1","null","null","arrowup","[0.85,0.15,0.325,0.675]","","",""
"sailing-trial","333","1454645","0.0-11.0-298.0","","","","false","","","","","","","","","","108.0999999998603","","84.80000000004657","","3","0","arrowright","1","arrowright","[0.85,0.15,0.325,0.675]","","",""
"sailing-trial","334","1456685","0.0-11.0-299.0","","","","false","","","","","","","","","","null","","326.4000000001397","","3","1","null","null","arrowup","[0.85,0.15,0.325,0.675]","","",""
"sailing-trial","335","1459803","0.0-11.0-300.0","","","","false","","","","","","","","","","5.899999999906868","","184","","3","1","arrowright","1","arrowright","[0.85,0.15,0.325,0.675]","","",""
"sailing-trial","336","1462852","0.0-11.0-301.0","","","","false","","","","","","","","","","null","","1267.3000000000466","","3","1","null","null","arrowup","[0.85,0.15,0.325,0.675]","","",""
"sailing-trial","337","1466016","0.0-11.0-302.0","","","","false","","","","","","","","","","59.4000000001397","","365.80000000004657","","3","0","arrowright","1","arrowright","[0.85,0.15,0.325,0.675]","","",""
"sailing-trial","338","1469970","0.0-11.0-303.0","","","","false","","","","","","","","","","null","","1975.8000000000466","","3","1","null","null","arrowup","[0.85,0.15,0.325,0.675]","","",""
"sailing-trial","339","1488987","0.0-11.0-304.0","","","","true","","","","","","","","","","2890.0999999998603","","113.4000000001397","","3","1","arrowright","1","arrowright","[0.85,0.15,0.325,0.675]","","",""
"sailing-trial","340","1496679","0.0-11.0-305.0","","","","false","","","","","","","","","","null","","2913","","2","1","null","null","arrowup","[0.85,0.15,0.325,0.675]","","",""
"sailing-trial","341","1501479","0.0-11.0-306.0","","","","false","","","","","","","","","","731.2999999998137","","423.10000000009313","","3","1","arrowright","1","arrowright","[0.85,0.15,0.325,0.675]","","",""
"sailing-trial","342","1507615","0.0-11.0-307.0","","","","false","","","","","","","","","","null","","4548.800000000047","","1","0","null","null","arrowup","[0.85,0.15,0.325,0.675]","","",""
"sailing-trial","343","1514733","0.0-11.0-308.0","","","","false","","","","","","","","","","2854.5","","253.39999999990687","","0","0","arrowleft","0","arrowleft","[0.15,0.85,0.675,0.325]","","",""
"sailing-trial","344","1519817","0.0-11.0-309.0","","","","false","","","","","","","","","","null","","2076.5999999998603","","0","0","null","null","arrowup","[0.15,0.85,0.675,0.325]","","",""
"sailing-trial","345","1525421","0.0-11.0-310.0","","","","false","","","","","","","","","","883.6000000000931","","713.8000000000466","","3","0","arrowright","1","arrowright","[0.15,0.85,0.675,0.325]","","",""
"sailing-trial","346","1534906","0.0-11.0-311.0","","","","false","","","","","","","","","","null","","190.39999999990687","","2","1","null","null","arrowup","[0.15,0.85,0.675,0.325]","","",""
"sailing-trial","347","1538891","0.0-11.0-312.0","","","","false","","","","","","","","","","753.6999999999534","","80.4000000001397","","1","1","arrowleft","0","arrowright","[0.15,0.85,0.675,0.325]","","",""
"sailing-trial","348","1541556","0.0-11.0-313.0","","","","false","","","","","","","","","","null","","878","","3","1","null","null","arrowup","[0.15,0.85,0.675,0.325]","","",""
"sailing-trial","349","1544296","0.0-11.0-314.0","","","","false","","","","","","","","","","264.20000000018626","","185.19999999995343","","0","0","arrowleft","0","arrowleft","[0.15,0.85,0.675,0.325]","","",""
"sailing-trial","350","1546290","0.0-11.0-315.0","","","","false","","","","","","","","","","null","","214.9000000001397","","2","1","null","null","arrowup","[0.15,0.85,0.675,0.325]","","",""
"sailing-trial","351","1549659","0.0-11.0-316.0","","","","false","","","","","","","","","","210.5999999998603","","177.5","","3","1","arrowright","1","arrowright","[0.15,0.85,0.675,0.325]","","",""
"sailing-trial","352","1551206","0.0-11.0-317.0","","","","false","","","","","","","","","","null","","500.80000000004657","","3","0","null","null","arrowup","[0.15,0.85,0.675,0.325]","","",""
"sailing-trial","353","1554461","0.0-11.0-318.0","","","","false","","","","","","","","","","414.39999999990687","","149.4000000001397","","1","1","arrowleft","0","arrowright","[0.15,0.85,0.675,0.325]","","",""
"sailing-trial","354","1556607","0.0-11.0-319.0","","","","false","","","","","","","","","","null","","848.3000000000466","","3","0","null","null","arrowup","[0.15,0.85,0.675,0.325]","","",""
"sailing-trial","355","1559814","0.0-11.0-320.0","","","","false","","","","","","","","","","693.5","","111.5","","2","0","arrowright","1","arrowleft","[0.15,0.85,0.675,0.325]","","",""
"sailing-trial","356","1561666","0.0-11.0-321.0","","","","false","","","","","","","","","","null","","765.5","","1","0","null","null","arrowup","[0.15,0.85,0.675,0.325]","","",""
"sailing-trial","357","1565244","0.0-11.0-322.0","","","","false","","","","","","","","","","244.5999999998603","","177.19999999995343","","3","1","arrowright","1","arrowright","[0.15,0.85,0.675,0.325]","","",""
"sailing-trial","358","1566685","0.0-11.0-323.0","","","","false","","","","","","","","","","null","","47.5","","0","0","null","null","arrowup","[0.15,0.85,0.675,0.325]","","",""
"sailing-trial","359","1569014","0.0-11.0-324.0","","","","false","","","","","","","","","","216.0999999998603","","41.39999999990687","","1","0","arrowleft","0","arrowright","[0.15,0.85,0.675,0.325]","","",""
"sailing-trial","360","1572364","0.0-11.0-325.0","","","","false","","","","","","","","","","null","","1725","","3","0","null","null","arrowup","[0.15,0.85,0.675,0.325]","","",""
"sailing-trial","361","1575944","0.0-11.0-326.0","","","","false","","","","","","","","","","255.5","","23.299999999813735","","0","0","arrowleft","0","arrowleft","[0.15,0.85,0.675,0.325]","","",""
"sailing-trial","362","1577781","0.0-11.0-327.0","","","","false","","","","","","","","","","null","","115.0999999998603","","0","1","null","null","arrowup","[0.15,0.85,0.675,0.325]","","",""
"sailing-trial","363","1580515","0.0-11.0-328.0","","","","false","","","","","","","","","","29.800000000046566","","28.799999999813735","","2","1","arrowright","1","arrowleft","[0.325,0.675,0.85,0.15]","","",""
"sailing-trial","364","1582583","0.0-11.0-329.0","","","","false","","","","","","","","","","null","","143.39999999990687","","0","1","null","null","arrowup","[0.325,0.675,0.85,0.15]","","",""
"sailing-trial","365","1585534","0.0-11.0-330.0","","","","false","","","","","","","","","","75.9000000001397","","177.5","","2","1","arrowright","1","arrowleft","[0.325,0.675,0.85,0.15]","","",""
"sailing-trial","366","1587434","0.0-11.0-331.0","","","","false","","","","","","","","","","null","","144.69999999995343","","2","1","null","null","arrowup","[0.325,0.675,0.85,0.15]","","",""
"sailing-trial","367","1589853","0.0-11.0-332.0","","","","false","","","","","","","","","","154","","63.0999999998603","","2","0","arrowright","1","arrowleft","[0.325,0.675,0.85,0.15]","","",""
"sailing-trial","368","1591705","0.0-11.0-333.0","","","","false","","","","","","","","","","null","","146.69999999995343","","0","1","null","null","arrowup","[0.325,0.675,0.85,0.15]","","",""
"sailing-trial","369","1594125","0.0-11.0-334.0","","","","false","","","","","","","","","","159.69999999995343","","8.699999999953434","","2","0","arrowright","1","arrowleft","[0.325,0.675,0.85,0.15]","","",""
"sailing-trial","370","1596019","0.0-11.0-335.0","","","","false","","","","","","","","","","null","","114","","2","1","null","null","arrowup","[0.325,0.675,0.85,0.15]","","",""
"sailing-trial","371","1598937","0.0-11.0-336.0","","","","false","","","","","","","","","","81.70000000018626","","4.699999999953434","","3","1","arrowright","1","arrowright","[0.325,0.675,0.85,0.15]","","",""
"sailing-trial","372","1600174","0.0-11.0-337.0","","","","false","","","","","","","","","","null","","191.39999999990687","","1","0","null","null","arrowup","[0.325,0.675,0.85,0.15]","","",""
"sailing-trial","373","1602644","0.0-11.0-338.0","","","","false","","","","","","","","","","183.80000000004657","","53.10000000009313","","0","0","arrowleft","0","arrowleft","[0.325,0.675,0.85,0.15]","","",""
"sailing-trial","374","1603794","0.0-11.0-339.0","","","","false","","","","","","","","","","null","","133.9000000001397","","3","0","null","null","arrowup","[0.325,0.675,0.85,0.15]","","",""
"sailing-trial","375","1606116","0.0-11.0-340.0","","","","false","","","","","","","","","","106.0999999998603","","192.30000000004657","","3","0","arrowright","1","arrowright","[0.325,0.675,0.85,0.15]","","",""
"sailing-trial","376","1608005","0.0-11.0-341.0","","","","false","","","","","","","","","","null","","265","","0","1","null","null","arrowup","[0.325,0.675,0.85,0.15]","","",""
"sailing-trial","377","1610925","0.0-11.0-342.0","","","","false","","","","","","","","","","163.20000000018626","","94.5999999998603","","1","1","arrowleft","0","arrowright","[0.325,0.675,0.85,0.15]","","",""
"sailing-trial","378","1613039","0.0-11.0-343.0","","","","false","","","","","","","","","","null","","454.5999999998603","","2","1","null","null","arrowup","[0.325,0.675,0.85,0.15]","","",""
"sailing-trial","379","1615908","0.0-11.0-344.0","","","","false","","","","","","","","","","109.89999999990687","","36.799999999813735","","1","1","arrowleft","0","arrowright","[0.325,0.675,0.85,0.15]","","",""
"sailing-trial","380","1617624","0.0-11.0-345.0","","","","false","","","","","","","","","","null","","131.0999999998603","","2","1","null","null","arrowup","[0.325,0.675,0.85,0.15]","","",""
"sailing-trial","381","1619894","0.0-11.0-346.0","","","","false","","","","","","","","","","136","","118.89999999990687","","1","0","arrowleft","0","arrowright","[0.325,0.675,0.85,0.15]","","",""
"sailing-trial","382","1621895","0.0-11.0-347.0","","","","false","","","","","","","","","","null","","255.5","","2","1","null","null","arrowup","[0.325,0.675,0.85,0.15]","","",""
"sailing-trial","383","1624604","0.0-11.0-348.0","","","","false","","","","","","","","","","302.80000000004657","","154.19999999995343","","2","0","arrowright","1","arrowleft","[0.15,0.85,0.675,0.325]","","",""
"sailing-trial","384","1625954","0.0-11.0-349.0","","","","false","","","","","","","","","","null","","66.89999999990687","","1","0","null","null","arrowup","[0.15,0.85,0.675,0.325]","","",""
"sailing-trial","385","1628777","0.0-11.0-350.0","","","","false","","","","","","","","","","145.60000000009313","","112.5999999998603","","3","1","arrowright","1","arrowright","[0.15,0.85,0.675,0.325]","","",""
"sailing-trial","386","1630579","0.0-11.0-351.0","","","","false","","","","","","","","","","null","","50.699999999953434","","3","1","null","null","arrowup","[0.15,0.85,0.675,0.325]","","",""
"sailing-trial","387","1632823","0.0-11.0-352.0","","","","false","","","","","","","","","","89.29999999981374","","65.19999999995343","","3","0","arrowright","1","arrowright","[0.15,0.85,0.675,0.325]","","",""
"sailing-trial","388","1634133","0.0-11.0-353.0","","","","false","","","","","","","","","","null","","167.80000000004657","","3","0","null","null","arrowup","[0.15,0.85,0.675,0.325]","","",""
"sailing-trial","389","1636796","0.0-11.0-354.0","","","","false","","","","","","","","","","27","","74.79999999981374","","1","1","arrowleft","0","arrowright","[0.15,0.85,0.675,0.325]","","",""
"sailing-trial","390","1638343","0.0-11.0-355.0","","","","false","","","","","","","","","","null","","340.29999999981374","","3","0","null","null","arrowup","[0.15,0.85,0.675,0.325]","","",""
"sailing-trial","391","1641430","0.0-11.0-356.0","","","","false","","","","","","","","","","457.10000000009313","","107","","0","1","arrowleft","0","arrowleft","[0.15,0.85,0.675,0.325]","","",""
"sailing-trial","392","1642763","0.0-11.0-357.0","","","","false","","","","","","","","","","null","","119","","0","0","null","null","arrowup","[0.15,0.85,0.675,0.325]","","",""
"sailing-trial","393","1646515","0.0-11.0-358.0","","","","false","","","","","","","","","","586.6000000000931","","164.69999999995343","","1","1","arrowleft","0","arrowright","[0.15,0.85,0.675,0.325]","","",""
"sailing-trial","394","1647982","0.0-11.0-359.0","","","","false","","","","","","","","","","null","","142.10000000009313","","1","0","null","null","arrowup","[0.15,0.85,0.675,0.325]","","",""
"sailing-trial","395","1650873","0.0-11.0-360.0","","","","false","","","","","","","","","","47","","163.80000000004657","","0","0","arrowleft","0","arrowleft","[0.15,0.85,0.675,0.325]","","",""
"sailing-trial","396","1652586","0.0-11.0-361.0","","","","false","","","","","","","","","","null","","56.5","","2","1","null","null","arrowup","[0.15,0.85,0.675,0.325]","","",""
"sailing-trial","397","1655363","0.0-11.0-362.0","","","","false","","","","","","","","","","422.60000000009313","","142.29999999981374","","1","0","arrowleft","0","arrowright","[0.15,0.85,0.675,0.325]","","",""
"sailing-trial","398","1656773","0.0-11.0-363.0","","","","false","","","","","","","","","","null","","116.5","","3","0","null","null","arrowup","[0.15,0.85,0.675,0.325]","","",""
"sailing-trial","399","1659412","0.0-11.0-364.0","","","","false","","","","","","","","","","196.19999999995343","","128.29999999981374","","0","0","arrowleft","0","arrowleft","[0.15,0.85,0.675,0.325]","","",""
"sailing-trial","400","1661003","0.0-11.0-365.0","","","","false","","","","","","","","","","null","","307.19999999995343","","3","0","null","null","arrowup","[0.15,0.85,0.675,0.325]","","",""
"sailing-trial","401","1663742","0.0-11.0-366.0","","","","false","","","","","","","","","","155.4000000001397","","4.100000000093132","","3","0","arrowright","1","arrowright","[0.325,0.675,0.85,0.15]","","",""
"sailing-trial","402","1665787","0.0-11.0-367.0","","","","false","","","","","","","","","","null","","276.20000000018626","","2","1","null","null","arrowup","[0.325,0.675,0.85,0.15]","","",""
"sailing-trial","403","1668554","0.0-11.0-368.0","","","","false","","","","","","","","","","33.199999999953434","","86","","2","1","arrowright","1","arrowleft","[0.325,0.675,0.85,0.15]","","",""
"sailing-trial","404","1670220","0.0-11.0-369.0","","","","false","","","","","","","","","","null","","53","","2","1","null","null","arrowup","[0.325,0.675,0.85,0.15]","","",""
"sailing-trial","405","1673003","0.0-11.0-370.0","","","","false","","","","","","","","","","29","","78.30000000004657","","2","1","arrowright","1","arrowleft","[0.325,0.675,0.85,0.15]","","",""
"sailing-trial","406","1674222","0.0-11.0-371.0","","","","false","","","","","","","","","","null","","36.5","","0","0","null","null","arrowup","[0.325,0.675,0.85,0.15]","","",""
"sailing-trial","407","1678791","0.0-11.0-372.0","","","","false","","","","","","","","","","124.69999999995343","","1457.1999999999534","","2","1","arrowright","1","arrowleft","[0.325,0.675,0.85,0.15]","","",""
"sailing-trial","408","1681556","0.0-11.0-373.0","","","","false","","","","","","","","","","null","","1247","","2","1","null","null","arrowup","[0.325,0.675,0.85,0.15]","","",""
"sailing-trial","409","1684594","0.0-11.0-374.0","","","","false","","","","","","","","","","91.19999999995343","","164.5999999998603","","1","1","arrowleft","0","arrowright","[0.325,0.675,0.85,0.15]","","",""
"sailing-trial","410","1686341","0.0-11.0-375.0","","","","false","","","","","","","","","","null","","212.4000000001397","","2","1","null","null","arrowup","[0.325,0.675,0.85,0.15]","","",""
"sailing-trial","411","1689477","0.0-11.0-376.0","","","","false","","","","","","","","","","268.0999999998603","","87.30000000004657","","0","1","arrowleft","0","arrowleft","[0.325,0.675,0.85,0.15]","","",""
"sailing-trial","412","1691383","0.0-11.0-377.0","","","","false","","","","","","","","","","null","","689.1999999999534","","3","0","null","null","arrowup","[0.325,0.675,0.85,0.15]","","",""
"sailing-trial","413","1694393","0.0-11.0-378.0","","","","false","","","","","","","","","","127.19999999995343","","6.199999999953434","","1","1","arrowleft","0","arrowright","[0.325,0.675,0.85,0.15]","","",""
"sailing-trial","414","1695662","0.0-11.0-379.0","","","","false","","","","","","","","","","null","","24.699999999953434","","1","0","null","null","arrowup","[0.325,0.675,0.85,0.15]","","",""
"sailing-trial","415","1698017","0.0-11.0-380.0","","","","false","","","","","","","","","","26.200000000186265","","188.69999999995343","","0","0","arrowleft","0","arrowleft","[0.325,0.675,0.85,0.15]","","",""
"sailing-trial","416","1700011","0.0-11.0-381.0","","","","false","","","","","","","","","","null","","181.30000000004657","","2","1","null","null","arrowup","[0.325,0.675,0.85,0.15]","","",""
"sailing-trial","417","1702904","0.0-11.0-382.0","","","","false","","","","","","","","","","198.5","","14.199999999953434","","3","0","arrowright","1","arrowright","[0.325,0.675,0.85,0.15]","","",""
"sailing-trial","418","1704194","0.0-11.0-383.0","","","","false","","","","","","","","","","null","","106.5","","0","0","null","null","arrowup","[0.325,0.675,0.85,0.15]","","",""
"sailing-trial","419","1706524","0.0-11.0-384.0","","","","false","","","","","","","","","","183.79999999981374","","26.699999999953434","","2","0","arrowright","1","arrowleft","[0.15,0.85,0.675,0.325]","","",""
"sailing-trial","420","1707863","0.0-11.0-385.0","","","","false","","","","","","","","","","null","","116.0999999998603","","3","0","null","null","arrowup","[0.15,0.85,0.675,0.325]","","",""
"sailing-trial","421","1710682","0.0-11.0-386.0","","","","false","","","","","","","","","","70.89999999990687","","5.5","","1","1","arrowleft","0","arrowright","[0.15,0.85,0.675,0.325]","","",""
"sailing-trial","422","1712214","0.0-11.0-387.0","","","","false","","","","","","","","","","null","","505.69999999995343","","0","0","null","null","arrowup","[0.15,0.85,0.675,0.325]","","",""
"sailing-trial","423","1715433","0.0-11.0-388.0","","","","false","","","","","","","","","","385.70000000018626","","183.9000000001397","","1","1","arrowleft","0","arrowright","[0.15,0.85,0.675,0.325]","","",""
"sailing-trial","424","1717284","0.0-11.0-389.0","","","","false","","","","","","","","","","null","","173.19999999995343","","3","1","null","null","arrowup","[0.15,0.85,0.675,0.325]","","",""
"sailing-trial","425","1720118","0.0-11.0-390.0","","","","false","","","","","","","","","","84.5999999998603","","10","","1","1","arrowleft","0","arrowright","[0.15,0.85,0.675,0.325]","","",""
"sailing-trial","426","1722050","0.0-11.0-391.0","","","","false","","","","","","","","","","null","","139.5","","1","1","null","null","arrowup","[0.15,0.85,0.675,0.325]","","",""
"sailing-trial","427","1724918","0.0-11.0-392.0","","","","false","","","","","","","","","","48.799999999813735","","93.9000000001397","","1","1","arrowleft","0","arrowright","[0.15,0.85,0.675,0.325]","","",""
"sailing-trial","428","1726172","0.0-11.0-393.0","","","","false","","","","","","","","","","null","","49.299999999813735","","2","0","null","null","arrowup","[0.15,0.85,0.675,0.325]","","",""
"sailing-trial","429","1729487","0.0-11.0-394.0","","","","false","","","","","","","","","","454.80000000004657","","186.39999999990687","","1","1","arrowleft","0","arrowright","[0.15,0.85,0.675,0.325]","","",""
"sailing-trial","430","1731082","0.0-11.0-395.0","","","","false","","","","","","","","","","null","","179.0999999998603","","0","0","null","null","arrowup","[0.15,0.85,0.675,0.325]","","",""
"sailing-trial","431","1734037","0.0-11.0-396.0","","","","false","","","","","","","","","","167.69999999995343","","2.5999999998603016","","1","1","arrowleft","0","arrowright","[0.15,0.85,0.675,0.325]","","",""
"sailing-trial","432","1735888","0.0-11.0-397.0","","","","false","","","","","","","","","","null","","117.5999999998603","","1","1","null","null","arrowup","[0.15,0.85,0.675,0.325]","","",""
"sailing-trial","433","1738552","0.0-11.0-398.0","","","","false","","","","","","","","","","49","","97.79999999981374","","1","0","arrowleft","0","arrowright","[0.15,0.85,0.675,0.325]","","",""
"sailing-trial","434","1740883","0.0-11.0-399.0","","","","false","","","","","","","","","","null","","1035.3000000000466","","0","0","null","null","arrowup","[0.15,0.85,0.675,0.325]","","",""
"instructions","435","1747934","0.0-12.0","","","","","","","","","","7050.59999999986","","","","","","","","","","","","","","","","[{""page_index"":0,""viewing_time"":7050}]"
"survey-debrief","436","1775678","0.0-13.0","","","","","","","","","","27739.90000000014","","","","","","","","","","","","","","{""difficulty"":""5"",""fun"":""4"",""clarity"":""5"",""strategy"":""green has a lot of gold and sometimes red "",""feedback"":""""}","",""
