"trial_type","trial_index","time_elapsed","internal_node_id","value","metadata","success","timeout","failed_images","failed_audio","failed_video","browser_interaction","low_quality","rt","stimulus","response","button_pressed","island_rt","island_response","boat_rt","boat_response","boat","reward","island_key","island","boat_key","reward_probabilities","responses","num_errors","view_history"
"pavlovia","0","6","0.0-0.0","","","","","","","","","","","","","","","","","","","","","","","","","",""
"call-function","1","7","0.0-1.0","","{""task_version"":""sailing_part1_v1"",""task_condition"":""good"",""boats"":[""C"",""D"",""B"",""A""],""boats_demo"":[""E"",""F"",""G"",""H""],""islands"":[""B"",""A""],""subject_id"":""15115"",""age"":""16"",""gender"":""Male""}","","","","","","","","","","","","","","","","","","","","","","","",""
"preload","2","32191","0.0-2.0","","","true","false","[]","[]","[]","[{""event"":""fullscreenenter"",""trial"":3,""time"":37943}]","false","","","","","","","","","","","","","","","","",""
"fullscreen","3","38929","0.0-3.0","","","true","","","","","","","","","","","","","","","","","","","","","","",""
"audio-keyboard-response","4","41316","0.0-4.0-0.0","","","","","","","","","","2240.000000000002","audio/beep_loop.wav"," ","","","","","","","","","","","","","",""
"audio-test","5","42849","0.0-4.0-1.0","","","","","","","","","","null","audio/turtle.mp3","","3","","","","","","","","","","","","",""
"audio-test","6","45285","0.0-4.0-2.0","","","","","","","","","","null","audio/shark.mp3","","2","","","","","","","","","","","","",""
"sailing-instructions","7","76726","0.0-5.0-0.0-0.0","","","","","","","","","","","","","","null","null","null","null","null","null","","","","","","",""
"sailing-trial","8","80156","0.0-5.0-0.0-1.0-0.0","","","","false","","","","","","","","","","2313.3999996185303","","null","","null","null","arrowleft","0","null","null","","",""
"sailing-trial","9","82791","0.0-5.0-0.0-1.0-1.0","","","","false","","","","","","","","","","1526.3000011444092","","null","","null","null","arrowright","1","null","null","","",""
"sailing-trial","10","85309","0.0-5.0-0.0-1.0-2.0","","","","false","","","","","","","","","","1401.1000003814697","","null","","null","null","arrowleft","0","null","null","","",""
"sailing-instructions","11","125476","0.0-5.0-0.0-2.0","","","","","","","","","","","","","","null","null","null","null","0","null","","","","","","",""
"sailing-trial","12","130141","0.0-5.0-0.0-3.0-0.0","","","","false","","","","","","","","","","null","","1635.3000011444092","","2","1","null","null","arrowleft","[1,1,1,1]","","",""
"sailing-trial","13","133577","0.0-5.0-0.0-3.0-1.0","","","","false","","","","","","","","","","null","","837.8999996185303","","3","1","null","null","arrowright","[1,1,1,1]","","",""
"sailing-trial","14","137611","0.0-5.0-0.0-3.0-2.0","","","","false","","","","","","","","","","null","","1322.400001525879","","2","0","null","null","arrowleft","[0,0,0,0]","","",""
"sailing-instructions","15","144935","0.0-5.0-0.0-4.0","","","","","","","","","","","","","","null","null","null","null","null","null","","","","","","",""
"sailing-comprehension","16","160405","0.0-5.0-0.0-5.0","","","","","","","","","","12778.5","","","","","","","","","","","","","","[""true"",""true"",""false"",""true""]","0",""
"sailing-instructions","17","226425","0.0-6.0-0.0-0.0","","","","","","","","","","","","","","null","null","null","null","null","null","","","","","","",""
"sailing-comprehension","18","239706","0.0-6.0-0.0-1.0","","","","","","","","","","8382","","","","","","","","","","","","","","[""true"",""false"",""true""]","0",""
"sailing-instructions","19","257555","0.0-7.0-0.0-0.0","","","","","","","","","","","","","","null","null","null","null","null","null","","","","","","",""
"sailing-trial","20","264165","0.0-7.0-0.0-1.0-0.0","","","","false","","","","","","","","","","null","","4175.89999961853","","0","0","null","null","arrowup","[0.2,0.8,0.2,0.8]","","",""
"sailing-trial","21","268386","0.0-7.0-0.0-1.0-1.0","","","","false","","","","","","","","","","null","","2156.5","","1","1","null","null","arrowup","[0.2,0.8,0.2,0.8]","","",""
"sailing-trial","22","272037","0.0-7.0-0.0-1.0-2.0","","","","false","","","","","","","","","","null","","1585.6999988555908","","2","0","null","null","arrowup","[0.2,0.8,0.2,0.8]","","",""
"sailing-trial","23","274206","0.0-7.0-0.0-1.0-3.0","","","","false","","","","","","","","","","null","","795.2999992370605","","3","0","null","null","arrowup","[0.2,0.8,0.2,0.8]","","",""
"sailing-comprehension","24","280995","0.0-7.0-0.0-2.0","","","","","","","","","","4361.39999961853","","","","","","","","","","","","","","[""false""]","0",""
"sailing-instructions","25","291085","0.0-8.0-0.0-0.0","","","","","","","","","","","","","","null","null","null","null","null","null","","","","","","",""
"sailing-comprehension","26","294585","0.0-8.0-0.0-1.0","","","","","","","","","","2508.6000003814697","","","","","","","","","","","","","","[""true""]","0",""
"sailing-instructions","27","329528","0.0-9.0-0.0-0.0","","","","","","","","","","","","","","null","null","null","null","null","null","","","","","","",""
"sailing-trial","28","336163","0.0-9.0-0.0-1.0-0.0","","","","false","","","","","","","","","","1771.6999988555908","","1028.3999996185303","","0","0","arrowleft","0","arrowleft","[0.2,0.8,0.2,0.8]","","",""
"sailing-trial","29","341874","0.0-9.0-0.0-1.0-1.0","","","","false","","","","","","","","","","607.8999996185303","","721.8999996185303","","1","1","arrowleft","0","arrowright","[0.2,0.8,0.2,0.8]","","",""
"sailing-trial","30","346237","0.0-9.0-0.0-1.0-2.0","","","","false","","","","","","","","","","null","","2196.7999992370605","","0","0","null","null","arrowup","[0.2,0.8,0.2,0.8]","","",""
"sailing-trial","31","350356","0.0-9.0-0.0-1.0-3.0","","","","false","","","","","","","","","","534","","671.2999992370605","","2","0","arrowright","1","arrowleft","[0.2,0.8,0.2,0.8]","","",""
"sailing-trial","32","353728","0.0-9.0-0.0-1.0-4.0","","","","false","","","","","","","","","","null","","1435.7000007629395","","3","1","null","null","arrowup","[0.2,0.8,0.2,0.8]","","",""
"sailing-trial","33","358363","0.0-9.0-0.0-1.0-5.0","","","","false","","","","","","","","","","513.5","","840.0999984741211","","1","1","arrowleft","0","arrowright","[0.2,0.8,0.2,0.8]","","",""
"sailing-instructions","34","386457","0.0-10.0","","","","","","","","","","","","","","null","null","null","null","null","null","","","","","","",""
"sailing-trial","35","397240","0.0-11.0-0.0","","","","false","","","","","","","","","","3522.3999996185303","","1025.6000003814697","","0","1","arrowleft","0","arrowleft","[0.15,0.85,0.325,0.675]","","",""
"sailing-trial","36","401026","0.0-11.0-1.0","","","","false","","","","","","","","","","null","","1359.900001525879","","0","1","null","null","arrowup","[0.15,0.85,0.325,0.675]","","",""
"sailing-trial","37","405313","0.0-11.0-2.0","","","","false","","","","","","","","","","1004.5","","356.79999923706055","","1","1","arrowleft","0","arrowright","[0.15,0.85,0.325,0.675]","","",""
"sailing-trial","38","408515","0.0-11.0-3.0","","","","false","","","","","","","","","","null","","1167.6000003814697","","3","1","null","null","arrowup","[0.15,0.85,0.325,0.675]","","",""
"sailing-trial","39","411500","0.0-11.0-4.0","","","","false","","","","","","","","","","476","","35","","2","0","arrowright","1","arrowleft","[0.15,0.85,0.325,0.675]","","",""
"sailing-trial","40","414902","0.0-11.0-5.0","","","","false","","","","","","","","","","null","","1112","","2","1","null","null","arrowup","[0.15,0.85,0.325,0.675]","","",""
"sailing-trial","41","420195","0.0-11.0-6.0","","","","false","","","","","","","","","","757.8999996185303","","621.6999988555908","","1","0","arrowleft","0","arrowright","[0.15,0.85,0.325,0.675]","","",""
"sailing-trial","42","423074","0.0-11.0-7.0","","","","false","","","","","","","","","","null","","916.5","","2","1","null","null","arrowup","[0.15,0.85,0.325,0.675]","","",""
"sailing-trial","43","427327","0.0-11.0-8.0","","","","false","","","","","","","","","","517.3999996185303","","423.5","","2","1","arrowright","1","arrowleft","[0.15,0.85,0.325,0.675]","","",""
"sailing-trial","44","430275","0.0-11.0-9.0","","","","false","","","","","","","","","","null","","1164.400001525879","","0","0","null","null","arrowup","[0.15,0.85,0.325,0.675]","","",""
"sailing-trial","45","435118","0.0-11.0-10.0","","","","false","","","","","","","","","","427.0999984741211","","398.70000076293945","","2","0","arrowright","1","arrowleft","[0.15,0.85,0.325,0.675]","","",""
"sailing-trial","46","439430","0.0-11.0-11.0","","","","false","","","","","","","","","","null","","1302.3999996185303","","3","0","null","null","arrowup","[0.15,0.85,0.325,0.675]","","",""
"sailing-trial","47","444300","0.0-11.0-12.0","","","","false","","","","","","","","","","792","","55.29999923706055","","2","0","arrowright","1","arrowleft","[0.15,0.85,0.325,0.675]","","",""
"sailing-trial","48","447407","0.0-11.0-13.0","","","","false","","","","","","","","","","null","","1021.2999992370605","","3","1","null","null","arrowup","[0.15,0.85,0.325,0.675]","","",""
"sailing-trial","49","452511","0.0-11.0-14.0","","","","false","","","","","","","","","","563.6000003814697","","540.1000003814697","","3","0","arrowright","1","arrowright","[0.15,0.85,0.325,0.675]","","",""
"sailing-trial","50","456497","0.0-11.0-15.0","","","","false","","","","","","","","","","null","","980.1999988555908","","0","0","null","null","arrowup","[0.15,0.85,0.325,0.675]","","",""
"sailing-trial","51","460566","0.0-11.0-16.0","","","","false","","","","","","","","","","663.8000011444092","","189.79999923706055","","1","1","arrowleft","0","arrowright","[0.15,0.85,0.325,0.675]","","",""
"sailing-trial","52","463567","0.0-11.0-17.0","","","","false","","","","","","","","","","null","","1154.5","","2","0","null","null","arrowup","[0.15,0.85,0.325,0.675]","","",""
"sailing-trial","53","469640","0.0-11.0-18.0","","","","false","","","","","","","","","","594.4000015258789","","552.1000003814697","","1","1","arrowleft","0","arrowright","[0.15,0.85,0.325,0.675]","","",""
"sailing-trial","54","472695","0.0-11.0-19.0","","","","false","","","","","","","","","","null","","1431.1999988555908","","2","0","null","null","arrowup","[0.15,0.85,0.325,0.675]","","",""
"sailing-trial","55","476995","0.0-11.0-20.0","","","","false","","","","","","","","","","637.1000003814697","","179.10000038146973","","1","1","arrowleft","0","arrowright","[0.325,0.675,0.15,0.85]","","",""
"sailing-trial","56","481481","0.0-11.0-21.0","","","","false","","","","","","","","","","null","","1476.2000007629395","","2","0","null","null","arrowup","[0.325,0.675,0.15,0.85]","","",""
"sailing-trial","57","485333","0.0-11.0-22.0","","","","false","","","","","","","","","","560.1000003814697","","227.0999984741211","","1","1","arrowleft","0","arrowright","[0.325,0.675,0.15,0.85]","","",""
"sailing-trial","58","488485","0.0-11.0-23.0","","","","false","","","","","","","","","","null","","1638.7999992370605","","2","0","null","null","arrowup","[0.325,0.675,0.15,0.85]","","",""
"sailing-trial","59","493439","0.0-11.0-24.0","","","","false","","","","","","","","","","757","","208.4000015258789","","1","0","arrowleft","0","arrowright","[0.325,0.675,0.15,0.85]","","",""
"sailing-trial","60","497558","0.0-11.0-25.0","","","","false","","","","","","","","","","null","","2013","","1","1","null","null","arrowup","[0.325,0.675,0.15,0.85]","","",""
"sailing-trial","61","502994","0.0-11.0-26.0","","","","false","","","","","","","","","","623","","828.5","","1","0","arrowleft","0","arrowright","[0.325,0.675,0.15,0.85]","","",""
"sailing-trial","62","505715","0.0-11.0-27.0","","","","false","","","","","","","","","","null","","906.5","","2","0","null","null","arrowup","[0.325,0.675,0.15,0.85]","","",""
"sailing-trial","63","509600","0.0-11.0-28.0","","","","false","","","","","","","","","","514.8999996185303","","6.19999885559082","","1","1","arrowleft","0","arrowright","[0.325,0.675,0.15,0.85]","","",""
"sailing-trial","64","512702","0.0-11.0-29.0","","","","false","","","","","","","","","","null","","1080.1000003814697","","3","1","null","null","arrowup","[0.325,0.675,0.15,0.85]","","",""
"sailing-trial","65","517054","0.0-11.0-30.0","","","","false","","","","","","","","","","558","","494.5","","1","1","arrowleft","0","arrowright","[0.325,0.675,0.15,0.85]","","",""
"sailing-trial","66","519973","0.0-11.0-31.0","","","","false","","","","","","","","","","null","","1076.6999988555908","","1","1","null","null","arrowup","[0.325,0.675,0.15,0.85]","","",""
"sailing-trial","67","524245","0.0-11.0-32.0","","","","false","","","","","","","","","","897.3000011444092","","320.1999988555908","","1","1","arrowleft","0","arrowright","[0.325,0.675,0.15,0.85]","","",""
"sailing-trial","68","527378","0.0-11.0-33.0","","","","false","","","","","","","","","","null","","1115.6000003814697","","3","1","null","null","arrowup","[0.325,0.675,0.15,0.85]","","",""
"sailing-trial","69","533416","0.0-11.0-34.0","","","","false","","","","","","","","","","1662.2000007629395","","360.20000076293945","","1","0","arrowleft","0","arrowright","[0.325,0.675,0.15,0.85]","","",""
"sailing-trial","70","536785","0.0-11.0-35.0","","","","false","","","","","","","","","","null","","1063.5","","1","1","null","null","arrowup","[0.325,0.675,0.15,0.85]","","",""
"sailing-trial","71","541471","0.0-11.0-36.0","","","","false","","","","","","","","","","1036.6000003814697","","4.399999618530273","","1","1","arrowleft","0","arrowright","[0.15,0.85,0.325,0.675]","","",""
"sailing-trial","72","544957","0.0-11.0-37.0","","","","false","","","","","","","","","","null","","1439.599998474121","","1","1","null","null","arrowup","[0.15,0.85,0.325,0.675]","","",""
"sailing-trial","73","548827","0.0-11.0-38.0","","","","false","","","","","","","","","","613.5999984741211","","199","","1","1","arrowleft","0","arrowright","[0.15,0.85,0.325,0.675]","","",""
"sailing-trial","74","553181","0.0-11.0-39.0","","","","false","","","","","","","","","","null","","1354","","3","0","null","null","arrowup","[0.15,0.85,0.325,0.675]","","",""
"sailing-trial","75","558214","0.0-11.0-40.0","","","","false","","","","","","","","","","558.8000011444092","","460.6000003814697","","1","0","arrowleft","0","arrowright","[0.15,0.85,0.325,0.675]","","",""
"sailing-trial","76","562534","0.0-11.0-41.0","","","","false","","","","","","","","","","null","","1325.3999996185303","","2","0","null","null","arrowup","[0.15,0.85,0.325,0.675]","","",""
"sailing-trial","77","567521","0.0-11.0-42.0","","","","false","","","","","","","","","","685.7999992370605","","329","","1","1","arrowleft","0","arrowright","[0.15,0.85,0.325,0.675]","","",""
"sailing-trial","78","573509","0.0-11.0-43.0","","","","false","","","","","","","","","","null","","1447.6000003814697","","3","1","null","null","arrowup","[0.15,0.85,0.325,0.675]","","",""
"sailing-trial","79","580165","0.0-11.0-44.0","","","","false","","","","","","","","","","2500.800001144409","","335.20000076293945","","1","1","arrowleft","0","arrowright","[0.15,0.85,0.325,0.675]","","",""
"sailing-trial","80","586285","0.0-11.0-45.0","","","","false","","","","","","","","","","null","","1794.8999996185303","","1","1","null","null","arrowup","[0.15,0.85,0.325,0.675]","","",""
"sailing-trial","81","591804","0.0-11.0-46.0","","","","false","","","","","","","","","","1084.599998474121","","753.1999988555908","","1","1","arrowleft","0","arrowright","[0.15,0.85,0.325,0.675]","","",""
"sailing-trial","82","596758","0.0-11.0-47.0","","","","false","","","","","","","","","","null","","1944.8000011444092","","0","0","null","null","arrowup","[0.15,0.85,0.325,0.675]","","",""
"sailing-trial","83","601845","0.0-11.0-48.0","","","","false","","","","","","","","","","1052.099998474121","","466.70000076293945","","1","1","arrowleft","0","arrowright","[0.15,0.85,0.325,0.675]","","",""
"sailing-trial","84","606415","0.0-11.0-49.0","","","","false","","","","","","","","","","null","","1554.2000007629395","","0","0","null","null","arrowup","[0.15,0.85,0.325,0.675]","","",""
"sailing-trial","85","610143","0.0-11.0-50.0","","","","false","","","","","","","","","","1034.1999988555908","","13.299999237060547","","1","0","arrowleft","0","arrowright","[0.15,0.85,0.325,0.675]","","",""
"sailing-trial","86","613787","0.0-11.0-51.0","","","","false","","","","","","","","","","null","","1357","","1","1","null","null","arrowup","[0.15,0.85,0.325,0.675]","","",""
"sailing-trial","87","617794","0.0-11.0-52.0","","","","false","","","","","","","","","","832.6000003814697","","111.69999885559082","","1","0","arrowleft","0","arrowright","[0.675,0.325,0.85,0.15]","","",""
"sailing-trial","88","621475","0.0-11.0-53.0","","","","false","","","","","","","","","","null","","885.3999996185303","","1","1","null","null","arrowup","[0.675,0.325,0.85,0.15]","","",""
"sailing-trial","89","628397","0.0-11.0-54.0","","","","false","","","","","","","","","","2314.699998855591","","609.2000007629395","","0","0","arrowleft","0","arrowleft","[0.675,0.325,0.85,0.15]","","",""
"sailing-trial","90","633583","0.0-11.0-55.0","","","","false","","","","","","","","","","null","","2161.5","","1","0","null","null","arrowup","[0.675,0.325,0.85,0.15]","","",""
"sailing-trial","91","639821","0.0-11.0-56.0","","","","false","","","","","","","","","","567","","621.3999996185303","","2","1","arrowright","1","arrowleft","[0.675,0.325,0.85,0.15]","","",""
"sailing-trial","92","644274","0.0-11.0-57.0","","","","false","","","","","","","","","","null","","1739","","2","1","null","null","arrowup","[0.675,0.325,0.85,0.15]","","",""
"sailing-trial","93","650045","0.0-11.0-58.0","","","","false","","","","","","","","","","1335.8999996185303","","313.6000003814697","","2","1","arrowright","1","arrowleft","[0.675,0.325,0.85,0.15]","","",""
"sailing-trial","94","653913","0.0-11.0-59.0","","","","false","","","","","","","","","","null","","2184.6000003814697","","1","0","null","null","arrowup","[0.675,0.325,0.85,0.15]","","",""
"sailing-trial","95","659603","0.0-11.0-60.0","","","","false","","","","","","","","","","967","","720.3000011444092","","2","0","arrowright","1","arrowleft","[0.675,0.325,0.85,0.15]","","",""
"sailing-trial","96","664339","0.0-11.0-61.0","","","","false","","","","","","","","","","null","","1736.3000011444092","","1","0","null","null","arrowup","[0.675,0.325,0.85,0.15]","","",""
"sailing-trial","97","670025","0.0-11.0-62.0","","","","false","","","","","","","","","","1030.599998474121","","451","","2","1","arrowright","1","arrowleft","[0.675,0.325,0.85,0.15]","","",""
"sailing-trial","98","673878","0.0-11.0-63.0","","","","false","","","","","","","","","","null","","1874.3000011444092","","2","1","null","null","arrowup","[0.675,0.325,0.85,0.15]","","",""
"sailing-trial","99","678630","0.0-11.0-64.0","","","","false","","","","","","","","","","1401.8999996185303","","403.29999923706055","","2","1","arrowright","1","arrowleft","[0.675,0.325,0.85,0.15]","","",""
"sailing-trial","100","682616","0.0-11.0-65.0","","","","false","","","","","","","","","","null","","988","","3","0","null","null","arrowup","[0.675,0.325,0.85,0.15]","","",""
"sailing-trial","101","686302","0.0-11.0-66.0","","","","false","","","","","","","","","","623.5","","27.5","","2","1","arrowright","1","arrowleft","[0.675,0.325,0.85,0.15]","","",""
"sailing-trial","102","689788","0.0-11.0-67.0","","","","false","","","","","","","","","","null","","1386.3999996185303","","2","1","null","null","arrowup","[0.675,0.325,0.85,0.15]","","",""
"sailing-trial","103","694759","0.0-11.0-68.0","","","","false","","","","","","","","","","780.3999996185303","","179.79999923706055","","2","0","arrowright","1","arrowleft","[0.85,0.15,0.675,0.325]","","",""
"sailing-trial","104","698644","0.0-11.0-69.0","","","","false","","","","","","","","","","null","","889.2999992370605","","3","0","null","null","arrowup","[0.85,0.15,0.675,0.325]","","",""
"sailing-trial","105","703114","0.0-11.0-70.0","","","","false","","","","","","","","","","555","","427.1000003814697","","2","1","arrowright","1","arrowleft","[0.85,0.15,0.675,0.325]","","",""
"sailing-trial","106","706666","0.0-11.0-71.0","","","","false","","","","","","","","","","null","","1204","","2","1","null","null","arrowup","[0.85,0.15,0.675,0.325]","","",""
"sailing-trial","107","711602","0.0-11.0-72.0","","","","false","","","","","","","","","","592.3999996185303","","334.6000003814697","","2","0","arrowright","1","arrowleft","[0.85,0.15,0.675,0.325]","","",""
"sailing-trial","108","716723","0.0-11.0-73.0","","","","false","","","","","","","","","","null","","2128.2000007629395","","1","0","null","null","arrowup","[0.85,0.15,0.675,0.325]","","",""
"sailing-trial","109","721293","0.0-11.0-74.0","","","","false","","","","","","","","","","507.0999984741211","","77.80000114440918","","2","0","arrowright","1","arrowleft","[0.85,0.15,0.675,0.325]","","",""
"sailing-trial","110","725013","0.0-11.0-75.0","","","","false","","","","","","","","","","null","","1477.6999988555908","","0","1","null","null","arrowup","[0.85,0.15,0.675,0.325]","","",""
"sailing-trial","111","729415","0.0-11.0-76.0","","","","false","","","","","","","","","","887.1999988555908","","616.1999988555908","","2","1","arrowright","1","arrowleft","[0.85,0.15,0.675,0.325]","","",""
"sailing-trial","112","733652","0.0-11.0-77.0","","","","false","","","","","","","","","","null","","1234.1000003814697","","2","0","null","null","arrowup","[0.85,0.15,0.675,0.325]","","",""
"sailing-trial","113","737438","0.0-11.0-78.0","","","","false","","","","","","","","","","458.1000003814697","","211.10000038146973","","2","1","arrowright","1","arrowleft","[0.85,0.15,0.675,0.325]","","",""
"sailing-trial","114","740523","0.0-11.0-79.0","","","","false","","","","","","","","","","null","","1110.7999992370605","","0","1","null","null","arrowup","[0.85,0.15,0.675,0.325]","","",""
"sailing-trial","115","745143","0.0-11.0-80.0","","","","false","","","","","","","","","","815.9000015258789","","263","","2","1","arrowright","1","arrowleft","[0.85,0.15,0.675,0.325]","","",""
"sailing-trial","116","749162","0.0-11.0-81.0","","","","false","","","","","","","","","","null","","1016.8000011444092","","2","0","null","null","arrowup","[0.85,0.15,0.675,0.325]","","",""
"sailing-trial","117","752901","0.0-11.0-82.0","","","","false","","","","","","","","","","408.1000003814697","","330.6000003814697","","2","1","arrowright","1","arrowleft","[0.85,0.15,0.675,0.325]","","",""
"sailing-trial","118","757284","0.0-11.0-83.0","","","","false","","","","","","","","","","null","","1378.6000003814697","","1","0","null","null","arrowup","[0.85,0.15,0.675,0.325]","","",""
"sailing-trial","119","762138","0.0-11.0-84.0","","","","false","","","","","","","","","","586.3999996185303","","273.29999923706055","","2","0","arrowright","1","arrowleft","[0.85,0.15,0.675,0.325]","","",""
"sailing-trial","120","765624","0.0-11.0-85.0","","","","false","","","","","","","","","","null","","1202.099998474121","","0","1","null","null","arrowup","[0.85,0.15,0.675,0.325]","","",""
"sailing-trial","121","771210","0.0-11.0-86.0","","","","false","","","","","","","","","","1125.7999992370605","","445.8999996185303","","2","0","arrowright","1","arrowleft","[0.85,0.15,0.675,0.325]","","",""
"sailing-trial","122","775547","0.0-11.0-87.0","","","","false","","","","","","","","","","null","","1339.8000011444092","","1","0","null","null","arrowup","[0.85,0.15,0.675,0.325]","","",""
"sailing-trial","123","779934","0.0-11.0-88.0","","","","false","","","","","","","","","","1052.7000007629395","","124.69999885559082","","2","1","arrowright","1","arrowleft","[0.85,0.15,0.675,0.325]","","",""
"sailing-trial","124","783102","0.0-11.0-89.0","","","","false","","","","","","","","","","null","","1276.1000003814697","","2","1","null","null","arrowup","[0.85,0.15,0.675,0.325]","","",""
"sailing-trial","125","787122","0.0-11.0-90.0","","","","false","","","","","","","","","","588","","386","","2","1","arrowright","1","arrowleft","[0.675,0.325,0.85,0.15]","","",""
"sailing-trial","126","790475","0.0-11.0-91.0","","","","false","","","","","","","","","","null","","1358.5","","2","1","null","null","arrowup","[0.675,0.325,0.85,0.15]","","",""
"sailing-trial","127","794578","0.0-11.0-92.0","","","","false","","","","","","","","","","576.0999984741211","","555.3000011444092","","2","1","arrowright","1","arrowleft","[0.675,0.325,0.85,0.15]","","",""
"sailing-trial","128","798948","0.0-11.0-93.0","","","","false","","","","","","","","","","null","","1361.3999996185303","","0","0","null","null","arrowup","[0.675,0.325,0.85,0.15]","","",""
"sailing-trial","129","802931","0.0-11.0-94.0","","","","false","","","","","","","","","","561.2000007629395","","259.5","","2","1","arrowright","1","arrowleft","[0.675,0.325,0.85,0.15]","","",""
"sailing-trial","130","806486","0.0-11.0-95.0","","","","false","","","","","","","","","","null","","1777.400001525879","","2","1","null","null","arrowup","[0.675,0.325,0.85,0.15]","","",""
"sailing-trial","131","810753","0.0-11.0-96.0","","","","false","","","","","","","","","","683.1000003814697","","303.5999984741211","","2","1","arrowright","1","arrowleft","[0.675,0.325,0.85,0.15]","","",""
"sailing-trial","132","814072","0.0-11.0-97.0","","","","false","","","","","","","","","","null","","1346.099998474121","","0","1","null","null","arrowup","[0.675,0.325,0.85,0.15]","","",""
"sailing-trial","133","818393","0.0-11.0-98.0","","","","false","","","","","","","","","","647","","278.5","","2","1","arrowright","1","arrowleft","[0.675,0.325,0.85,0.15]","","",""
"sailing-trial","134","823078","0.0-11.0-99.0","","","","false","","","","","","","","","","null","","1685.6000003814697","","3","0","null","null","arrowup","[0.675,0.325,0.85,0.15]","","",""
"sailing-trial","135","827099","0.0-11.0-100.0","","","","false","","","","","","","","","","652.4000015258789","","173","","2","1","arrowright","1","arrowleft","[0.675,0.325,0.85,0.15]","","",""
"sailing-trial","136","829867","0.0-11.0-101.0","","","","false","","","","","","","","","","null","","1039.3000011444092","","2","1","null","null","arrowup","[0.675,0.325,0.85,0.15]","","",""
"sailing-trial","137","834137","0.0-11.0-102.0","","","","false","","","","","","","","","","712","","648.3000011444092","","2","1","arrowright","1","arrowleft","[0.675,0.325,0.85,0.15]","","",""
"sailing-trial","138","837156","0.0-11.0-103.0","","","","false","","","","","","","","","","null","","1131","","1","1","null","null","arrowup","[0.675,0.325,0.85,0.15]","","",""
"sailing-trial","139","841275","0.0-11.0-104.0","","","","false","","","","","","","","","","813.7999992370605","","88.89999961853027","","2","1","arrowright","1","arrowleft","[0.675,0.325,0.85,0.15]","","",""
"sailing-trial","140","844227","0.0-11.0-105.0","","","","false","","","","","","","","","","null","","1163.400001525879","","2","1","null","null","arrowup","[0.675,0.325,0.85,0.15]","","",""
"sailing-trial","141","849065","0.0-11.0-106.0","","","","false","","","","","","","","","","1462.7000007629395","","547.4000015258789","","2","1","arrowright","1","arrowleft","[0.675,0.325,0.85,0.15]","","",""
"sailing-trial","142","854403","0.0-11.0-107.0","","","","false","","","","","","","","","","null","","2334.2999992370605","","1","0","null","null","arrowup","[0.675,0.325,0.85,0.15]","","",""
"sailing-trial","143","858636","0.0-11.0-108.0","","","","false","","","","","","","","","","706.2000007629395","","591.8000011444092","","2","1","arrowright","1","arrowleft","[0.85,0.15,0.675,0.325]","","",""
"sailing-trial","144","861971","0.0-11.0-109.0","","","","false","","","","","","","","","","null","","1413.099998474121","","0","1","null","null","arrowup","[0.85,0.15,0.675,0.325]","","",""
"sailing-trial","145","866342","0.0-11.0-110.0","","","","false","","","","","","","","","","856.7999992370605","","508.79999923706055","","2","1","arrowright","1","arrowleft","[0.85,0.15,0.675,0.325]","","",""
"sailing-trial","146","869811","0.0-11.0-111.0","","","","false","","","","","","","","","","null","","1646.7000007629395","","2","1","null","null","arrowup","[0.85,0.15,0.675,0.325]","","",""
"sailing-trial","147","874813","0.0-11.0-112.0","","","","false","","","","","","","","","","717.1000003814697","","283.5999984741211","","2","0","arrowright","1","arrowleft","[0.85,0.15,0.675,0.325]","","",""
"sailing-trial","148","879184","0.0-11.0-113.0","","","","false","","","","","","","","","","null","","1345.2000007629395","","1","0","null","null","arrowup","[0.85,0.15,0.675,0.325]","","",""
"sailing-trial","149","884504","0.0-11.0-114.0","","","","false","","","","","","","","","","995","","1040.8999996185303","","2","1","arrowright","1","arrowleft","[0.85,0.15,0.675,0.325]","","",""
"sailing-trial","150","887242","0.0-11.0-115.0","","","","false","","","","","","","","","","null","","1234.900001525879","","1","0","null","null","arrowup","[0.85,0.15,0.675,0.325]","","",""
"sailing-trial","151","892426","0.0-11.0-116.0","","","","false","","","","","","","","","","656.1000003814697","","391.3999996185303","","2","1","arrowright","1","arrowleft","[0.85,0.15,0.675,0.325]","","",""
"sailing-trial","152","895845","0.0-11.0-117.0","","","","false","","","","","","","","","","null","","1533.5","","0","1","null","null","arrowup","[0.85,0.15,0.675,0.325]","","",""
"sailing-trial","153","901049","0.0-11.0-118.0","","","","false","","","","","","","","","","1062.8999996185303","","459.29999923706055","","2","1","arrowright","1","arrowleft","[0.85,0.15,0.675,0.325]","","",""
"sailing-trial","154","905184","0.0-11.0-119.0","","","","false","","","","","","","","","","null","","1129.7999992370605","","1","0","null","null","arrowup","[0.85,0.15,0.675,0.325]","","",""
"sailing-trial","155","909421","0.0-11.0-120.0","","","","false","","","","","","","","","","884.3999996185303","","322.5999984741211","","2","1","arrowright","1","arrowleft","[0.85,0.15,0.675,0.325]","","",""
"sailing-trial","156","913691","0.0-11.0-121.0","","","","false","","","","","","","","","","null","","2167.1000003814697","","0","1","null","null","arrowup","[0.85,0.15,0.675,0.325]","","",""
"sailing-trial","157","918544","0.0-11.0-122.0","","","","false","","","","","","","","","","1127.8999996185303","","493.1000003814697","","2","1","arrowright","1","arrowleft","[0.85,0.15,0.675,0.325]","","",""
"sailing-trial","158","922763","0.0-11.0-123.0","","","","false","","","","","","","","","","null","","1194.3999996185303","","2","0","null","null","arrowup","[0.85,0.15,0.675,0.325]","","",""
"sailing-trial","159","928001","0.0-11.0-124.0","","","","false","","","","","","","","","","936.1000003814697","","303.3999996185303","","2","0","arrowright","1","arrowleft","[0.325,0.675,0.15,0.85]","","",""
"sailing-trial","160","931253","0.0-11.0-125.0","","","","false","","","","","","","","","","null","","1397.1000003814697","","1","1","null","null","arrowup","[0.325,0.675,0.15,0.85]","","",""
"sailing-trial","161","936322","0.0-11.0-126.0","","","","false","","","","","","","","","","586.2000007629395","","478.8000011444092","","2","0","arrowright","1","arrowleft","[0.325,0.675,0.15,0.85]","","",""
"sailing-trial","162","940476","0.0-11.0-127.0","","","","false","","","","","","","","","","null","","1146.7999992370605","","2","0","null","null","arrowup","[0.325,0.675,0.15,0.85]","","",""
"sailing-trial","163","945362","0.0-11.0-128.0","","","","false","","","","","","","","","","453.0999984741211","","408.79999923706055","","3","0","arrowright","1","arrowright","[0.325,0.675,0.15,0.85]","","",""
"sailing-trial","164","948565","0.0-11.0-129.0","","","","false","","","","","","","","","","null","","1226.599998474121","","1","1","null","null","arrowup","[0.325,0.675,0.15,0.85]","","",""
"sailing-trial","165","952436","0.0-11.0-130.0","","","","false","","","","","","","","","","794.1999988555908","","82.70000076293945","","1","1","arrowleft","0","arrowright","[0.325,0.675,0.15,0.85]","","",""
"sailing-trial","166","955619","0.0-11.0-131.0","","","","false","","","","","","","","","","null","","1233.1000003814697","","0","1","null","null","arrowup","[0.325,0.675,0.15,0.85]","","",""
"sailing-trial","167","960689","0.0-11.0-132.0","","","","false","","","","","","","","","","579.5999984741211","","447.6000003814697","","1","0","arrowleft","0","arrowright","[0.325,0.675,0.15,0.85]","","",""
"sailing-trial","168","964859","0.0-11.0-133.0","","","","false","","","","","","","","","","null","","1170.099998474121","","0","0","null","null","arrowup","[0.325,0.675,0.15,0.85]","","",""
"sailing-trial","169","970680","0.0-11.0-134.0","","","","false","","","","","","","","","","879","","938.5999984741211","","1","0","arrowleft","0","arrowright","[0.325,0.675,0.15,0.85]","","",""
"sailing-trial","170","973616","0.0-11.0-135.0","","","","false","","","","","","","","","","null","","1089.5","","3","1","null","null","arrowup","[0.325,0.675,0.15,0.85]","","",""
"sailing-trial","171","977835","0.0-11.0-136.0","","","","false","","","","","","","","","","1182.7999992370605","","29","","3","1","arrowright","1","arrowright","[0.325,0.675,0.15,0.85]","","",""
"sailing-trial","172","982004","0.0-11.0-137.0","","","","false","","","","","","","","","","null","","1162.5","","2","0","null","null","arrowup","[0.325,0.675,0.15,0.85]","","",""
"sailing-trial","173","985908","0.0-11.0-138.0","","","","false","","","","","","","","","","744.1000003814697","","110.10000038146973","","3","1","arrowright","1","arrowright","[0.325,0.675,0.15,0.85]","","",""
"sailing-trial","174","988895","0.0-11.0-139.0","","","","false","","","","","","","","","","null","","1100.7000007629395","","3","1","null","null","arrowup","[0.325,0.675,0.15,0.85]","","",""
"sailing-trial","175","993495","0.0-11.0-140.0","","","","false","","","","","","","","","","1233.8999996185303","","394.20000076293945","","3","1","arrowright","1","arrowright","[0.15,0.85,0.325,0.675]","","",""
"sailing-trial","176","997315","0.0-11.0-141.0","","","","false","","","","","","","","","","null","","1863.7000007629395","","0","1","null","null","arrowup","[0.15,0.85,0.325,0.675]","","",""
"sailing-trial","177","1002151","0.0-11.0-142.0","","","","false","","","","","","","","","","1183.1999988555908","","102.5","","3","1","arrowright","1","arrowright","[0.15,0.85,0.325,0.675]","","",""
"sailing-trial","178","1007272","0.0-11.0-143.0","","","","false","","","","","","","","","","null","","2117.2000007629395","","2","0","null","null","arrowup","[0.15,0.85,0.325,0.675]","","",""
"sailing-trial","179","1012142","0.0-11.0-144.0","","","","false","","","","","","","","","","586.7999992370605","","1026","","3","1","arrowright","1","arrowright","[0.15,0.85,0.325,0.675]","","",""
"sailing-trial","180","1016396","0.0-11.0-145.0","","","","false","","","","","","","","","","null","","1247.2000007629395","","2","0","null","null","arrowup","[0.15,0.85,0.325,0.675]","","",""
"sailing-trial","181","1020463","0.0-11.0-146.0","","","","false","","","","","","","","","","762.7000007629395","","218.9000015258789","","3","1","arrowright","1","arrowright","[0.15,0.85,0.325,0.675]","","",""
"sailing-trial","182","1023533","0.0-11.0-147.0","","","","false","","","","","","","","","","null","","1055.7000007629395","","1","1","null","null","arrowup","[0.15,0.85,0.325,0.675]","","",""
"sailing-trial","183","1028154","0.0-11.0-148.0","","","","false","","","","","","","","","","777.3999996185303","","864.6999988555908","","3","1","arrowright","1","arrowright","[0.15,0.85,0.325,0.675]","","",""
"sailing-trial","184","1031889","0.0-11.0-149.0","","","","false","","","","","","","","","","null","","1525.099998474121","","3","1","null","null","arrowup","[0.15,0.85,0.325,0.675]","","",""
"sailing-trial","185","1036691","0.0-11.0-150.0","","","","false","","","","","","","","","","761.3999996185303","","1039.7999992370605","","3","1","arrowright","1","arrowright","[0.15,0.85,0.325,0.675]","","",""
"sailing-trial","186","1039728","0.0-11.0-151.0","","","","false","","","","","","","","","","null","","1066.7999992370605","","1","1","null","null","arrowup","[0.15,0.85,0.325,0.675]","","",""
"sailing-trial","187","1044781","0.0-11.0-152.0","","","","false","","","","","","","","","","821.6000003814697","","221","","3","0","arrowright","1","arrowright","[0.15,0.85,0.325,0.675]","","",""
"sailing-trial","188","1047966","0.0-11.0-153.0","","","","false","","","","","","","","","","null","","1178.3999996185303","","3","1","null","null","arrowup","[0.15,0.85,0.325,0.675]","","",""
"sailing-trial","189","1053318","0.0-11.0-154.0","","","","false","","","","","","","","","","1072.2999992370605","","288.8999996185303","","3","0","arrowright","1","arrowright","[0.15,0.85,0.325,0.675]","","",""
"sailing-trial","190","1057605","0.0-11.0-155.0","","","","false","","","","","","","","","","null","","1281.6000003814697","","0","0","null","null","arrowup","[0.15,0.85,0.325,0.675]","","",""
"sailing-trial","191","1063092","0.0-11.0-156.0","","","","false","","","","","","","","","","1093.900001525879","","395.79999923706055","","3","0","arrowright","1","arrowright","[0.15,0.85,0.325,0.675]","","",""
"sailing-trial","192","1066995","0.0-11.0-157.0","","","","false","","","","","","","","","","null","","1176.5","","3","1","null","null","arrowup","[0.15,0.85,0.325,0.675]","","",""
"sailing-trial","193","1071832","0.0-11.0-158.0","","","","false","","","","","","","","","","793.7999992370605","","25.30000114440918","","0","0","arrowleft","0","arrowleft","[0.15,0.85,0.325,0.675]","","",""
"sailing-trial","194","1075985","0.0-11.0-159.0","","","","false","","","","","","","","","","null","","1157.3000011444092","","2","0","null","null","arrowup","[0.15,0.85,0.325,0.675]","","",""
"sailing-trial","195","1081139","0.0-11.0-160.0","","","","false","","","","","","","","","","1314.3999996185303","","168.60000038146973","","1","1","arrowleft","0","arrowright","[0.675,0.325,0.85,0.15]","","",""
"sailing-trial","196","1086375","0.0-11.0-161.0","","","","false","","","","","","","","","","null","","2229.5","","1","0","null","null","arrowup","[0.675,0.325,0.85,0.15]","","",""
"sailing-trial","197","1091996","0.0-11.0-162.0","","","","false","","","","","","","","","","1124.2000007629395","","482.5","","1","0","arrowleft","0","arrowright","[0.675,0.325,0.85,0.15]","","",""
"sailing-trial","198","1095915","0.0-11.0-163.0","","","","false","","","","","","","","","","null","","912.7999992370605","","3","0","null","null","arrowup","[0.675,0.325,0.85,0.15]","","",""
"sailing-trial","199","1101869","0.0-11.0-164.0","","","","false","","","","","","","","","","1124.3000011444092","","1110","","2","1","arrowright","1","arrowleft","[0.675,0.325,0.85,0.15]","","",""
"sailing-trial","200","1105106","0.0-11.0-165.0","","","","false","","","","","","","","","","null","","1069.5","","1","1","null","null","arrowup","[0.675,0.325,0.85,0.15]","","",""
"sailing-trial","201","1109574","0.0-11.0-166.0","","","","false","","","","","","","","","","1063.3999996185303","","569.1000003814697","","2","1","arrowright","1","arrowleft","[0.675,0.325,0.85,0.15]","","",""
"sailing-trial","202","1113880","0.0-11.0-167.0","","","","false","","","","","","","","","","null","","1304.6999988555908","","3","0","null","null","arrowup","[0.675,0.325,0.85,0.15]","","",""
"sailing-trial","203","1119332","0.0-11.0-168.0","","","","false","","","","","","","","","","628","","819.3999996185303","","2","0","arrowright","1","arrowleft","[0.675,0.325,0.85,0.15]","","",""
"sailing-trial","204","1123802","0.0-11.0-169.0","","","","false","","","","","","","","","","null","","1456.3999996185303","","3","0","null","null","arrowup","[0.675,0.325,0.85,0.15]","","",""
"sailing-trial","205","1128520","0.0-11.0-170.0","","","","false","","","","","","","","","","536.3999996185303","","153.29999923706055","","1","0","arrowleft","0","arrowright","[0.675,0.325,0.85,0.15]","","",""
"sailing-trial","206","1132726","0.0-11.0-171.0","","","","false","","","","","","","","","","null","","1208.2999992370605","","3","0","null","null","arrowup","[0.675,0.325,0.85,0.15]","","",""
"sailing-trial","207","1137506","0.0-11.0-172.0","","","","false","","","","","","","","","","372.3999996185303","","385.70000076293945","","0","0","arrowleft","0","arrowleft","[0.675,0.325,0.85,0.15]","","",""
"sailing-trial","208","1141462","0.0-11.0-173.0","","","","false","","","","","","","","","","null","","963.1000003814697","","1","0","null","null","arrowup","[0.675,0.325,0.85,0.15]","","",""
"sailing-trial","209","1147251","0.0-11.0-174.0","","","","false","","","","","","","","","","917.1000003814697","","491.3999996185303","","2","1","arrowright","1","arrowleft","[0.675,0.325,0.85,0.15]","","",""
"sailing-trial","210","1151304","0.0-11.0-175.0","","","","false","","","","","","","","","","null","","1718.1000003814697","","2","1","null","null","arrowup","[0.675,0.325,0.85,0.15]","","",""
"sailing-trial","211","1159909","0.0-11.0-176.0","","","","false","","","","","","","","","","725.8999996185303","","4191","","2","1","arrowright","1","arrowleft","[0.675,0.325,0.85,0.15]","","",""
"sailing-trial","212","1163928","0.0-11.0-177.0","","","","false","","","","","","","","","","null","","1018.2000007629395","","0","0","null","null","arrowup","[0.675,0.325,0.85,0.15]","","",""
"sailing-trial","213","1168664","0.0-11.0-178.0","","","","false","","","","","","","","","","670.6000003814697","","66.60000038146973","","2","0","arrowright","1","arrowleft","[0.325,0.675,0.15,0.85]","","",""
"sailing-trial","214","1172684","0.0-11.0-179.0","","","","false","","","","","","","","","","null","","1024.8999996185303","","2","0","null","null","arrowup","[0.325,0.675,0.15,0.85]","","",""
"sailing-trial","215","1177682","0.0-11.0-180.0","","","","false","","","","","","","","","","864.6999988555908","","600.2000007629395","","2","0","arrowright","1","arrowleft","[0.325,0.675,0.15,0.85]","","",""
"sailing-trial","216","1181624","0.0-11.0-181.0","","","","false","","","","","","","","","","null","","945.8000011444092","","3","0","null","null","arrowup","[0.325,0.675,0.15,0.85]","","",""
"sailing-trial","217","1186744","0.0-11.0-182.0","","","","false","","","","","","","","","","1005.3000011444092","","66.60000038146973","","0","0","arrowleft","0","arrowleft","[0.325,0.675,0.15,0.85]","","",""
"sailing-trial","218","1191114","0.0-11.0-183.0","","","","false","","","","","","","","","","null","","1373.7999992370605","","2","0","null","null","arrowup","[0.325,0.675,0.15,0.85]","","",""
"sailing-trial","219","1196069","0.0-11.0-184.0","","","","false","","","","","","","","","","634.0999984741211","","324.3999996185303","","1","0","arrowleft","0","arrowright","[0.325,0.675,0.15,0.85]","","",""
"sailing-trial","220","1199603","0.0-11.0-185.0","","","","false","","","","","","","","","","null","","1038.7000007629395","","3","1","null","null","arrowup","[0.325,0.675,0.15,0.85]","","",""
"sailing-trial","221","1204523","0.0-11.0-186.0","","","","false","","","","","","","","","","1025.2000007629395","","14","","3","1","arrowright","1","arrowright","[0.325,0.675,0.15,0.85]","","",""
"sailing-trial","222","1209293","0.0-11.0-187.0","","","","false","","","","","","","","","","null","","1775.1999988555908","","0","0","null","null","arrowup","[0.325,0.675,0.15,0.85]","","",""
"sailing-trial","223","1214263","0.0-11.0-188.0","","","","false","","","","","","","","","","775.6000003814697","","541.6000003814697","","3","1","arrowright","1","arrowright","[0.325,0.675,0.15,0.85]","","",""
"sailing-trial","224","1217582","0.0-11.0-189.0","","","","false","","","","","","","","","","null","","1395.7000007629395","","3","1","null","null","arrowup","[0.325,0.675,0.15,0.85]","","",""
"sailing-trial","225","1222002","0.0-11.0-190.0","","","","false","","","","","","","","","","726.7999992370605","","515.6999988555908","","3","1","arrowright","1","arrowright","[0.325,0.675,0.15,0.85]","","",""
"sailing-trial","226","1226438","0.0-11.0-191.0","","","","false","","","","","","","","","","null","","1436.5","","0","0","null","null","arrowup","[0.325,0.675,0.15,0.85]","","",""
"sailing-trial","227","1232025","0.0-11.0-192.0","","","","false","","","","","","","","","","790.6000003814697","","799.8000011444092","","3","0","arrowright","1","arrowright","[0.325,0.675,0.15,0.85]","","",""
"sailing-trial","228","1235811","0.0-11.0-193.0","","","","false","","","","","","","","","","null","","1753.5","","1","1","null","null","arrowup","[0.325,0.675,0.15,0.85]","","",""
"sailing-trial","229","1240297","0.0-11.0-194.0","","","","false","","","","","","","","","","1177.5","","283","","1","1","arrowleft","0","arrowright","[0.15,0.85,0.325,0.675]","","",""
"sailing-trial","230","1243616","0.0-11.0-195.0","","","","false","","","","","","","","","","null","","1091","","1","1","null","null","arrowup","[0.15,0.85,0.325,0.675]","","",""
"sailing-trial","231","1247903","0.0-11.0-196.0","","","","false","","","","","","","","","","1082.400001525879","","200","","1","1","arrowleft","0","arrowright","[0.15,0.85,0.325,0.675]","","",""
"sailing-trial","232","1252339","0.0-11.0-197.0","","","","false","","","","","","","","","","null","","1426","","2","0","null","null","arrowup","[0.15,0.85,0.325,0.675]","","",""
"sailing-trial","233","1257293","0.0-11.0-198.0","","","","false","","","","","","","","","","840.3000011444092","","345.3999996185303","","1","1","arrowleft","0","arrowright","[0.15,0.85,0.325,0.675]","","",""
"sailing-trial","234","1261779","0.0-11.0-199.0","","","","false","","","","","","","","","","null","","1485.5","","2","0","null","null","arrowup","[0.15,0.85,0.325,0.675]","","",""
"sailing-trial","235","1266082","0.0-11.0-200.0","","","","false","","","","","","","","","","1249.3000011444092","","11.399999618530273","","1","1","arrowleft","0","arrowright","[0.15,0.85,0.325,0.675]","","",""
"sailing-trial","236","1270219","0.0-11.0-201.0","","","","false","","","","","","","","","","null","","1136.400001525879","","2","0","null","null","arrowup","[0.15,0.85,0.325,0.675]","","",""
"sailing-trial","237","1273870","0.0-11.0-202.0","","","","false","","","","","","","","","","639.7999992370605","","49.80000114440918","","1","1","arrowleft","0","arrowright","[0.15,0.85,0.325,0.675]","","",""
"sailing-trial","238","1278739","0.0-11.0-203.0","","","","false","","","","","","","","","","null","","1848.7000007629395","","2","0","null","null","arrowup","[0.15,0.85,0.325,0.675]","","",""
"sailing-trial","239","1282594","0.0-11.0-204.0","","","","false","","","","","","","","","","668.1999988555908","","173.5","","1","1","arrowleft","0","arrowright","[0.15,0.85,0.325,0.675]","","",""
"sailing-trial","240","1287012","0.0-11.0-205.0","","","","false","","","","","","","","","","null","","2245.400001525879","","3","1","null","null","arrowup","[0.15,0.85,0.325,0.675]","","",""
"sailing-trial","241","1291114","0.0-11.0-206.0","","","","false","","","","","","","","","","605.7000007629395","","452","","1","1","arrowleft","0","arrowright","[0.15,0.85,0.325,0.675]","","",""
"sailing-trial","242","1294517","0.0-11.0-207.0","","","","false","","","","","","","","","","null","","1413.3999996185303","","2","1","null","null","arrowup","[0.15,0.85,0.325,0.675]","","",""
"sailing-trial","243","1298422","0.0-11.0-208.0","","","","false","","","","","","","","","","734.3999996185303","","1.3000011444091797","","1","1","arrowleft","0","arrowright","[0.15,0.85,0.325,0.675]","","",""
"sailing-trial","244","1301439","0.0-11.0-209.0","","","","false","","","","","","","","","","null","","1085.3999996185303","","1","1","null","null","arrowup","[0.15,0.85,0.325,0.675]","","",""
"sailing-trial","245","1305926","0.0-11.0-210.0","","","","false","","","","","","","","","","1110.1000003814697","","171.10000038146973","","1","1","arrowleft","0","arrowright","[0.325,0.675,0.15,0.85]","","",""
"sailing-trial","246","1310429","0.0-11.0-211.0","","","","false","","","","","","","","","","null","","1492.6000003814697","","2","0","null","null","arrowup","[0.325,0.675,0.15,0.85]","","",""
"sailing-trial","247","1314047","0.0-11.0-212.0","","","","false","","","","","","","","","","518.8999996185303","","155.10000038146973","","1","1","arrowleft","0","arrowright","[0.325,0.675,0.15,0.85]","","",""
"sailing-trial","248","1317434","0.0-11.0-213.0","","","","false","","","","","","","","","","null","","1459.8999996185303","","3","1","null","null","arrowup","[0.325,0.675,0.15,0.85]","","",""
"sailing-trial","249","1322920","0.0-11.0-214.0","","","","false","","","","","","","","","","1105.1000003814697","","387","","1","0","arrowleft","0","arrowright","[0.325,0.675,0.15,0.85]","","",""
"sailing-trial","250","1325873","0.0-11.0-215.0","","","","false","","","","","","","","","","null","","967.3999996185303","","3","1","null","null","arrowup","[0.325,0.675,0.15,0.85]","","",""
"sailing-trial","251","1330612","0.0-11.0-216.0","","","","false","","","","","","","","","","1375.6999988555908","","50.20000076293945","","1","1","arrowleft","0","arrowright","[0.325,0.675,0.15,0.85]","","",""
"sailing-trial","252","1333895","0.0-11.0-217.0","","","","false","","","","","","","","","","null","","1356","","1","1","null","null","arrowup","[0.325,0.675,0.15,0.85]","","",""
"sailing-trial","253","1338549","0.0-11.0-218.0","","","","false","","","","","","","","","","734.8999996185303","","652.3999996185303","","3","1","arrowright","1","arrowright","[0.325,0.675,0.15,0.85]","","",""
"sailing-trial","254","1342686","0.0-11.0-219.0","","","","false","","","","","","","","","","null","","1129.5","","0","0","null","null","arrowup","[0.325,0.675,0.15,0.85]","","",""
"sailing-trial","255","1347273","0.0-11.0-220.0","","","","false","","","","","","","","","","983.2000007629395","","752.7999992370605","","1","1","arrowleft","0","arrowright","[0.325,0.675,0.15,0.85]","","",""
"sailing-trial","256","1350357","0.0-11.0-221.0","","","","false","","","","","","","","","","null","","1166.599998474121","","3","1","null","null","arrowup","[0.325,0.675,0.15,0.85]","","",""
"sailing-trial","257","1355093","0.0-11.0-222.0","","","","false","","","","","","","","","","1442.2999992370605","","175","","1","1","arrowleft","0","arrowright","[0.325,0.675,0.15,0.85]","","",""
"sailing-trial","258","1359215","0.0-11.0-223.0","","","","false","","","","","","","","","","null","","1125.5","","0","0","null","null","arrowup","[0.325,0.675,0.15,0.85]","","",""
"sailing-trial","259","1365667","0.0-11.0-224.0","","","","false","","","","","","","","","","1503.400001525879","","958.7000007629395","","1","0","arrowleft","0","arrowright","[0.325,0.675,0.15,0.85]","","",""
"sailing-trial","260","1370869","0.0-11.0-225.0","","","","false","","","","","","","","","","null","","2193.2999992370605","","1","0","null","null","arrowup","[0.325,0.675,0.15,0.85]","","",""
"sailing-trial","261","1374606","0.0-11.0-226.0","","","","false","","","","","","","","","","710","","20.899999618530273","","3","1","arrowright","1","arrowright","[0.15,0.85,0.325,0.675]","","",""
"sailing-trial","262","1377942","0.0-11.0-227.0","","","","false","","","","","","","","","","null","","1253.400001525879","","1","1","null","null","arrowup","[0.15,0.85,0.325,0.675]","","",""
"sailing-trial","263","1382981","0.0-11.0-228.0","","","","false","","","","","","","","","","887.8999996185303","","146.20000076293945","","3","0","arrowright","1","arrowright","[0.15,0.85,0.325,0.675]","","",""
"sailing-trial","264","1386014","0.0-11.0-229.0","","","","false","","","","","","","","","","null","","938.2000007629395","","1","1","null","null","arrowup","[0.15,0.85,0.325,0.675]","","",""
"sailing-trial","265","1390568","0.0-11.0-230.0","","","","false","","","","","","","","","","706.1999988555908","","858.3000011444092","","3","1","arrowright","1","arrowright","[0.15,0.85,0.325,0.675]","","",""
"sailing-trial","266","1395304","0.0-11.0-231.0","","","","false","","","","","","","","","","null","","1741.3000011444092","","0","0","null","null","arrowup","[0.15,0.85,0.325,0.675]","","",""
"sailing-trial","267","1400157","0.0-11.0-232.0","","","","false","","","","","","","","","","785.3999996185303","","64","","3","0","arrowright","1","arrowright","[0.15,0.85,0.325,0.675]","","",""
"sailing-trial","268","1403442","0.0-11.0-233.0","","","","false","","","","","","","","","","null","","1433","","3","1","null","null","arrowup","[0.15,0.85,0.325,0.675]","","",""
"sailing-trial","269","1410815","0.0-11.0-234.0","","","","false","","","","","","","","","","1666.7000007629395","","1681","","3","0","arrowright","1","arrowright","[0.15,0.85,0.325,0.675]","","",""
"sailing-trial","270","1414617","0.0-11.0-235.0","","","","false","","","","","","","","","","null","","1524.1000003814697","","2","1","null","null","arrowup","[0.15,0.85,0.325,0.675]","","",""
"sailing-trial","271","1419872","0.0-11.0-236.0","","","","false","","","","","","","","","","1121.8999996185303","","97.5","","2","0","arrowright","1","arrowleft","[0.15,0.85,0.325,0.675]","","",""
"sailing-trial","272","1424691","0.0-11.0-237.0","","","","false","","","","","","","","","","null","","1816","","2","0","null","null","arrowup","[0.15,0.85,0.325,0.675]","","",""
"sailing-trial","273","1431279","0.0-11.0-238.0","","","","false","","","","","","","","","","668.8000011444092","","1881.1999988555908","","0","0","arrowleft","0","arrowleft","[0.15,0.85,0.325,0.675]","","",""
"sailing-trial","274","1435398","0.0-11.0-239.0","","","","false","","","","","","","","","","null","","1060.2999992370605","","0","0","null","null","arrowup","[0.15,0.85,0.325,0.675]","","",""
"sailing-trial","275","1439118","0.0-11.0-240.0","","","","false","","","","","","","","","","721.7000007629395","","76.70000076293945","","1","1","arrowleft","0","arrowright","[0.15,0.85,0.325,0.675]","","",""
"sailing-trial","276","1442119","0.0-11.0-241.0","","","","false","","","","","","","","","","null","","1030.5","","1","1","null","null","arrowup","[0.15,0.85,0.325,0.675]","","",""
"sailing-trial","277","1447174","0.0-11.0-242.0","","","","false","","","","","","","","","","980.2999992370605","","1158.7999992370605","","1","1","arrowleft","0","arrowright","[0.15,0.85,0.325,0.675]","","",""
"sailing-trial","278","1450625","0.0-11.0-243.0","","","","false","","","","","","","","","","null","","1526.1000003814697","","1","1","null","null","arrowup","[0.15,0.85,0.325,0.675]","","",""
"sailing-trial","279","1455062","0.0-11.0-244.0","","","","false","","","","","","","","","","684","","173.30000114440918","","1","1","arrowleft","0","arrowright","[0.15,0.85,0.325,0.675]","","",""
"sailing-trial","280","1459415","0.0-11.0-245.0","","","","false","","","","","","","","","","null","","1347.7999992370605","","3","0","null","null","arrowup","[0.15,0.85,0.325,0.675]","","",""
"sailing-trial","281","1463033","0.0-11.0-246.0","","","","false","","","","","","","","","","633.7000007629395","","123.70000076293945","","1","1","arrowleft","0","arrowright","[0.15,0.85,0.325,0.675]","","",""
"sailing-trial","282","1466435","0.0-11.0-247.0","","","","false","","","","","","","","","","null","","1225.1000003814697","","1","1","null","null","arrowup","[0.15,0.85,0.325,0.675]","","",""
"sailing-trial","283","1471022","0.0-11.0-248.0","","","","false","","","","","","","","","","864.1000003814697","","539.1000003814697","","1","1","arrowleft","0","arrowright","[0.15,0.85,0.325,0.675]","","",""
"sailing-trial","284","1475241","0.0-11.0-249.0","","","","false","","","","","","","","","","null","","1215.2999992370605","","3","0","null","null","arrowup","[0.15,0.85,0.325,0.675]","","",""
"sailing-trial","285","1479980","0.0-11.0-250.0","","","","false","","","","","","","","","","617.2000007629395","","112.5","","1","0","arrowleft","0","arrowright","[0.85,0.15,0.675,0.325]","","",""
"sailing-trial","286","1483030","0.0-11.0-251.0","","","","false","","","","","","","","","","null","","979.5999984741211","","3","1","null","null","arrowup","[0.85,0.15,0.675,0.325]","","",""
"sailing-trial","287","1488167","0.0-11.0-252.0","","","","false","","","","","","","","","","808","","307.79999923706055","","3","0","arrowright","1","arrowright","[0.85,0.15,0.675,0.325]","","",""
"sailing-trial","288","1491404","0.0-11.0-253.0","","","","false","","","","","","","","","","null","","1311.2000007629395","","1","1","null","null","arrowup","[0.85,0.15,0.675,0.325]","","",""
"sailing-trial","289","1497853","0.0-11.0-254.0","","","","false","","","","","","","","","","1604.599998474121","","837.7000007629395","","2","0","arrowright","1","arrowleft","[0.85,0.15,0.675,0.325]","","",""
"sailing-trial","290","1502161","0.0-11.0-255.0","","","","false","","","","","","","","","","null","","1304.6000003814697","","3","0","null","null","arrowup","[0.85,0.15,0.675,0.325]","","",""
"sailing-trial","291","1506846","0.0-11.0-256.0","","","","false","","","","","","","","","","787.3999996185303","","848.3000011444092","","0","1","arrowleft","0","arrowleft","[0.85,0.15,0.675,0.325]","","",""
"sailing-trial","292","1510815","0.0-11.0-257.0","","","","false","","","","","","","","","","null","","962.6000003814697","","3","0","null","null","arrowup","[0.85,0.15,0.675,0.325]","","",""
"sailing-trial","293","1514669","0.0-11.0-258.0","","","","false","","","","","","","","","","613.2999992370605","","148.89999961853027","","0","1","arrowleft","0","arrowleft","[0.85,0.15,0.675,0.325]","","",""
"sailing-trial","294","1518071","0.0-11.0-259.0","","","","false","","","","","","","","","","null","","1539.8000011444092","","0","1","null","null","arrowup","[0.85,0.15,0.675,0.325]","","",""
"sailing-trial","295","1523708","0.0-11.0-260.0","","","","false","","","","","","","","","","1217.6000003814697","","1582.5","","0","1","arrowleft","0","arrowleft","[0.85,0.15,0.675,0.325]","","",""
"sailing-trial","296","1527896","0.0-11.0-261.0","","","","false","","","","","","","","","","null","","1190.1000003814697","","1","0","null","null","arrowup","[0.85,0.15,0.675,0.325]","","",""
"sailing-trial","297","1532514","0.0-11.0-262.0","","","","false","","","","","","","","","","702.2000007629395","","904.1000003814697","","0","1","arrowleft","0","arrowleft","[0.85,0.15,0.675,0.325]","","",""
"sailing-trial","298","1536784","0.0-11.0-263.0","","","","false","","","","","","","","","","null","","1264.5","","3","0","null","null","arrowup","[0.85,0.15,0.675,0.325]","","",""
"sailing-trial","299","1541553","0.0-11.0-264.0","","","","false","","","","","","","","","","1243.8999996185303","","410.8000011444092","","0","1","arrowleft","0","arrowleft","[0.85,0.15,0.675,0.325]","","",""
"sailing-trial","300","1544840","0.0-11.0-265.0","","","","false","","","","","","","","","","null","","1474.5","","0","1","null","null","arrowup","[0.85,0.15,0.675,0.325]","","",""
"sailing-trial","301","1550027","0.0-11.0-266.0","","","","false","","","","","","","","","","1388.3999996185303","","967.7999992370605","","0","1","arrowleft","0","arrowleft","[0.85,0.15,0.675,0.325]","","",""
"sailing-trial","302","1554380","0.0-11.0-267.0","","","","false","","","","","","","","","","null","","1342","","3","0","null","null","arrowup","[0.85,0.15,0.675,0.325]","","",""
"sailing-trial","303","1558482","0.0-11.0-268.0","","","","false","","","","","","","","","","718.0999984741211","","444.8000011444092","","0","1","arrowleft","0","arrowleft","[0.85,0.15,0.675,0.325]","","",""
"sailing-trial","304","1561534","0.0-11.0-269.0","","","","false","","","","","","","","","","null","","1066.1000003814697","","3","1","null","null","arrowup","[0.85,0.15,0.675,0.325]","","",""
"sailing-trial","305","1565470","0.0-11.0-270.0","","","","false","","","","","","","","","","954.3999996185303","","39.5","","0","1","arrowleft","0","arrowleft","[0.15,0.85,0.325,0.675]","","",""
"sailing-trial","306","1568305","0.0-11.0-271.0","","","","false","","","","","","","","","","null","","1028.8999996185303","","3","1","null","null","arrowup","[0.15,0.85,0.325,0.675]","","",""
"sailing-trial","307","1575276","0.0-11.0-272.0","","","","false","","","","","","","","","","1773.900001525879","","1208","","0","0","arrowleft","0","arrowleft","[0.15,0.85,0.325,0.675]","","",""
"sailing-trial","308","1579749","0.0-11.0-273.0","","","","false","","","","","","","","","","null","","1472.7000007629395","","2","0","null","null","arrowup","[0.15,0.85,0.325,0.675]","","",""
"sailing-trial","309","1584800","0.0-11.0-274.0","","","","false","","","","","","","","","","979","","60.70000076293945","","1","0","arrowleft","0","arrowright","[0.15,0.85,0.325,0.675]","","",""
"sailing-trial","310","1588169","0.0-11.0-275.0","","","","false","","","","","","","","","","null","","1168.7999992370605","","1","1","null","null","arrowup","[0.15,0.85,0.325,0.675]","","",""
"sailing-trial","311","1593156","0.0-11.0-276.0","","","","false","","","","","","","","","","749.2999992370605","","1312","","3","1","arrowright","1","arrowright","[0.15,0.85,0.325,0.675]","","",""
"sailing-trial","312","1598292","0.0-11.0-277.0","","","","false","","","","","","","","","","null","","3112.2000007629395","","1","1","null","null","arrowup","[0.15,0.85,0.325,0.675]","","",""
"sailing-trial","313","1603813","0.0-11.0-278.0","","","","false","","","","","","","","","","846.1999988555908","","668","","3","0","arrowright","1","arrowright","[0.15,0.85,0.325,0.675]","","",""
"sailing-trial","314","1608034","0.0-11.0-279.0","","","","false","","","","","","","","","","null","","1226.2000007629395","","0","0","null","null","arrowup","[0.15,0.85,0.325,0.675]","","",""
"sailing-trial","315","1612219","0.0-11.0-280.0","","","","false","","","","","","","","","","574.5","","674.9000015258789","","2","1","arrowright","1","arrowleft","[0.15,0.85,0.325,0.675]","","",""
"sailing-trial","316","1616389","0.0-11.0-281.0","","","","false","","","","","","","","","","null","","1159.6999988555908","","1","0","null","null","arrowup","[0.15,0.85,0.325,0.675]","","",""
"sailing-trial","317","1621755","0.0-11.0-282.0","","","","false","","","","","","","","","","698.6999988555908","","652.9000015258789","","2","0","arrowright","1","arrowleft","[0.15,0.85,0.325,0.675]","","",""
"sailing-trial","318","1625793","0.0-11.0-283.0","","","","false","","","","","","","","","","null","","1032.8999996185303","","0","0","null","null","arrowup","[0.15,0.85,0.325,0.675]","","",""
"sailing-trial","319","1629481","0.0-11.0-284.0","","","","false","","","","","","","","","","555.6999988555908","","95.79999923706055","","1","1","arrowleft","0","arrowright","[0.15,0.85,0.325,0.675]","","",""
"sailing-trial","320","1633701","0.0-11.0-285.0","","","","false","","","","","","","","","","null","","1217.7999992370605","","0","0","null","null","arrowup","[0.15,0.85,0.325,0.675]","","",""
"sailing-trial","321","1637470","0.0-11.0-286.0","","","","false","","","","","","","","","","568.0999984741211","","43.900001525878906","","1","1","arrowleft","0","arrowright","[0.15,0.85,0.325,0.675]","","",""
"sailing-trial","322","1640589","0.0-11.0-287.0","","","","false","","","","","","","","","","null","","1037.3999996185303","","3","1","null","null","arrowup","[0.15,0.85,0.325,0.675]","","",""
"sailing-trial","323","1645611","0.0-11.0-288.0","","","","false","","","","","","","","","","700.5","","312.29999923706055","","1","0","arrowleft","0","arrowright","[0.325,0.675,0.15,0.85]","","",""
"sailing-trial","324","1649995","0.0-11.0-289.0","","","","false","","","","","","","","","","null","","1387.7000007629395","","2","0","null","null","arrowup","[0.325,0.675,0.15,0.85]","","",""
"sailing-trial","325","1654882","0.0-11.0-290.0","","","","false","","","","","","","","","","783.6000003814697","","534.2999992370605","","1","1","arrowleft","0","arrowright","[0.325,0.675,0.15,0.85]","","",""
"sailing-trial","326","1657984","0.0-11.0-291.0","","","","false","","","","","","","","","","null","","1207.3000011444092","","1","1","null","null","arrowup","[0.325,0.675,0.15,0.85]","","",""
"sailing-trial","327","1663254","0.0-11.0-292.0","","","","false","","","","","","","","","","975.3999996185303","","301.8000011444092","","1","0","arrowleft","0","arrowright","[0.325,0.675,0.15,0.85]","","",""
"sailing-trial","328","1666090","0.0-11.0-293.0","","","","false","","","","","","","","","","null","","995.2000007629395","","3","1","null","null","arrowup","[0.325,0.675,0.15,0.85]","","",""
"sailing-trial","329","1671426","0.0-11.0-294.0","","","","false","","","","","","","","","","990.6000003814697","","359.29999923706055","","0","0","arrowleft","0","arrowleft","[0.325,0.675,0.15,0.85]","","",""
"sailing-trial","330","1675096","0.0-11.0-295.0","","","","false","","","","","","","","","","null","","1384.099998474121","","1","1","null","null","arrowup","[0.325,0.675,0.15,0.85]","","",""
"sailing-trial","331","1678765","0.0-11.0-296.0","","","","false","","","","","","","","","","813.8999996185303","","39.79999923706055","","3","1","arrowright","1","arrowright","[0.325,0.675,0.15,0.85]","","",""
"sailing-trial","332","1681800","0.0-11.0-297.0","","","","false","","","","","","","","","","null","","1174.2000007629395","","3","1","null","null","arrowup","[0.325,0.675,0.15,0.85]","","",""
"sailing-trial","333","1685803","0.0-11.0-298.0","","","","false","","","","","","","","","","589.7000007629395","","421.8999996185303","","3","1","arrowright","1","arrowright","[0.325,0.675,0.15,0.85]","","",""
"sailing-trial","334","1688333","0.0-11.0-299.0","","","","false","","","","","","","","","","null","","1306.6000003814697","","0","0","null","null","arrowup","[0.325,0.675,0.15,0.85]","","",""
"sailing-trial","335","1692091","0.0-11.0-300.0","","","","false","","","","","","","","","","837","","90.79999923706055","","3","1","arrowright","1","arrowright","[0.325,0.675,0.15,0.85]","","",""
"sailing-trial","336","1695296","0.0-11.0-301.0","","","","false","","","","","","","","","","null","","1399.2000007629395","","3","1","null","null","arrowup","[0.325,0.675,0.15,0.85]","","",""
"sailing-trial","337","1699299","0.0-11.0-302.0","","","","false","","","","","","","","","","734.2000007629395","","405.5","","3","1","arrowright","1","arrowright","[0.325,0.675,0.15,0.85]","","",""
"sailing-trial","338","1702232","0.0-11.0-303.0","","","","false","","","","","","","","","","null","","1080.900001525879","","3","1","null","null","arrowup","[0.325,0.675,0.15,0.85]","","",""
"sailing-trial","339","1707084","0.0-11.0-304.0","","","","false","","","","","","","","","","1417.5","","814.3000011444092","","3","1","arrowright","1","arrowright","[0.325,0.675,0.15,0.85]","","",""
"sailing-trial","340","1710653","0.0-11.0-305.0","","","","false","","","","","","","","","","null","","1744.5","","3","1","null","null","arrowup","[0.325,0.675,0.15,0.85]","","",""
"sailing-trial","341","1716111","0.0-11.0-306.0","","","","false","","","","","","","","","","1386","","64.80000114440918","","3","0","arrowright","1","arrowright","[0.15,0.85,0.325,0.675]","","",""
"sailing-trial","342","1720477","0.0-11.0-307.0","","","","false","","","","","","","","","","null","","1358.5","","2","0","null","null","arrowup","[0.15,0.85,0.325,0.675]","","",""
"sailing-trial","343","1725462","0.0-11.0-308.0","","","","false","","","","","","","","","","452.6999988555908","","519","","3","0","arrowright","1","arrowright","[0.15,0.85,0.325,0.675]","","",""
"sailing-trial","344","1729633","0.0-11.0-309.0","","","","false","","","","","","","","","","null","","1177.5","","0","0","null","null","arrowup","[0.15,0.85,0.325,0.675]","","",""
"sailing-trial","345","1734054","0.0-11.0-310.0","","","","false","","","","","","","","","","727.3000011444092","","445.1999988555908","","3","1","arrowright","1","arrowright","[0.15,0.85,0.325,0.675]","","",""
"sailing-trial","346","1737155","0.0-11.0-311.0","","","","false","","","","","","","","","","null","","1155.8999996185303","","3","1","null","null","arrowup","[0.15,0.85,0.325,0.675]","","",""
"sailing-trial","347","1740675","0.0-11.0-312.0","","","","false","","","","","","","","","","524.8000011444092","","150.5","","3","1","arrowright","1","arrowright","[0.15,0.85,0.325,0.675]","","",""
"sailing-trial","348","1744974","0.0-11.0-313.0","","","","false","","","","","","","","","","null","","1275.6000003814697","","0","0","null","null","arrowup","[0.15,0.85,0.325,0.675]","","",""
"sailing-trial","349","1749480","0.0-11.0-314.0","","","","false","","","","","","","","","","585.5","","161.60000038146973","","3","1","arrowright","1","arrowright","[0.15,0.85,0.325,0.675]","","",""
"sailing-trial","350","1753583","0.0-11.0-315.0","","","","false","","","","","","","","","","null","","1109.1000003814697","","0","0","null","null","arrowup","[0.15,0.85,0.325,0.675]","","",""
"sailing-trial","351","1758504","0.0-11.0-316.0","","","","false","","","","","","","","","","727.1000003814697","","1309","","3","1","arrowright","1","arrowright","[0.15,0.85,0.325,0.675]","","",""
"sailing-trial","352","1761670","0.0-11.0-317.0","","","","false","","","","","","","","","","null","","1306.6000003814697","","0","1","null","null","arrowup","[0.15,0.85,0.325,0.675]","","",""
"sailing-trial","353","1765841","0.0-11.0-318.0","","","","false","","","","","","","","","","958.3999996185303","","329.6000003814697","","3","1","arrowright","1","arrowright","[0.15,0.85,0.325,0.675]","","",""
"sailing-trial","354","1771196","0.0-11.0-319.0","","","","false","","","","","","","","","","null","","2357.5","","0","0","null","null","arrowup","[0.15,0.85,0.325,0.675]","","",""
"sailing-trial","355","1774814","0.0-11.0-320.0","","","","false","","","","","","","","","","211.5","","453.0999984741211","","3","1","arrowright","1","arrowright","[0.15,0.85,0.325,0.675]","","",""
"sailing-trial","356","1779483","0.0-11.0-321.0","","","","false","","","","","","","","","","null","","1665.2999992370605","","0","0","null","null","arrowup","[0.15,0.85,0.325,0.675]","","",""
"sailing-trial","357","1783587","0.0-11.0-322.0","","","","false","","","","","","","","","","564.7999992370605","","672.5","","3","1","arrowright","1","arrowright","[0.15,0.85,0.325,0.675]","","",""
"sailing-trial","358","1788022","0.0-11.0-323.0","","","","false","","","","","","","","","","null","","1431.5","","0","0","null","null","arrowup","[0.15,0.85,0.325,0.675]","","",""
"sailing-trial","359","1791641","0.0-11.0-324.0","","","","false","","","","","","","","","","647.6999988555908","","88.20000076293945","","3","1","arrowright","1","arrowright","[0.15,0.85,0.325,0.675]","","",""
"sailing-trial","360","1795810","0.0-11.0-325.0","","","","false","","","","","","","","","","null","","1167.400001525879","","0","0","null","null","arrowup","[0.15,0.85,0.325,0.675]","","",""
"sailing-trial","361","1799847","0.0-11.0-326.0","","","","false","","","","","","","","","","978.9000015258789","","179.69999885559082","","3","1","arrowright","1","arrowright","[0.325,0.675,0.15,0.85]","","",""
"sailing-trial","362","1803416","0.0-11.0-327.0","","","","false","","","","","","","","","","null","","1691.7000007629395","","0","1","null","null","arrowup","[0.325,0.675,0.15,0.85]","","",""
"sailing-trial","363","1808553","0.0-11.0-328.0","","","","false","","","","","","","","","","1062.400001525879","","67.5","","3","0","arrowright","1","arrowright","[0.325,0.675,0.15,0.85]","","",""
"sailing-trial","364","1811522","0.0-11.0-329.0","","","","false","","","","","","","","","","null","","1075.8999996185303","","1","1","null","null","arrowup","[0.325,0.675,0.15,0.85]","","",""
"sailing-trial","365","1815758","0.0-11.0-330.0","","","","false","","","","","","","","","","827","","405.8999996185303","","3","1","arrowright","1","arrowright","[0.325,0.675,0.15,0.85]","","",""
"sailing-trial","366","1819812","0.0-11.0-331.0","","","","false","","","","","","","","","","null","","1050.8000011444092","","0","0","null","null","arrowup","[0.325,0.675,0.15,0.85]","","",""
"sailing-trial","367","1823682","0.0-11.0-332.0","","","","false","","","","","","","","","","577.3000011444092","","460.5999984741211","","3","1","arrowright","1","arrowright","[0.325,0.675,0.15,0.85]","","",""
"sailing-trial","368","1828900","0.0-11.0-333.0","","","","false","","","","","","","","","","null","","2216.2999992370605","","0","0","null","null","arrowup","[0.325,0.675,0.15,0.85]","","",""
"sailing-trial","369","1832586","0.0-11.0-334.0","","","","false","","","","","","","","","","568.6000003814697","","204.30000114440918","","3","1","arrowright","1","arrowright","[0.325,0.675,0.15,0.85]","","",""
"sailing-trial","370","1835622","0.0-11.0-335.0","","","","false","","","","","","","","","","null","","1121.6000003814697","","1","1","null","null","arrowup","[0.325,0.675,0.15,0.85]","","",""
"sailing-trial","371","1839460","0.0-11.0-336.0","","","","false","","","","","","","","","","686.2999992370605","","246","","3","1","arrowright","1","arrowright","[0.325,0.675,0.15,0.85]","","",""
"sailing-trial","372","1843477","0.0-11.0-337.0","","","","false","","","","","","","","","","null","","1008.4000015258789","","2","0","null","null","arrowup","[0.325,0.675,0.15,0.85]","","",""
"sailing-trial","373","1847247","0.0-11.0-338.0","","","","false","","","","","","","","","","582.2999992370605","","120.20000076293945","","3","1","arrowright","1","arrowright","[0.325,0.675,0.15,0.85]","","",""
"sailing-trial","374","1851233","0.0-11.0-339.0","","","","false","","","","","","","","","","null","","992.1000003814697","","2","0","null","null","arrowup","[0.325,0.675,0.15,0.85]","","",""
"sailing-trial","375","1855202","0.0-11.0-340.0","","","","false","","","","","","","","","","786.1999988555908","","285","","3","1","arrowright","1","arrowright","[0.325,0.675,0.15,0.85]","","",""
"sailing-trial","376","1858421","0.0-11.0-341.0","","","","false","","","","","","","","","","null","","1356.8000011444092","","1","1","null","null","arrowup","[0.325,0.675,0.15,0.85]","","",""
"sailing-trial","377","1863156","0.0-11.0-342.0","","","","false","","","","","","","","","","707.7999992370605","","40","","3","0","arrowright","1","arrowright","[0.325,0.675,0.15,0.85]","","",""
"sailing-trial","378","1867126","0.0-11.0-343.0","","","","false","","","","","","","","","","null","","2122.5","","0","1","null","null","arrowup","[0.325,0.675,0.15,0.85]","","",""
"sailing-trial","379","1872664","0.0-11.0-344.0","","","","false","","","","","","","","","","1112","","411.3000011444092","","3","0","arrowright","1","arrowright","[0.15,0.85,0.325,0.675]","","",""
"sailing-trial","380","1875716","0.0-11.0-345.0","","","","false","","","","","","","","","","null","","1154.3999996185303","","3","1","null","null","arrowup","[0.15,0.85,0.325,0.675]","","",""
"sailing-trial","381","1881454","0.0-11.0-346.0","","","","false","","","","","","","","","","1152.8000011444092","","594.1000003814697","","2","0","arrowright","1","arrowleft","[0.15,0.85,0.325,0.675]","","",""
"sailing-trial","382","1884606","0.0-11.0-347.0","","","","false","","","","","","","","","","null","","1334.6999988555908","","3","1","null","null","arrowup","[0.15,0.85,0.325,0.675]","","",""
"sailing-trial","383","1889393","0.0-11.0-348.0","","","","false","","","","","","","","","","1262.7000007629395","","642.8000011444092","","3","1","arrowright","1","arrowright","[0.15,0.85,0.325,0.675]","","",""
"sailing-trial","384","1893879","0.0-11.0-349.0","","","","false","","","","","","","","","","null","","1475.599998474121","","0","0","null","null","arrowup","[0.15,0.85,0.325,0.675]","","",""
"sailing-trial","385","1899227","0.0-11.0-350.0","","","","false","","","","","","","","","","789.7999992370605","","542.6000003814697","","3","0","arrowright","1","arrowright","[0.15,0.85,0.325,0.675]","","",""
"sailing-trial","386","1903102","0.0-11.0-351.0","","","","false","","","","","","","","","","null","","2032","","3","1","null","null","arrowup","[0.15,0.85,0.325,0.675]","","",""
"sailing-trial","387","1908756","0.0-11.0-352.0","","","","false","","","","","","","","","","1186.7999992370605","","1606.2999992370605","","3","1","arrowright","1","arrowright","[0.15,0.85,0.325,0.675]","","",""
"sailing-trial","388","1912558","0.0-11.0-353.0","","","","false","","","","","","","","","","null","","1962.2999992370605","","1","1","null","null","arrowup","[0.15,0.85,0.325,0.675]","","",""
"sailing-trial","389","1920914","0.0-11.0-354.0","","","","false","","","","","","","","","","1500.6000003814697","","1565.599998474121","","3","1","arrowright","1","arrowright","[0.15,0.85,0.325,0.675]","","",""
"sailing-trial","390","1927788","0.0-11.0-355.0","","","","false","","","","","","","","","","null","","3865.199998855591","","2","0","null","null","arrowup","[0.15,0.85,0.325,0.675]","","",""
"sailing-trial","391","1932055","0.0-11.0-356.0","","","","false","","","","","","","","","","1000.8000011444092","","305.70000076293945","","3","1","arrowright","1","arrowright","[0.15,0.85,0.325,0.675]","","",""
"sailing-trial","392","1936125","0.0-11.0-357.0","","","","false","","","","","","","","","","null","","1073.7999992370605","","2","0","null","null","arrowup","[0.15,0.85,0.325,0.675]","","",""
"sailing-trial","393","1940928","0.0-11.0-358.0","","","","false","","","","","","","","","","945.3999996185303","","777","","3","1","arrowright","1","arrowright","[0.15,0.85,0.325,0.675]","","",""
"sailing-trial","394","1945309","0.0-11.0-359.0","","","","false","","","","","","","","","","null","","1371.599998474121","","2","0","null","null","arrowup","[0.15,0.85,0.325,0.675]","","",""
"sailing-trial","395","1949334","0.0-11.0-360.0","","","","false","","","","","","","","","","749.8000011444092","","220.89999961853027","","3","1","arrowright","1","arrowright","[0.325,0.675,0.15,0.85]","","",""
"sailing-trial","396","1953372","0.0-11.0-361.0","","","","false","","","","","","","","","","null","","1034.2000007629395","","2","0","null","null","arrowup","[0.325,0.675,0.15,0.85]","","",""
"sailing-trial","397","1958156","0.0-11.0-362.0","","","","false","","","","","","","","","","1086.1000003814697","","263.1999988555908","","3","1","arrowright","1","arrowright","[0.325,0.675,0.15,0.85]","","",""
"sailing-trial","398","1963344","0.0-11.0-363.0","","","","false","","","","","","","","","","null","","2162.7999992370605","","0","0","null","null","arrowup","[0.325,0.675,0.15,0.85]","","",""
"sailing-trial","399","1968113","0.0-11.0-364.0","","","","false","","","","","","","","","","1374.5","","445.1000003814697","","3","1","arrowright","1","arrowright","[0.325,0.675,0.15,0.85]","","",""
"sailing-trial","400","1972733","0.0-11.0-365.0","","","","false","","","","","","","","","","null","","2716.599998474121","","3","1","null","null","arrowup","[0.325,0.675,0.15,0.85]","","",""
"sailing-trial","401","1977853","0.0-11.0-366.0","","","","false","","","","","","","","","","916.8999996185303","","1172.1999988555908","","3","1","arrowright","1","arrowright","[0.325,0.675,0.15,0.85]","","",""
"sailing-trial","402","1982823","0.0-11.0-367.0","","","","false","","","","","","","","","","null","","1976.1000003814697","","2","0","null","null","arrowup","[0.325,0.675,0.15,0.85]","","",""
"sailing-trial","403","1986792","0.0-11.0-368.0","","","","false","","","","","","","","","","948","","229","","3","1","arrowright","1","arrowright","[0.325,0.675,0.15,0.85]","","",""
"sailing-trial","404","1991547","0.0-11.0-369.0","","","","false","","","","","","","","","","null","","1747.3999996185303","","1","0","null","null","arrowup","[0.325,0.675,0.15,0.85]","","",""
"sailing-trial","405","1996599","0.0-11.0-370.0","","","","false","","","","","","","","","","602","","455.8999996185303","","3","0","arrowright","1","arrowright","[0.325,0.675,0.15,0.85]","","",""
"sailing-trial","406","2000569","0.0-11.0-371.0","","","","false","","","","","","","","","","null","","971.1000003814697","","2","0","null","null","arrowup","[0.325,0.675,0.15,0.85]","","",""
"sailing-trial","407","2005487","0.0-11.0-372.0","","","","false","","","","","","","","","","550.6000003814697","","364.3999996185303","","2","0","arrowright","1","arrowleft","[0.325,0.675,0.15,0.85]","","",""
"sailing-trial","408","2008423","0.0-11.0-373.0","","","","false","","","","","","","","","","null","","961.8999996185303","","1","1","null","null","arrowup","[0.325,0.675,0.15,0.85]","","",""
"sailing-trial","409","2012693","0.0-11.0-374.0","","","","false","","","","","","","","","","675.7000007629395","","288.29999923706055","","1","1","arrowleft","0","arrowright","[0.325,0.675,0.15,0.85]","","",""
"sailing-trial","410","2017205","0.0-11.0-375.0","","","","false","","","","","","","","","","null","","1495.5","","0","0","null","null","arrowup","[0.325,0.675,0.15,0.85]","","",""
"sailing-trial","411","2021332","0.0-11.0-376.0","","","","false","","","","","","","","","","1024.6000003814697","","51.60000038146973","","1","1","arrowleft","0","arrowright","[0.325,0.675,0.15,0.85]","","",""
"sailing-trial","412","2025669","0.0-11.0-377.0","","","","false","","","","","","","","","","null","","1337","","0","0","null","null","arrowup","[0.325,0.675,0.15,0.85]","","",""
"sailing-trial","413","2030522","0.0-11.0-378.0","","","","false","","","","","","","","","","789.7999992370605","","250.19999885559082","","1","1","arrowleft","0","arrowright","[0.15,0.85,0.325,0.675]","","",""
"sailing-trial","414","2034342","0.0-11.0-379.0","","","","false","","","","","","","","","","null","","1896.1999988555908","","3","1","null","null","arrowup","[0.15,0.85,0.325,0.675]","","",""
"sailing-trial","415","2041413","0.0-11.0-380.0","","","","false","","","","","","","","","","3707.1000003814697","","398.5","","1","1","arrowleft","0","arrowright","[0.15,0.85,0.325,0.675]","","",""
"sailing-trial","416","2045332","0.0-11.0-381.0","","","","false","","","","","","","","","","null","","1995.1000003814697","","0","1","null","null","arrowup","[0.15,0.85,0.325,0.675]","","",""
"sailing-trial","417","2049635","0.0-11.0-382.0","","","","false","","","","","","","","","","747.2000007629395","","279.29999923706055","","1","1","arrowleft","0","arrowright","[0.15,0.85,0.325,0.675]","","",""
"sailing-trial","418","2052921","0.0-11.0-383.0","","","","false","","","","","","","","","","null","","1243.5","","3","1","null","null","arrowup","[0.15,0.85,0.325,0.675]","","",""
"sailing-trial","419","2057524","0.0-11.0-384.0","","","","false","","","","","","","","","","1157.7999992370605","","620.3999996185303","","1","1","arrowleft","0","arrowright","[0.15,0.85,0.325,0.675]","","",""
"sailing-trial","420","2061494","0.0-11.0-385.0","","","","false","","","","","","","","","","null","","973.8999996185303","","2","0","null","null","arrowup","[0.15,0.85,0.325,0.675]","","",""
"sailing-trial","421","2066129","0.0-11.0-386.0","","","","false","","","","","","","","","","515.8999996185303","","122","","1","0","arrowleft","0","arrowright","[0.15,0.85,0.325,0.675]","","",""
"sailing-trial","422","2069115","0.0-11.0-387.0","","","","false","","","","","","","","","","null","","970.3999996185303","","0","1","null","null","arrowup","[0.15,0.85,0.325,0.675]","","",""
"sailing-trial","423","2074237","0.0-11.0-388.0","","","","false","","","","","","","","","","794.0999984741211","","309.8999996185303","","0","0","arrowleft","0","arrowleft","[0.15,0.85,0.325,0.675]","","",""
"sailing-trial","424","2078255","0.0-11.0-389.0","","","","false","","","","","","","","","","null","","1012.7000007629395","","0","0","null","null","arrowup","[0.15,0.85,0.325,0.675]","","",""
"sailing-trial","425","2084793","0.0-11.0-390.0","","","","false","","","","","","","","","","513.8999996185303","","2250","","2","1","arrowright","1","arrowleft","[0.15,0.85,0.325,0.675]","","",""
"sailing-trial","426","2088896","0.0-11.0-391.0","","","","false","","","","","","","","","","null","","1096.2999992370605","","2","0","null","null","arrowup","[0.15,0.85,0.325,0.675]","","",""
"sailing-trial","427","2093816","0.0-11.0-392.0","","","","false","","","","","","","","","","543.2999992370605","","366.3999996185303","","2","0","arrowright","1","arrowleft","[0.15,0.85,0.325,0.675]","","",""
"sailing-trial","428","2096601","0.0-11.0-393.0","","","","false","","","","","","","","","","null","","912.8999996185303","","1","1","null","null","arrowup","[0.15,0.85,0.325,0.675]","","",""
"sailing-trial","429","2100921","0.0-11.0-394.0","","","","false","","","","","","","","","","638.9000015258789","","828","","3","1","arrowright","1","arrowright","[0.15,0.85,0.325,0.675]","","",""
"sailing-trial","430","2103972","0.0-11.0-395.0","","","","false","","","","","","","","","","null","","1498","","1","1","null","null","arrowup","[0.15,0.85,0.325,0.675]","","",""
"sailing-trial","431","2107742","0.0-11.0-396.0","","","","false","","","","","","","","","","607.6999988555908","","249.89999961853027","","3","1","arrowright","1","arrowright","[0.15,0.85,0.325,0.675]","","",""
"sailing-trial","432","2110394","0.0-11.0-397.0","","","","false","","","","","","","","","","null","","937.4000015258789","","3","1","null","null","arrowup","[0.15,0.85,0.325,0.675]","","",""
"sailing-trial","433","2114313","0.0-11.0-398.0","","","","false","","","","","","","","","","726","","304.6000003814697","","3","1","arrowright","1","arrowright","[0.15,0.85,0.325,0.675]","","",""
"sailing-trial","434","2117725","0.0-11.0-399.0","","","","false","","","","","","","","","","null","","2106.1000003814697","","0","0","null","null","arrowup","[0.15,0.85,0.325,0.675]","","",""
"instructions","435","2122491","0.0-12.0","","","","","","","","[{""event"":""fullscreenenter"",""trial"":3,""time"":37943},{""event"":""blur"",""trial"":436,""time"":2196852},{""event"":""focus"",""trial"":436,""time"":2197754}]","false","4766.10000038147","","","","","","","","","","","","","","","","[{""page_index"":0,""viewing_time"":4764.800001144409}]"
"survey-debrief","436","2233557","0.0-13.0","","","","","","","","","","111063.30000114441","","","","","","","","","","","","","","{""difficulty"":""4"",""fun"":""2"",""clarity"":""5"",""strategy"":""If I would get not get gold from a single shop 3 times in a row I would change what shop I was mainly using to gain gold"",""feedback"":""""}","",""
