"trial_type","trial_index","time_elapsed","internal_node_id","value","metadata","browser_interaction","low_quality","success","timeout","failed_images","failed_audio","failed_video","rt","stimulus","response","button_pressed","island_rt","island_response","boat_rt","boat_response","boat","reward","island_key","island","boat_key","reward_probabilities","responses","num_errors","view_history"
"pavlovia","0","4","0.0-0.0","","","","","","","","","","","","","","","","","","","","","","","","","",""
"call-function","1","5","0.0-1.0","","{""task_version"":""sailing_part1_v1"",""task_condition"":""good"",""boats"":[""C"",""B"",""A"",""D""],""boats_demo"":[""F"",""G"",""E"",""H""],""islands"":[""A"",""B""],""subject_id"":""15168"",""age"":""19"",""gender"":""Male""}","[{""event"":""blur"",""trial"":2,""time"":7121}]","false","","","","","","","","","","","","","","","","","","","","","",""
"preload","2","8965","0.0-2.0","","","[{""event"":""blur"",""trial"":2,""time"":7121},{""event"":""focus"",""trial"":3,""time"":13021},{""event"":""fullscreenenter"",""trial"":3,""time"":13128}]","false","true","false","[]","[]","[]","","","","","","","","","","","","","","","","",""
"fullscreen","3","14105","0.0-3.0","","","","","true","","","","","","","","","","","","","","","","","","","","",""
"audio-keyboard-response","4","16581","0.0-4.0-0.0","","","","","","","","","","2400","audio/beep_loop.wav"," ","","","","","","","","","","","","","",""
"audio-test","5","18977","0.0-4.0-1.0","","","","","","","","","","null","audio/turtle.mp3","","3","","","","","","","","","","","","",""
"audio-test","6","20913","0.0-4.0-2.0","","","","","","","","","","null","audio/shark.mp3","","2","","","","","","","","","","","","",""
"sailing-instructions","7","67622","0.0-5.0-0.0-0.0","","","","","","","","","","","","","","null","null","null","null","null","null","","","","","","",""
"sailing-trial","8","71589","0.0-5.0-0.0-1.0-0.0","","","","","","false","","","","","","","","2826.7000000000116","","null","","null","null","arrowleft","0","null","null","","",""
"sailing-trial","9","73617","0.0-5.0-0.0-1.0-1.0","","","","","","false","","","","","","","","877.0999999999767","","null","","null","null","arrowright","1","null","null","","",""
"sailing-trial","10","77194","0.0-5.0-0.0-1.0-2.0","","","","","","false","","","","","","","","2452.5999999999767","","null","","null","null","arrowright","1","null","null","","",""
"sailing-instructions","11","128327","0.0-5.0-0.0-2.0","","","","","","","","","","","","","","null","null","null","null","0","null","","","","","","",""
"sailing-trial","12","133687","0.0-5.0-0.0-3.0-0.0","","","","","","false","","","","","","","","null","","1991","","2","1","null","null","arrowleft","[1,1,1,1]","","",""
"sailing-trial","13","136608","0.0-5.0-0.0-3.0-1.0","","","","","","false","","","","","","","","null","","513.7999999999884","","3","1","null","null","arrowright","[1,1,1,1]","","",""
"sailing-trial","14","140441","0.0-5.0-0.0-3.0-2.0","","","","","","false","","","","","","","","null","","948.2000000000116","","2","0","null","null","arrowleft","[0,0,0,0]","","",""
"sailing-instructions","15","147825","0.0-5.0-0.0-4.0","","","","","","","","","","","","","","null","null","null","null","null","null","","","","","","",""
"sailing-comprehension","16","163659","0.0-5.0-0.0-5.0","","","","","","","","","","12185.200000000012","","","","","","","","","","","","","","[""true"",""true"",""false"",""true""]","0",""
"sailing-instructions","17","238420","0.0-6.0-0.0-0.0","","","","","","","","","","","","","","null","null","null","null","null","null","","","","","","",""
"sailing-comprehension","18","249417","0.0-6.0-0.0-1.0","","","","","","","","","","5296","","","","","","","","","","","","","","[""true"",""true"",""true""]","1",""
"sailing-instructions","19","311840","0.0-6.0-0.1-0.1","","","","","","","","","","","","","","null","null","null","null","null","null","","","","","","",""
"sailing-comprehension","20","326630","0.0-6.0-0.1-1.1","","","","","","","","","","8749.20000000007","","","","","","","","","","","","","","[""true"",""false"",""false""]","1",""
"sailing-instructions","21","344283","0.0-7.0-0.0-0.0","","","","","","","","","","","","","","null","null","null","null","null","null","","","","","","",""
"sailing-trial","22","349078","0.0-7.0-0.0-1.0-0.0","","","","","","false","","","","","","","","null","","2302.5999999999767","","0","0","null","null","arrowup","[0.2,0.8,0.2,0.8]","","",""
"sailing-trial","23","352515","0.0-7.0-0.0-1.0-1.0","","","","","","false","","","","","","","","null","","1496.5999999999767","","1","1","null","null","arrowup","[0.2,0.8,0.2,0.8]","","",""
"sailing-trial","24","356091","0.0-7.0-0.0-1.0-2.0","","","","","","false","","","","","","","","null","","1607.1999999999534","","2","0","null","null","arrowup","[0.2,0.8,0.2,0.8]","","",""
"sailing-trial","25","358789","0.0-7.0-0.0-1.0-3.0","","","","","","false","","","","","","","","null","","839","","3","1","null","null","arrowup","[0.2,0.8,0.2,0.8]","","",""
"sailing-comprehension","26","365901","0.0-7.0-0.0-2.0","","","","","","","","","","5251.099999999977","","","","","","","","","","","","","","[""false""]","0",""
"sailing-instructions","27","376058","0.0-8.0-0.0-0.0","","","","","","","","","","","","","","null","null","null","null","null","null","","","","","","",""
"sailing-comprehension","28","378790","0.0-8.0-0.0-1.0","","","","","","","","","","1579.9000000000233","","","","","","","","","","","","","","[""true""]","0",""
"sailing-instructions","29","447478","0.0-9.0-0.0-0.0","","","","","","","","","","","","","","null","null","null","null","null","null","","","","","","",""
"sailing-trial","30","453176","0.0-9.0-0.0-1.0-0.0","","","","","","false","","","","","","","","1174.5","","834.6999999999534","","1","1","arrowleft","0","arrowright","[0.2,0.8,0.2,0.8]","","",""
"sailing-trial","31","458036","0.0-9.0-0.0-1.0-1.0","","","","","","false","","","","","","","","1047.5","","77.59999999997672","","2","0","arrowright","1","arrowleft","[0.2,0.8,0.2,0.8]","","",""
"sailing-trial","32","462070","0.0-9.0-0.0-1.0-2.0","","","","","","false","","","","","","","","null","","1758.3000000000466","","0","0","null","null","arrowup","[0.2,0.8,0.2,0.8]","","",""
"sailing-trial","33","467076","0.0-9.0-0.0-1.0-3.0","","","","","","false","","","","","","","","815.3000000000466","","1124.6999999999534","","2","0","arrowright","1","arrowleft","[0.2,0.8,0.2,0.8]","","",""
"sailing-trial","34","469819","0.0-9.0-0.0-1.0-4.0","","","","","","false","","","","","","","","null","","837.5999999999767","","3","1","null","null","arrowup","[0.2,0.8,0.2,0.8]","","",""
"sailing-trial","35","474798","0.0-9.0-0.0-1.0-5.0","","","","","","false","","","","","","","","1018.5999999999767","","972.4000000000233","","1","1","arrowleft","0","arrowright","[0.2,0.8,0.2,0.8]","","",""
"sailing-instructions","36","500740","0.0-10.0","","","","","","","","","","","","","","null","null","null","null","null","null","","","","","","",""
"sailing-trial","37","506719","0.0-11.0-0.0","","","","","","false","","","","","","","","2255.399999999907","","190.70000000006985","","1","0","arrowleft","0","arrowright","[0.675,0.325,0.15,0.85]","","",""
"sailing-trial","38","510010","0.0-11.0-1.0","","","","","","false","","","","","","","","null","","804.8999999999069","","1","1","null","null","arrowup","[0.675,0.325,0.15,0.85]","","",""
"sailing-trial","39","514499","0.0-11.0-2.0","","","","","","false","","","","","","","","597.5999999999767","","975.6999999999534","","0","1","arrowleft","0","arrowleft","[0.675,0.325,0.15,0.85]","","",""
"sailing-trial","40","517978","0.0-11.0-3.0","","","","","","false","","","","","","","","null","","832.9000000000233","","2","0","null","null","arrowup","[0.675,0.325,0.15,0.85]","","",""
"sailing-trial","41","522610","0.0-11.0-4.0","","","","","","false","","","","","","","","739.0999999999767","","395.5999999999767","","2","1","arrowright","1","arrowleft","[0.675,0.325,0.15,0.85]","","",""
"sailing-trial","42","526775","0.0-11.0-5.0","","","","","","false","","","","","","","","null","","929.7999999999302","","0","1","null","null","arrowup","[0.675,0.325,0.15,0.85]","","",""
"sailing-trial","43","530723","0.0-11.0-6.0","","","","","","false","","","","","","","","692.6999999999534","","447.89999999990687","","2","0","arrowright","1","arrowleft","[0.675,0.325,0.15,0.85]","","",""
"sailing-trial","44","532941","0.0-11.0-7.0","","","","","","false","","","","","","","","null","","652.5","","2","0","null","null","arrowup","[0.675,0.325,0.15,0.85]","","",""
"sailing-trial","45","536968","0.0-11.0-8.0","","","","","","false","","","","","","","","570.7999999999302","","375.79999999993015","","1","0","arrowleft","0","arrowright","[0.675,0.325,0.15,0.85]","","",""
"sailing-trial","46","540016","0.0-11.0-9.0","","","","","","false","","","","","","","","null","","664.9000000000233","","2","0","null","null","arrowup","[0.675,0.325,0.15,0.85]","","",""
"sailing-trial","47","545467","0.0-11.0-10.0","","","","","","false","","","","","","","","1368","","640.7000000000698","","0","1","arrowleft","0","arrowleft","[0.675,0.325,0.15,0.85]","","",""
"sailing-trial","48","547992","0.0-11.0-11.0","","","","","","false","","","","","","","","null","","758.6000000000931","","0","0","null","null","arrowup","[0.675,0.325,0.15,0.85]","","",""
"sailing-trial","49","552515","0.0-11.0-12.0","","","","","","false","","","","","","","","683.3000000000466","","432.4000000000233","","2","1","arrowright","1","arrowleft","[0.675,0.325,0.15,0.85]","","",""
"sailing-trial","50","555824","0.0-11.0-13.0","","","","","","false","","","","","","","","null","","864.1999999999534","","1","0","null","null","arrowup","[0.675,0.325,0.15,0.85]","","",""
"sailing-trial","51","559153","0.0-11.0-14.0","","","","","","false","","","","","","","","697.2999999999302","","6.699999999953434","","2","0","arrowright","1","arrowleft","[0.675,0.325,0.15,0.85]","","",""
"sailing-trial","52","561979","0.0-11.0-15.0","","","","","","false","","","","","","","","null","","689.4000000000233","","1","1","null","null","arrowup","[0.675,0.325,0.15,0.85]","","",""
"sailing-trial","53","565703","0.0-11.0-16.0","","","","","","false","","","","","","","","790.4000000000233","","188.70000000006985","","3","0","arrowright","1","arrowright","[0.85,0.15,0.325,0.675]","","",""
"sailing-trial","54","568110","0.0-11.0-17.0","","","","","","false","","","","","","","","null","","788.1000000000931","","2","0","null","null","arrowup","[0.85,0.15,0.325,0.675]","","",""
"sailing-trial","55","571866","0.0-11.0-18.0","","","","","","false","","","","","","","","1028.5","","396.89999999990687","","1","0","arrowleft","0","arrowright","[0.85,0.15,0.325,0.675]","","",""
"sailing-trial","56","573888","0.0-11.0-19.0","","","","","","false","","","","","","","","null","","764.1999999999534","","1","0","null","null","arrowup","[0.85,0.15,0.325,0.675]","","",""
"sailing-trial","57","578156","0.0-11.0-20.0","","","","","","false","","","","","","","","577","","441.19999999995343","","0","1","arrowleft","0","arrowleft","[0.85,0.15,0.325,0.675]","","",""
"sailing-trial","58","580221","0.0-11.0-21.0","","","","","","false","","","","","","","","null","","775.8000000000466","","1","0","null","null","arrowup","[0.85,0.15,0.325,0.675]","","",""
"sailing-trial","59","584398","0.0-11.0-22.0","","","","","","false","","","","","","","","713.8000000000466","","342.5999999999767","","1","0","arrowleft","0","arrowright","[0.85,0.15,0.325,0.675]","","",""
"sailing-trial","60","586785","0.0-11.0-23.0","","","","","","false","","","","","","","","null","","815.5","","1","0","null","null","arrowup","[0.85,0.15,0.325,0.675]","","",""
"sailing-trial","61","591203","0.0-11.0-24.0","","","","","","false","","","","","","","","617.4000000000233","","454.10000000009313","","0","1","arrowleft","0","arrowleft","[0.85,0.15,0.325,0.675]","","",""
"sailing-trial","62","594015","0.0-11.0-25.0","","","","","","false","","","","","","","","null","","895","","0","1","null","null","arrowup","[0.85,0.15,0.325,0.675]","","",""
"sailing-trial","63","597602","0.0-11.0-26.0","","","","","","false","","","","","","","","841.6999999999534","","57.300000000046566","","2","0","arrowright","1","arrowleft","[0.85,0.15,0.325,0.675]","","",""
"sailing-trial","64","600642","0.0-11.0-27.0","","","","","","false","","","","","","","","null","","1173.2999999999302","","1","1","null","null","arrowup","[0.85,0.15,0.325,0.675]","","",""
"sailing-trial","65","604331","0.0-11.0-28.0","","","","","","false","","","","","","","","546.5","","368","","1","0","arrowleft","0","arrowright","[0.85,0.15,0.325,0.675]","","",""
"sailing-trial","66","607153","0.0-11.0-29.0","","","","","","false","","","","","","","","null","","865","","3","1","null","null","arrowup","[0.85,0.15,0.325,0.675]","","",""
"sailing-trial","67","611402","0.0-11.0-30.0","","","","","","false","","","","","","","","605.4000000000233","","206.09999999997672","","0","1","arrowleft","0","arrowleft","[0.85,0.15,0.325,0.675]","","",""
"sailing-trial","68","614591","0.0-11.0-31.0","","","","","","false","","","","","","","","null","","980.2000000000698","","1","1","null","null","arrowup","[0.85,0.15,0.325,0.675]","","",""
"sailing-trial","69","618914","0.0-11.0-32.0","","","","","","false","","","","","","","","861.3999999999069","","35.90000000002328","","0","1","arrowleft","0","arrowleft","[0.675,0.325,0.15,0.85]","","",""
"sailing-trial","70","621358","0.0-11.0-33.0","","","","","","false","","","","","","","","null","","791.5999999999767","","2","0","null","null","arrowup","[0.675,0.325,0.15,0.85]","","",""
"sailing-trial","71","625163","0.0-11.0-34.0","","","","","","false","","","","","","","","563.9000000000233","","401.4000000000233","","0","1","arrowleft","0","arrowleft","[0.675,0.325,0.15,0.85]","","",""
"sailing-trial","72","627690","0.0-11.0-35.0","","","","","","false","","","","","","","","null","","848.5999999999767","","0","0","null","null","arrowup","[0.675,0.325,0.15,0.85]","","",""
"sailing-trial","73","631917","0.0-11.0-36.0","","","","","","false","","","","","","","","978.7000000000698","","380.69999999995343","","2","0","arrowright","1","arrowleft","[0.675,0.325,0.15,0.85]","","",""
"sailing-trial","74","634537","0.0-11.0-37.0","","","","","","false","","","","","","","","null","","896.7000000000698","","3","1","null","null","arrowup","[0.675,0.325,0.15,0.85]","","",""
"sailing-trial","75","638293","0.0-11.0-38.0","","","","","","false","","","","","","","","675.7999999999302","","372","","1","0","arrowleft","0","arrowright","[0.675,0.325,0.15,0.85]","","",""
"sailing-trial","76","640208","0.0-11.0-39.0","","","","","","false","","","","","","","","null","","696.0999999999767","","2","0","null","null","arrowup","[0.675,0.325,0.15,0.85]","","",""
"sailing-trial","77","644097","0.0-11.0-40.0","","","","","","false","","","","","","","","574.9000000000233","","352","","0","1","arrowleft","0","arrowleft","[0.675,0.325,0.15,0.85]","","",""
"sailing-trial","78","646965","0.0-11.0-41.0","","","","","","false","","","","","","","","null","","853.4000000000233","","0","1","null","null","arrowup","[0.675,0.325,0.15,0.85]","","",""
"sailing-trial","79","650908","0.0-11.0-42.0","","","","","","false","","","","","","","","788","","32.699999999953434","","0","1","arrowleft","0","arrowleft","[0.675,0.325,0.15,0.85]","","",""
"sailing-trial","80","653023","0.0-11.0-43.0","","","","","","false","","","","","","","","null","","869.4000000000233","","2","0","null","null","arrowup","[0.675,0.325,0.15,0.85]","","",""
"sailing-trial","81","656321","0.0-11.0-44.0","","","","","","false","","","","","","","","672.1999999999534","","20","","2","0","arrowright","1","arrowleft","[0.675,0.325,0.15,0.85]","","",""
"sailing-trial","82","658338","0.0-11.0-45.0","","","","","","false","","","","","","","","null","","721.0999999999767","","2","0","null","null","arrowup","[0.675,0.325,0.15,0.85]","","",""
"sailing-trial","83","661691","0.0-11.0-46.0","","","","","","false","","","","","","","","569.1999999999534","","20.5","","0","0","arrowleft","0","arrowleft","[0.675,0.325,0.15,0.85]","","",""
"sailing-trial","84","664704","0.0-11.0-47.0","","","","","","false","","","","","","","","null","","837.8000000000466","","0","1","null","null","arrowup","[0.675,0.325,0.15,0.85]","","",""
"sailing-trial","85","668029","0.0-11.0-48.0","","","","","","false","","","","","","","","635.0999999999767","","27.70000000006985","","1","0","arrowleft","0","arrowright","[0.675,0.325,0.15,0.85]","","",""
"sailing-trial","86","670247","0.0-11.0-49.0","","","","","","false","","","","","","","","null","","933.6000000000931","","1","0","null","null","arrowup","[0.675,0.325,0.15,0.85]","","",""
"sailing-trial","87","673824","0.0-11.0-50.0","","","","","","false","","","","","","","","701.8000000000466","","19","","0","1","arrowleft","0","arrowleft","[0.675,0.325,0.15,0.85]","","",""
"sailing-trial","88","676710","0.0-11.0-51.0","","","","","","false","","","","","","","","null","","1050.4000000000233","","3","1","null","null","arrowup","[0.675,0.325,0.15,0.85]","","",""
"sailing-trial","89","680579","0.0-11.0-52.0","","","","","","false","","","","","","","","703","","47.5","","0","0","arrowleft","0","arrowleft","[0.15,0.85,0.675,0.325]","","",""
"sailing-trial","90","683148","0.0-11.0-53.0","","","","","","false","","","","","","","","null","","627.3000000000466","","3","0","null","null","arrowup","[0.15,0.85,0.675,0.325]","","",""
"sailing-trial","91","687505","0.0-11.0-54.0","","","","","","false","","","","","","","","656.0999999999767","","868.8000000000466","","0","1","arrowleft","0","arrowleft","[0.15,0.85,0.675,0.325]","","",""
"sailing-trial","92","689707","0.0-11.0-55.0","","","","","","false","","","","","","","","null","","912","","0","0","null","null","arrowup","[0.15,0.85,0.675,0.325]","","",""
"sailing-trial","93","694230","0.0-11.0-56.0","","","","","","false","","","","","","","","926.9000000000233","","10.5","","2","1","arrowright","1","arrowleft","[0.15,0.85,0.675,0.325]","","",""
"sailing-trial","94","697423","0.0-11.0-57.0","","","","","","false","","","","","","","","null","","988.2000000000698","","2","1","null","null","arrowup","[0.15,0.85,0.675,0.325]","","",""
"sailing-trial","95","701036","0.0-11.0-58.0","","","","","","false","","","","","","","","535.5999999999767","","220.69999999995343","","0","1","arrowleft","0","arrowleft","[0.15,0.85,0.675,0.325]","","",""
"sailing-trial","96","703029","0.0-11.0-59.0","","","","","","false","","","","","","","","null","","735.7999999999302","","2","0","null","null","arrowup","[0.15,0.85,0.675,0.325]","","",""
"sailing-trial","97","706584","0.0-11.0-60.0","","","","","","false","","","","","","","","733.5","","488.70000000006985","","0","0","arrowleft","0","arrowleft","[0.15,0.85,0.675,0.325]","","",""
"sailing-trial","98","708707","0.0-11.0-61.0","","","","","","false","","","","","","","","null","","784.4000000000233","","0","0","null","null","arrowup","[0.15,0.85,0.675,0.325]","","",""
"sailing-trial","99","712574","0.0-11.0-62.0","","","","","","false","","","","","","","","665.4000000000233","","8.800000000046566","","1","1","arrowleft","0","arrowright","[0.15,0.85,0.675,0.325]","","",""
"sailing-trial","100","714550","0.0-11.0-63.0","","","","","","false","","","","","","","","null","","636","","0","0","null","null","arrowup","[0.15,0.85,0.675,0.325]","","",""
"sailing-trial","101","718055","0.0-11.0-64.0","","","","","","false","","","","","","","","675.8000000000466","","298.5999999999767","","0","0","arrowleft","0","arrowleft","[0.15,0.85,0.675,0.325]","","",""
"sailing-trial","102","720812","0.0-11.0-65.0","","","","","","false","","","","","","","","null","","801.0999999999767","","3","1","null","null","arrowup","[0.15,0.85,0.675,0.325]","","",""
"sailing-trial","103","724248","0.0-11.0-66.0","","","","","","false","","","","","","","","456","","662.3000000000466","","0","0","arrowleft","0","arrowleft","[0.15,0.85,0.675,0.325]","","",""
"sailing-trial","104","726483","0.0-11.0-67.0","","","","","","false","","","","","","","","null","","946.5","","3","0","null","null","arrowup","[0.15,0.85,0.675,0.325]","","",""
"sailing-trial","105","730307","0.0-11.0-68.0","","","","","","false","","","","","","","","549.1999999999534","","532.5","","1","0","arrowleft","0","arrowright","[0.85,0.15,0.325,0.675]","","",""
"sailing-trial","106","732519","0.0-11.0-69.0","","","","","","false","","","","","","","","null","","752.3999999999069","","0","0","null","null","arrowup","[0.85,0.15,0.325,0.675]","","",""
"sailing-trial","107","736902","0.0-11.0-70.0","","","","","","false","","","","","","","","595.3000000000466","","290","","0","1","arrowleft","0","arrowleft","[0.85,0.15,0.325,0.675]","","",""
"sailing-trial","108","738988","0.0-11.0-71.0","","","","","","false","","","","","","","","null","","662.3000000000466","","3","0","null","null","arrowup","[0.85,0.15,0.325,0.675]","","",""
"sailing-trial","109","743214","0.0-11.0-72.0","","","","","","false","","","","","","","","1468.8000000000466","","107.69999999995343","","1","0","arrowleft","0","arrowright","[0.85,0.15,0.325,0.675]","","",""
"sailing-trial","110","745808","0.0-11.0-73.0","","","","","","false","","","","","","","","null","","696.8000000000466","","0","1","null","null","arrowup","[0.85,0.15,0.325,0.675]","","",""
"sailing-trial","111","750247","0.0-11.0-74.0","","","","","","false","","","","","","","","585.1000000000931","","93.30000000004657","","0","1","arrowleft","0","arrowleft","[0.85,0.15,0.325,0.675]","","",""
"sailing-trial","112","753349","0.0-11.0-75.0","","","","","","false","","","","","","","","null","","1831.5999999998603","","1","0","null","null","arrowup","[0.85,0.15,0.325,0.675]","","",""
"sailing-trial","113","757154","0.0-11.0-76.0","","","","","","false","","","","","","","","1029.1000000000931","","388.10000000009313","","2","0","arrowright","1","arrowleft","[0.85,0.15,0.325,0.675]","","",""
"sailing-trial","114","760220","0.0-11.0-77.0","","","","","","false","","","","","","","","null","","1073.3000000000466","","0","1","null","null","arrowup","[0.85,0.15,0.325,0.675]","","",""
"sailing-trial","115","764700","0.0-11.0-78.0","","","","","","false","","","","","","","","1280.1000000000931","","1.1000000000931323","","3","1","arrowright","1","arrowright","[0.85,0.15,0.325,0.675]","","",""
"sailing-trial","116","768471","0.0-11.0-79.0","","","","","","false","","","","","","","","null","","1044.5","","0","1","null","null","arrowup","[0.85,0.15,0.325,0.675]","","",""
"sailing-trial","117","772946","0.0-11.0-80.0","","","","","","false","","","","","","","","1192.3000000000466","","70.5","","1","0","arrowleft","0","arrowright","[0.85,0.15,0.325,0.675]","","",""
"sailing-trial","118","775024","0.0-11.0-81.0","","","","","","false","","","","","","","","null","","694.8999999999069","","3","0","null","null","arrowup","[0.85,0.15,0.325,0.675]","","",""
"sailing-trial","119","779062","0.0-11.0-82.0","","","","","","false","","","","","","","","690.5","","202.0999999998603","","0","1","arrowleft","0","arrowleft","[0.85,0.15,0.325,0.675]","","",""
"sailing-trial","120","781735","0.0-11.0-83.0","","","","","","false","","","","","","","","null","","879.2000000001863","","0","1","null","null","arrowup","[0.85,0.15,0.325,0.675]","","",""
"sailing-trial","121","785005","0.0-11.0-84.0","","","","","","false","","","","","","","","756.7000000001863","","15.699999999953434","","1","0","arrowleft","0","arrowright","[0.85,0.15,0.325,0.675]","","",""
"sailing-trial","122","788210","0.0-11.0-85.0","","","","","","false","","","","","","","","null","","696.3999999999069","","0","1","null","null","arrowup","[0.85,0.15,0.325,0.675]","","",""
"sailing-trial","123","791109","0.0-11.0-86.0","","","","","","false","","","","","","","","524","","31.800000000046566","","1","0","arrowleft","0","arrowright","[0.85,0.15,0.325,0.675]","","",""
"sailing-trial","124","795006","0.0-11.0-87.0","","","","","","false","","","","","","","","null","","1588.1999999999534","","2","1","null","null","arrowup","[0.85,0.15,0.325,0.675]","","",""
"sailing-trial","125","799401","0.0-11.0-88.0","","","","","","false","","","","","","","","517.3999999999069","","774.1000000000931","","1","1","arrowleft","0","arrowright","[0.85,0.15,0.325,0.675]","","",""
"sailing-trial","126","802621","0.0-11.0-89.0","","","","","","false","","","","","","","","null","","1186.6999999999534","","0","1","null","null","arrowup","[0.85,0.15,0.325,0.675]","","",""
"sailing-trial","127","806876","0.0-11.0-90.0","","","","","","false","","","","","","","","780.3000000000466","","416.89999999990687","","1","1","arrowleft","0","arrowright","[0.675,0.325,0.15,0.85]","","",""
"sailing-trial","128","809567","0.0-11.0-91.0","","","","","","false","","","","","","","","null","","796.8000000000466","","1","1","null","null","arrowup","[0.675,0.325,0.15,0.85]","","",""
"sailing-trial","129","813492","0.0-11.0-92.0","","","","","","false","","","","","","","","804.0999999998603","","301.5999999998603","","0","1","arrowleft","0","arrowleft","[0.675,0.325,0.15,0.85]","","",""
"sailing-trial","130","815494","0.0-11.0-93.0","","","","","","false","","","","","","","","null","","752.1999999999534","","1","0","null","null","arrowup","[0.675,0.325,0.15,0.85]","","",""
"sailing-trial","131","819372","0.0-11.0-94.0","","","","","","false","","","","","","","","716","","309.80000000004657","","1","1","arrowleft","0","arrowright","[0.675,0.325,0.15,0.85]","","",""
"sailing-trial","132","821460","0.0-11.0-95.0","","","","","","false","","","","","","","","null","","713.8000000000466","","1","0","null","null","arrowup","[0.675,0.325,0.15,0.85]","","",""
"sailing-trial","133","825076","0.0-11.0-96.0","","","","","","false","","","","","","","","623.8000000000466","","115","","0","1","arrowleft","0","arrowleft","[0.675,0.325,0.15,0.85]","","",""
"sailing-trial","134","827854","0.0-11.0-97.0","","","","","","false","","","","","","","","null","","763.7000000001863","","3","1","null","null","arrowup","[0.675,0.325,0.15,0.85]","","",""
"sailing-trial","135","832199","0.0-11.0-98.0","","","","","","false","","","","","","","","831.1999999999534","","80.80000000004657","","3","1","arrowright","1","arrowright","[0.675,0.325,0.15,0.85]","","",""
"sailing-trial","136","834265","0.0-11.0-99.0","","","","","","false","","","","","","","","null","","763.3000000000466","","1","0","null","null","arrowup","[0.675,0.325,0.15,0.85]","","",""
"sailing-trial","137","838104","0.0-11.0-100.0","","","","","","false","","","","","","","","720.7999999998137","","40.5","","0","1","arrowleft","0","arrowleft","[0.675,0.325,0.15,0.85]","","",""
"sailing-trial","138","840332","0.0-11.0-101.0","","","","","","false","","","","","","","","null","","907.3000000000466","","2","0","null","null","arrowup","[0.675,0.325,0.15,0.85]","","",""
"sailing-trial","139","843604","0.0-11.0-102.0","","","","","","false","","","","","","","","589.6999999999534","","317.4000000001397","","0","0","arrowleft","0","arrowleft","[0.675,0.325,0.15,0.85]","","",""
"sailing-trial","140","845717","0.0-11.0-103.0","","","","","","false","","","","","","","","null","","846.6000000000931","","0","0","null","null","arrowup","[0.675,0.325,0.15,0.85]","","",""
"sailing-trial","141","849428","0.0-11.0-104.0","","","","","","false","","","","","","","","632","","406.80000000004657","","2","0","arrowright","1","arrowleft","[0.675,0.325,0.15,0.85]","","",""
"sailing-trial","142","852311","0.0-11.0-105.0","","","","","","false","","","","","","","","null","","871.8000000000466","","2","0","null","null","arrowup","[0.675,0.325,0.15,0.85]","","",""
"sailing-trial","143","856074","0.0-11.0-106.0","","","","","","false","","","","","","","","556.5999999998603","","371","","3","1","arrowright","1","arrowright","[0.675,0.325,0.15,0.85]","","",""
"sailing-trial","144","858256","0.0-11.0-107.0","","","","","","false","","","","","","","","null","","917.9000000001397","","1","0","null","null","arrowup","[0.675,0.325,0.15,0.85]","","",""
"sailing-trial","145","862476","0.0-11.0-108.0","","","","","","false","","","","","","","","620.8000000000466","","420.19999999995343","","0","1","arrowleft","0","arrowleft","[0.85,0.15,0.325,0.675]","","",""
"sailing-trial","146","865060","0.0-11.0-109.0","","","","","","false","","","","","","","","null","","683","","2","1","null","null","arrowup","[0.85,0.15,0.325,0.675]","","",""
"sailing-trial","147","869504","0.0-11.0-110.0","","","","","","false","","","","","","","","1091.3000000000466","","514.5","","3","1","arrowright","1","arrowright","[0.85,0.15,0.325,0.675]","","",""
"sailing-trial","148","871743","0.0-11.0-111.0","","","","","","false","","","","","","","","null","","1026.4000000001397","","1","0","null","null","arrowup","[0.85,0.15,0.325,0.675]","","",""
"sailing-trial","149","875316","0.0-11.0-112.0","","","","","","false","","","","","","","","578","","27","","0","1","arrowleft","0","arrowleft","[0.85,0.15,0.325,0.675]","","",""
"sailing-trial","150","878026","0.0-11.0-113.0","","","","","","false","","","","","","","","null","","885.5","","0","1","null","null","arrowup","[0.85,0.15,0.325,0.675]","","",""
"sailing-trial","151","881871","0.0-11.0-114.0","","","","","","false","","","","","","","","645","","373","","0","1","arrowleft","0","arrowleft","[0.85,0.15,0.325,0.675]","","",""
"sailing-trial","152","885175","0.0-11.0-115.0","","","","","","false","","","","","","","","null","","1557.6000000000931","","0","1","null","null","arrowup","[0.85,0.15,0.325,0.675]","","",""
"sailing-trial","153","889017","0.0-11.0-116.0","","","","","","false","","","","","","","","644.1000000000931","","304.19999999995343","","3","1","arrowright","1","arrowright","[0.85,0.15,0.325,0.675]","","",""
"sailing-trial","154","892455","0.0-11.0-117.0","","","","","","false","","","","","","","","null","","1186.3000000000466","","2","1","null","null","arrowup","[0.85,0.15,0.325,0.675]","","",""
"sailing-trial","155","896634","0.0-11.0-118.0","","","","","","false","","","","","","","","681.8000000000466","","125","","0","1","arrowleft","0","arrowleft","[0.85,0.15,0.325,0.675]","","",""
"sailing-trial","156","899076","0.0-11.0-119.0","","","","","","false","","","","","","","","null","","1188.6000000000931","","1","0","null","null","arrowup","[0.85,0.15,0.325,0.675]","","",""
"sailing-trial","157","902153","0.0-11.0-120.0","","","","","","false","","","","","","","","557.6999999999534","","30.699999999953434","","1","0","arrowleft","0","arrowright","[0.85,0.15,0.325,0.675]","","",""
"sailing-trial","158","904697","0.0-11.0-121.0","","","","","","false","","","","","","","","null","","778.0999999998603","","2","1","null","null","arrowup","[0.85,0.15,0.325,0.675]","","",""
"sailing-trial","159","908556","0.0-11.0-122.0","","","","","","false","","","","","","","","694.0999999998603","","176.19999999995343","","0","0","arrowleft","0","arrowleft","[0.85,0.15,0.325,0.675]","","",""
"sailing-trial","160","910625","0.0-11.0-123.0","","","","","","false","","","","","","","","null","","821.5","","2","0","null","null","arrowup","[0.85,0.15,0.325,0.675]","","",""
"sailing-trial","161","914571","0.0-11.0-124.0","","","","","","false","","","","","","","","655.3000000000466","","479.60000000009313","","3","1","arrowright","1","arrowright","[0.675,0.325,0.15,0.85]","","",""
"sailing-trial","162","917458","0.0-11.0-125.0","","","","","","false","","","","","","","","null","","723.4000000001397","","1","1","null","null","arrowup","[0.675,0.325,0.15,0.85]","","",""
"sailing-trial","163","920629","0.0-11.0-126.0","","","","","","false","","","","","","","","613.6000000000931","","344.5","","3","0","arrowright","1","arrowright","[0.675,0.325,0.15,0.85]","","",""
"sailing-trial","164","923294","0.0-11.0-127.0","","","","","","false","","","","","","","","null","","922.3000000000466","","3","1","null","null","arrowup","[0.675,0.325,0.15,0.85]","","",""
"sailing-trial","165","926640","0.0-11.0-128.0","","","","","","false","","","","","","","","958.5999999998603","","6.400000000139698","","0","0","arrowleft","0","arrowleft","[0.675,0.325,0.15,0.85]","","",""
"sailing-trial","166","928789","0.0-11.0-129.0","","","","","","false","","","","","","","","null","","876.5999999998603","","2","0","null","null","arrowup","[0.675,0.325,0.15,0.85]","","",""
"sailing-trial","167","932788","0.0-11.0-130.0","","","","","","false","","","","","","","","677.6000000000931","","460.9000000001397","","3","1","arrowright","1","arrowright","[0.675,0.325,0.15,0.85]","","",""
"sailing-trial","168","934851","0.0-11.0-131.0","","","","","","false","","","","","","","","null","","705.3000000000466","","1","0","null","null","arrowup","[0.675,0.325,0.15,0.85]","","",""
"sailing-trial","169","938809","0.0-11.0-132.0","","","","","","false","","","","","","","","759.6999999999534","","321.69999999995343","","0","1","arrowleft","0","arrowleft","[0.675,0.325,0.15,0.85]","","",""
"sailing-trial","170","942622","0.0-11.0-133.0","","","","","","false","","","","","","","","null","","2070.5999999998603","","0","1","null","null","arrowup","[0.675,0.325,0.15,0.85]","","",""
"sailing-trial","171","946559","0.0-11.0-134.0","","","","","","false","","","","","","","","588.0999999998603","","292.9000000001397","","3","1","arrowright","1","arrowright","[0.675,0.325,0.15,0.85]","","",""
"sailing-trial","172","949219","0.0-11.0-135.0","","","","","","false","","","","","","","","null","","860.3999999999069","","3","1","null","null","arrowup","[0.675,0.325,0.15,0.85]","","",""
"sailing-trial","173","953808","0.0-11.0-136.0","","","","","","false","","","","","","","","1295.6999999999534","","124.5","","0","1","arrowleft","0","arrowleft","[0.675,0.325,0.15,0.85]","","",""
"sailing-trial","174","957913","0.0-11.0-137.0","","","","","","false","","","","","","","","null","","1097.1000000000931","","2","0","null","null","arrowup","[0.675,0.325,0.15,0.85]","","",""
"sailing-trial","175","963404","0.0-11.0-138.0","","","","","","false","","","","","","","","1775.3999999999069","","182.19999999995343","","0","1","arrowleft","0","arrowleft","[0.675,0.325,0.15,0.85]","","",""
"sailing-trial","176","966108","0.0-11.0-139.0","","","","","","false","","","","","","","","null","","746.6999999999534","","3","1","null","null","arrowup","[0.675,0.325,0.15,0.85]","","",""
"sailing-trial","177","969353","0.0-11.0-140.0","","","","","","false","","","","","","","","681.1999999999534","","220.89999999990687","","0","0","arrowleft","0","arrowleft","[0.675,0.325,0.15,0.85]","","",""
"sailing-trial","178","973923","0.0-11.0-141.0","","","","","","false","","","","","","","","null","","1962.4000000001397","","0","1","null","null","arrowup","[0.675,0.325,0.15,0.85]","","",""
"sailing-trial","179","978566","0.0-11.0-142.0","","","","","","false","","","","","","","","981.6999999999534","","276.20000000018626","","3","1","arrowright","1","arrowright","[0.675,0.325,0.15,0.85]","","",""
"sailing-trial","180","984538","0.0-11.0-143.0","","","","","","false","","","","","","","","null","","3774.2999999998137","","2","1","null","null","arrowup","[0.675,0.325,0.15,0.85]","","",""
"sailing-trial","181","988604","0.0-11.0-144.0","","","","","","false","","","","","","","","1043.5","","363.39999999990687","","3","0","arrowright","1","arrowright","[0.85,0.15,0.325,0.675]","","",""
"sailing-trial","182","991876","0.0-11.0-145.0","","","","","","false","","","","","","","","null","","865.3000000000466","","0","1","null","null","arrowup","[0.85,0.15,0.325,0.675]","","",""
"sailing-trial","183","995231","0.0-11.0-146.0","","","","","","false","","","","","","","","799.6999999999534","","36.5","","1","0","arrowleft","0","arrowright","[0.85,0.15,0.325,0.675]","","",""
"sailing-trial","184","999350","0.0-11.0-147.0","","","","","","false","","","","","","","","null","","1857","","0","1","null","null","arrowup","[0.85,0.15,0.325,0.675]","","",""
"sailing-trial","185","1003150","0.0-11.0-148.0","","","","","","false","","","","","","","","784.8000000000466","","196.5","","0","1","arrowleft","0","arrowleft","[0.85,0.15,0.325,0.675]","","",""
"sailing-trial","186","1006405","0.0-11.0-149.0","","","","","","false","","","","","","","","null","","1014.6000000000931","","3","1","null","null","arrowup","[0.85,0.15,0.325,0.675]","","",""
"sailing-trial","187","1011813","0.0-11.0-150.0","","","","","","false","","","","","","","","689.5","","728.1999999999534","","0","1","arrowleft","0","arrowleft","[0.85,0.15,0.325,0.675]","","",""
"sailing-trial","188","1014862","0.0-11.0-151.0","","","","","","false","","","","","","","","null","","1259.4000000001397","","0","1","null","null","arrowup","[0.85,0.15,0.325,0.675]","","",""
"sailing-trial","189","1018634","0.0-11.0-152.0","","","","","","false","","","","","","","","651.2999999998137","","403.60000000009313","","1","1","arrowleft","0","arrowright","[0.85,0.15,0.325,0.675]","","",""
"sailing-trial","190","1020888","0.0-11.0-153.0","","","","","","false","","","","","","","","null","","845.7999999998137","","3","0","null","null","arrowup","[0.85,0.15,0.325,0.675]","","",""
"sailing-trial","191","1025183","0.0-11.0-154.0","","","","","","false","","","","","","","","1160.6000000000931","","357.69999999995343","","0","1","arrowleft","0","arrowleft","[0.85,0.15,0.325,0.675]","","",""
"sailing-trial","192","1027776","0.0-11.0-155.0","","","","","","false","","","","","","","","null","","801.6000000000931","","3","1","null","null","arrowup","[0.85,0.15,0.325,0.675]","","",""
"sailing-trial","193","1031840","0.0-11.0-156.0","","","","","","false","","","","","","","","591.6000000000931","","261.10000000009313","","0","1","arrowleft","0","arrowleft","[0.85,0.15,0.325,0.675]","","",""
"sailing-trial","194","1035341","0.0-11.0-157.0","","","","","","false","","","","","","","","null","","1797","","1","0","null","null","arrowup","[0.85,0.15,0.325,0.675]","","",""
"sailing-trial","195","1038666","0.0-11.0-158.0","","","","","","false","","","","","","","","639.3000000000466","","168.19999999995343","","1","0","arrowleft","0","arrowright","[0.85,0.15,0.325,0.675]","","",""
"sailing-trial","196","1042836","0.0-11.0-159.0","","","","","","false","","","","","","","","null","","1856.1000000000931","","2","0","null","null","arrowup","[0.85,0.15,0.325,0.675]","","",""
"sailing-trial","197","1047523","0.0-11.0-160.0","","","","","","false","","","","","","","","1409.8999999999069","","279.19999999995343","","0","1","arrowleft","0","arrowleft","[0.85,0.15,0.325,0.675]","","",""
"sailing-trial","198","1051537","0.0-11.0-161.0","","","","","","false","","","","","","","","null","","897.2999999998137","","3","1","null","null","arrowup","[0.85,0.15,0.325,0.675]","","",""
"sailing-trial","199","1055510","0.0-11.0-162.0","","","","","","false","","","","","","","","968.6999999997206","","129.6999999997206","","0","0","arrowleft","0","arrowleft","[0.325,0.675,0.85,0.15]","","",""
"sailing-trial","200","1060140","0.0-11.0-163.0","","","","","","false","","","","","","","","null","","2007.3000000002794","","2","1","null","null","arrowup","[0.325,0.675,0.85,0.15]","","",""
"sailing-trial","201","1065826","0.0-11.0-164.0","","","","","","false","","","","","","","","1497.4000000003725","","236.1999999997206","","0","1","arrowleft","0","arrowleft","[0.325,0.675,0.85,0.15]","","",""
"sailing-trial","202","1069114","0.0-11.0-165.0","","","","","","false","","","","","","","","null","","1434.8000000002794","","3","0","null","null","arrowup","[0.325,0.675,0.85,0.15]","","",""
"sailing-trial","203","1072633","0.0-11.0-166.0","","","","","","false","","","","","","","","701.1000000000931","","350.10000000009313","","0","0","arrowleft","0","arrowleft","[0.325,0.675,0.85,0.15]","","",""
"sailing-trial","204","1075014","0.0-11.0-167.0","","","","","","false","","","","","","","","null","","1129.1999999997206","","3","0","null","null","arrowup","[0.325,0.675,0.85,0.15]","","",""
"sailing-trial","205","1078762","0.0-11.0-168.0","","","","","","false","","","","","","","","696.1999999997206","","184.60000000009313","","2","1","arrowright","1","arrowleft","[0.325,0.675,0.85,0.15]","","",""
"sailing-trial","206","1080910","0.0-11.0-169.0","","","","","","false","","","","","","","","null","","804.4000000003725","","3","0","null","null","arrowup","[0.325,0.675,0.85,0.15]","","",""
"sailing-trial","207","1084122","0.0-11.0-170.0","","","","","","false","","","","","","","","628.7000000001863","","217.90000000037253","","0","0","arrowleft","0","arrowleft","[0.325,0.675,0.85,0.15]","","",""
"sailing-trial","208","1086307","0.0-11.0-171.0","","","","","","false","","","","","","","","null","","953.4000000003725","","0","0","null","null","arrowup","[0.325,0.675,0.85,0.15]","","",""
"sailing-trial","209","1090470","0.0-11.0-172.0","","","","","","false","","","","","","","","551.4000000003725","","424.79999999981374","","2","1","arrowright","1","arrowleft","[0.325,0.675,0.85,0.15]","","",""
"sailing-trial","210","1092494","0.0-11.0-173.0","","","","","","false","","","","","","","","null","","771.3000000002794","","2","0","null","null","arrowup","[0.325,0.675,0.85,0.15]","","",""
"sailing-trial","211","1100581","0.0-11.0-174.0","","","","","","false","","","","","","","","3133.5","","987.7999999998137","","0","1","arrowleft","0","arrowleft","[0.325,0.675,0.85,0.15]","","",""
"sailing-trial","212","1102544","0.0-11.0-175.0","","","","","","false","","","","","","","","null","","760.0999999996275","","0","0","null","null","arrowup","[0.325,0.675,0.85,0.15]","","",""
"sailing-trial","213","1106301","0.0-11.0-176.0","","","","","","false","","","","","","","","753.4000000003725","","636.7000000001863","","3","0","arrowright","1","arrowright","[0.325,0.675,0.85,0.15]","","",""
"sailing-trial","214","1108444","0.0-11.0-177.0","","","","","","false","","","","","","","","null","","909.3000000002794","","3","0","null","null","arrowup","[0.325,0.675,0.85,0.15]","","",""
"sailing-trial","215","1111527","0.0-11.0-178.0","","","","","","false","","","","","","","","638.3000000002794","","86.10000000009313","","0","0","arrowleft","0","arrowleft","[0.15,0.85,0.675,0.325]","","",""
"sailing-trial","216","1114095","0.0-11.0-179.0","","","","","","false","","","","","","","","null","","818.5","","3","1","null","null","arrowup","[0.15,0.85,0.675,0.325]","","",""
"sailing-trial","217","1117531","0.0-11.0-180.0","","","","","","false","","","","","","","","545.9000000003725","","79.6999999997206","","1","1","arrowleft","0","arrowright","[0.15,0.85,0.675,0.325]","","",""
"sailing-trial","218","1120084","0.0-11.0-181.0","","","","","","false","","","","","","","","null","","834.1999999997206","","2","1","null","null","arrowup","[0.15,0.85,0.675,0.325]","","",""
"sailing-trial","219","1123499","0.0-11.0-182.0","","","","","","false","","","","","","","","530.6000000000931","","18","","2","1","arrowright","1","arrowleft","[0.15,0.85,0.675,0.325]","","",""
"sailing-trial","220","1125586","0.0-11.0-183.0","","","","","","false","","","","","","","","null","","816","","0","0","null","null","arrowup","[0.15,0.85,0.675,0.325]","","",""
"sailing-trial","221","1128764","0.0-11.0-184.0","","","","","","false","","","","","","","","594.7000000001863","","163.89999999990687","","0","0","arrowleft","0","arrowleft","[0.15,0.85,0.675,0.325]","","",""
"sailing-trial","222","1130875","0.0-11.0-185.0","","","","","","false","","","","","","","","null","","840.6000000000931","","0","0","null","null","arrowup","[0.15,0.85,0.675,0.325]","","",""
"sailing-trial","223","1135938","0.0-11.0-186.0","","","","","","false","","","","","","","","1086","","76.79999999981374","","2","1","arrowright","1","arrowleft","[0.15,0.85,0.675,0.325]","","",""
"sailing-trial","224","1140177","0.0-11.0-187.0","","","","","","false","","","","","","","","null","","2647.6999999997206","","1","1","null","null","arrowup","[0.15,0.85,0.675,0.325]","","",""
"sailing-trial","225","1143216","0.0-11.0-188.0","","","","","","false","","","","","","","","658.2999999998137","","87.70000000018626","","0","0","arrowleft","0","arrowleft","[0.15,0.85,0.675,0.325]","","",""
"sailing-trial","226","1145813","0.0-11.0-189.0","","","","","","false","","","","","","","","null","","882.5","","2","1","null","null","arrowup","[0.15,0.85,0.675,0.325]","","",""
"sailing-trial","227","1149002","0.0-11.0-190.0","","","","","","false","","","","","","","","493","","232","","3","0","arrowright","1","arrowright","[0.15,0.85,0.675,0.325]","","",""
"sailing-trial","228","1151556","0.0-11.0-191.0","","","","","","false","","","","","","","","null","","840.3999999999069","","1","1","null","null","arrowup","[0.15,0.85,0.675,0.325]","","",""
"sailing-trial","229","1154661","0.0-11.0-192.0","","","","","","false","","","","","","","","540.3999999999069","","428.60000000009313","","0","0","arrowleft","0","arrowleft","[0.15,0.85,0.675,0.325]","","",""
"sailing-trial","230","1157132","0.0-11.0-193.0","","","","","","false","","","","","","","","null","","683.2000000001863","","1","1","null","null","arrowup","[0.15,0.85,0.675,0.325]","","",""
"sailing-trial","231","1160836","0.0-11.0-194.0","","","","","","false","","","","","","","","637.6999999997206","","10.300000000279397","","1","1","arrowleft","0","arrowright","[0.15,0.85,0.675,0.325]","","",""
"sailing-trial","232","1163160","0.0-11.0-195.0","","","","","","false","","","","","","","","null","","620.6000000000931","","2","1","null","null","arrowup","[0.15,0.85,0.675,0.325]","","",""
"sailing-trial","233","1168609","0.0-11.0-196.0","","","","","","false","","","","","","","","639.7999999998137","","356.20000000018626","","1","1","arrowleft","0","arrowright","[0.15,0.85,0.675,0.325]","","",""
"sailing-trial","234","1171569","0.0-11.0-197.0","","","","","","false","","","","","","","","null","","1171.2000000001863","","1","1","null","null","arrowup","[0.15,0.85,0.675,0.325]","","",""
"sailing-trial","235","1174832","0.0-11.0-198.0","","","","","","false","","","","","","","","603.2000000001863","","393.60000000009313","","0","0","arrowleft","0","arrowleft","[0.325,0.675,0.85,0.15]","","",""
"sailing-trial","236","1177489","0.0-11.0-199.0","","","","","","false","","","","","","","","null","","849.8000000002794","","0","0","null","null","arrowup","[0.325,0.675,0.85,0.15]","","",""
"sailing-trial","237","1181176","0.0-11.0-200.0","","","","","","false","","","","","","","","571.5999999996275","","117.39999999990687","","2","1","arrowright","1","arrowleft","[0.325,0.675,0.85,0.15]","","",""
"sailing-trial","238","1183294","0.0-11.0-201.0","","","","","","false","","","","","","","","null","","829.5","","0","0","null","null","arrowup","[0.325,0.675,0.85,0.15]","","",""
"sailing-trial","239","1186941","0.0-11.0-202.0","","","","","","false","","","","","","","","514.1999999997206","","433.1999999997206","","1","0","arrowleft","0","arrowright","[0.325,0.675,0.85,0.15]","","",""
"sailing-trial","240","1189791","0.0-11.0-203.0","","","","","","false","","","","","","","","null","","806.3000000002794","","2","1","null","null","arrowup","[0.325,0.675,0.85,0.15]","","",""
"sailing-trial","241","1192956","0.0-11.0-204.0","","","","","","false","","","","","","","","518.5","","336.79999999981374","","0","0","arrowleft","0","arrowleft","[0.325,0.675,0.85,0.15]","","",""
"sailing-trial","242","1195593","0.0-11.0-205.0","","","","","","false","","","","","","","","null","","821.7999999998137","","0","1","null","null","arrowup","[0.325,0.675,0.85,0.15]","","",""
"sailing-trial","243","1199571","0.0-11.0-206.0","","","","","","false","","","","","","","","1310.3999999999069","","62.10000000009313","","3","0","arrowright","1","arrowright","[0.325,0.675,0.85,0.15]","","",""
"sailing-trial","244","1205789","0.0-11.0-207.0","","","","","","false","","","","","","","","null","","3201.399999999907","","0","0","null","null","arrowup","[0.325,0.675,0.85,0.15]","","",""
"sailing-trial","245","1210920","0.0-11.0-208.0","","","","","","false","","","","","","","","1360","","700.8000000002794","","0","0","arrowleft","0","arrowleft","[0.325,0.675,0.85,0.15]","","",""
"sailing-trial","246","1213375","0.0-11.0-209.0","","","","","","false","","","","","","","","null","","690.7000000001863","","0","1","null","null","arrowup","[0.325,0.675,0.85,0.15]","","",""
"sailing-trial","247","1216814","0.0-11.0-210.0","","","","","","false","","","","","","","","635.4000000003725","","396.1999999997206","","3","0","arrowright","1","arrowright","[0.325,0.675,0.85,0.15]","","",""
"sailing-trial","248","1219370","0.0-11.0-211.0","","","","","","false","","","","","","","","null","","780","","1","1","null","null","arrowup","[0.325,0.675,0.85,0.15]","","",""
"sailing-trial","249","1222987","0.0-11.0-212.0","","","","","","false","","","","","","","","853.7000000001863","","121.60000000009313","","0","0","arrowleft","0","arrowleft","[0.325,0.675,0.85,0.15]","","",""
"sailing-trial","250","1226658","0.0-11.0-213.0","","","","","","false","","","","","","","","null","","1960.3000000002794","","0","1","null","null","arrowup","[0.325,0.675,0.85,0.15]","","",""
"sailing-trial","251","1231727","0.0-11.0-214.0","","","","","","false","","","","","","","","2382.6999999997206","","423.5","","3","0","arrowright","1","arrowright","[0.325,0.675,0.85,0.15]","","",""
"sailing-trial","252","1233784","0.0-11.0-215.0","","","","","","false","","","","","","","","null","","777.7000000001863","","0","0","null","null","arrowup","[0.325,0.675,0.85,0.15]","","",""
"sailing-trial","253","1238018","0.0-11.0-216.0","","","","","","false","","","","","","","","1278","","159.10000000009313","","1","1","arrowleft","0","arrowright","[0.15,0.85,0.675,0.325]","","",""
"sailing-trial","254","1243337","0.0-11.0-217.0","","","","","","false","","","","","","","","null","","2961.2999999998137","","1","1","null","null","arrowup","[0.15,0.85,0.675,0.325]","","",""
"sailing-trial","255","1247744","0.0-11.0-218.0","","","","","","false","","","","","","","","1361.0999999996275","","154.1999999997206","","1","1","arrowleft","0","arrowright","[0.15,0.85,0.675,0.325]","","",""
"sailing-trial","256","1250491","0.0-11.0-219.0","","","","","","false","","","","","","","","null","","885.5","","1","1","null","null","arrowup","[0.15,0.85,0.675,0.325]","","",""
"sailing-trial","257","1254194","0.0-11.0-220.0","","","","","","false","","","","","","","","612","","150.79999999981374","","1","1","arrowleft","0","arrowright","[0.15,0.85,0.675,0.325]","","",""
"sailing-trial","258","1256207","0.0-11.0-221.0","","","","","","false","","","","","","","","null","","753.7000000001863","","1","0","null","null","arrowup","[0.15,0.85,0.675,0.325]","","",""
"sailing-trial","259","1259826","0.0-11.0-222.0","","","","","","false","","","","","","","","689.8999999999069","","141.10000000009313","","1","1","arrowleft","0","arrowright","[0.15,0.85,0.675,0.325]","","",""
"sailing-trial","260","1263053","0.0-11.0-223.0","","","","","","false","","","","","","","","null","","775.1999999997206","","2","1","null","null","arrowup","[0.15,0.85,0.675,0.325]","","",""
"sailing-trial","261","1266604","0.0-11.0-224.0","","","","","","false","","","","","","","","690.1000000000931","","94.59999999962747","","1","1","arrowleft","0","arrowright","[0.15,0.85,0.675,0.325]","","",""
"sailing-trial","262","1270012","0.0-11.0-225.0","","","","","","false","","","","","","","","null","","1082.6999999997206","","0","0","null","null","arrowup","[0.15,0.85,0.675,0.325]","","",""
"sailing-trial","263","1274173","0.0-11.0-226.0","","","","","","false","","","","","","","","696.3999999999069","","340.29999999981374","","0","0","arrowleft","0","arrowleft","[0.15,0.85,0.675,0.325]","","",""
"sailing-trial","264","1276524","0.0-11.0-227.0","","","","","","false","","","","","","","","null","","1225.3999999999069","","2","0","null","null","arrowup","[0.15,0.85,0.675,0.325]","","",""
"sailing-trial","265","1279824","0.0-11.0-228.0","","","","","","false","","","","","","","","589.7000000001863","","379.60000000009313","","3","0","arrowright","1","arrowright","[0.15,0.85,0.675,0.325]","","",""
"sailing-trial","266","1282172","0.0-11.0-229.0","","","","","","false","","","","","","","","null","","1022.2999999998137","","1","0","null","null","arrowup","[0.15,0.85,0.675,0.325]","","",""
"sailing-trial","267","1285949","0.0-11.0-230.0","","","","","","false","","","","","","","","571","","412","","1","1","arrowleft","0","arrowright","[0.15,0.85,0.675,0.325]","","",""
"sailing-trial","268","1288683","0.0-11.0-231.0","","","","","","false","","","","","","","","null","","946.6000000000931","","1","1","null","null","arrowup","[0.15,0.85,0.675,0.325]","","",""
"sailing-trial","269","1292318","0.0-11.0-232.0","","","","","","false","","","","","","","","800.6999999997206","","106.3000000002794","","1","0","arrowleft","0","arrowright","[0.325,0.675,0.85,0.15]","","",""
"sailing-trial","270","1295537","0.0-11.0-233.0","","","","","","false","","","","","","","","null","","1110.8999999999069","","0","0","null","null","arrowup","[0.325,0.675,0.85,0.15]","","",""
"sailing-trial","271","1299145","0.0-11.0-234.0","","","","","","false","","","","","","","","761.2000000001863","","121.10000000009313","","0","0","arrowleft","0","arrowleft","[0.325,0.675,0.85,0.15]","","",""
"sailing-trial","272","1303002","0.0-11.0-235.0","","","","","","false","","","","","","","","null","","1613.5","","3","0","null","null","arrowup","[0.325,0.675,0.85,0.15]","","",""
"sailing-trial","273","1306817","0.0-11.0-236.0","","","","","","false","","","","","","","","607.1000000000931","","269.89999999990687","","3","1","arrowright","1","arrowright","[0.325,0.675,0.85,0.15]","","",""
"sailing-trial","274","1310097","0.0-11.0-237.0","","","","","","false","","","","","","","","null","","1227.1000000000931","","3","1","null","null","arrowup","[0.325,0.675,0.85,0.15]","","",""
"sailing-trial","275","1313666","0.0-11.0-238.0","","","","","","false","","","","","","","","742.6000000000931","","124.89999999990687","","3","0","arrowright","1","arrowright","[0.325,0.675,0.85,0.15]","","",""
"sailing-trial","276","1316565","0.0-11.0-239.0","","","","","","false","","","","","","","","null","","1048.6000000000931","","2","1","null","null","arrowup","[0.325,0.675,0.85,0.15]","","",""
"sailing-trial","277","1320184","0.0-11.0-240.0","","","","","","false","","","","","","","","722.7999999998137","","26.200000000186265","","1","1","arrowleft","0","arrowright","[0.325,0.675,0.85,0.15]","","",""
"sailing-trial","278","1322562","0.0-11.0-241.0","","","","","","false","","","","","","","","null","","1044.5","","3","0","null","null","arrowup","[0.325,0.675,0.85,0.15]","","",""
"sailing-trial","279","1325646","0.0-11.0-242.0","","","","","","false","","","","","","","","646.3999999999069","","186.5","","0","0","arrowleft","0","arrowleft","[0.325,0.675,0.85,0.15]","","",""
"sailing-trial","280","1327956","0.0-11.0-243.0","","","","","","false","","","","","","","","null","","734.7999999998137","","1","1","null","null","arrowup","[0.325,0.675,0.85,0.15]","","",""
"sailing-trial","281","1332199","0.0-11.0-244.0","","","","","","false","","","","","","","","1739.1000000000931","","87","","1","0","arrowleft","0","arrowright","[0.325,0.675,0.85,0.15]","","",""
"sailing-trial","282","1334746","0.0-11.0-245.0","","","","","","false","","","","","","","","null","","1022.5","","1","1","null","null","arrowup","[0.325,0.675,0.85,0.15]","","",""
"sailing-trial","283","1337923","0.0-11.0-246.0","","","","","","false","","","","","","","","524.5","","309.6999999997206","","3","0","arrowright","1","arrowright","[0.325,0.675,0.85,0.15]","","",""
"sailing-trial","284","1340050","0.0-11.0-247.0","","","","","","false","","","","","","","","null","","872.1000000000931","","0","0","null","null","arrowup","[0.325,0.675,0.85,0.15]","","",""
"sailing-trial","285","1343701","0.0-11.0-248.0","","","","","","false","","","","","","","","786.3999999999069","","41.39999999990687","","1","1","arrowleft","0","arrowright","[0.325,0.675,0.85,0.15]","","",""
"sailing-trial","286","1346806","0.0-11.0-249.0","","","","","","false","","","","","","","","null","","1884.6999999997206","","3","0","null","null","arrowup","[0.325,0.675,0.85,0.15]","","",""
"sailing-trial","287","1350715","0.0-11.0-250.0","","","","","","false","","","","","","","","619.5999999996275","","489.29999999981374","","1","1","arrowleft","0","arrowright","[0.325,0.675,0.85,0.15]","","",""
"sailing-trial","288","1352716","0.0-11.0-251.0","","","","","","false","","","","","","","","null","","756.7999999998137","","1","0","null","null","arrowup","[0.325,0.675,0.85,0.15]","","",""
"sailing-trial","289","1356523","0.0-11.0-252.0","","","","","","false","","","","","","","","670.8999999999069","","355.29999999981374","","1","0","arrowleft","0","arrowright","[0.325,0.675,0.85,0.15]","","",""
"sailing-trial","290","1359124","0.0-11.0-253.0","","","","","","false","","","","","","","","null","","790.3000000002794","","1","1","null","null","arrowup","[0.325,0.675,0.85,0.15]","","",""
"sailing-trial","291","1362876","0.0-11.0-254.0","","","","","","false","","","","","","","","669.7999999998137","","237.6999999997206","","1","1","arrowleft","0","arrowright","[0.325,0.675,0.85,0.15]","","",""
"sailing-trial","292","1364995","0.0-11.0-255.0","","","","","","false","","","","","","","","null","","850.3999999999069","","3","0","null","null","arrowup","[0.325,0.675,0.85,0.15]","","",""
"sailing-trial","293","1367928","0.0-11.0-256.0","","","","","","false","","","","","","","","620.7999999998137","","10.899999999906868","","1","0","arrowleft","0","arrowright","[0.15,0.85,0.675,0.325]","","",""
"sailing-trial","294","1370637","0.0-11.0-257.0","","","","","","false","","","","","","","","null","","960.1000000000931","","1","1","null","null","arrowup","[0.15,0.85,0.675,0.325]","","",""
"sailing-trial","295","1374147","0.0-11.0-258.0","","","","","","false","","","","","","","","554.8999999999069","","157.5","","1","1","arrowleft","0","arrowright","[0.15,0.85,0.675,0.325]","","",""
"sailing-trial","296","1376626","0.0-11.0-259.0","","","","","","false","","","","","","","","null","","735.1000000000931","","1","1","null","null","arrowup","[0.15,0.85,0.675,0.325]","","",""
"sailing-trial","297","1380167","0.0-11.0-260.0","","","","","","false","","","","","","","","523.3999999999069","","63.10000000009313","","1","1","arrowleft","0","arrowright","[0.15,0.85,0.675,0.325]","","",""
"sailing-trial","298","1382256","0.0-11.0-261.0","","","","","","false","","","","","","","","null","","789.2000000001863","","1","0","null","null","arrowup","[0.15,0.85,0.675,0.325]","","",""
"sailing-trial","299","1386994","0.0-11.0-262.0","","","","","","false","","","","","","","","1854.3999999999069","","107.70000000018626","","1","1","arrowleft","0","arrowright","[0.15,0.85,0.675,0.325]","","",""
"sailing-trial","300","1389189","0.0-11.0-263.0","","","","","","false","","","","","","","","null","","1055.7999999998137","","2","0","null","null","arrowup","[0.15,0.85,0.675,0.325]","","",""
"sailing-trial","301","1392904","0.0-11.0-264.0","","","","","","false","","","","","","","","726.3000000002794","","312.70000000018626","","1","1","arrowleft","0","arrowright","[0.15,0.85,0.675,0.325]","","",""
"sailing-trial","302","1395306","0.0-11.0-265.0","","","","","","false","","","","","","","","null","","1152.5","","0","0","null","null","arrowup","[0.15,0.85,0.675,0.325]","","",""
"sailing-trial","303","1399275","0.0-11.0-266.0","","","","","","false","","","","","","","","597.2999999998137","","545.7000000001863","","1","1","arrowleft","0","arrowright","[0.15,0.85,0.675,0.325]","","",""
"sailing-trial","304","1402242","0.0-11.0-267.0","","","","","","false","","","","","","","","null","","1226.1000000000931","","2","1","null","null","arrowup","[0.15,0.85,0.675,0.325]","","",""
"sailing-trial","305","1406260","0.0-11.0-268.0","","","","","","false","","","","","","","","1055.5","","60.700000000186265","","1","1","arrowleft","0","arrowright","[0.15,0.85,0.675,0.325]","","",""
"sailing-trial","306","1408147","0.0-11.0-269.0","","","","","","false","","","","","","","","null","","698.7999999998137","","3","0","null","null","arrowup","[0.15,0.85,0.675,0.325]","","",""
"sailing-trial","307","1411620","0.0-11.0-270.0","","","","","","false","","","","","","","","659.5","","29.100000000093132","","1","1","arrowleft","0","arrowright","[0.15,0.85,0.675,0.325]","","",""
"sailing-trial","308","1413618","0.0-11.0-271.0","","","","","","false","","","","","","","","null","","867.5","","3","0","null","null","arrowup","[0.15,0.85,0.675,0.325]","","",""
"sailing-trial","309","1416831","0.0-11.0-272.0","","","","","","false","","","","","","","","818.7999999998137","","88.89999999990687","","0","0","arrowleft","0","arrowleft","[0.15,0.85,0.675,0.325]","","",""
"sailing-trial","310","1418934","0.0-11.0-273.0","","","","","","false","","","","","","","","null","","902.3000000002794","","3","0","null","null","arrowup","[0.15,0.85,0.675,0.325]","","",""
"sailing-trial","311","1421971","0.0-11.0-274.0","","","","","","false","","","","","","","","609.4000000003725","","168.3000000002794","","2","0","arrowright","1","arrowleft","[0.675,0.325,0.15,0.85]","","",""
"sailing-trial","312","1424350","0.0-11.0-275.0","","","","","","false","","","","","","","","null","","619.3000000002794","","3","1","null","null","arrowup","[0.675,0.325,0.15,0.85]","","",""
"sailing-trial","313","1429130","0.0-11.0-276.0","","","","","","false","","","","","","","","1030","","485.39999999990687","","2","0","arrowright","1","arrowleft","[0.675,0.325,0.15,0.85]","","",""
"sailing-trial","314","1432675","0.0-11.0-277.0","","","","","","false","","","","","","","","null","","864.7999999998137","","0","1","null","null","arrowup","[0.675,0.325,0.15,0.85]","","",""
"sailing-trial","315","1436384","0.0-11.0-278.0","","","","","","false","","","","","","","","751.2000000001863","","280.1999999997206","","3","1","arrowright","1","arrowright","[0.675,0.325,0.15,0.85]","","",""
"sailing-trial","316","1438967","0.0-11.0-279.0","","","","","","false","","","","","","","","null","","1338.1999999997206","","1","0","null","null","arrowup","[0.675,0.325,0.15,0.85]","","",""
"sailing-trial","317","1442429","0.0-11.0-280.0","","","","","","false","","","","","","","","614.3999999999069","","65.8000000002794","","0","1","arrowleft","0","arrowleft","[0.675,0.325,0.15,0.85]","","",""
"sailing-trial","318","1444665","0.0-11.0-281.0","","","","","","false","","","","","","","","null","","826.6999999997206","","2","0","null","null","arrowup","[0.675,0.325,0.15,0.85]","","",""
"sailing-trial","319","1448352","0.0-11.0-282.0","","","","","","false","","","","","","","","649.1000000000931","","353.79999999981374","","3","1","arrowright","1","arrowright","[0.675,0.325,0.15,0.85]","","",""
"sailing-trial","320","1450958","0.0-11.0-283.0","","","","","","false","","","","","","","","null","","847.7999999998137","","3","1","null","null","arrowup","[0.675,0.325,0.15,0.85]","","",""
"sailing-trial","321","1454294","0.0-11.0-284.0","","","","","","false","","","","","","","","759.6000000000931","","140.5","","2","0","arrowright","1","arrowleft","[0.675,0.325,0.15,0.85]","","",""
"sailing-trial","322","1456357","0.0-11.0-285.0","","","","","","false","","","","","","","","null","","814.6000000000931","","2","0","null","null","arrowup","[0.675,0.325,0.15,0.85]","","",""
"sailing-trial","323","1460126","0.0-11.0-286.0","","","","","","false","","","","","","","","661.9000000003725","","321.70000000018626","","1","1","arrowleft","0","arrowright","[0.675,0.325,0.15,0.85]","","",""
"sailing-trial","324","1462146","0.0-11.0-287.0","","","","","","false","","","","","","","","null","","848.7000000001863","","2","0","null","null","arrowup","[0.675,0.325,0.15,0.85]","","",""
"sailing-trial","325","1465641","0.0-11.0-288.0","","","","","","false","","","","","","","","626.1000000000931","","171.39999999990687","","3","1","arrowright","1","arrowright","[0.675,0.325,0.15,0.85]","","",""
"sailing-trial","326","1467548","0.0-11.0-289.0","","","","","","false","","","","","","","","null","","720.8000000002794","","2","0","null","null","arrowup","[0.675,0.325,0.15,0.85]","","",""
"sailing-trial","327","1471057","0.0-11.0-290.0","","","","","","false","","","","","","","","826","","394.79999999981374","","2","0","arrowright","1","arrowleft","[0.675,0.325,0.15,0.85]","","",""
"sailing-trial","328","1473505","0.0-11.0-291.0","","","","","","false","","","","","","","","null","","720.5999999996275","","2","1","null","null","arrowup","[0.675,0.325,0.15,0.85]","","",""
"sailing-trial","329","1476652","0.0-11.0-292.0","","","","","","false","","","","","","","","634.1999999997206","","244.89999999990687","","3","0","arrowright","1","arrowright","[0.325,0.675,0.85,0.15]","","",""
"sailing-trial","330","1479294","0.0-11.0-293.0","","","","","","false","","","","","","","","null","","884","","2","1","null","null","arrowup","[0.325,0.675,0.85,0.15]","","",""
"sailing-trial","331","1482926","0.0-11.0-294.0","","","","","","false","","","","","","","","516.2000000001863","","191","","1","1","arrowleft","0","arrowright","[0.325,0.675,0.85,0.15]","","",""
"sailing-trial","332","1485383","0.0-11.0-295.0","","","","","","false","","","","","","","","null","","671.7000000001863","","2","1","null","null","arrowup","[0.325,0.675,0.85,0.15]","","",""
"sailing-trial","333","1488533","0.0-11.0-296.0","","","","","","false","","","","","","","","802.5","","126.8000000002794","","1","0","arrowleft","0","arrowright","[0.325,0.675,0.85,0.15]","","",""
"sailing-trial","334","1490445","0.0-11.0-297.0","","","","","","false","","","","","","","","null","","724.7000000001863","","1","0","null","null","arrowup","[0.325,0.675,0.85,0.15]","","",""
"sailing-trial","335","1493315","0.0-11.0-298.0","","","","","","false","","","","","","","","607","","65.6999999997206","","0","0","arrowleft","0","arrowleft","[0.325,0.675,0.85,0.15]","","",""
"sailing-trial","336","1495682","0.0-11.0-299.0","","","","","","false","","","","","","","","null","","677.8999999999069","","1","1","null","null","arrowup","[0.325,0.675,0.85,0.15]","","",""
"sailing-trial","337","1498962","0.0-11.0-300.0","","","","","","false","","","","","","","","578.6999999997206","","69.29999999981374","","2","1","arrowright","1","arrowleft","[0.325,0.675,0.85,0.15]","","",""
"sailing-trial","338","1501613","0.0-11.0-301.0","","","","","","false","","","","","","","","null","","794.8000000002794","","2","1","null","null","arrowup","[0.325,0.675,0.85,0.15]","","",""
"sailing-trial","339","1505558","0.0-11.0-302.0","","","","","","false","","","","","","","","715.1000000000931","","414.3000000002794","","3","1","arrowright","1","arrowright","[0.325,0.675,0.85,0.15]","","",""
"sailing-trial","340","1507479","0.0-11.0-303.0","","","","","","false","","","","","","","","null","","906.4000000003725","","1","0","null","null","arrowup","[0.325,0.675,0.85,0.15]","","",""
"sailing-trial","341","1510446","0.0-11.0-304.0","","","","","","false","","","","","","","","600.2999999998137","","26.100000000093132","","1","0","arrowleft","0","arrowright","[0.325,0.675,0.85,0.15]","","",""
"sailing-trial","342","1512439","0.0-11.0-305.0","","","","","","false","","","","","","","","null","","741.8999999999069","","0","0","null","null","arrowup","[0.325,0.675,0.85,0.15]","","",""
"sailing-trial","343","1515912","0.0-11.0-306.0","","","","","","false","","","","","","","","582.2000000001863","","49.299999999813735","","0","1","arrowleft","0","arrowleft","[0.325,0.675,0.85,0.15]","","",""
"sailing-trial","344","1519557","0.0-11.0-307.0","","","","","","false","","","","","","","","null","","2020.6999999997206","","1","1","null","null","arrowup","[0.325,0.675,0.85,0.15]","","",""
"sailing-trial","345","1523716","0.0-11.0-308.0","","","","","","false","","","","","","","","1234","","127.60000000009313","","2","1","arrowright","1","arrowleft","[0.325,0.675,0.85,0.15]","","",""
"sailing-trial","346","1526123","0.0-11.0-309.0","","","","","","false","","","","","","","","null","","835.8000000002794","","1","1","null","null","arrowup","[0.325,0.675,0.85,0.15]","","",""
"sailing-trial","347","1529619","0.0-11.0-310.0","","","","","","false","","","","","","","","607.3000000002794","","78.89999999990687","","2","1","arrowright","1","arrowleft","[0.15,0.85,0.675,0.325]","","",""
"sailing-trial","348","1532462","0.0-11.0-311.0","","","","","","false","","","","","","","","null","","1087.5","","3","1","null","null","arrowup","[0.15,0.85,0.675,0.325]","","",""
"sailing-trial","349","1535824","0.0-11.0-312.0","","","","","","false","","","","","","","","988.6999999997206","","101.6999999997206","","3","0","arrowright","1","arrowright","[0.15,0.85,0.675,0.325]","","",""
"sailing-trial","350","1537741","0.0-11.0-313.0","","","","","","false","","","","","","","","null","","671.6000000000931","","3","0","null","null","arrowup","[0.15,0.85,0.675,0.325]","","",""
"sailing-trial","351","1540960","0.0-11.0-314.0","","","","","","false","","","","","","","","658.3999999999069","","219.3000000002794","","0","0","arrowleft","0","arrowleft","[0.15,0.85,0.675,0.325]","","",""
"sailing-trial","352","1542904","0.0-11.0-315.0","","","","","","false","","","","","","","","null","","742.2000000001863","","0","0","null","null","arrowup","[0.15,0.85,0.675,0.325]","","",""
"sailing-trial","353","1545907","0.0-11.0-316.0","","","","","","false","","","","","","","","632.0999999996275","","49.60000000009313","","2","0","arrowright","1","arrowleft","[0.15,0.85,0.675,0.325]","","",""
"sailing-trial","354","1547890","0.0-11.0-317.0","","","","","","false","","","","","","","","null","","795.5","","0","0","null","null","arrowup","[0.15,0.85,0.675,0.325]","","",""
"sailing-trial","355","1552124","0.0-11.0-318.0","","","","","","false","","","","","","","","904","","236.5","","3","1","arrowright","1","arrowright","[0.15,0.85,0.675,0.325]","","",""
"sailing-trial","356","1554639","0.0-11.0-319.0","","","","","","false","","","","","","","","null","","771.7000000001863","","1","1","null","null","arrowup","[0.15,0.85,0.675,0.325]","","",""
"sailing-trial","357","1558951","0.0-11.0-320.0","","","","","","false","","","","","","","","1107.2999999998137","","411.29999999981374","","2","1","arrowright","1","arrowleft","[0.15,0.85,0.675,0.325]","","",""
"sailing-trial","358","1561111","0.0-11.0-321.0","","","","","","false","","","","","","","","null","","909.5","","3","0","null","null","arrowup","[0.15,0.85,0.675,0.325]","","",""
"sailing-trial","359","1564838","0.0-11.0-322.0","","","","","","false","","","","","","","","706.7999999998137","","105.29999999981374","","3","1","arrowright","1","arrowright","[0.15,0.85,0.675,0.325]","","",""
"sailing-trial","360","1567354","0.0-11.0-323.0","","","","","","false","","","","","","","","null","","713","","2","1","null","null","arrowup","[0.15,0.85,0.675,0.325]","","",""
"sailing-trial","361","1571196","0.0-11.0-324.0","","","","","","false","","","","","","","","728.2000000001863","","445.5","","2","1","arrowright","1","arrowleft","[0.15,0.85,0.675,0.325]","","",""
"sailing-trial","362","1573221","0.0-11.0-325.0","","","","","","false","","","","","","","","null","","696","","3","0","null","null","arrowup","[0.15,0.85,0.675,0.325]","","",""
"sailing-trial","363","1577104","0.0-11.0-326.0","","","","","","false","","","","","","","","878.3000000002794","","33.200000000186265","","3","1","arrowright","1","arrowright","[0.325,0.675,0.85,0.15]","","",""
"sailing-trial","364","1579024","0.0-11.0-327.0","","","","","","false","","","","","","","","null","","674.6999999997206","","3","0","null","null","arrowup","[0.325,0.675,0.85,0.15]","","",""
"sailing-trial","365","1582163","0.0-11.0-328.0","","","","","","false","","","","","","","","683.1999999997206","","190.79999999981374","","0","0","arrowleft","0","arrowleft","[0.325,0.675,0.85,0.15]","","",""
"sailing-trial","366","1584972","0.0-11.0-329.0","","","","","","false","","","","","","","","null","","676","","2","1","null","null","arrowup","[0.325,0.675,0.85,0.15]","","",""
"sailing-trial","367","1588596","0.0-11.0-330.0","","","","","","false","","","","","","","","701.2999999998137","","158.90000000037253","","3","1","arrowright","1","arrowright","[0.325,0.675,0.85,0.15]","","",""
"sailing-trial","368","1590698","0.0-11.0-331.0","","","","","","false","","","","","","","","null","","1003.3000000002794","","1","0","null","null","arrowup","[0.325,0.675,0.85,0.15]","","",""
"sailing-trial","369","1593669","0.0-11.0-332.0","","","","","","false","","","","","","","","552.7999999998137","","169","","1","0","arrowleft","0","arrowright","[0.325,0.675,0.85,0.15]","","",""
"sailing-trial","370","1595453","0.0-11.0-333.0","","","","","","false","","","","","","","","null","","615.2000000001863","","3","0","null","null","arrowup","[0.325,0.675,0.85,0.15]","","",""
"sailing-trial","371","1599000","0.0-11.0-334.0","","","","","","false","","","","","","","","463.60000000009313","","247.59999999962747","","0","1","arrowleft","0","arrowleft","[0.325,0.675,0.85,0.15]","","",""
"sailing-trial","372","1601345","0.0-11.0-335.0","","","","","","false","","","","","","","","null","","1081.5","","3","0","null","null","arrowup","[0.325,0.675,0.85,0.15]","","",""
"sailing-trial","373","1604295","0.0-11.0-336.0","","","","","","false","","","","","","","","482.6999999997206","","21.100000000093132","","1","0","arrowleft","0","arrowright","[0.325,0.675,0.85,0.15]","","",""
"sailing-trial","374","1606182","0.0-11.0-337.0","","","","","","false","","","","","","","","null","","661.7999999998137","","1","0","null","null","arrowup","[0.325,0.675,0.85,0.15]","","",""
"sailing-trial","375","1609901","0.0-11.0-338.0","","","","","","false","","","","","","","","652.5","","203","","1","1","arrowleft","0","arrowright","[0.325,0.675,0.85,0.15]","","",""
"sailing-trial","376","1612408","0.0-11.0-339.0","","","","","","false","","","","","","","","null","","1349.7000000001863","","3","0","null","null","arrowup","[0.325,0.675,0.85,0.15]","","",""
"sailing-trial","377","1615553","0.0-11.0-340.0","","","","","","false","","","","","","","","494.70000000018626","","387.39999999990687","","1","0","arrowleft","0","arrowright","[0.325,0.675,0.85,0.15]","","",""
"sailing-trial","378","1617963","0.0-11.0-341.0","","","","","","false","","","","","","","","null","","728.7999999998137","","1","1","null","null","arrowup","[0.325,0.675,0.85,0.15]","","",""
"sailing-trial","379","1621552","0.0-11.0-342.0","","","","","","false","","","","","","","","649.2000000001863","","58.299999999813735","","1","1","arrowleft","0","arrowright","[0.325,0.675,0.85,0.15]","","",""
"sailing-trial","380","1623568","0.0-11.0-343.0","","","","","","false","","","","","","","","null","","854.7000000001863","","0","0","null","null","arrowup","[0.325,0.675,0.85,0.15]","","",""
"sailing-trial","381","1626496","0.0-11.0-344.0","","","","","","false","","","","","","","","696.6999999997206","","29.399999999906868","","2","0","arrowright","1","arrowleft","[0.325,0.675,0.85,0.15]","","",""
"sailing-trial","382","1629566","0.0-11.0-345.0","","","","","","false","","","","","","","","null","","808.8000000002794","","2","1","null","null","arrowup","[0.325,0.675,0.85,0.15]","","",""
"sailing-trial","383","1633362","0.0-11.0-346.0","","","","","","false","","","","","","","","608.6000000000931","","163.10000000009313","","3","1","arrowright","1","arrowright","[0.675,0.325,0.15,0.85]","","",""
"sailing-trial","384","1635427","0.0-11.0-347.0","","","","","","false","","","","","","","","null","","752","","2","0","null","null","arrowup","[0.675,0.325,0.15,0.85]","","",""
"sailing-trial","385","1638958","0.0-11.0-348.0","","","","","","false","","","","","","","","468.5","","68.5","","0","1","arrowleft","0","arrowleft","[0.675,0.325,0.15,0.85]","","",""
"sailing-trial","386","1641014","0.0-11.0-349.0","","","","","","false","","","","","","","","null","","935","","2","0","null","null","arrowup","[0.675,0.325,0.15,0.85]","","",""
"sailing-trial","387","1644474","0.0-11.0-350.0","","","","","","false","","","","","","","","687.5","","79.39999999990687","","3","1","arrowright","1","arrowright","[0.675,0.325,0.15,0.85]","","",""
"sailing-trial","388","1646650","0.0-11.0-351.0","","","","","","false","","","","","","","","null","","1127.6000000000931","","2","0","null","null","arrowup","[0.675,0.325,0.15,0.85]","","",""
"sailing-trial","389","1650392","0.0-11.0-352.0","","","","","","false","","","","","","","","604.5","","300.20000000018626","","3","1","arrowright","1","arrowright","[0.675,0.325,0.15,0.85]","","",""
"sailing-trial","390","1652150","0.0-11.0-353.0","","","","","","false","","","","","","","","null","","687.7000000001863","","2","0","null","null","arrowup","[0.675,0.325,0.15,0.85]","","",""
"sailing-trial","391","1655460","0.0-11.0-354.0","","","","","","false","","","","","","","","851.8999999999069","","127.39999999990687","","3","0","arrowright","1","arrowright","[0.675,0.325,0.15,0.85]","","",""
"sailing-trial","392","1660058","0.0-11.0-355.0","","","","","","false","","","","","","","","null","","2429","","3","1","null","null","arrowup","[0.675,0.325,0.15,0.85]","","",""
"sailing-trial","393","1663844","0.0-11.0-356.0","","","","","","false","","","","","","","","544.2000000001863","","439.60000000009313","","0","1","arrowleft","0","arrowleft","[0.675,0.325,0.15,0.85]","","",""
"sailing-trial","394","1665735","0.0-11.0-357.0","","","","","","false","","","","","","","","null","","783.7000000001863","","0","0","null","null","arrowup","[0.675,0.325,0.15,0.85]","","",""
"sailing-trial","395","1669393","0.0-11.0-358.0","","","","","","false","","","","","","","","621.3999999999069","","299.10000000009313","","3","1","arrowright","1","arrowright","[0.675,0.325,0.15,0.85]","","",""
"sailing-trial","396","1671853","0.0-11.0-359.0","","","","","","false","","","","","","","","null","","736.6999999997206","","1","1","null","null","arrowup","[0.675,0.325,0.15,0.85]","","",""
"sailing-trial","397","1677326","0.0-11.0-360.0","","","","","","false","","","","","","","","903.8999999999069","","1720","","3","1","arrowright","1","arrowright","[0.675,0.325,0.15,0.85]","","",""
"sailing-trial","398","1679662","0.0-11.0-361.0","","","","","","false","","","","","","","","null","","559.0999999996275","","1","1","null","null","arrowup","[0.675,0.325,0.15,0.85]","","",""
"sailing-trial","399","1683861","0.0-11.0-362.0","","","","","","false","","","","","","","","1077.3999999999069","","155.39999999990687","","3","1","arrowright","1","arrowright","[0.675,0.325,0.15,0.85]","","",""
"sailing-trial","400","1686366","0.0-11.0-363.0","","","","","","false","","","","","","","","null","","865.2999999998137","","3","1","null","null","arrowup","[0.675,0.325,0.15,0.85]","","",""
"sailing-trial","401","1690246","0.0-11.0-364.0","","","","","","false","","","","","","","","828.5","","27.59999999962747","","3","1","arrowright","1","arrowright","[0.675,0.325,0.15,0.85]","","",""
"sailing-trial","402","1692089","0.0-11.0-365.0","","","","","","false","","","","","","","","null","","780.1000000000931","","0","0","null","null","arrowup","[0.675,0.325,0.15,0.85]","","",""
"sailing-trial","403","1695074","0.0-11.0-366.0","","","","","","false","","","","","","","","727.4000000003725","","79.89999999990687","","3","0","arrowright","1","arrowright","[0.675,0.325,0.15,0.85]","","",""
"sailing-trial","404","1698212","0.0-11.0-367.0","","","","","","false","","","","","","","","null","","883.2999999998137","","1","1","null","null","arrowup","[0.675,0.325,0.15,0.85]","","",""
"sailing-trial","405","1702675","0.0-11.0-368.0","","","","","","false","","","","","","","","946.3000000002794","","536.8999999999069","","0","1","arrowleft","0","arrowleft","[0.85,0.15,0.325,0.675]","","",""
"sailing-trial","406","1704997","0.0-11.0-369.0","","","","","","false","","","","","","","","null","","795","","3","1","null","null","arrowup","[0.85,0.15,0.325,0.675]","","",""
"sailing-trial","407","1708597","0.0-11.0-370.0","","","","","","false","","","","","","","","722.3999999999069","","222.09999999962747","","0","1","arrowleft","0","arrowleft","[0.85,0.15,0.325,0.675]","","",""
"sailing-trial","408","1710874","0.0-11.0-371.0","","","","","","false","","","","","","","","null","","1068.6000000000931","","3","0","null","null","arrowup","[0.85,0.15,0.325,0.675]","","",""
"sailing-trial","409","1713857","0.0-11.0-372.0","","","","","","false","","","","","","","","645.5","","60.5","","1","0","arrowleft","0","arrowright","[0.85,0.15,0.325,0.675]","","",""
"sailing-trial","410","1715823","0.0-11.0-373.0","","","","","","false","","","","","","","","null","","646","","3","0","null","null","arrowup","[0.85,0.15,0.325,0.675]","","",""
"sailing-trial","411","1719147","0.0-11.0-374.0","","","","","","false","","","","","","","","652.4000000003725","","442.5","","3","0","arrowright","1","arrowright","[0.85,0.15,0.325,0.675]","","",""
"sailing-trial","412","1721498","0.0-11.0-375.0","","","","","","false","","","","","","","","null","","637","","2","1","null","null","arrowup","[0.85,0.15,0.325,0.675]","","",""
"sailing-trial","413","1725730","0.0-11.0-376.0","","","","","","false","","","","","","","","1051.8999999999069","","409.60000000009313","","2","0","arrowright","1","arrowleft","[0.85,0.15,0.325,0.675]","","",""
"sailing-trial","414","1728296","0.0-11.0-377.0","","","","","","false","","","","","","","","null","","721.3999999999069","","3","1","null","null","arrowup","[0.85,0.15,0.325,0.675]","","",""
"sailing-trial","415","1732847","0.0-11.0-378.0","","","","","","false","","","","","","","","1397.0999999996275","","332.5","","3","1","arrowright","1","arrowright","[0.85,0.15,0.325,0.675]","","",""
"sailing-trial","416","1735327","0.0-11.0-379.0","","","","","","false","","","","","","","","null","","771.7999999998137","","3","1","null","null","arrowup","[0.85,0.15,0.325,0.675]","","",""
"sailing-trial","417","1739158","0.0-11.0-380.0","","","","","","false","","","","","","","","679.5","","256.5","","3","1","arrowright","1","arrowright","[0.85,0.15,0.325,0.675]","","",""
"sailing-trial","418","1741178","0.0-11.0-381.0","","","","","","false","","","","","","","","null","","849.5","","2","0","null","null","arrowup","[0.85,0.15,0.325,0.675]","","",""
"sailing-trial","419","1745014","0.0-11.0-382.0","","","","","","false","","","","","","","","623","","352.60000000009313","","2","1","arrowright","1","arrowleft","[0.85,0.15,0.325,0.675]","","",""
"sailing-trial","420","1747633","0.0-11.0-383.0","","","","","","false","","","","","","","","null","","777.7999999998137","","3","1","null","null","arrowup","[0.85,0.15,0.325,0.675]","","",""
"sailing-trial","421","1751113","0.0-11.0-384.0","","","","","","false","","","","","","","","684.2999999998137","","124","","3","1","arrowright","1","arrowright","[0.675,0.325,0.15,0.85]","","",""
"sailing-trial","422","1754642","0.0-11.0-385.0","","","","","","false","","","","","","","","null","","1776.6999999997206","","0","1","null","null","arrowup","[0.675,0.325,0.15,0.85]","","",""
"sailing-trial","423","1758207","0.0-11.0-386.0","","","","","","false","","","","","","","","652.1000000000931","","100","","3","1","arrowright","1","arrowright","[0.675,0.325,0.15,0.85]","","",""
"sailing-trial","424","1761281","0.0-11.0-387.0","","","","","","false","","","","","","","","null","","1333.8999999999069","","3","1","null","null","arrowup","[0.675,0.325,0.15,0.85]","","",""
"sailing-trial","425","1765127","0.0-11.0-388.0","","","","","","false","","","","","","","","943.3999999999069","","342.10000000009313","","3","0","arrowright","1","arrowright","[0.675,0.325,0.15,0.85]","","",""
"sailing-trial","426","1767432","0.0-11.0-389.0","","","","","","false","","","","","","","","null","","1022.8999999999069","","2","0","null","null","arrowup","[0.675,0.325,0.15,0.85]","","",""
"sailing-trial","427","1772130","0.0-11.0-390.0","","","","","","false","","","","","","","","997.5","","178.39999999990687","","2","0","arrowright","1","arrowleft","[0.675,0.325,0.15,0.85]","","",""
"sailing-trial","428","1775842","0.0-11.0-391.0","","","","","","false","","","","","","","","null","","1943.5","","3","1","null","null","arrowup","[0.675,0.325,0.15,0.85]","","",""
"sailing-trial","429","1779691","0.0-11.0-392.0","","","","","","false","","","","","","","","740.8999999999069","","293.89999999990687","","3","1","arrowright","1","arrowright","[0.675,0.325,0.15,0.85]","","",""
"sailing-trial","430","1781759","0.0-11.0-393.0","","","","","","false","","","","","","","","null","","841.2000000001863","","0","0","null","null","arrowup","[0.675,0.325,0.15,0.85]","","",""
"sailing-trial","431","1784985","0.0-11.0-394.0","","","","","","false","","","","","","","","758.4000000003725","","104.39999999990687","","2","0","arrowright","1","arrowleft","[0.675,0.325,0.15,0.85]","","",""
"sailing-trial","432","1788356","0.0-11.0-395.0","","","","","","false","","","","","","","","null","","866.7999999998137","","3","1","null","null","arrowup","[0.675,0.325,0.15,0.85]","","",""
"sailing-trial","433","1791851","0.0-11.0-396.0","","","","","","false","","","","","","","","630.8999999999069","","64.90000000037253","","3","1","arrowright","1","arrowright","[0.675,0.325,0.15,0.85]","","",""
"sailing-trial","434","1794746","0.0-11.0-397.0","","","","","","false","","","","","","","","null","","1162.6000000000931","","0","1","null","null","arrowup","[0.675,0.325,0.15,0.85]","","",""
"sailing-trial","435","1800304","0.0-11.0-398.0","","","","","","false","","","","","","","","943","","1539.3999999999069","","3","1","arrowright","1","arrowright","[0.675,0.325,0.15,0.85]","","",""
"sailing-trial","436","1803217","0.0-11.0-399.0","","","","","","false","","","","","","","","null","","1177","","0","1","null","null","arrowup","[0.675,0.325,0.15,0.85]","","",""
"instructions","437","1807536","0.0-12.0","","","","","","","","","","4318.600000000093","","","","","","","","","","","","","","","","[{""page_index"":0,""viewing_time"":4318.100000000093}]"
"survey-debrief","438","1816753","0.0-13.0","","","","","","","","","","9215.700000000186","","","","","","","","","","","","","","{""difficulty"":""4"",""fun"":""4"",""clarity"":""4"",""strategy"":"""",""feedback"":""""}","",""
