"trial_type","trial_index","time_elapsed","internal_node_id","value","metadata","success","timeout","failed_images","failed_audio","failed_video","browser_interaction","low_quality","rt","stimulus","response","button_pressed","island_rt","island_response","boat_rt","boat_response","boat","reward","island_key","island","boat_key","reward_probabilities","responses","num_errors","view_history"
"pavlovia","0","2","0.0-0.0","","","","","","","","","","","","","","","","","","","","","","","","","",""
"call-function","1","2","0.0-1.0","","{""task_version"":""sailing_part1_v1"",""task_condition"":""good"",""boats"":[""C"",""A"",""B"",""D""],""boats_demo"":[""F"",""H"",""E"",""G""],""islands"":[""B"",""A""],""subject_id"":""13816"",""age"":""9"",""gender"":""Female""}","","","","","","","","","","","","","","","","","","","","","","","",""
"preload","2","1197","0.0-2.0","","","true","false","[]","[]","[]","[{""event"":""fullscreenenter"",""trial"":3,""time"":5178}]","false","","","","","","","","","","","","","","","","",""
"fullscreen","3","6159","0.0-3.0","","","true","","","","","","","","","","","","","","","","","","","","","","",""
"audio-keyboard-response","4","11237","0.0-4.0-0.0","","","","","","","","","","0","audio/beep_loop.wav"," ","","","","","","","","","","","","","",""
"audio-test","5","13890","0.0-4.0-1.0","","","","","","","","","","null","audio/turtle.mp3","","3","","","","","","","","","","","","",""
"audio-test","6","16273","0.0-4.0-2.0","","","","","","","","","","null","audio/shark.mp3","","2","","","","","","","","","","","","",""
"sailing-instructions","7","52468","0.0-5.0-0.0-0.0","","","","","","","","","","","","","","null","null","null","null","null","null","","","","","","",""
"sailing-trial","8","57422","0.0-5.0-0.0-1.0-0.0","","","","false","","","","","","","","","","3843.0000000000073","","null","","null","null","arrowleft","0","null","null","","",""
"sailing-trial","9","60640","0.0-5.0-0.0-1.0-1.0","","","","false","","","","","","","","","","2101.9999999999927","","null","","null","null","arrowright","1","null","null","","",""
"sailing-trial","10","63789","0.0-5.0-0.0-1.0-2.0","","","","false","","","","","","","","","","2033.0000000000073","","null","","null","null","arrowright","1","null","null","","",""
"sailing-instructions","11","115037","0.0-5.0-0.0-2.0","","","","","","","","","","","","","","null","null","null","null","0","null","","","","","","",""
"sailing-trial","12","125073","0.0-5.0-0.0-3.0-0.0","","","","false","","","","","","","","","","null","","5160","","2","1","null","null","arrowleft","[1,1,1,1]","","",""
"sailing-trial","13","129573","0.0-5.0-0.0-3.0-1.0","","","","false","","","","","","","","","","null","","1245","","3","1","null","null","arrowright","[1,1,1,1]","","",""
"sailing-trial","14","134524","0.0-5.0-0.0-3.0-2.0","","","","false","","","","","","","","","","null","","1427","","2","0","null","null","arrowleft","[0,0,0,0]","","",""
"sailing-instructions","15","143016","0.0-5.0-0.0-4.0","","","","","","","","","","","","","","null","null","null","null","null","null","","","","","","",""
"sailing-comprehension","16","163014","0.0-5.0-0.0-5.0","","","","","","","","","","16724","","","","","","","","","","","","","","[""true"",""true"",""false"",""true""]","0",""
"sailing-instructions","17","258717","0.0-6.0-0.0-0.0","","","","","","","","","","","","","","null","null","null","null","null","null","","","","","","",""
"sailing-comprehension","18","275506","0.0-6.0-0.0-1.0","","","","","","","","","","14906.00000000003","","","","","","","","","","","","","","[""true"",""false"",""true""]","0",""
"sailing-instructions","19","296884","0.0-7.0-0.0-0.0","","","","","","","","","","","","","","null","null","null","null","null","null","","","","","","",""
"sailing-trial","20","303606","0.0-7.0-0.0-1.0-0.0","","","","false","","","","","","","","","","null","","3706","","0","0","null","null","arrowup","[0.2,0.8,0.2,0.8]","","",""
"sailing-trial","21","309221","0.0-7.0-0.0-1.0-1.0","","","","false","","","","","","","","","","null","","2750.999999999942","","1","1","null","null","arrowup","[0.2,0.8,0.2,0.8]","","",""
"sailing-trial","22","314321","0.0-7.0-0.0-1.0-2.0","","","","false","","","","","","","","","","null","","2017","","2","1","null","null","arrowup","[0.2,0.8,0.2,0.8]","","",""
"sailing-trial","23","318321","0.0-7.0-0.0-1.0-3.0","","","","false","","","","","","","","","","null","","1657","","3","1","null","null","arrowup","[0.2,0.8,0.2,0.8]","","",""
"sailing-comprehension","24","329470","0.0-7.0-0.0-2.0","","","","","","","","","","8101.999999999942","","","","","","","","","","","","","","[""true""]","1",""
"sailing-instructions","25","351565","0.0-7.0-0.1-0.1","","","","","","","","","","","","","","null","null","null","null","null","null","","","","","","",""
"sailing-trial","26","355591","0.0-7.0-0.1-1.1-0.1","","","","false","","","","","","","","","","null","","1423","","0","0","null","null","arrowup","[0.2,0.8,0.2,0.8]","","",""
"sailing-trial","27","358988","0.0-7.0-0.1-1.1-1.1","","","","false","","","","","","","","","","null","","1286","","1","1","null","null","arrowup","[0.2,0.8,0.2,0.8]","","",""
"sailing-trial","28","362821","0.0-7.0-0.1-1.1-2.1","","","","false","","","","","","","","","","null","","1349","","2","1","null","null","arrowup","[0.2,0.8,0.2,0.8]","","",""
"sailing-trial","29","365771","0.0-7.0-0.1-1.1-3.1","","","","false","","","","","","","","","","null","","736","","3","1","null","null","arrowup","[0.2,0.8,0.2,0.8]","","",""
"sailing-comprehension","30","384246","0.0-7.0-0.1-2.1","","","","","","","","","","17417","","","","","","","","","","","","","","[""false""]","0",""
"sailing-instructions","31","429236","0.0-8.0-0.0-0.0","","","","","","","","","","","","","","null","null","null","null","null","null","","","","","","",""
"sailing-comprehension","32","435931","0.0-8.0-0.0-1.0","","","","","","","","","","5084","","","","","","","","","","","","","","[""true""]","0",""
"sailing-instructions","33","529320","0.0-9.0-0.0-0.0","","","","","","","","","","","","","","null","null","null","null","null","null","","","","","","",""
"sailing-trial","34","537536","0.0-9.0-0.0-1.0-0.0","","","","false","","","","","","","","","","2431","","1137","","3","1","arrowright","1","arrowright","[0.2,0.8,0.2,0.8]","","",""
"sailing-trial","35","544602","0.0-9.0-0.0-1.0-1.0","","","","false","","","","","","","","","","869","","2297","","0","1","arrowleft","0","arrowleft","[0.2,0.8,0.2,0.8]","","",""
"sailing-trial","36","549045","0.0-9.0-0.0-1.0-2.0","","","","false","","","","","","","","","","null","","1970.0000000001164","","0","0","null","null","arrowup","[0.2,0.8,0.2,0.8]","","",""
"sailing-trial","37","554703","0.0-9.0-0.0-1.0-3.0","","","","false","","","","","","","","","","929","","756","","3","1","arrowright","1","arrowright","[0.2,0.8,0.2,0.8]","","",""
"sailing-trial","38","560020","0.0-9.0-0.0-1.0-4.0","","","","false","","","","","","","","","","null","","1910.9999999998836","","3","1","null","null","arrowup","[0.2,0.8,0.2,0.8]","","",""
"sailing-trial","39","565641","0.0-9.0-0.0-1.0-5.0","","","","false","","","","","","","","","","1185","","1150","","0","0","arrowleft","0","arrowleft","[0.2,0.8,0.2,0.8]","","",""
"sailing-instructions","40","614369","0.0-10.0","","","","","","","","","","","","","","null","null","null","null","null","null","","","","","","",""
"sailing-trial","41","626564","0.0-11.0-0.0","","","","false","","","","","","","","","","8576","","102","","3","0","arrowright","1","arrowright","[0.325,0.675,0.85,0.15]","","",""
"sailing-trial","42","630702","0.0-11.0-1.0","","","","false","","","","","","","","","","null","","1759.0000000001164","","2","1","null","null","arrowup","[0.325,0.675,0.85,0.15]","","",""
"sailing-trial","43","635077","0.0-11.0-2.0","","","","false","","","","","","","","","","867","","97","","3","0","arrowright","1","arrowright","[0.325,0.675,0.85,0.15]","","",""
"sailing-trial","44","639035","0.0-11.0-3.0","","","","false","","","","","","","","","","null","","1567.9999999998836","","1","1","null","null","arrowup","[0.325,0.675,0.85,0.15]","","",""
"sailing-trial","45","642824","0.0-11.0-4.0","","","","false","","","","","","","","","","553","","136.00000000011642","","0","0","arrowleft","0","arrowleft","[0.325,0.675,0.85,0.15]","","",""
"sailing-trial","46","646501","0.0-11.0-5.0","","","","false","","","","","","","","","","null","","1413","","3","1","null","null","arrowup","[0.325,0.675,0.85,0.15]","","",""
"sailing-trial","47","651087","0.0-11.0-6.0","","","","false","","","","","","","","","","769","","482.9999999998836","","3","0","arrowright","1","arrowright","[0.325,0.675,0.85,0.15]","","",""
"sailing-trial","48","654869","0.0-11.0-7.0","","","","false","","","","","","","","","","null","","1787","","2","1","null","null","arrowup","[0.325,0.675,0.85,0.15]","","",""
"sailing-trial","49","659559","0.0-11.0-8.0","","","","false","","","","","","","","","","870","","700","","0","0","arrowleft","0","arrowleft","[0.325,0.675,0.85,0.15]","","",""
"sailing-trial","50","664836","0.0-11.0-9.0","","","","false","","","","","","","","","","null","","2876","","1","1","null","null","arrowup","[0.325,0.675,0.85,0.15]","","",""
"sailing-trial","51","668785","0.0-11.0-10.0","","","","false","","","","","","","","","","769","","289","","1","0","arrowleft","0","arrowright","[0.325,0.675,0.85,0.15]","","",""
"sailing-trial","52","671951","0.0-11.0-11.0","","","","false","","","","","","","","","","null","","1418.0000000001164","","0","0","null","null","arrowup","[0.325,0.675,0.85,0.15]","","",""
"sailing-trial","53","677887","0.0-11.0-12.0","","","","false","","","","","","","","","","990","","1695","","3","0","arrowright","1","arrowright","[0.325,0.675,0.85,0.15]","","",""
"sailing-trial","54","680732","0.0-11.0-13.0","","","","false","","","","","","","","","","null","","1083","","0","0","null","null","arrowup","[0.325,0.675,0.85,0.15]","","",""
"sailing-trial","55","686319","0.0-11.0-14.0","","","","false","","","","","","","","","","764.0000000001164","","1021","","0","1","arrowleft","0","arrowleft","[0.325,0.675,0.85,0.15]","","",""
"sailing-trial","56","690247","0.0-11.0-15.0","","","","false","","","","","","","","","","null","","1689.9999999998836","","3","0","null","null","arrowup","[0.325,0.675,0.85,0.15]","","",""
"sailing-trial","57","696118","0.0-11.0-16.0","","","","false","","","","","","","","","","952.9999999998836","","1189","","0","1","arrowleft","0","arrowleft","[0.325,0.675,0.85,0.15]","","",""
"sailing-trial","58","698978","0.0-11.0-17.0","","","","false","","","","","","","","","","null","","1245","","3","0","null","null","arrowup","[0.325,0.675,0.85,0.15]","","",""
"sailing-trial","59","704875","0.0-11.0-18.0","","","","false","","","","","","","","","","849","","2270","","3","0","arrowright","1","arrowright","[0.325,0.675,0.85,0.15]","","",""
"sailing-trial","60","708302","0.0-11.0-19.0","","","","false","","","","","","","","","","null","","1655","","1","1","null","null","arrowup","[0.325,0.675,0.85,0.15]","","",""
"sailing-trial","61","714775","0.0-11.0-20.0","","","","false","","","","","","","","","","1324","","1728.0000000001164","","0","0","arrowleft","0","arrowleft","[0.15,0.85,0.675,0.325]","","",""
"sailing-trial","62","718421","0.0-11.0-21.0","","","","false","","","","","","","","","","null","","1678.9999999998836","","2","0","null","null","arrowup","[0.15,0.85,0.675,0.325]","","",""
"sailing-trial","63","723289","0.0-11.0-22.0","","","","false","","","","","","","","","","1062","","395","","3","0","arrowright","1","arrowright","[0.15,0.85,0.675,0.325]","","",""
"sailing-trial","64","729334","0.0-11.0-23.0","","","","false","","","","","","","","","","null","","3769","","3","1","null","null","arrowup","[0.15,0.85,0.675,0.325]","","",""
"sailing-trial","65","734835","0.0-11.0-24.0","","","","false","","","","","","","","","","828","","1280","","0","1","arrowleft","0","arrowleft","[0.15,0.85,0.675,0.325]","","",""
"sailing-trial","66","738685","0.0-11.0-25.0","","","","false","","","","","","","","","","null","","1683","","2","1","null","null","arrowup","[0.15,0.85,0.675,0.325]","","",""
"sailing-trial","67","747836","0.0-11.0-26.0","","","","false","","","","","","","","","","3375","","1636.0000000001164","","3","0","arrowright","1","arrowright","[0.15,0.85,0.675,0.325]","","",""
"sailing-trial","68","752918","0.0-11.0-27.0","","","","false","","","","","","","","","","null","","2672","","1","1","null","null","arrowup","[0.15,0.85,0.675,0.325]","","",""
"sailing-trial","69","758869","0.0-11.0-28.0","","","","false","","","","","","","","","","1792","","30","","0","0","arrowleft","0","arrowleft","[0.15,0.85,0.675,0.325]","","",""
"sailing-trial","70","762701","0.0-11.0-29.0","","","","false","","","","","","","","","","null","","1450.0000000001164","","1","1","null","null","arrowup","[0.15,0.85,0.675,0.325]","","",""
"sailing-trial","71","768534","0.0-11.0-30.0","","","","false","","","","","","","","","","1230","","976","","3","1","arrowright","1","arrowright","[0.15,0.85,0.675,0.325]","","",""
"sailing-trial","72","775502","0.0-11.0-31.0","","","","false","","","","","","","","","","null","","5017","","1","1","null","null","arrowup","[0.15,0.85,0.675,0.325]","","",""
"sailing-trial","73","780802","0.0-11.0-32.0","","","","false","","","","","","","","","","657.9999999998836","","1750","","0","0","arrowleft","0","arrowleft","[0.15,0.85,0.675,0.325]","","",""
"sailing-trial","74","784183","0.0-11.0-33.0","","","","false","","","","","","","","","","null","","1770","","0","0","null","null","arrowup","[0.15,0.85,0.675,0.325]","","",""
"sailing-trial","75","789167","0.0-11.0-34.0","","","","false","","","","","","","","","","1032","","283.0000000001164","","3","1","arrowright","1","arrowright","[0.15,0.85,0.675,0.325]","","",""
"sailing-trial","76","793636","0.0-11.0-35.0","","","","false","","","","","","","","","","null","","1448","","0","0","null","null","arrowup","[0.15,0.85,0.675,0.325]","","",""
"sailing-trial","77","799402","0.0-11.0-36.0","","","","false","","","","","","","","","","1317","","313","","3","0","arrowright","1","arrowright","[0.15,0.85,0.675,0.325]","","",""
"sailing-trial","78","803785","0.0-11.0-37.0","","","","false","","","","","","","","","","null","","2541","","2","0","null","null","arrowup","[0.15,0.85,0.675,0.325]","","",""
"sailing-trial","79","809344","0.0-11.0-38.0","","","","false","","","","","","","","","","2132","","195","","0","0","arrowleft","0","arrowleft","[0.675,0.325,0.15,0.85]","","",""
"sailing-trial","80","812899","0.0-11.0-39.0","","","","false","","","","","","","","","","null","","1316","","0","1","null","null","arrowup","[0.675,0.325,0.15,0.85]","","",""
"sailing-trial","81","817086","0.0-11.0-40.0","","","","false","","","","","","","","","","1054","","20","","0","0","arrowleft","0","arrowleft","[0.675,0.325,0.15,0.85]","","",""
"sailing-trial","82","820534","0.0-11.0-41.0","","","","false","","","","","","","","","","null","","1398","","3","1","null","null","arrowup","[0.675,0.325,0.15,0.85]","","",""
"sailing-trial","83","827557","0.0-11.0-42.0","","","","false","","","","","","","","","","1903","","1897","","0","0","arrowleft","0","arrowleft","[0.675,0.325,0.15,0.85]","","",""
"sailing-trial","84","831391","0.0-11.0-43.0","","","","false","","","","","","","","","","null","","1837","","2","0","null","null","arrowup","[0.675,0.325,0.15,0.85]","","",""
"sailing-trial","85","836634","0.0-11.0-44.0","","","","false","","","","","","","","","","829.9999999998836","","1287.9999999998836","","0","1","arrowleft","0","arrowleft","[0.675,0.325,0.15,0.85]","","",""
"sailing-trial","86","840034","0.0-11.0-45.0","","","","false","","","","","","","","","","null","","1386","","0","1","null","null","arrowup","[0.675,0.325,0.15,0.85]","","",""
"sailing-trial","87","844641","0.0-11.0-46.0","","","","false","","","","","","","","","","1551","","253","","3","0","arrowright","1","arrowright","[0.675,0.325,0.15,0.85]","","",""
"sailing-trial","88","848149","0.0-11.0-47.0","","","","false","","","","","","","","","","null","","1520","","2","1","null","null","arrowup","[0.675,0.325,0.15,0.85]","","",""
"sailing-trial","89","853515","0.0-11.0-48.0","","","","false","","","","","","","","","","555.0000000001164","","1066","","3","1","arrowright","1","arrowright","[0.675,0.325,0.15,0.85]","","",""
"sailing-trial","90","857283","0.0-11.0-49.0","","","","false","","","","","","","","","","null","","1739","","3","1","null","null","arrowup","[0.675,0.325,0.15,0.85]","","",""
"sailing-trial","91","863282","0.0-11.0-50.0","","","","false","","","","","","","","","","1682","","120","","3","1","arrowright","1","arrowright","[0.675,0.325,0.15,0.85]","","",""
"sailing-trial","92","866574","0.0-11.0-51.0","","","","false","","","","","","","","","","null","","1626","","1","0","null","null","arrowup","[0.675,0.325,0.15,0.85]","","",""
"sailing-trial","93","871815","0.0-11.0-52.0","","","","false","","","","","","","","","","1202","","417","","0","1","arrowleft","0","arrowleft","[0.675,0.325,0.15,0.85]","","",""
"sailing-trial","94","875250","0.0-11.0-53.0","","","","false","","","","","","","","","","null","","1568","","3","1","null","null","arrowup","[0.675,0.325,0.15,0.85]","","",""
"sailing-trial","95","881650","0.0-11.0-54.0","","","","false","","","","","","","","","","1335","","1433.0000000001164","","3","1","arrowright","1","arrowright","[0.675,0.325,0.15,0.85]","","",""
"sailing-trial","96","884668","0.0-11.0-55.0","","","","false","","","","","","","","","","null","","1701","","2","0","null","null","arrowup","[0.675,0.325,0.15,0.85]","","",""
"sailing-trial","97","891183","0.0-11.0-56.0","","","","false","","","","","","","","","","1580.0000000001164","","1119","","3","1","arrowright","1","arrowright","[0.675,0.325,0.15,0.85]","","",""
"sailing-trial","98","895266","0.0-11.0-57.0","","","","false","","","","","","","","","","null","","1705","","0","1","null","null","arrowup","[0.675,0.325,0.15,0.85]","","",""
"sailing-trial","99","903150","0.0-11.0-58.0","","","","false","","","","","","","","","","2580.9999999998836","","2027.0000000001164","","3","1","arrowright","1","arrowright","[0.85,0.15,0.325,0.675]","","",""
"sailing-trial","100","906820","0.0-11.0-59.0","","","","false","","","","","","","","","","null","","2122.0000000001164","","1","0","null","null","arrowup","[0.85,0.15,0.325,0.675]","","",""
"sailing-trial","101","917183","0.0-11.0-60.0","","","","false","","","","","","","","","","3053.9999999998836","","3415.9999999998836","","3","1","arrowright","1","arrowright","[0.85,0.15,0.325,0.675]","","",""
"sailing-trial","102","923466","0.0-11.0-61.0","","","","false","","","","","","","","","","null","","3458","","0","1","null","null","arrowup","[0.85,0.15,0.325,0.675]","","",""
"sailing-trial","103","930815","0.0-11.0-62.0","","","","false","","","","","","","","","","2883.0000000001164","","378","","3","1","arrowright","1","arrowright","[0.85,0.15,0.325,0.675]","","",""
"sailing-trial","104","936482","0.0-11.0-63.0","","","","false","","","","","","","","","","null","","2915.9999999998836","","3","1","null","null","arrowup","[0.85,0.15,0.325,0.675]","","",""
"sailing-trial","105","943632","0.0-11.0-64.0","","","","false","","","","","","","","","","2418","","778","","0","1","arrowleft","0","arrowleft","[0.85,0.15,0.325,0.675]","","",""
"sailing-trial","106","950522","0.0-11.0-65.0","","","","false","","","","","","","","","","null","","5034.000000000116","","1","0","null","null","arrowup","[0.85,0.15,0.325,0.675]","","",""
"sailing-trial","107","958732","0.0-11.0-66.0","","","","false","","","","","","","","","","4301.999999999884","","114","","3","1","arrowright","1","arrowright","[0.85,0.15,0.325,0.675]","","",""
"sailing-trial","108","962381","0.0-11.0-67.0","","","","false","","","","","","","","","","null","","1998","","2","0","null","null","arrowup","[0.85,0.15,0.325,0.675]","","",""
"sailing-trial","109","973365","0.0-11.0-68.0","","","","false","","","","","","","","","","3402","","767","","0","1","arrowleft","0","arrowleft","[0.85,0.15,0.325,0.675]","","",""
"sailing-trial","110","977767","0.0-11.0-69.0","","","","false","","","","","","","","","","null","","2859","","3","0","null","null","arrowup","[0.85,0.15,0.325,0.675]","","",""
"sailing-trial","111","984182","0.0-11.0-70.0","","","","false","","","","","","","","","","1673","","1236","","1","1","arrowleft","0","arrowright","[0.85,0.15,0.325,0.675]","","",""
"sailing-trial","112","989165","0.0-11.0-71.0","","","","false","","","","","","","","","","null","","2808","","3","1","null","null","arrowup","[0.85,0.15,0.325,0.675]","","",""
"sailing-trial","113","997381","0.0-11.0-72.0","","","","false","","","","","","","","","","1844","","984","","3","1","arrowright","1","arrowright","[0.85,0.15,0.325,0.675]","","",""
"sailing-trial","114","1002467","0.0-11.0-73.0","","","","false","","","","","","","","","","null","","2081","","1","0","null","null","arrowup","[0.85,0.15,0.325,0.675]","","",""
"sailing-trial","115","1010448","0.0-11.0-74.0","","","","false","","","","","","","","","","3718","","372","","3","1","arrowright","1","arrowright","[0.15,0.85,0.675,0.325]","","",""
"sailing-trial","116","1014065","0.0-11.0-75.0","","","","false","","","","","","","","","","null","","1514","","1","1","null","null","arrowup","[0.15,0.85,0.675,0.325]","","",""
"sailing-trial","117","1018324","0.0-11.0-76.0","","","","false","","","","","","","","","","1056.9999999998836","","262.0000000001164","","3","0","arrowright","1","arrowright","[0.15,0.85,0.675,0.325]","","",""
"sailing-trial","118","1021965","0.0-11.0-77.0","","","","false","","","","","","","","","","null","","1636","","1","1","null","null","arrowup","[0.15,0.85,0.675,0.325]","","",""
"sailing-trial","119","1026201","0.0-11.0-78.0","","","","false","","","","","","","","","","1025.9999999997672","","655","","3","0","arrowright","1","arrowright","[0.15,0.85,0.675,0.325]","","",""
"sailing-trial","120","1031519","0.0-11.0-79.0","","","","false","","","","","","","","","","null","","3704.0000000001164","","3","0","null","null","arrowup","[0.15,0.85,0.675,0.325]","","",""
"sailing-trial","121","1037183","0.0-11.0-80.0","","","","false","","","","","","","","","","1289.0000000002328","","1085","","3","0","arrowright","1","arrowright","[0.15,0.85,0.675,0.325]","","",""
"sailing-trial","122","1041476","0.0-11.0-81.0","","","","false","","","","","","","","","","null","","2243","","0","0","null","null","arrowup","[0.15,0.85,0.675,0.325]","","",""
"sailing-trial","123","1046213","0.0-11.0-82.0","","","","false","","","","","","","","","","1574.0000000001164","","10","","3","0","arrowright","1","arrowright","[0.15,0.85,0.675,0.325]","","",""
"sailing-trial","124","1052241","0.0-11.0-83.0","","","","false","","","","","","","","","","null","","3661.9999999998836","","0","0","null","null","arrowup","[0.15,0.85,0.675,0.325]","","",""
"sailing-trial","125","1060936","0.0-11.0-84.0","","","","false","","","","","","","","","","5036","","888","","0","0","arrowleft","0","arrowleft","[0.15,0.85,0.675,0.325]","","",""
"sailing-trial","126","1063699","0.0-11.0-85.0","","","","false","","","","","","","","","","null","","1195","","3","0","null","null","arrowup","[0.15,0.85,0.675,0.325]","","",""
"sailing-trial","127","1067971","0.0-11.0-86.0","","","","false","","","","","","","","","","818","","900","","0","0","arrowleft","0","arrowleft","[0.15,0.85,0.675,0.325]","","",""
"sailing-trial","128","1071831","0.0-11.0-87.0","","","","false","","","","","","","","","","null","","1911","","1","1","null","null","arrowup","[0.15,0.85,0.675,0.325]","","",""
"sailing-trial","129","1078440","0.0-11.0-88.0","","","","false","","","","","","","","","","2050","","1050","","3","0","arrowright","1","arrowright","[0.15,0.85,0.675,0.325]","","",""
"sailing-trial","130","1082451","0.0-11.0-89.0","","","","false","","","","","","","","","","null","","1430","","0","0","null","null","arrowup","[0.15,0.85,0.675,0.325]","","",""
"sailing-trial","131","1088120","0.0-11.0-90.0","","","","false","","","","","","","","","","1048","","910","","0","1","arrowleft","0","arrowleft","[0.325,0.675,0.85,0.15]","","",""
"sailing-trial","132","1095342","0.0-11.0-91.0","","","","false","","","","","","","","","","null","","4958","","2","1","null","null","arrowup","[0.325,0.675,0.85,0.15]","","",""
"sailing-trial","133","1102609","0.0-11.0-92.0","","","","false","","","","","","","","","","2995","","317","","3","0","arrowright","1","arrowright","[0.325,0.675,0.85,0.15]","","",""
"sailing-trial","134","1106082","0.0-11.0-93.0","","","","false","","","","","","","","","","null","","1737","","0","0","null","null","arrowup","[0.325,0.675,0.85,0.15]","","",""
"sailing-trial","135","1112642","0.0-11.0-94.0","","","","false","","","","","","","","","","2683","","1040","","2","0","arrowright","1","arrowleft","[0.325,0.675,0.85,0.15]","","",""
"sailing-trial","136","1116933","0.0-11.0-95.0","","","","false","","","","","","","","","","null","","1992","","1","1","null","null","arrowup","[0.325,0.675,0.85,0.15]","","",""
"sailing-trial","137","1121342","0.0-11.0-96.0","","","","false","","","","","","","","","","1469","","223.99999999976717","","0","0","arrowleft","0","arrowleft","[0.325,0.675,0.85,0.15]","","",""
"sailing-trial","138","1125617","0.0-11.0-97.0","","","","false","","","","","","","","","","null","","2102","","0","1","null","null","arrowup","[0.325,0.675,0.85,0.15]","","",""
"sailing-trial","139","1132634","0.0-11.0-98.0","","","","false","","","","","","","","","","3494","","169","","0","1","arrowleft","0","arrowleft","[0.325,0.675,0.85,0.15]","","",""
"sailing-trial","140","1138002","0.0-11.0-99.0","","","","false","","","","","","","","","","null","","2531","","3","0","null","null","arrowup","[0.325,0.675,0.85,0.15]","","",""
"sailing-trial","141","1146419","0.0-11.0-100.0","","","","false","","","","","","","","","","2471.999999999767","","1806.9999999997672","","0","0","arrowleft","0","arrowleft","[0.325,0.675,0.85,0.15]","","",""
"sailing-trial","142","1156027","0.0-11.0-101.0","","","","false","","","","","","","","","","null","","7719.000000000233","","0","0","null","null","arrowup","[0.325,0.675,0.85,0.15]","","",""
"sailing-trial","143","1168023","0.0-11.0-102.0","","","","false","","","","","","","","","","2355","","6357","","3","0","arrowright","1","arrowright","[0.325,0.675,0.85,0.15]","","",""
"sailing-trial","144","1185305","0.0-11.0-103.0","","","","true","","","","","","","","","","null","","2278.000000000233","","0","1","null","null","arrowup","[0.325,0.675,0.85,0.15]","","",""
"sailing-trial","145","1191501","0.0-11.0-104.0","","","","false","","","","","","","","","","1424","","756","","3","1","arrowright","1","arrowright","[0.325,0.675,0.85,0.15]","","",""
"sailing-trial","146","1195401","0.0-11.0-105.0","","","","false","","","","","","","","","","null","","1628.0000000002328","","2","1","null","null","arrowup","[0.325,0.675,0.85,0.15]","","",""
"sailing-trial","147","1201157","0.0-11.0-106.0","","","","false","","","","","","","","","","1689","","1320.9999999997672","","0","0","arrowleft","0","arrowleft","[0.325,0.675,0.85,0.15]","","",""
"sailing-trial","148","1204868","0.0-11.0-107.0","","","","false","","","","","","","","","","null","","1627","","0","1","null","null","arrowup","[0.325,0.675,0.85,0.15]","","",""
"sailing-trial","149","1209673","0.0-11.0-108.0","","","","false","","","","","","","","","","1085","","1133","","3","0","arrowright","1","arrowright","[0.325,0.675,0.85,0.15]","","",""
"sailing-trial","150","1213093","0.0-11.0-109.0","","","","false","","","","","","","","","","null","","1946.0000000002328","","1","0","null","null","arrowup","[0.325,0.675,0.85,0.15]","","",""
"sailing-trial","151","1218501","0.0-11.0-110.0","","","","false","","","","","","","","","","2216","","88","","3","1","arrowright","1","arrowright","[0.325,0.675,0.85,0.15]","","",""
"sailing-trial","152","1222234","0.0-11.0-111.0","","","","false","","","","","","","","","","null","","1608","","1","1","null","null","arrowup","[0.325,0.675,0.85,0.15]","","",""
"sailing-trial","153","1229833","0.0-11.0-112.0","","","","false","","","","","","","","","","3727","","104","","3","0","arrowright","1","arrowright","[0.15,0.85,0.675,0.325]","","",""
"sailing-trial","154","1233518","0.0-11.0-113.0","","","","false","","","","","","","","","","null","","1594.0000000002328","","2","1","null","null","arrowup","[0.15,0.85,0.675,0.325]","","",""
"sailing-trial","155","1240080","0.0-11.0-114.0","","","","false","","","","","","","","","","2478","","947","","0","0","arrowleft","0","arrowleft","[0.15,0.85,0.675,0.325]","","",""
"sailing-trial","156","1245350","0.0-11.0-115.0","","","","false","","","","","","","","","","null","","2458","","2","1","null","null","arrowup","[0.15,0.85,0.675,0.325]","","",""
"sailing-trial","157","1254734","0.0-11.0-116.0","","","","false","","","","","","","","","","1759","","4474","","3","1","arrowright","1","arrowright","[0.15,0.85,0.675,0.325]","","",""
"sailing-trial","158","1257962","0.0-11.0-117.0","","","","false","","","","","","","","","","null","","2057","","2","0","null","null","arrowup","[0.15,0.85,0.675,0.325]","","",""
"sailing-trial","159","1262128","0.0-11.0-118.0","","","","false","","","","","","","","","","703","","800","","3","0","arrowright","1","arrowright","[0.15,0.85,0.675,0.325]","","",""
"sailing-trial","160","1266501","0.0-11.0-119.0","","","","false","","","","","","","","","","null","","2050.000000000233","","3","1","null","null","arrowup","[0.15,0.85,0.675,0.325]","","",""
"sailing-trial","161","1279367","0.0-11.0-120.0","","","","false","","","","","","","","","","4369.000000000233","","670","","3","1","arrowright","1","arrowright","[0.15,0.85,0.675,0.325]","","",""
"sailing-trial","162","1282763","0.0-11.0-121.0","","","","false","","","","","","","","","","null","","1885","","3","0","null","null","arrowup","[0.15,0.85,0.675,0.325]","","",""
"sailing-trial","163","1297766","0.0-11.0-122.0","","","","true","","","","","","","","","","null","","null","","null","null","null","null","null","[0.15,0.85,0.675,0.325]","","",""
"sailing-trial","164","1301626","0.0-11.0-123.0","","","","false","","","","","","","","","","null","","2302","","1","0","null","null","arrowup","[0.15,0.85,0.675,0.325]","","",""
"sailing-trial","165","1307214","0.0-11.0-124.0","","","","false","","","","","","","","","","2178","","517","","0","0","arrowleft","0","arrowleft","[0.15,0.85,0.675,0.325]","","",""
"sailing-trial","166","1311817","0.0-11.0-125.0","","","","false","","","","","","","","","","null","","2623","","1","1","null","null","arrowup","[0.15,0.85,0.675,0.325]","","",""
"sailing-trial","167","1326820","0.0-11.0-126.0","","","","true","","","","","","","","","","null","","null","","null","null","null","null","null","[0.15,0.85,0.675,0.325]","","",""
"sailing-trial","168","1330351","0.0-11.0-127.0","","","","false","","","","","","","","","","null","","1698","","0","0","null","null","arrowup","[0.15,0.85,0.675,0.325]","","",""
"sailing-trial","169","1336562","0.0-11.0-128.0","","","","false","","","","","","","","","","1579.9999999997672","","577","","3","0","arrowright","1","arrowright","[0.325,0.675,0.85,0.15]","","",""
"sailing-trial","170","1342426","0.0-11.0-129.0","","","","false","","","","","","","","","","null","","2980","","3","0","null","null","arrowup","[0.325,0.675,0.85,0.15]","","",""
"sailing-trial","171","1348601","0.0-11.0-130.0","","","","false","","","","","","","","","","2641","","1156.9999999997672","","0","0","arrowleft","0","arrowleft","[0.325,0.675,0.85,0.15]","","",""
"sailing-trial","172","1353335","0.0-11.0-131.0","","","","false","","","","","","","","","","null","","2414","","3","0","null","null","arrowup","[0.325,0.675,0.85,0.15]","","",""
"sailing-trial","173","1358669","0.0-11.0-132.0","","","","false","","","","","","","","","","2121","","190","","3","0","arrowright","1","arrowright","[0.325,0.675,0.85,0.15]","","",""
"sailing-trial","174","1362516","0.0-11.0-133.0","","","","false","","","","","","","","","","null","","1549.9999999997672","","2","1","null","null","arrowup","[0.325,0.675,0.85,0.15]","","",""
"sailing-trial","175","1368950","0.0-11.0-134.0","","","","false","","","","","","","","","","1366.9999999997672","","427","","3","1","arrowright","1","arrowright","[0.325,0.675,0.85,0.15]","","",""
"sailing-trial","176","1374729","0.0-11.0-135.0","","","","false","","","","","","","","","","null","","3849","","3","0","null","null","arrowup","[0.325,0.675,0.85,0.15]","","",""
"sailing-trial","177","1382873","0.0-11.0-136.0","","","","false","","","","","","","","","","1488","","3242","","3","0","arrowright","1","arrowright","[0.325,0.675,0.85,0.15]","","",""
"sailing-trial","178","1390017","0.0-11.0-137.0","","","","false","","","","","","","","","","null","","5163","","1","1","null","null","arrowup","[0.325,0.675,0.85,0.15]","","",""
"sailing-trial","179","1396256","0.0-11.0-138.0","","","","false","","","","","","","","","","3109.999999999767","","860","","3","0","arrowright","1","arrowright","[0.325,0.675,0.85,0.15]","","",""
"sailing-trial","180","1406201","0.0-11.0-139.0","","","","false","","","","","","","","","","null","","6931","","0","0","null","null","arrowup","[0.325,0.675,0.85,0.15]","","",""
"sailing-trial","181","1412934","0.0-11.0-140.0","","","","false","","","","","","","","","","1959","","644","","3","0","arrowright","1","arrowright","[0.325,0.675,0.85,0.15]","","",""
"sailing-trial","182","1416772","0.0-11.0-141.0","","","","false","","","","","","","","","","null","","2025.0000000002328","","3","0","null","null","arrowup","[0.325,0.675,0.85,0.15]","","",""
"sailing-trial","183","1423632","0.0-11.0-142.0","","","","false","","","","","","","","","","2834","","772","","3","0","arrowright","1","arrowright","[0.325,0.675,0.85,0.15]","","",""
"sailing-trial","184","1427004","0.0-11.0-143.0","","","","false","","","","","","","","","","null","","1611.9999999997672","","2","0","null","null","arrowup","[0.325,0.675,0.85,0.15]","","",""
"sailing-trial","185","1434238","0.0-11.0-144.0","","","","false","","","","","","","","","","3327","","144","","3","0","arrowright","1","arrowright","[0.15,0.85,0.675,0.325]","","",""
"sailing-trial","186","1438136","0.0-11.0-145.0","","","","false","","","","","","","","","","null","","2279.999999999767","","0","0","null","null","arrowup","[0.15,0.85,0.675,0.325]","","",""
"sailing-trial","187","1443636","0.0-11.0-146.0","","","","false","","","","","","","","","","2399","","460","","3","0","arrowright","1","arrowright","[0.15,0.85,0.675,0.325]","","",""
"sailing-trial","188","1447732","0.0-11.0-147.0","","","","false","","","","","","","","","","null","","1884","","2","1","null","null","arrowup","[0.15,0.85,0.675,0.325]","","",""
"sailing-trial","189","1452671","0.0-11.0-148.0","","","","false","","","","","","","","","","1566","","958","","3","0","arrowright","1","arrowright","[0.15,0.85,0.675,0.325]","","",""
"sailing-trial","190","1455933","0.0-11.0-149.0","","","","false","","","","","","","","","","null","","1488","","1","1","null","null","arrowup","[0.15,0.85,0.675,0.325]","","",""
"sailing-trial","191","1460700","0.0-11.0-150.0","","","","false","","","","","","","","","","1414","","1016","","3","0","arrowright","1","arrowright","[0.15,0.85,0.675,0.325]","","",""
"sailing-trial","192","1463965","0.0-11.0-151.0","","","","false","","","","","","","","","","null","","1755","","0","0","null","null","arrowup","[0.15,0.85,0.675,0.325]","","",""
"sailing-trial","193","1470752","0.0-11.0-152.0","","","","false","","","","","","","","","","2786","","1354","","3","0","arrowright","1","arrowright","[0.15,0.85,0.675,0.325]","","",""
"sailing-trial","194","1475484","0.0-11.0-153.0","","","","false","","","","","","","","","","null","","1718","","0","0","null","null","arrowup","[0.15,0.85,0.675,0.325]","","",""
"sailing-trial","195","1480363","0.0-11.0-154.0","","","","false","","","","","","","","","","1496","","680","","3","0","arrowright","1","arrowright","[0.15,0.85,0.675,0.325]","","",""
"sailing-trial","196","1483798","0.0-11.0-155.0","","","","false","","","","","","","","","","null","","1896","","0","0","null","null","arrowup","[0.15,0.85,0.675,0.325]","","",""
"sailing-trial","197","1488118","0.0-11.0-156.0","","","","false","","","","","","","","","","1029","","631","","3","0","arrowright","1","arrowright","[0.15,0.85,0.675,0.325]","","",""
"sailing-trial","198","1492725","0.0-11.0-157.0","","","","false","","","","","","","","","","null","","3085","","3","0","null","null","arrowup","[0.15,0.85,0.675,0.325]","","",""
"sailing-trial","199","1498950","0.0-11.0-158.0","","","","false","","","","","","","","","","1557","","875","","0","1","arrowleft","0","arrowleft","[0.15,0.85,0.675,0.325]","","",""
"sailing-trial","200","1502466","0.0-11.0-159.0","","","","false","","","","","","","","","","null","","1506","","1","1","null","null","arrowup","[0.15,0.85,0.675,0.325]","","",""
"sailing-trial","201","1507899","0.0-11.0-160.0","","","","false","","","","","","","","","","1377","","887","","3","1","arrowright","1","arrowright","[0.15,0.85,0.675,0.325]","","",""
"sailing-trial","202","1511416","0.0-11.0-161.0","","","","false","","","","","","","","","","null","","1475.0000000002328","","3","1","null","null","arrowup","[0.15,0.85,0.675,0.325]","","",""
"sailing-trial","203","1519934","0.0-11.0-162.0","","","","false","","","","","","","","","","3943","","446","","3","0","arrowright","1","arrowright","[0.325,0.675,0.85,0.15]","","",""
"sailing-trial","204","1523699","0.0-11.0-163.0","","","","false","","","","","","","","","","null","","1833.0000000002328","","1","1","null","null","arrowup","[0.325,0.675,0.85,0.15]","","",""
"sailing-trial","205","1531829","0.0-11.0-164.0","","","","false","","","","","","","","","","3851","","1074","","3","0","arrowright","1","arrowright","[0.325,0.675,0.85,0.15]","","",""
"sailing-trial","206","1534815","0.0-11.0-165.0","","","","false","","","","","","","","","","null","","1592.0000000002328","","0","0","null","null","arrowup","[0.325,0.675,0.85,0.15]","","",""
"sailing-trial","207","1541949","0.0-11.0-166.0","","","","false","","","","","","","","","","2334","","1056","","3","1","arrowright","1","arrowright","[0.325,0.675,0.85,0.15]","","",""
"sailing-trial","208","1546351","0.0-11.0-167.0","","","","false","","","","","","","","","","null","","2955","","3","0","null","null","arrowup","[0.325,0.675,0.85,0.15]","","",""
"sailing-trial","209","1551051","0.0-11.0-168.0","","","","false","","","","","","","","","","1228","","767","","3","0","arrowright","1","arrowright","[0.325,0.675,0.85,0.15]","","",""
"sailing-trial","210","1555415","0.0-11.0-169.0","","","","false","","","","","","","","","","null","","2400","","3","0","null","null","arrowup","[0.325,0.675,0.85,0.15]","","",""
"sailing-trial","211","1561133","0.0-11.0-170.0","","","","false","","","","","","","","","","1049","","519","","3","0","arrowright","1","arrowright","[0.325,0.675,0.85,0.15]","","",""
"sailing-trial","212","1566132","0.0-11.0-171.0","","","","false","","","","","","","","","","null","","3041.999999999767","","1","1","null","null","arrowup","[0.325,0.675,0.85,0.15]","","",""
"sailing-trial","213","1571684","0.0-11.0-172.0","","","","false","","","","","","","","","","1817","","1185","","3","0","arrowright","1","arrowright","[0.325,0.675,0.85,0.15]","","",""
"sailing-trial","214","1575349","0.0-11.0-173.0","","","","false","","","","","","","","","","null","","1786.0000000002328","","2","1","null","null","arrowup","[0.325,0.675,0.85,0.15]","","",""
"sailing-trial","215","1580702","0.0-11.0-174.0","","","","false","","","","","","","","","","2001","","766.9999999997672","","0","0","arrowleft","0","arrowleft","[0.325,0.675,0.85,0.15]","","",""
"sailing-trial","216","1583626","0.0-11.0-175.0","","","","false","","","","","","","","","","null","","1280","","3","0","null","null","arrowup","[0.325,0.675,0.85,0.15]","","",""
"sailing-trial","217","1587625","0.0-11.0-176.0","","","","false","","","","","","","","","","651","","757.0000000002328","","0","0","arrowleft","0","arrowleft","[0.325,0.675,0.85,0.15]","","",""
"sailing-trial","218","1591349","0.0-11.0-177.0","","","","false","","","","","","","","","","null","","1699","","2","1","null","null","arrowup","[0.325,0.675,0.85,0.15]","","",""
"sailing-trial","219","1596211","0.0-11.0-178.0","","","","false","","","","","","","","","","1338","","829","","0","0","arrowleft","0","arrowleft","[0.15,0.85,0.675,0.325]","","",""
"sailing-trial","220","1600048","0.0-11.0-179.0","","","","false","","","","","","","","","","null","","1894.9999999997672","","0","1","null","null","arrowup","[0.15,0.85,0.675,0.325]","","",""
"sailing-trial","221","1605719","0.0-11.0-180.0","","","","false","","","","","","","","","","2520.999999999767","","2","","3","0","arrowright","1","arrowright","[0.15,0.85,0.675,0.325]","","",""
"sailing-trial","222","1608520","0.0-11.0-181.0","","","","false","","","","","","","","","","null","","1347","","0","0","null","null","arrowup","[0.15,0.85,0.675,0.325]","","",""
"sailing-trial","223","1612864","0.0-11.0-182.0","","","","false","","","","","","","","","","951.0000000002328","","299.99999999976717","","0","0","arrowleft","0","arrowleft","[0.15,0.85,0.675,0.325]","","",""
"sailing-trial","224","1616449","0.0-11.0-183.0","","","","false","","","","","","","","","","null","","1501.0000000002328","","1","1","null","null","arrowup","[0.15,0.85,0.675,0.325]","","",""
"sailing-trial","225","1621772","0.0-11.0-184.0","","","","false","","","","","","","","","","2384","","95.00000000023283","","0","0","arrowleft","0","arrowleft","[0.15,0.85,0.675,0.325]","","",""
"sailing-trial","226","1630181","0.0-11.0-185.0","","","","false","","","","","","","","","","null","","1382.0000000002328","","1","1","null","null","arrowup","[0.15,0.85,0.675,0.325]","","",""
"sailing-trial","227","1635632","0.0-11.0-186.0","","","","false","","","","","","","","","","1668","","668","","0","1","arrowleft","0","arrowleft","[0.15,0.85,0.675,0.325]","","",""
"sailing-trial","228","1645131","0.0-11.0-187.0","","","","false","","","","","","","","","","null","","6420","","2","1","null","null","arrowup","[0.15,0.85,0.675,0.325]","","",""
"sailing-trial","229","1653548","0.0-11.0-188.0","","","","false","","","","","","","","","","5024","","578","","3","1","arrowright","1","arrowright","[0.15,0.85,0.675,0.325]","","",""
"sailing-trial","230","1657115","0.0-11.0-189.0","","","","false","","","","","","","","","","null","","1466.9999999997672","","0","1","null","null","arrowup","[0.15,0.85,0.675,0.325]","","",""
"sailing-trial","231","1664241","0.0-11.0-190.0","","","","false","","","","","","","","","","2056.999999999767","","1650","","0","0","arrowleft","0","arrowleft","[0.15,0.85,0.675,0.325]","","",""
"sailing-trial","232","1666867","0.0-11.0-191.0","","","","false","","","","","","","","","","null","","1408.9999999997672","","0","0","null","null","arrowup","[0.15,0.85,0.675,0.325]","","",""
"sailing-trial","233","1675351","0.0-11.0-192.0","","","","false","","","","","","","","","","3284","","1083.9999999997672","","3","0","arrowright","1","arrowright","[0.15,0.85,0.675,0.325]","","",""
"sailing-trial","234","1684082","0.0-11.0-193.0","","","","false","","","","","","","","","","null","","6761","","1","1","null","null","arrowup","[0.15,0.85,0.675,0.325]","","",""
"sailing-trial","235","1689000","0.0-11.0-194.0","","","","false","","","","","","","","","","2089","","89","","0","0","arrowleft","0","arrowleft","[0.15,0.85,0.675,0.325]","","",""
"sailing-trial","236","1693206","0.0-11.0-195.0","","","","false","","","","","","","","","","null","","2563.999999999767","","3","0","null","null","arrowup","[0.15,0.85,0.675,0.325]","","",""
"sailing-trial","237","1699253","0.0-11.0-196.0","","","","false","","","","","","","","","","2727","","692","","0","0","arrowleft","0","arrowleft","[0.15,0.85,0.675,0.325]","","",""
"sailing-trial","238","1702981","0.0-11.0-197.0","","","","false","","","","","","","","","","null","","1760","","2","1","null","null","arrowup","[0.15,0.85,0.675,0.325]","","",""
"sailing-trial","239","1708748","0.0-11.0-198.0","","","","false","","","","","","","","","","1942.9999999997672","","762","","0","1","arrowleft","0","arrowleft","[0.325,0.675,0.85,0.15]","","",""
"sailing-trial","240","1712000","0.0-11.0-199.0","","","","false","","","","","","","","","","null","","1591","","3","0","null","null","arrowup","[0.325,0.675,0.85,0.15]","","",""
"sailing-trial","241","1717606","0.0-11.0-200.0","","","","false","","","","","","","","","","2620","","280","","3","0","arrowright","1","arrowright","[0.325,0.675,0.85,0.15]","","",""
"sailing-trial","242","1720193","0.0-11.0-201.0","","","","false","","","","","","","","","","null","","1117.0000000002328","","3","0","null","null","arrowup","[0.325,0.675,0.85,0.15]","","",""
"sailing-trial","243","1724881","0.0-11.0-202.0","","","","false","","","","","","","","","","1212","","257","","3","1","arrowright","1","arrowright","[0.325,0.675,0.85,0.15]","","",""
"sailing-trial","244","1728265","0.0-11.0-203.0","","","","false","","","","","","","","","","null","","1393","","2","1","null","null","arrowup","[0.325,0.675,0.85,0.15]","","",""
"sailing-trial","245","1732654","0.0-11.0-204.0","","","","false","","","","","","","","","","755.0000000002328","","535.9999999997672","","0","0","arrowleft","0","arrowleft","[0.325,0.675,0.85,0.15]","","",""
"sailing-trial","246","1737352","0.0-11.0-205.0","","","","false","","","","","","","","","","null","","2421","","3","0","null","null","arrowup","[0.325,0.675,0.85,0.15]","","",""
"sailing-trial","247","1742087","0.0-11.0-206.0","","","","false","","","","","","","","","","1439","","636","","3","0","arrowright","1","arrowright","[0.325,0.675,0.85,0.15]","","",""
"sailing-trial","248","1745876","0.0-11.0-207.0","","","","false","","","","","","","","","","null","","2010.0000000002328","","3","0","null","null","arrowup","[0.325,0.675,0.85,0.15]","","",""
"sailing-trial","249","1750618","0.0-11.0-208.0","","","","false","","","","","","","","","","1606","","56","","3","0","arrowright","1","arrowright","[0.325,0.675,0.85,0.15]","","",""
"sailing-trial","250","1753868","0.0-11.0-209.0","","","","false","","","","","","","","","","null","","1510.9999999997672","","2","0","null","null","arrowup","[0.325,0.675,0.85,0.15]","","",""
"sailing-trial","251","1759298","0.0-11.0-210.0","","","","false","","","","","","","","","","990","","246","","3","1","arrowright","1","arrowright","[0.325,0.675,0.85,0.15]","","",""
"sailing-trial","252","1762973","0.0-11.0-211.0","","","","false","","","","","","","","","","null","","2193","","0","0","null","null","arrowup","[0.325,0.675,0.85,0.15]","","",""
"sailing-trial","253","1767018","0.0-11.0-212.0","","","","false","","","","","","","","","","1299.9999999997672","","1.9999999997671694","","0","0","arrowleft","0","arrowleft","[0.325,0.675,0.85,0.15]","","",""
"sailing-trial","254","1771198","0.0-11.0-213.0","","","","false","","","","","","","","","","null","","2138.000000000233","","1","1","null","null","arrowup","[0.325,0.675,0.85,0.15]","","",""
"sailing-trial","255","1776816","0.0-11.0-214.0","","","","false","","","","","","","","","","2499","","568.9999999997672","","0","0","arrowleft","0","arrowleft","[0.85,0.15,0.325,0.675]","","",""
"sailing-trial","256","1780030","0.0-11.0-215.0","","","","false","","","","","","","","","","null","","1664","","3","0","null","null","arrowup","[0.85,0.15,0.325,0.675]","","",""
"sailing-trial","257","1787148","0.0-11.0-216.0","","","","false","","","","","","","","","","2077","","2135","","0","1","arrowleft","0","arrowleft","[0.85,0.15,0.325,0.675]","","",""
"sailing-trial","258","1791342","0.0-11.0-217.0","","","","false","","","","","","","","","","null","","1405","","2","0","null","null","arrowup","[0.85,0.15,0.325,0.675]","","",""
"sailing-trial","259","1795663","0.0-11.0-218.0","","","","false","","","","","","","","","","834","","634","","0","1","arrowleft","0","arrowleft","[0.85,0.15,0.325,0.675]","","",""
"sailing-trial","260","1799463","0.0-11.0-219.0","","","","false","","","","","","","","","","null","","1788","","0","1","null","null","arrowup","[0.85,0.15,0.325,0.675]","","",""
"sailing-trial","261","1806731","0.0-11.0-220.0","","","","false","","","","","","","","","","3322.999999999767","","620.0000000002328","","3","1","arrowright","1","arrowright","[0.85,0.15,0.325,0.675]","","",""
"sailing-trial","262","1810264","0.0-11.0-221.0","","","","false","","","","","","","","","","null","","1469","","2","1","null","null","arrowup","[0.85,0.15,0.325,0.675]","","",""
"sailing-trial","263","1815231","0.0-11.0-222.0","","","","false","","","","","","","","","","1158","","609","","3","1","arrowright","1","arrowright","[0.85,0.15,0.325,0.675]","","",""
"sailing-trial","264","1819031","0.0-11.0-223.0","","","","false","","","","","","","","","","null","","1656","","3","1","null","null","arrowup","[0.85,0.15,0.325,0.675]","","",""
"sailing-trial","265","1824764","0.0-11.0-224.0","","","","false","","","","","","","","","","2248","","297","","3","1","arrowright","1","arrowright","[0.85,0.15,0.325,0.675]","","",""
"sailing-trial","266","1828581","0.0-11.0-225.0","","","","false","","","","","","","","","","null","","1624","","3","1","null","null","arrowup","[0.85,0.15,0.325,0.675]","","",""
"sailing-trial","267","1836863","0.0-11.0-226.0","","","","false","","","","","","","","","","3295","","684","","3","1","arrowright","1","arrowright","[0.85,0.15,0.325,0.675]","","",""
"sailing-trial","268","1840381","0.0-11.0-227.0","","","","false","","","","","","","","","","null","","1412","","2","1","null","null","arrowup","[0.85,0.15,0.325,0.675]","","",""
"sailing-trial","269","1845165","0.0-11.0-228.0","","","","false","","","","","","","","","","847","","936","","3","0","arrowright","1","arrowright","[0.85,0.15,0.325,0.675]","","",""
"sailing-trial","270","1849581","0.0-11.0-229.0","","","","false","","","","","","","","","","null","","3161","","0","0","null","null","arrowup","[0.85,0.15,0.325,0.675]","","",""
"sailing-trial","271","1856947","0.0-11.0-230.0","","","","false","","","","","","","","","","2442","","1845","","0","1","arrowleft","0","arrowleft","[0.85,0.15,0.325,0.675]","","",""
"sailing-trial","272","1861898","0.0-11.0-231.0","","","","false","","","","","","","","","","null","","1940","","1","0","null","null","arrowup","[0.85,0.15,0.325,0.675]","","",""
"sailing-trial","273","1869030","0.0-11.0-232.0","","","","false","","","","","","","","","","1249","","275","","3","1","arrowright","1","arrowright","[0.85,0.15,0.325,0.675]","","",""
"sailing-trial","274","1872231","0.0-11.0-233.0","","","","false","","","","","","","","","","null","","1715","","2","0","null","null","arrowup","[0.85,0.15,0.325,0.675]","","",""
"sailing-trial","275","1877063","0.0-11.0-234.0","","","","false","","","","","","","","","","1114","","687.0000000002328","","3","1","arrowright","1","arrowright","[0.85,0.15,0.325,0.675]","","",""
"sailing-trial","276","1880846","0.0-11.0-235.0","","","","false","","","","","","","","","","null","","1593","","2","1","null","null","arrowup","[0.85,0.15,0.325,0.675]","","",""
"sailing-trial","277","1884542","0.0-11.0-236.0","","","","false","","","","","","","","","","589","","74.99999999976717","","3","0","arrowright","1","arrowright","[0.85,0.15,0.325,0.675]","","",""
"sailing-trial","278","1889780","0.0-11.0-237.0","","","","false","","","","","","","","","","null","","3184.999999999767","","3","1","null","null","arrowup","[0.85,0.15,0.325,0.675]","","",""
"sailing-trial","279","1895945","0.0-11.0-238.0","","","","false","","","","","","","","","","3026","","19","","0","1","arrowleft","0","arrowleft","[0.675,0.325,0.15,0.85]","","",""
"sailing-trial","280","1900013","0.0-11.0-239.0","","","","false","","","","","","","","","","null","","2041.9999999997672","","3","1","null","null","arrowup","[0.675,0.325,0.15,0.85]","","",""
"sailing-trial","281","1904246","0.0-11.0-240.0","","","","false","","","","","","","","","","1330.9999999997672","","193","","0","1","arrowleft","0","arrowleft","[0.675,0.325,0.15,0.85]","","",""
"sailing-trial","282","1909697","0.0-11.0-241.0","","","","false","","","","","","","","","","null","","3450.000000000233","","0","1","null","null","arrowup","[0.675,0.325,0.15,0.85]","","",""
"sailing-trial","283","1914835","0.0-11.0-242.0","","","","false","","","","","","","","","","2280.999999999767","","139","","0","0","arrowleft","0","arrowleft","[0.675,0.325,0.15,0.85]","","",""
"sailing-trial","284","1919796","0.0-11.0-243.0","","","","false","","","","","","","","","","null","","2833","","1","1","null","null","arrowup","[0.675,0.325,0.15,0.85]","","",""
"sailing-trial","285","1925547","0.0-11.0-244.0","","","","false","","","","","","","","","","1589","","712","","0","1","arrowleft","0","arrowleft","[0.675,0.325,0.15,0.85]","","",""
"sailing-trial","286","1932146","0.0-11.0-245.0","","","","false","","","","","","","","","","null","","4659.000000000233","","1","1","null","null","arrowup","[0.675,0.325,0.15,0.85]","","",""
"sailing-trial","287","1937962","0.0-11.0-246.0","","","","false","","","","","","","","","","2775","","62","","3","0","arrowright","1","arrowright","[0.675,0.325,0.15,0.85]","","",""
"sailing-trial","288","1941146","0.0-11.0-247.0","","","","false","","","","","","","","","","null","","1582","","2","1","null","null","arrowup","[0.675,0.325,0.15,0.85]","","",""
"sailing-trial","289","1944897","0.0-11.0-248.0","","","","false","","","","","","","","","","1273","","153.00000000023283","","3","0","arrowright","1","arrowright","[0.675,0.325,0.15,0.85]","","",""
"sailing-trial","290","1948462","0.0-11.0-249.0","","","","false","","","","","","","","","","null","","1484","","1","1","null","null","arrowup","[0.675,0.325,0.15,0.85]","","",""
"sailing-trial","291","1954613","0.0-11.0-250.0","","","","false","","","","","","","","","","2282.000000000233","","227","","0","1","arrowleft","0","arrowleft","[0.675,0.325,0.15,0.85]","","",""
"sailing-trial","292","1957406","0.0-11.0-251.0","","","","false","","","","","","","","","","null","","1288","","0","0","null","null","arrowup","[0.675,0.325,0.15,0.85]","","",""
"sailing-trial","293","1964446","0.0-11.0-252.0","","","","false","","","","","","","","","","2935.000000000233","","162","","3","1","arrowright","1","arrowright","[0.675,0.325,0.15,0.85]","","",""
"sailing-trial","294","1967430","0.0-11.0-253.0","","","","false","","","","","","","","","","null","","1939","","2","0","null","null","arrowup","[0.675,0.325,0.15,0.85]","","",""
"sailing-trial","295","1972096","0.0-11.0-254.0","","","","false","","","","","","","","","","1211","","380","","3","1","arrowright","1","arrowright","[0.675,0.325,0.15,0.85]","","",""
"sailing-trial","296","1977629","0.0-11.0-255.0","","","","false","","","","","","","","","","null","","3360.000000000233","","3","1","null","null","arrowup","[0.675,0.325,0.15,0.85]","","",""
"sailing-trial","297","1982993","0.0-11.0-256.0","","","","false","","","","","","","","","","2375","","411","","0","0","arrowleft","0","arrowleft","[0.675,0.325,0.15,0.85]","","",""
"sailing-trial","298","1987079","0.0-11.0-257.0","","","","false","","","","","","","","","","null","","2134","","3","1","null","null","arrowup","[0.675,0.325,0.15,0.85]","","",""
"sailing-trial","299","1995029","0.0-11.0-258.0","","","","false","","","","","","","","","","2158","","309.00000000023283","","3","1","arrowright","1","arrowright","[0.675,0.325,0.15,0.85]","","",""
"sailing-trial","300","1998846","0.0-11.0-259.0","","","","false","","","","","","","","","","null","","1761","","1","1","null","null","arrowup","[0.675,0.325,0.15,0.85]","","",""
"sailing-trial","301","2007979","0.0-11.0-260.0","","","","false","","","","","","","","","","5165","","319","","3","1","arrowright","1","arrowright","[0.85,0.15,0.325,0.675]","","",""
"sailing-trial","302","2013498","0.0-11.0-261.0","","","","false","","","","","","","","","","null","","4242","","2","0","null","null","arrowup","[0.85,0.15,0.325,0.675]","","",""
"sailing-trial","303","2026929","0.0-11.0-262.0","","","","false","","","","","","","","","","6488.000000000233","","2671","","0","1","arrowleft","0","arrowleft","[0.85,0.15,0.325,0.675]","","",""
"sailing-trial","304","2031312","0.0-11.0-263.0","","","","false","","","","","","","","","","null","","1811","","2","1","null","null","arrowup","[0.85,0.15,0.325,0.675]","","",""
"sailing-trial","305","2046314","0.0-11.0-264.0","","","","true","","","","","","","","","","null","","null","","null","null","null","null","null","[0.85,0.15,0.325,0.675]","","",""
"sailing-trial","306","2050195","0.0-11.0-265.0","","","","false","","","","","","","","","","null","","1702","","0","1","null","null","arrowup","[0.85,0.15,0.325,0.675]","","",""
"sailing-trial","307","2055645","0.0-11.0-266.0","","","","false","","","","","","","","","","2442","","0.9999999997671694","","0","1","arrowleft","0","arrowleft","[0.85,0.15,0.325,0.675]","","",""
"sailing-trial","308","2064561","0.0-11.0-267.0","","","","false","","","","","","","","","","null","","7284.999999999767","","3","0","null","null","arrowup","[0.85,0.15,0.325,0.675]","","",""
"sailing-trial","309","2072530","0.0-11.0-268.0","","","","false","","","","","","","","","","4990.000000000233","","378","","3","0","arrowright","1","arrowright","[0.85,0.15,0.325,0.675]","","",""
"sailing-trial","310","2079245","0.0-11.0-269.0","","","","false","","","","","","","","","","null","","4554.999999999767","","0","1","null","null","arrowup","[0.85,0.15,0.325,0.675]","","",""
"sailing-trial","311","2090062","0.0-11.0-270.0","","","","false","","","","","","","","","","2816.000000000233","","2297","","0","1","arrowleft","0","arrowleft","[0.85,0.15,0.325,0.675]","","",""
"sailing-trial","312","2095377","0.0-11.0-271.0","","","","false","","","","","","","","","","null","","3843.000000000233","","3","0","null","null","arrowup","[0.85,0.15,0.325,0.675]","","",""
"sailing-trial","313","2107445","0.0-11.0-272.0","","","","false","","","","","","","","","","3645.999999999767","","10","","0","1","arrowleft","0","arrowleft","[0.85,0.15,0.325,0.675]","","",""
"sailing-trial","314","2110583","0.0-11.0-273.0","","","","false","","","","","","","","","","null","","1550","","1","0","null","null","arrowup","[0.85,0.15,0.325,0.675]","","",""
"sailing-trial","315","2116195","0.0-11.0-274.0","","","","false","","","","","","","","","","1551","","960","","0","1","arrowleft","0","arrowleft","[0.85,0.15,0.325,0.675]","","",""
"sailing-trial","316","2120628","0.0-11.0-275.0","","","","false","","","","","","","","","","null","","1705","","0","1","null","null","arrowup","[0.85,0.15,0.325,0.675]","","",""
"sailing-trial","317","2127242","0.0-11.0-276.0","","","","false","","","","","","","","","","3006","","170","","0","0","arrowleft","0","arrowleft","[0.15,0.85,0.675,0.325]","","",""
"sailing-trial","318","2131173","0.0-11.0-277.0","","","","false","","","","","","","","","","null","","2577.0000000004657","","2","0","null","null","arrowup","[0.15,0.85,0.675,0.325]","","",""
"sailing-trial","319","2136922","0.0-11.0-278.0","","","","false","","","","","","","","","","2710","","210","","0","0","arrowleft","0","arrowleft","[0.15,0.85,0.675,0.325]","","",""
"sailing-trial","320","2143770","0.0-11.0-279.0","","","","false","","","","","","","","","","null","","5362","","2","0","null","null","arrowup","[0.15,0.85,0.675,0.325]","","",""
"sailing-trial","321","2150510","0.0-11.0-280.0","","","","false","","","","","","","","","","4312.999999999534","","117","","3","0","arrowright","1","arrowright","[0.15,0.85,0.675,0.325]","","",""
"sailing-trial","322","2153639","0.0-11.0-281.0","","","","false","","","","","","","","","","null","","1643","","0","0","null","null","arrowup","[0.15,0.85,0.675,0.325]","","",""
"sailing-trial","323","2161432","0.0-11.0-282.0","","","","false","","","","","","","","","","2791","","1036","","3","0","arrowright","1","arrowright","[0.15,0.85,0.675,0.325]","","",""
"sailing-trial","324","2164578","0.0-11.0-283.0","","","","false","","","","","","","","","","null","","1424","","1","1","null","null","arrowup","[0.15,0.85,0.675,0.325]","","",""
"sailing-trial","325","2173461","0.0-11.0-284.0","","","","false","","","","","","","","","","1483","","3575","","3","1","arrowright","1","arrowright","[0.15,0.85,0.675,0.325]","","",""
"sailing-trial","326","2176251","0.0-11.0-285.0","","","","false","","","","","","","","","","null","","1441","","0","0","null","null","arrowup","[0.15,0.85,0.675,0.325]","","",""
"sailing-trial","327","2182428","0.0-11.0-286.0","","","","false","","","","","","","","","","3110","","72.99999999953434","","0","1","arrowleft","0","arrowleft","[0.15,0.85,0.675,0.325]","","",""
"sailing-trial","328","2187695","0.0-11.0-287.0","","","","false","","","","","","","","","","null","","3354","","1","1","null","null","arrowup","[0.15,0.85,0.675,0.325]","","",""
"sailing-trial","329","2193363","0.0-11.0-288.0","","","","false","","","","","","","","","","2162","","119","","3","0","arrowright","1","arrowright","[0.15,0.85,0.675,0.325]","","",""
"sailing-trial","330","2197761","0.0-11.0-289.0","","","","false","","","","","","","","","","null","","2499","","2","1","null","null","arrowup","[0.15,0.85,0.675,0.325]","","",""
"sailing-trial","331","2203293","0.0-11.0-290.0","","","","false","","","","","","","","","","1614","","890","","0","1","arrowleft","0","arrowleft","[0.15,0.85,0.675,0.325]","","",""
"sailing-trial","332","2206288","0.0-11.0-291.0","","","","false","","","","","","","","","","null","","1730","","0","0","null","null","arrowup","[0.15,0.85,0.675,0.325]","","",""
"sailing-trial","333","2211443","0.0-11.0-292.0","","","","false","","","","","","","","","","2564","","37.00000000046566","","0","0","arrowleft","0","arrowleft","[0.15,0.85,0.675,0.325]","","",""
"sailing-trial","334","2215011","0.0-11.0-293.0","","","","false","","","","","","","","","","null","","1599","","2","1","null","null","arrowup","[0.15,0.85,0.675,0.325]","","",""
"sailing-trial","335","2220828","0.0-11.0-294.0","","","","false","","","","","","","","","","2757","","94","","3","1","arrowright","1","arrowright","[0.85,0.15,0.325,0.675]","","",""
"sailing-trial","336","2225844","0.0-11.0-295.0","","","","false","","","","","","","","","","null","","3127.0000000004657","","3","1","null","null","arrowup","[0.85,0.15,0.325,0.675]","","",""
"sailing-trial","337","2231228","0.0-11.0-296.0","","","","false","","","","","","","","","","2081.0000000004657","","67","","0","1","arrowleft","0","arrowleft","[0.85,0.15,0.325,0.675]","","",""
"sailing-trial","338","2234844","0.0-11.0-297.0","","","","false","","","","","","","","","","null","","1709","","3","1","null","null","arrowup","[0.85,0.15,0.325,0.675]","","",""
"sailing-trial","339","2243278","0.0-11.0-298.0","","","","false","","","","","","","","","","4067","","1301.9999999995343","","0","1","arrowleft","0","arrowleft","[0.85,0.15,0.325,0.675]","","",""
"sailing-trial","340","2247151","0.0-11.0-299.0","","","","false","","","","","","","","","","null","","2025","","2","0","null","null","arrowup","[0.85,0.15,0.325,0.675]","","",""
"sailing-trial","341","2253722","0.0-11.0-300.0","","","","false","","","","","","","","","","2753","","558","","3","0","arrowright","1","arrowright","[0.85,0.15,0.325,0.675]","","",""
"sailing-trial","342","2258603","0.0-11.0-301.0","","","","false","","","","","","","","","","null","","2981","","2","0","null","null","arrowup","[0.85,0.15,0.325,0.675]","","",""
"sailing-trial","343","2264811","0.0-11.0-302.0","","","","false","","","","","","","","","","2300","","688","","3","1","arrowright","1","arrowright","[0.85,0.15,0.325,0.675]","","",""
"sailing-trial","344","2267796","0.0-11.0-303.0","","","","false","","","","","","","","","","null","","1753.9999999995343","","2","0","null","null","arrowup","[0.85,0.15,0.325,0.675]","","",""
"sailing-trial","345","2272944","0.0-11.0-304.0","","","","false","","","","","","","","","","1898","","41","","0","1","arrowleft","0","arrowleft","[0.85,0.15,0.325,0.675]","","",""
"sailing-trial","346","2280079","0.0-11.0-305.0","","","","false","","","","","","","","","","null","","4122","","1","0","null","null","arrowup","[0.85,0.15,0.325,0.675]","","",""
"sailing-trial","347","2291377","0.0-11.0-306.0","","","","false","","","","","","","","","","7765","","117","","0","1","arrowleft","0","arrowleft","[0.85,0.15,0.325,0.675]","","",""
"sailing-trial","348","2295485","0.0-11.0-307.0","","","","false","","","","","","","","","","null","","2938","","2","0","null","null","arrowup","[0.85,0.15,0.325,0.675]","","",""
"sailing-trial","349","2301077","0.0-11.0-308.0","","","","false","","","","","","","","","","1506.9999999995343","","1113","","0","1","arrowleft","0","arrowleft","[0.85,0.15,0.325,0.675]","","",""
"sailing-trial","350","2304576","0.0-11.0-309.0","","","","false","","","","","","","","","","null","","1990","","2","0","null","null","arrowup","[0.85,0.15,0.325,0.675]","","",""
"sailing-trial","351","2310122","0.0-11.0-310.0","","","","false","","","","","","","","","","1787","","1157","","1","0","arrowleft","0","arrowright","[0.85,0.15,0.325,0.675]","","",""
"sailing-trial","352","2313276","0.0-11.0-311.0","","","","false","","","","","","","","","","null","","1146","","3","1","null","null","arrowup","[0.85,0.15,0.325,0.675]","","",""
"sailing-trial","353","2317793","0.0-11.0-312.0","","","","false","","","","","","","","","","1243","","107","","0","1","arrowleft","0","arrowleft","[0.675,0.325,0.15,0.85]","","",""
"sailing-trial","354","2321043","0.0-11.0-313.0","","","","false","","","","","","","","","","null","","1292","","2","1","null","null","arrowup","[0.675,0.325,0.15,0.85]","","",""
"sailing-trial","355","2332860","0.0-11.0-314.0","","","","false","","","","","","","","","","3516.9999999995343","","240","","0","1","arrowleft","0","arrowleft","[0.675,0.325,0.15,0.85]","","",""
"sailing-trial","356","2339020","0.0-11.0-315.0","","","","false","","","","","","","","","","null","","4962","","1","0","null","null","arrowup","[0.675,0.325,0.15,0.85]","","",""
"sailing-trial","357","2343660","0.0-11.0-316.0","","","","false","","","","","","","","","","1571","","68","","3","1","arrowright","1","arrowright","[0.675,0.325,0.15,0.85]","","",""
"sailing-trial","358","2347290","0.0-11.0-317.0","","","","false","","","","","","","","","","null","","1434","","1","0","null","null","arrowup","[0.675,0.325,0.15,0.85]","","",""
"sailing-trial","359","2352175","0.0-11.0-318.0","","","","false","","","","","","","","","","1405","","163","","3","1","arrowright","1","arrowright","[0.675,0.325,0.15,0.85]","","",""
"sailing-trial","360","2355592","0.0-11.0-319.0","","","","false","","","","","","","","","","null","","1818","","0","1","null","null","arrowup","[0.675,0.325,0.15,0.85]","","",""
"sailing-trial","361","2360310","0.0-11.0-320.0","","","","false","","","","","","","","","","1456","","275","","3","1","arrowright","1","arrowright","[0.675,0.325,0.15,0.85]","","",""
"sailing-trial","362","2365577","0.0-11.0-321.0","","","","false","","","","","","","","","","null","","2262","","2","0","null","null","arrowup","[0.675,0.325,0.15,0.85]","","",""
"sailing-trial","363","2371776","0.0-11.0-322.0","","","","false","","","","","","","","","","2541","","517","","0","1","arrowleft","0","arrowleft","[0.675,0.325,0.15,0.85]","","",""
"sailing-trial","364","2376143","0.0-11.0-323.0","","","","false","","","","","","","","","","null","","2071","","1","1","null","null","arrowup","[0.675,0.325,0.15,0.85]","","",""
"sailing-trial","365","2382443","0.0-11.0-324.0","","","","false","","","","","","","","","","1950","","3.0000000004656613","","0","1","arrowleft","0","arrowleft","[0.675,0.325,0.15,0.85]","","",""
"sailing-trial","366","2385945","0.0-11.0-325.0","","","","false","","","","","","","","","","null","","1610.0000000004657","","1","0","null","null","arrowup","[0.675,0.325,0.15,0.85]","","",""
"sailing-trial","367","2390926","0.0-11.0-326.0","","","","false","","","","","","","","","","1733","","243","","0","1","arrowleft","0","arrowleft","[0.675,0.325,0.15,0.85]","","",""
"sailing-trial","368","2394893","0.0-11.0-327.0","","","","false","","","","","","","","","","null","","2294","","2","1","null","null","arrowup","[0.675,0.325,0.15,0.85]","","",""
"sailing-trial","369","2399726","0.0-11.0-328.0","","","","false","","","","","","","","","","634","","630","","0","1","arrowleft","0","arrowleft","[0.675,0.325,0.15,0.85]","","",""
"sailing-trial","370","2402775","0.0-11.0-329.0","","","","false","","","","","","","","","","null","","1408","","3","0","null","null","arrowup","[0.675,0.325,0.15,0.85]","","",""
"sailing-trial","371","2407410","0.0-11.0-330.0","","","","false","","","","","","","","","","1384","","244","","3","1","arrowright","1","arrowright","[0.85,0.15,0.325,0.675]","","",""
"sailing-trial","372","2410459","0.0-11.0-331.0","","","","false","","","","","","","","","","null","","1225","","3","1","null","null","arrowup","[0.85,0.15,0.325,0.675]","","",""
"sailing-trial","373","2420776","0.0-11.0-332.0","","","","false","","","","","","","","","","4453","","2067","","3","1","arrowright","1","arrowright","[0.85,0.15,0.325,0.675]","","",""
"sailing-trial","374","2426493","0.0-11.0-333.0","","","","false","","","","","","","","","","null","","3771","","0","1","null","null","arrowup","[0.85,0.15,0.325,0.675]","","",""
"sailing-trial","375","2433881","0.0-11.0-334.0","","","","false","","","","","","","","","","4515","","276.99999999953434","","3","0","arrowright","1","arrowright","[0.85,0.15,0.325,0.675]","","",""
"sailing-trial","376","2440059","0.0-11.0-335.0","","","","false","","","","","","","","","","null","","2377","","3","1","null","null","arrowup","[0.85,0.15,0.325,0.675]","","",""
"sailing-trial","377","2444342","0.0-11.0-336.0","","","","false","","","","","","","","","","590.0000000004657","","409","","3","1","arrowright","1","arrowright","[0.85,0.15,0.325,0.675]","","",""
"sailing-trial","378","2447441","0.0-11.0-337.0","","","","false","","","","","","","","","","null","","1635.0000000004657","","2","0","null","null","arrowup","[0.85,0.15,0.325,0.675]","","",""
"sailing-trial","379","2454092","0.0-11.0-338.0","","","","false","","","","","","","","","","3492","","240","","3","1","arrowright","1","arrowright","[0.85,0.15,0.325,0.675]","","",""
"sailing-trial","380","2457762","0.0-11.0-339.0","","","","false","","","","","","","","","","null","","1457.9999999995343","","2","0","null","null","arrowup","[0.85,0.15,0.325,0.675]","","",""
"sailing-trial","381","2463309","0.0-11.0-340.0","","","","false","","","","","","","","","","1973","","450","","0","1","arrowleft","0","arrowleft","[0.85,0.15,0.325,0.675]","","",""
"sailing-trial","382","2466446","0.0-11.0-341.0","","","","false","","","","","","","","","","null","","1752","","0","0","null","null","arrowup","[0.85,0.15,0.325,0.675]","","",""
"sailing-trial","383","2470727","0.0-11.0-342.0","","","","false","","","","","","","","","","1579.0000000004657","","184","","0","0","arrowleft","0","arrowleft","[0.85,0.15,0.325,0.675]","","",""
"sailing-trial","384","2473546","0.0-11.0-343.0","","","","false","","","","","","","","","","null","","1373","","0","0","null","null","arrowup","[0.85,0.15,0.325,0.675]","","",""
"sailing-trial","385","2478742","0.0-11.0-344.0","","","","false","","","","","","","","","","2274","","216","","3","1","arrowright","1","arrowright","[0.85,0.15,0.325,0.675]","","",""
"sailing-trial","386","2482427","0.0-11.0-345.0","","","","false","","","","","","","","","","null","","2184","","1","0","null","null","arrowup","[0.85,0.15,0.325,0.675]","","",""
"sailing-trial","387","2486474","0.0-11.0-346.0","","","","false","","","","","","","","","","1317","","304","","0","0","arrowleft","0","arrowleft","[0.325,0.675,0.85,0.15]","","",""
"sailing-trial","388","2489399","0.0-11.0-347.0","","","","false","","","","","","","","","","null","","1560.0000000004657","","0","0","null","null","arrowup","[0.325,0.675,0.85,0.15]","","",""
"sailing-trial","389","2496691","0.0-11.0-348.0","","","","false","","","","","","","","","","3668","","1085.0000000004657","","0","0","arrowleft","0","arrowleft","[0.325,0.675,0.85,0.15]","","",""
"sailing-trial","390","2500902","0.0-11.0-349.0","","","","false","","","","","","","","","","null","","2155","","2","0","null","null","arrowup","[0.325,0.675,0.85,0.15]","","",""
"sailing-trial","391","2507300","0.0-11.0-350.0","","","","false","","","","","","","","","","2467","","1390","","3","0","arrowright","1","arrowright","[0.325,0.675,0.85,0.15]","","",""
"sailing-trial","392","2511165","0.0-11.0-351.0","","","","false","","","","","","","","","","null","","2117","","1","0","null","null","arrowup","[0.325,0.675,0.85,0.15]","","",""
"sailing-trial","393","2519613","0.0-11.0-352.0","","","","false","","","","","","","","","","2071","","3779","","0","0","arrowleft","0","arrowleft","[0.325,0.675,0.85,0.15]","","",""
"sailing-trial","394","2523659","0.0-11.0-353.0","","","","false","","","","","","","","","","null","","1750.9999999995343","","0","1","null","null","arrowup","[0.325,0.675,0.85,0.15]","","",""
"sailing-trial","395","2531275","0.0-11.0-354.0","","","","false","","","","","","","","","","1837","","1617","","0","1","arrowleft","0","arrowleft","[0.325,0.675,0.85,0.15]","","",""
"sailing-trial","396","2536884","0.0-11.0-355.0","","","","false","","","","","","","","","","null","","2654","","3","0","null","null","arrowup","[0.325,0.675,0.85,0.15]","","",""
"sailing-trial","397","2542081","0.0-11.0-356.0","","","","false","","","","","","","","","","2402","","114","","0","0","arrowleft","0","arrowleft","[0.325,0.675,0.85,0.15]","","",""
"sailing-trial","398","2545591","0.0-11.0-357.0","","","","false","","","","","","","","","","null","","1698","","1","1","null","null","arrowup","[0.325,0.675,0.85,0.15]","","",""
"sailing-trial","399","2550475","0.0-11.0-358.0","","","","false","","","","","","","","","","1655","","129","","0","1","arrowleft","0","arrowleft","[0.325,0.675,0.85,0.15]","","",""
"sailing-trial","400","2557108","0.0-11.0-359.0","","","","false","","","","","","","","","","null","","4550","","3","1","null","null","arrowup","[0.325,0.675,0.85,0.15]","","",""
"sailing-trial","401","2562253","0.0-11.0-360.0","","","","false","","","","","","","","","","2231","","122","","3","0","arrowright","1","arrowright","[0.325,0.675,0.85,0.15]","","",""
"sailing-trial","402","2565870","0.0-11.0-361.0","","","","false","","","","","","","","","","null","","1917","","1","0","null","null","arrowup","[0.325,0.675,0.85,0.15]","","",""
"sailing-trial","403","2572901","0.0-11.0-362.0","","","","false","","","","","","","","","","3933","","407","","0","0","arrowleft","0","arrowleft","[0.325,0.675,0.85,0.15]","","",""
"sailing-trial","404","2577891","0.0-11.0-363.0","","","","false","","","","","","","","","","null","","2455.9999999995343","","0","1","null","null","arrowup","[0.325,0.675,0.85,0.15]","","",""
"sailing-trial","405","2582474","0.0-11.0-364.0","","","","false","","","","","","","","","","1314","","544","","0","0","arrowleft","0","arrowleft","[0.15,0.85,0.675,0.325]","","",""
"sailing-trial","406","2588074","0.0-11.0-365.0","","","","false","","","","","","","","","","null","","4194","","0","0","null","null","arrowup","[0.15,0.85,0.675,0.325]","","",""
"sailing-trial","407","2592819","0.0-11.0-366.0","","","","false","","","","","","","","","","1834","","19","","0","0","arrowleft","0","arrowleft","[0.15,0.85,0.675,0.325]","","",""
"sailing-trial","408","2600516","0.0-11.0-367.0","","","","false","","","","","","","","","","null","","5938","","0","0","null","null","arrowup","[0.15,0.85,0.675,0.325]","","",""
"sailing-trial","409","2606084","0.0-11.0-368.0","","","","false","","","","","","","","","","2660","","274.99999999953434","","0","0","arrowleft","0","arrowleft","[0.15,0.85,0.675,0.325]","","",""
"sailing-trial","410","2609743","0.0-11.0-369.0","","","","false","","","","","","","","","","null","","2158","","0","0","null","null","arrowup","[0.15,0.85,0.675,0.325]","","",""
"sailing-trial","411","2615559","0.0-11.0-370.0","","","","false","","","","","","","","","","3282","","208.00000000046566","","3","0","arrowright","1","arrowright","[0.15,0.85,0.675,0.325]","","",""
"sailing-trial","412","2621091","0.0-11.0-371.0","","","","false","","","","","","","","","","null","","3080","","1","1","null","null","arrowup","[0.15,0.85,0.675,0.325]","","",""
"sailing-trial","413","2626841","0.0-11.0-372.0","","","","false","","","","","","","","","","1391","","2.9999999995343387","","3","1","arrowright","1","arrowright","[0.15,0.85,0.675,0.325]","","",""
"sailing-trial","414","2630891","0.0-11.0-373.0","","","","false","","","","","","","","","","null","","2122","","1","1","null","null","arrowup","[0.15,0.85,0.675,0.325]","","",""
"sailing-trial","415","2635192","0.0-11.0-374.0","","","","false","","","","","","","","","","1650","","35.99999999953434","","3","0","arrowright","1","arrowright","[0.15,0.85,0.675,0.325]","","",""
"sailing-trial","416","2640308","0.0-11.0-375.0","","","","false","","","","","","","","","","null","","2963","","3","1","null","null","arrowup","[0.15,0.85,0.675,0.325]","","",""
"sailing-trial","417","2655310","0.0-11.0-376.0","","","","true","","","","","","","","","","null","","null","","null","null","null","null","null","[0.15,0.85,0.675,0.325]","","",""
"sailing-trial","418","2658891","0.0-11.0-377.0","","","","false","","","","","","","","","","null","","1852","","2","1","null","null","arrowup","[0.15,0.85,0.675,0.325]","","",""
"sailing-trial","419","2666191","0.0-11.0-378.0","","","","false","","","","","","","","","","2753.0000000004657","","1491","","3","1","arrowright","1","arrowright","[0.15,0.85,0.675,0.325]","","",""
"sailing-trial","420","2669957","0.0-11.0-379.0","","","","false","","","","","","","","","","null","","1730.9999999995343","","2","1","null","null","arrowup","[0.15,0.85,0.675,0.325]","","",""
"sailing-trial","421","2674474","0.0-11.0-380.0","","","","false","","","","","","","","","","1400","","74","","3","1","arrowright","1","arrowright","[0.325,0.675,0.85,0.15]","","",""
"sailing-trial","422","2679847","0.0-11.0-381.0","","","","false","","","","","","","","","","null","","3276","","3","0","null","null","arrowup","[0.325,0.675,0.85,0.15]","","",""
"sailing-trial","423","2689161","0.0-11.0-382.0","","","","false","","","","","","","","","","3125","","3406","","3","0","arrowright","1","arrowright","[0.325,0.675,0.85,0.15]","","",""
"sailing-trial","424","2692369","0.0-11.0-383.0","","","","false","","","","","","","","","","null","","1563","","1","0","null","null","arrowup","[0.325,0.675,0.85,0.15]","","",""
"sailing-trial","425","2700089","0.0-11.0-384.0","","","","false","","","","","","","","","","2488","","2250","","3","0","arrowright","1","arrowright","[0.325,0.675,0.85,0.15]","","",""
"sailing-trial","426","2707224","0.0-11.0-385.0","","","","false","","","","","","","","","","null","","5316","","3","1","null","null","arrowup","[0.325,0.675,0.85,0.15]","","",""
"sailing-trial","427","2713652","0.0-11.0-386.0","","","","false","","","","","","","","","","2166","","434","","3","0","arrowright","1","arrowright","[0.325,0.675,0.85,0.15]","","",""
"sailing-trial","428","2722190","0.0-11.0-387.0","","","","false","","","","","","","","","","null","","2939","","0","1","null","null","arrowup","[0.325,0.675,0.85,0.15]","","",""
"sailing-trial","429","2726924","0.0-11.0-388.0","","","","false","","","","","","","","","","1701","","157","","0","0","arrowleft","0","arrowleft","[0.325,0.675,0.85,0.15]","","",""
"sailing-trial","430","2732107","0.0-11.0-389.0","","","","false","","","","","","","","","","null","","3290","","1","1","null","null","arrowup","[0.325,0.675,0.85,0.15]","","",""
"sailing-trial","431","2737224","0.0-11.0-390.0","","","","false","","","","","","","","","","1689.9999999995343","","300","","0","1","arrowleft","0","arrowleft","[0.325,0.675,0.85,0.15]","","",""
"sailing-trial","432","2740640","0.0-11.0-391.0","","","","false","","","","","","","","","","null","","1740","","0","1","null","null","arrowup","[0.325,0.675,0.85,0.15]","","",""
"sailing-trial","433","2744694","0.0-11.0-392.0","","","","false","","","","","","","","","","1359.0000000004657","","41.00000000046566","","3","0","arrowright","1","arrowright","[0.325,0.675,0.85,0.15]","","",""
"sailing-trial","434","2747923","0.0-11.0-393.0","","","","false","","","","","","","","","","null","","1574","","1","1","null","null","arrowup","[0.325,0.675,0.85,0.15]","","",""
"sailing-trial","435","2752324","0.0-11.0-394.0","","","","false","","","","","","","","","","1814.9999999995343","","94","","3","0","arrowright","1","arrowright","[0.325,0.675,0.85,0.15]","","",""
"sailing-trial","436","2756023","0.0-11.0-395.0","","","","false","","","","","","","","","","null","","1896.0000000004657","","1","1","null","null","arrowup","[0.325,0.675,0.85,0.15]","","",""
"sailing-trial","437","2759869","0.0-11.0-396.0","","","","false","","","","","","","","","","1085","","305","","3","0","arrowright","1","arrowright","[0.325,0.675,0.85,0.15]","","",""
"sailing-trial","438","2764956","0.0-11.0-397.0","","","","false","","","","","","","","","","null","","3936","","3","0","null","null","arrowup","[0.325,0.675,0.85,0.15]","","",""
"sailing-trial","439","2770560","0.0-11.0-398.0","","","","false","","","","","","","","","","2997","","228","","3","0","arrowright","1","arrowright","[0.325,0.675,0.85,0.15]","","",""
"sailing-trial","440","2774323","0.0-11.0-399.0","","","","false","","","","","","","","","","null","","2002","","2","1","null","null","arrowup","[0.325,0.675,0.85,0.15]","","",""
"instructions","441","2779373","0.0-12.0","","","","","","","","","","5049","","","","","","","","","","","","","","","","[{""page_index"":0,""viewing_time"":5049}]"
"survey-debrief","442","2795629","0.0-13.0","","","","","","","","","","16255","","","","","","","","","","","","","","{""difficulty"":""4"",""fun"":""2"",""clarity"":""5"",""strategy"":"""",""feedback"":""""}","",""
