"trial_type","trial_index","time_elapsed","internal_node_id","value","metadata","browser_interaction","low_quality","success","timeout","failed_images","failed_audio","failed_video","rt","stimulus","response","button_pressed","island_rt","island_response","boat_rt","boat_response","boat","reward","island_key","island","boat_key","reward_probabilities","responses","num_errors","view_history"
"pavlovia","0","19","0.0-0.0","","","","","","","","","","","","","","","","","","","","","","","","","",""
"call-function","1","20","0.0-1.0","","{""task_version"":""sailing_part1_v1"",""task_condition"":""good"",""boats"":[""B"",""D"",""C"",""A""],""boats_demo"":[""F"",""H"",""E"",""G""],""islands"":[""B"",""A""],""subject_id"":""14529"",""age"":""10"",""gender"":""Male""}","[{""event"":""focus"",""trial"":0,""time"":3},{""event"":""blur"",""trial"":2,""time"":4694}]","false","","","","","","","","","","","","","","","","","","","","","",""
"preload","2","5488","0.0-2.0","","","[{""event"":""focus"",""trial"":0,""time"":3},{""event"":""blur"",""trial"":2,""time"":4694},{""event"":""focus"",""trial"":3,""time"":6762},{""event"":""fullscreenenter"",""trial"":3,""time"":8768}]","false","true","false","[]","[]","[]","","","","","","","","","","","","","","","","",""
"fullscreen","3","9439","0.0-3.0","","","","","true","","","","","","","","","","","","","","","","","","","","",""
"audio-keyboard-response","4","12076","0.0-4.0-0.0","","","","","","","","","","2519.3650793650795","audio/beep_loop.wav"," ","","","","","","","","","","","","","",""
"audio-test","5","14509","0.0-4.0-1.0","","","","","","","","","","null","audio/turtle.mp3","","3","","","","","","","","","","","","",""
"audio-test","6","16616","0.0-4.0-2.0","","","","","","","","","","null","audio/shark.mp3","","2","","","","","","","","","","","","",""
"sailing-instructions","7","61347","0.0-5.0-0.0-0.0","","","","","","","","","","","","","","null","null","null","null","null","null","","","","","","",""
"sailing-trial","8","67374","0.0-5.0-0.0-1.0-0.0","","","","","","false","","","","","","","","4896","","null","","null","null","arrowleft","0","null","null","","",""
"sailing-trial","9","69933","0.0-5.0-0.0-1.0-1.0","","","","","","false","","","","","","","","1416","","null","","null","null","arrowright","1","null","null","","",""
"sailing-trial","10","72897","0.0-5.0-0.0-1.0-2.0","","","","","","false","","","","","","","","1828","","null","","null","null","arrowleft","0","null","null","","",""
"sailing-instructions","11","113490","0.0-5.0-0.0-2.0","","","","","","","","","","","","","","null","null","null","null","0","null","","","","","","",""
"sailing-trial","12","119662","0.0-5.0-0.0-3.0-0.0","","","","","","false","","","","","","","","null","","2753","","2","1","null","null","arrowleft","[1,1,1,1]","","",""
"sailing-trial","13","123013","0.0-5.0-0.0-3.0-1.0","","","","","","false","","","","","","","","null","","1011","","3","1","null","null","arrowright","[1,1,1,1]","","",""
"sailing-trial","14","125180","0.0-5.0-0.0-3.0-2.0","","","","","","false","","","","","","","","null","","308","","2","0","null","null","arrowleft","[0,0,0,0]","","",""
"sailing-instructions","15","132426","0.0-5.0-0.0-4.0","","","","","","","","","","","","","","null","null","null","null","null","null","","","","","","",""
"sailing-comprehension","16","156689","0.0-5.0-0.0-5.0","","","","","","","","","","21110","","","","","","","","","","","","","","[""true"",""true"",""false"",""true""]","0",""
"sailing-instructions","17","217717","0.0-6.0-0.0-0.0","","","","","","","","","","","","","","null","null","null","null","null","null","","","","","","",""
"sailing-comprehension","18","240450","0.0-6.0-0.0-1.0","","","","","","","","","","21088","","","","","","","","","","","","","","[""true"",""false"",""true""]","0",""
"sailing-instructions","19","254406","0.0-7.0-0.0-0.0","","","","","","","","","","","","","","null","null","null","null","null","null","","","","","","",""
"sailing-trial","20","260626","0.0-7.0-0.0-1.0-0.0","","","","","","false","","","","","","","","null","","3455","","0","0","null","null","arrowup","[0.2,0.8,0.2,0.8]","","",""
"sailing-trial","21","263893","0.0-7.0-0.0-1.0-1.0","","","","","","false","","","","","","","","null","","1130","","1","1","null","null","arrowup","[0.2,0.8,0.2,0.8]","","",""
"sailing-trial","22","267018","0.0-7.0-0.0-1.0-2.0","","","","","","false","","","","","","","","null","","1568","","2","0","null","null","arrowup","[0.2,0.8,0.2,0.8]","","",""
"sailing-trial","23","269243","0.0-7.0-0.0-1.0-3.0","","","","","","false","","","","","","","","null","","623","","3","1","null","null","arrowup","[0.2,0.8,0.2,0.8]","","",""
"sailing-comprehension","24","276644","0.0-7.0-0.0-2.0","","","","","","","","","","6145","","","","","","","","","","","","","","[""false""]","0",""
"sailing-instructions","25","286999","0.0-8.0-0.0-0.0","","","","","","","","","","","","","","null","null","null","null","null","null","","","","","","",""
"sailing-comprehension","26","292347","0.0-8.0-0.0-1.0","","","","","","","","","","4455","","","","","","","","","","","","","","[""true""]","0",""
"sailing-instructions","27","315215","0.0-9.0-0.0-0.0","","","","","","","","","","","","","","null","null","null","null","null","null","","","","","","",""
"sailing-trial","28","321031","0.0-9.0-0.0-1.0-0.0","","","","","","false","","","","","","","","1608","","1068","","3","1","arrowright","1","arrowright","[0.2,0.8,0.2,0.8]","","",""
"sailing-trial","29","324748","0.0-9.0-0.0-1.0-1.0","","","","","","false","","","","","","","","56","","864","","0","0","arrowleft","0","arrowleft","[0.2,0.8,0.2,0.8]","","",""
"sailing-trial","30","328828","0.0-9.0-0.0-1.0-2.0","","","","","","false","","","","","","","","null","","1436","","0","0","null","null","arrowup","[0.2,0.8,0.2,0.8]","","",""
"sailing-trial","31","334573","0.0-9.0-0.0-1.0-3.0","","","","","","false","","","","","","","","1580","","891","","2","0","arrowright","1","arrowleft","[0.2,0.8,0.2,0.8]","","",""
"sailing-trial","32","339069","0.0-9.0-0.0-1.0-4.0","","","","","","false","","","","","","","","null","","2379","","3","1","null","null","arrowup","[0.2,0.8,0.2,0.8]","","",""
"sailing-trial","33","343937","0.0-9.0-0.0-1.0-5.0","","","","","","false","","","","","","","","1210","","214","","1","1","arrowleft","0","arrowright","[0.2,0.8,0.2,0.8]","","",""
"sailing-instructions","34","367352","0.0-10.0","","","","","","","","","","","","","","null","null","null","null","null","null","","","","","","",""
"sailing-trial","35","373021","0.0-11.0-0.0","","","","","","false","","","","","","","","1348","","356","","1","1","arrowleft","0","arrowright","[0.675,0.325,0.15,0.85]","","",""
"sailing-trial","36","376075","0.0-11.0-1.0","","","","","","false","","","","","","","","null","","1232","","1","0","null","null","arrowup","[0.675,0.325,0.15,0.85]","","",""
"sailing-trial","37","380391","0.0-11.0-2.0","","","","","","false","","","","","","","","976","","237","","2","1","arrowright","1","arrowleft","[0.675,0.325,0.15,0.85]","","",""
"sailing-trial","38","383582","0.0-11.0-3.0","","","","","","false","","","","","","","","null","","1250","","2","0","null","null","arrowup","[0.675,0.325,0.15,0.85]","","",""
"sailing-trial","39","387116","0.0-11.0-4.0","","","","","","false","","","","","","","","814","","264","","1","0","arrowleft","0","arrowright","[0.675,0.325,0.15,0.85]","","",""
"sailing-trial","40","390193","0.0-11.0-5.0","","","","","","false","","","","","","","","null","","988","","0","1","null","null","arrowup","[0.675,0.325,0.15,0.85]","","",""
"sailing-trial","41","394241","0.0-11.0-6.0","","","","","","false","","","","","","","","609","","374","","3","1","arrowright","1","arrowright","[0.675,0.325,0.15,0.85]","","",""
"sailing-trial","42","397123","0.0-11.0-7.0","","","","","","false","","","","","","","","null","","1303","","1","0","null","null","arrowup","[0.675,0.325,0.15,0.85]","","",""
"sailing-trial","43","401404","0.0-11.0-8.0","","","","","","false","","","","","","","","596","","1177","","1","0","arrowleft","0","arrowright","[0.675,0.325,0.15,0.85]","","",""
"sailing-trial","44","404679","0.0-11.0-9.0","","","","","","false","","","","","","","","null","","1087","","0","1","null","null","arrowup","[0.675,0.325,0.15,0.85]","","",""
"sailing-trial","45","408812","0.0-11.0-10.0","","","","","","false","","","","","","","","558","","373","","0","1","arrowleft","0","arrowleft","[0.675,0.325,0.15,0.85]","","",""
"sailing-trial","46","411380","0.0-11.0-11.0","","","","","","false","","","","","","","","null","","991","","2","0","null","null","arrowup","[0.675,0.325,0.15,0.85]","","",""
"sailing-trial","47","416911","0.0-11.0-12.0","","","","","","false","","","","","","","","528","","808","","3","1","arrowright","1","arrowright","[0.675,0.325,0.15,0.85]","","",""
"sailing-trial","48","419725","0.0-11.0-13.0","","","","","","false","","","","","","","","null","","1203","","0","0","null","null","arrowup","[0.675,0.325,0.15,0.85]","","",""
"sailing-trial","49","424347","0.0-11.0-14.0","","","","","","false","","","","","","","","679","","998","","1","1","arrowleft","0","arrowright","[0.675,0.325,0.15,0.85]","","",""
"sailing-trial","50","426809","0.0-11.0-15.0","","","","","","false","","","","","","","","null","","1094","","1","0","null","null","arrowup","[0.675,0.325,0.15,0.85]","","",""
"sailing-trial","51","431943","0.0-11.0-16.0","","","","","","false","","","","","","","","574","","463","","3","1","arrowright","1","arrowright","[0.675,0.325,0.15,0.85]","","",""
"sailing-trial","52","434059","0.0-11.0-17.0","","","","","","false","","","","","","","","null","","507","","0","1","null","null","arrowup","[0.675,0.325,0.15,0.85]","","",""
"sailing-trial","53","438361","0.0-11.0-18.0","","","","","","false","","","","","","","","773","","476","","1","0","arrowleft","0","arrowright","[0.675,0.325,0.15,0.85]","","",""
"sailing-trial","54","441997","0.0-11.0-19.0","","","","","","false","","","","","","","","null","","1266","","0","1","null","null","arrowup","[0.675,0.325,0.15,0.85]","","",""
"sailing-trial","55","445444","0.0-11.0-20.0","","","","","","false","","","","","","","","577","","245","","0","1","arrowleft","0","arrowleft","[0.675,0.325,0.15,0.85]","","",""
"sailing-trial","56","447839","0.0-11.0-21.0","","","","","","false","","","","","","","","null","","995","","2","0","null","null","arrowup","[0.675,0.325,0.15,0.85]","","",""
"sailing-trial","57","451978","0.0-11.0-22.0","","","","","","false","","","","","","","","707","","45","","3","1","arrowright","1","arrowright","[0.85,0.15,0.325,0.675]","","",""
"sailing-trial","58","454001","0.0-11.0-23.0","","","","","","false","","","","","","","","null","","631","","3","0","null","null","arrowup","[0.85,0.15,0.325,0.675]","","",""
"sailing-trial","59","457879","0.0-11.0-24.0","","","","","","false","","","","","","","","1228","","129","","2","0","arrowright","1","arrowleft","[0.85,0.15,0.325,0.675]","","",""
"sailing-trial","60","459041","0.0-11.0-25.0","","","","","","false","","","","","","","","null","","117","","1","0","null","null","arrowup","[0.85,0.15,0.325,0.675]","","",""
"sailing-trial","61","462062","0.0-11.0-26.0","","","","","","false","","","","","","","","459","","398","","1","0","arrowleft","0","arrowright","[0.85,0.15,0.325,0.675]","","",""
"sailing-trial","62","465079","0.0-11.0-27.0","","","","","","false","","","","","","","","null","","1014","","0","1","null","null","arrowup","[0.85,0.15,0.325,0.675]","","",""
"sailing-trial","63","468547","0.0-11.0-28.0","","","","","","false","","","","","","","","202","","277","","0","1","arrowleft","0","arrowleft","[0.85,0.15,0.325,0.675]","","",""
"sailing-trial","64","471020","0.0-11.0-29.0","","","","","","false","","","","","","","","null","","1040","","1","0","null","null","arrowup","[0.85,0.15,0.325,0.675]","","",""
"sailing-trial","65","474412","0.0-11.0-30.0","","","","","","false","","","","","","","","530","","179","","2","0","arrowright","1","arrowleft","[0.85,0.15,0.325,0.675]","","",""
"sailing-trial","66","477304","0.0-11.0-31.0","","","","","","false","","","","","","","","null","","1136","","2","0","null","null","arrowup","[0.85,0.15,0.325,0.675]","","",""
"sailing-trial","67","481114","0.0-11.0-32.0","","","","","","false","","","","","","","","215","","263","","3","1","arrowright","1","arrowright","[0.85,0.15,0.325,0.675]","","",""
"sailing-trial","68","483849","0.0-11.0-33.0","","","","","","false","","","","","","","","null","","1513","","2","0","null","null","arrowup","[0.85,0.15,0.325,0.675]","","",""
"sailing-trial","69","487818","0.0-11.0-34.0","","","","","","false","","","","","","","","513","","227","","1","0","arrowleft","0","arrowright","[0.85,0.15,0.325,0.675]","","",""
"sailing-trial","70","490832","0.0-11.0-35.0","","","","","","false","","","","","","","","null","","930","","0","1","null","null","arrowup","[0.85,0.15,0.325,0.675]","","",""
"sailing-trial","71","496353","0.0-11.0-36.0","","","","","","false","","","","","","","","1062","","132","","0","1","arrowleft","0","arrowleft","[0.85,0.15,0.325,0.675]","","",""
"sailing-trial","72","499782","0.0-11.0-37.0","","","","","","false","","","","","","","","null","","1125","","3","1","null","null","arrowup","[0.85,0.15,0.325,0.675]","","",""
"sailing-trial","73","503920","0.0-11.0-38.0","","","","","","false","","","","","","","","790","","144","","2","1","arrowright","1","arrowleft","[0.85,0.15,0.325,0.675]","","",""
"sailing-trial","74","507101","0.0-11.0-39.0","","","","","","false","","","","","","","","null","","950","","1","1","null","null","arrowup","[0.85,0.15,0.325,0.675]","","",""
"sailing-trial","75","510175","0.0-11.0-40.0","","","","","","false","","","","","","","","382","","244","","1","0","arrowleft","0","arrowright","[0.675,0.325,0.15,0.85]","","",""
"sailing-trial","76","512901","0.0-11.0-41.0","","","","","","false","","","","","","","","null","","984","","3","1","null","null","arrowup","[0.675,0.325,0.15,0.85]","","",""
"sailing-trial","77","518704","0.0-11.0-42.0","","","","","","false","","","","","","","","767","","211","","0","1","arrowleft","0","arrowleft","[0.675,0.325,0.15,0.85]","","",""
"sailing-trial","78","520833","0.0-11.0-43.0","","","","","","false","","","","","","","","null","","701","","2","0","null","null","arrowup","[0.675,0.325,0.15,0.85]","","",""
"sailing-trial","79","524772","0.0-11.0-44.0","","","","","","false","","","","","","","","550","","198","","3","1","arrowright","1","arrowright","[0.675,0.325,0.15,0.85]","","",""
"sailing-trial","80","527136","0.0-11.0-45.0","","","","","","false","","","","","","","","null","","938","","2","0","null","null","arrowup","[0.675,0.325,0.15,0.85]","","",""
"sailing-trial","81","530488","0.0-11.0-46.0","","","","","","false","","","","","","","","596","","344","","1","0","arrowleft","0","arrowright","[0.675,0.325,0.15,0.85]","","",""
"sailing-trial","82","533009","0.0-11.0-47.0","","","","","","false","","","","","","","","null","","405","","3","1","null","null","arrowup","[0.675,0.325,0.15,0.85]","","",""
"sailing-trial","83","536325","0.0-11.0-48.0","","","","","","false","","","","","","","","590","","46","","3","0","arrowright","1","arrowright","[0.675,0.325,0.15,0.85]","","",""
"sailing-trial","84","538865","0.0-11.0-49.0","","","","","","false","","","","","","","","null","","992","","2","0","null","null","arrowup","[0.675,0.325,0.15,0.85]","","",""
"sailing-trial","85","542804","0.0-11.0-50.0","","","","","","false","","","","","","","","533","","342","","0","1","arrowleft","0","arrowleft","[0.675,0.325,0.15,0.85]","","",""
"sailing-trial","86","545854","0.0-11.0-51.0","","","","","","false","","","","","","","","null","","1058","","3","1","null","null","arrowup","[0.675,0.325,0.15,0.85]","","",""
"sailing-trial","87","549657","0.0-11.0-52.0","","","","","","false","","","","","","","","851","","303","","1","1","arrowleft","0","arrowright","[0.675,0.325,0.15,0.85]","","",""
"sailing-trial","88","552161","0.0-11.0-53.0","","","","","","false","","","","","","","","null","","1012","","0","0","null","null","arrowup","[0.675,0.325,0.15,0.85]","","",""
"sailing-trial","89","555369","0.0-11.0-54.0","","","","","","false","","","","","","","","250","","134","","2","0","arrowright","1","arrowleft","[0.675,0.325,0.15,0.85]","","",""
"sailing-trial","90","558873","0.0-11.0-55.0","","","","","","false","","","","","","","","null","","1476","","0","0","null","null","arrowup","[0.675,0.325,0.15,0.85]","","",""
"sailing-trial","91","562163","0.0-11.0-56.0","","","","","","false","","","","","","","","510","","166","","3","0","arrowright","1","arrowright","[0.325,0.675,0.85,0.15]","","",""
"sailing-trial","92","566073","0.0-11.0-57.0","","","","","","false","","","","","","","","null","","1132","","1","1","null","null","arrowup","[0.325,0.675,0.85,0.15]","","",""
"sailing-trial","93","570207","0.0-11.0-58.0","","","","","","false","","","","","","","","728","","220","","1","1","arrowleft","0","arrowright","[0.325,0.675,0.85,0.15]","","",""
"sailing-trial","94","573263","0.0-11.0-59.0","","","","","","false","","","","","","","","null","","1039","","3","0","null","null","arrowup","[0.325,0.675,0.85,0.15]","","",""
"sailing-trial","95","578579","0.0-11.0-60.0","","","","","","false","","","","","","","","1211","","40","","1","1","arrowleft","0","arrowright","[0.325,0.675,0.85,0.15]","","",""
"sailing-trial","96","581263","0.0-11.0-61.0","","","","","","false","","","","","","","","null","","765","","1","0","null","null","arrowup","[0.325,0.675,0.85,0.15]","","",""
"sailing-trial","97","584924","0.0-11.0-62.0","","","","","","false","","","","","","","","712","","244","","0","0","arrowleft","0","arrowleft","[0.325,0.675,0.85,0.15]","","",""
"sailing-trial","98","586897","0.0-11.0-63.0","","","","","","false","","","","","","","","null","","71","","3","0","null","null","arrowup","[0.325,0.675,0.85,0.15]","","",""
"sailing-trial","99","590776","0.0-11.0-64.0","","","","","","false","","","","","","","","584","","11","","2","1","arrowright","1","arrowleft","[0.325,0.675,0.85,0.15]","","",""
"sailing-trial","100","593334","0.0-11.0-65.0","","","","","","false","","","","","","","","null","","1056","","0","0","null","null","arrowup","[0.325,0.675,0.85,0.15]","","",""
"sailing-trial","101","596198","0.0-11.0-66.0","","","","","","false","","","","","","","","604","","158","","3","0","arrowright","1","arrowright","[0.325,0.675,0.85,0.15]","","",""
"sailing-trial","102","599210","0.0-11.0-67.0","","","","","","false","","","","","","","","null","","923","","0","1","null","null","arrowup","[0.325,0.675,0.85,0.15]","","",""
"sailing-trial","103","603096","0.0-11.0-68.0","","","","","","false","","","","","","","","600","","18","","1","1","arrowleft","0","arrowright","[0.325,0.675,0.85,0.15]","","",""
"sailing-trial","104","606489","0.0-11.0-69.0","","","","","","false","","","","","","","","null","","862","","2","1","null","null","arrowup","[0.325,0.675,0.85,0.15]","","",""
"sailing-trial","105","610709","0.0-11.0-70.0","","","","","","false","","","","","","","","928","","575","","0","0","arrowleft","0","arrowleft","[0.325,0.675,0.85,0.15]","","",""
"sailing-trial","106","613634","0.0-11.0-71.0","","","","","","false","","","","","","","","null","","1227","","0","0","null","null","arrowup","[0.325,0.675,0.85,0.15]","","",""
"sailing-trial","107","617060","0.0-11.0-72.0","","","","","","false","","","","","","","","512","","419","","3","0","arrowright","1","arrowright","[0.15,0.85,0.675,0.325]","","",""
"sailing-trial","108","620295","0.0-11.0-73.0","","","","","","false","","","","","","","","null","","1125","","1","1","null","null","arrowup","[0.15,0.85,0.675,0.325]","","",""
"sailing-trial","109","623850","0.0-11.0-74.0","","","","","","false","","","","","","","","777","","7","","2","0","arrowright","1","arrowleft","[0.15,0.85,0.675,0.325]","","",""
"sailing-trial","110","626946","0.0-11.0-75.0","","","","","","false","","","","","","","","null","","1000","","1","1","null","null","arrowup","[0.15,0.85,0.675,0.325]","","",""
"sailing-trial","111","630966","0.0-11.0-76.0","","","","","","false","","","","","","","","749","","11","","0","1","arrowleft","0","arrowleft","[0.15,0.85,0.675,0.325]","","",""
"sailing-trial","112","634179","0.0-11.0-77.0","","","","","","false","","","","","","","","null","","987","","2","1","null","null","arrowup","[0.15,0.85,0.675,0.325]","","",""
"sailing-trial","113","637450","0.0-11.0-78.0","","","","","","false","","","","","","","","695","","60","","1","0","arrowleft","0","arrowright","[0.15,0.85,0.675,0.325]","","",""
"sailing-trial","114","639613","0.0-11.0-79.0","","","","","","false","","","","","","","","null","","581","","2","1","null","null","arrowup","[0.15,0.85,0.675,0.325]","","",""
"sailing-trial","115","643097","0.0-11.0-80.0","","","","","","false","","","","","","","","838","","67","","0","0","arrowleft","0","arrowleft","[0.15,0.85,0.675,0.325]","","",""
"sailing-trial","116","646013","0.0-11.0-81.0","","","","","","false","","","","","","","","null","","618","","0","1","null","null","arrowup","[0.15,0.85,0.675,0.325]","","",""
"sailing-trial","117","650448","0.0-11.0-82.0","","","","","","false","","","","","","","","754","","591","","2","1","arrowright","1","arrowleft","[0.15,0.85,0.675,0.325]","","",""
"sailing-trial","118","653635","0.0-11.0-83.0","","","","","","false","","","","","","","","null","","1071","","1","1","null","null","arrowup","[0.15,0.85,0.675,0.325]","","",""
"sailing-trial","119","658027","0.0-11.0-84.0","","","","","","false","","","","","","","","639","","939","","3","0","arrowright","1","arrowright","[0.15,0.85,0.675,0.325]","","",""
"sailing-trial","120","661499","0.0-11.0-85.0","","","","","","false","","","","","","","","null","","1023","","1","1","null","null","arrowup","[0.15,0.85,0.675,0.325]","","",""
"sailing-trial","121","665615","0.0-11.0-86.0","","","","","","false","","","","","","","","641","","1009","","0","0","arrowleft","0","arrowleft","[0.15,0.85,0.675,0.325]","","",""
"sailing-trial","122","668317","0.0-11.0-87.0","","","","","","false","","","","","","","","null","","701","","3","1","null","null","arrowup","[0.15,0.85,0.675,0.325]","","",""
"sailing-trial","123","672753","0.0-11.0-88.0","","","","","","false","","","","","","","","1044","","230","","1","1","arrowleft","0","arrowright","[0.15,0.85,0.675,0.325]","","",""
"sailing-trial","124","675013","0.0-11.0-89.0","","","","","","false","","","","","","","","null","","809","","2","0","null","null","arrowup","[0.15,0.85,0.675,0.325]","","",""
"sailing-trial","125","678268","0.0-11.0-90.0","","","","","","false","","","","","","","","540","","192","","3","0","arrowright","1","arrowright","[0.15,0.85,0.675,0.325]","","",""
"sailing-trial","126","681337","0.0-11.0-91.0","","","","","","false","","","","","","","","null","","924","","2","1","null","null","arrowup","[0.15,0.85,0.675,0.325]","","",""
"sailing-trial","127","685160","0.0-11.0-92.0","","","","","","false","","","","","","","","768","","487","","1","0","arrowleft","0","arrowright","[0.675,0.325,0.15,0.85]","","",""
"sailing-trial","128","687635","0.0-11.0-93.0","","","","","","false","","","","","","","","null","","946","","1","0","null","null","arrowup","[0.675,0.325,0.15,0.85]","","",""
"sailing-trial","129","691353","0.0-11.0-94.0","","","","","","false","","","","","","","","702","","39","","0","1","arrowleft","0","arrowleft","[0.675,0.325,0.15,0.85]","","",""
"sailing-trial","130","693405","0.0-11.0-95.0","","","","","","false","","","","","","","","null","","564","","2","0","null","null","arrowup","[0.675,0.325,0.15,0.85]","","",""
"sailing-trial","131","696991","0.0-11.0-96.0","","","","","","false","","","","","","","","606","","436","","0","0","arrowleft","0","arrowleft","[0.675,0.325,0.15,0.85]","","",""
"sailing-trial","132","700074","0.0-11.0-97.0","","","","","","false","","","","","","","","null","","979","","3","1","null","null","arrowup","[0.675,0.325,0.15,0.85]","","",""
"sailing-trial","133","703869","0.0-11.0-98.0","","","","","","false","","","","","","","","597","","159","","3","1","arrowright","1","arrowright","[0.675,0.325,0.15,0.85]","","",""
"sailing-trial","134","707854","0.0-11.0-99.0","","","","","","false","","","","","","","","null","","879","","3","1","null","null","arrowup","[0.675,0.325,0.15,0.85]","","",""
"sailing-trial","135","711426","0.0-11.0-100.0","","","","","","false","","","","","","","","699","","333","","2","0","arrowright","1","arrowleft","[0.675,0.325,0.15,0.85]","","",""
"sailing-trial","136","714454","0.0-11.0-101.0","","","","","","false","","","","","","","","null","","14","","0","1","null","null","arrowup","[0.675,0.325,0.15,0.85]","","",""
"sailing-trial","137","718960","0.0-11.0-102.0","","","","","","false","","","","","","","","678","","259","","3","1","arrowright","1","arrowright","[0.675,0.325,0.15,0.85]","","",""
"sailing-trial","138","721791","0.0-11.0-103.0","","","","","","false","","","","","","","","null","","1468","","2","0","null","null","arrowup","[0.675,0.325,0.15,0.85]","","",""
"sailing-trial","139","724334","0.0-11.0-104.0","","","","","","false","","","","","","","","166","","148","","1","0","arrowleft","0","arrowright","[0.675,0.325,0.15,0.85]","","",""
"sailing-trial","140","726750","0.0-11.0-105.0","","","","","","false","","","","","","","","null","","861","","2","0","null","null","arrowup","[0.675,0.325,0.15,0.85]","","",""
"sailing-trial","141","729718","0.0-11.0-106.0","","","","","","false","","","","","","","","452","","11","","0","0","arrowleft","0","arrowleft","[0.675,0.325,0.15,0.85]","","",""
"sailing-trial","142","732782","0.0-11.0-107.0","","","","","","false","","","","","","","","null","","955","","1","0","null","null","arrowup","[0.675,0.325,0.15,0.85]","","",""
"sailing-trial","143","736592","0.0-11.0-108.0","","","","","","false","","","","","","","","471","","277","","3","1","arrowright","1","arrowright","[0.85,0.15,0.325,0.675]","","",""
"sailing-trial","144","740663","0.0-11.0-109.0","","","","","","false","","","","","","","","null","","994","","0","1","null","null","arrowup","[0.85,0.15,0.325,0.675]","","",""
"sailing-trial","145","744809","0.0-11.0-110.0","","","","","","false","","","","","","","","688","","425","","3","1","arrowright","1","arrowright","[0.85,0.15,0.325,0.675]","","",""
"sailing-trial","146","748229","0.0-11.0-111.0","","","","","","false","","","","","","","","null","","1164","","3","0","null","null","arrowup","[0.85,0.15,0.325,0.675]","","",""
"sailing-trial","147","751575","0.0-11.0-112.0","","","","","","false","","","","","","","","794","","66","","1","0","arrowleft","0","arrowright","[0.85,0.15,0.325,0.675]","","",""
"sailing-trial","148","754392","0.0-11.0-113.0","","","","","","false","","","","","","","","null","","806","","0","1","null","null","arrowup","[0.85,0.15,0.325,0.675]","","",""
"sailing-trial","149","758945","0.0-11.0-114.0","","","","","","false","","","","","","","","867","","69","","0","1","arrowleft","0","arrowleft","[0.85,0.15,0.325,0.675]","","",""
"sailing-trial","150","762509","0.0-11.0-115.0","","","","","","false","","","","","","","","null","","929","","3","1","null","null","arrowup","[0.85,0.15,0.325,0.675]","","",""
"sailing-trial","151","766343","0.0-11.0-116.0","","","","","","false","","","","","","","","697","","102","","2","1","arrowright","1","arrowleft","[0.85,0.15,0.325,0.675]","","",""
"sailing-trial","152","770142","0.0-11.0-117.0","","","","","","false","","","","","","","","null","","1262","","2","1","null","null","arrowup","[0.85,0.15,0.325,0.675]","","",""
"sailing-trial","153","773747","0.0-11.0-118.0","","","","","","false","","","","","","","","487","","182","","0","1","arrowleft","0","arrowleft","[0.85,0.15,0.325,0.675]","","",""
"sailing-trial","154","776582","0.0-11.0-119.0","","","","","","false","","","","","","","","null","","884","","3","1","null","null","arrowup","[0.85,0.15,0.325,0.675]","","",""
"sailing-trial","155","779703","0.0-11.0-120.0","","","","","","false","","","","","","","","585","","90","","2","0","arrowright","1","arrowleft","[0.85,0.15,0.325,0.675]","","",""
"sailing-trial","156","781984","0.0-11.0-121.0","","","","","","false","","","","","","","","null","","831","","2","0","null","null","arrowup","[0.85,0.15,0.325,0.675]","","",""
"sailing-trial","157","785862","0.0-11.0-122.0","","","","","","false","","","","","","","","494","","378","","3","1","arrowright","1","arrowright","[0.85,0.15,0.325,0.675]","","",""
"sailing-trial","158","789016","0.0-11.0-123.0","","","","","","false","","","","","","","","null","","847","","0","1","null","null","arrowup","[0.85,0.15,0.325,0.675]","","",""
"sailing-trial","159","793300","0.0-11.0-124.0","","","","","","false","","","","","","","","679","","402","","0","1","arrowleft","0","arrowleft","[0.85,0.15,0.325,0.675]","","",""
"sailing-trial","160","796112","0.0-11.0-125.0","","","","","","false","","","","","","","","null","","923","","3","0","null","null","arrowup","[0.85,0.15,0.325,0.675]","","",""
"sailing-trial","161","799491","0.0-11.0-126.0","","","","","","false","","","","","","","","607","","167","","1","0","arrowleft","0","arrowright","[0.675,0.325,0.15,0.85]","","",""
"sailing-trial","162","802463","0.0-11.0-127.0","","","","","","false","","","","","","","","null","","954","","2","1","null","null","arrowup","[0.675,0.325,0.15,0.85]","","",""
"sailing-trial","163","806163","0.0-11.0-128.0","","","","","","false","","","","","","","","504","","12","","2","1","arrowright","1","arrowleft","[0.675,0.325,0.15,0.85]","","",""
"sailing-trial","164","809263","0.0-11.0-129.0","","","","","","false","","","","","","","","null","","1058","","3","1","null","null","arrowup","[0.675,0.325,0.15,0.85]","","",""
"sailing-trial","165","812996","0.0-11.0-130.0","","","","","","false","","","","","","","","591","","36","","0","1","arrowleft","0","arrowleft","[0.675,0.325,0.15,0.85]","","",""
"sailing-trial","166","816196","0.0-11.0-131.0","","","","","","false","","","","","","","","null","","1084","","3","1","null","null","arrowup","[0.675,0.325,0.15,0.85]","","",""
"sailing-trial","167","819703","0.0-11.0-132.0","","","","","","false","","","","","","","","909","","71","","2","0","arrowright","1","arrowleft","[0.675,0.325,0.15,0.85]","","",""
"sailing-trial","168","822534","0.0-11.0-133.0","","","","","","false","","","","","","","","null","","72","","2","0","null","null","arrowup","[0.675,0.325,0.15,0.85]","","",""
"sailing-trial","169","825881","0.0-11.0-134.0","","","","","","false","","","","","","","","198","","156","","3","1","arrowright","1","arrowright","[0.675,0.325,0.15,0.85]","","",""
"sailing-trial","170","828583","0.0-11.0-135.0","","","","","","false","","","","","","","","null","","1118","","1","0","null","null","arrowup","[0.675,0.325,0.15,0.85]","","",""
"sailing-trial","171","831869","0.0-11.0-136.0","","","","","","false","","","","","","","","336","","124","","1","0","arrowleft","0","arrowright","[0.675,0.325,0.15,0.85]","","",""
"sailing-trial","172","834225","0.0-11.0-137.0","","","","","","false","","","","","","","","null","","850","","0","0","null","null","arrowup","[0.675,0.325,0.15,0.85]","","",""
"sailing-trial","173","837205","0.0-11.0-138.0","","","","","","false","","","","","","","","36","","347","","3","0","arrowright","1","arrowright","[0.675,0.325,0.15,0.85]","","",""
"sailing-trial","174","839420","0.0-11.0-139.0","","","","","","false","","","","","","","","null","","675","","2","0","null","null","arrowup","[0.675,0.325,0.15,0.85]","","",""
"sailing-trial","175","844163","0.0-11.0-140.0","","","","","","false","","","","","","","","1017","","599","","0","1","arrowleft","0","arrowleft","[0.675,0.325,0.15,0.85]","","",""
"sailing-trial","176","846946","0.0-11.0-141.0","","","","","","false","","","","","","","","null","","581","","2","1","null","null","arrowup","[0.675,0.325,0.15,0.85]","","",""
"sailing-trial","177","850413","0.0-11.0-142.0","","","","","","false","","","","","","","","171","","231","","3","1","arrowright","1","arrowright","[0.675,0.325,0.15,0.85]","","",""
"sailing-trial","178","853349","0.0-11.0-143.0","","","","","","false","","","","","","","","null","","499","","1","1","null","null","arrowup","[0.675,0.325,0.15,0.85]","","",""
"sailing-trial","179","857049","0.0-11.0-144.0","","","","","","false","","","","","","","","599","","25","","1","1","arrowleft","0","arrowright","[0.675,0.325,0.15,0.85]","","",""
"sailing-trial","180","859899","0.0-11.0-145.0","","","","","","false","","","","","","","","null","","833","","0","1","null","null","arrowup","[0.675,0.325,0.15,0.85]","","",""
"sailing-trial","181","864159","0.0-11.0-146.0","","","","","","false","","","","","","","","521","","377","","2","1","arrowright","1","arrowleft","[0.85,0.15,0.325,0.675]","","",""
"sailing-trial","182","867050","0.0-11.0-147.0","","","","","","false","","","","","","","","null","","832","","2","1","null","null","arrowup","[0.85,0.15,0.325,0.675]","","",""
"sailing-trial","183","870865","0.0-11.0-148.0","","","","","","false","","","","","","","","932","","329","","1","0","arrowleft","0","arrowright","[0.85,0.15,0.325,0.675]","","",""
"sailing-trial","184","873718","0.0-11.0-149.0","","","","","","false","","","","","","","","null","","790","","3","1","null","null","arrowup","[0.85,0.15,0.325,0.675]","","",""
"sailing-trial","185","878509","0.0-11.0-150.0","","","","","","false","","","","","","","","776","","286","","0","1","arrowleft","0","arrowleft","[0.85,0.15,0.325,0.675]","","",""
"sailing-trial","186","881252","0.0-11.0-151.0","","","","","","false","","","","","","","","null","","803","","3","1","null","null","arrowup","[0.85,0.15,0.325,0.675]","","",""
"sailing-trial","187","885321","0.0-11.0-152.0","","","","","","false","","","","","","","","659","","259","","2","1","arrowright","1","arrowleft","[0.85,0.15,0.325,0.675]","","",""
"sailing-trial","188","888003","0.0-11.0-153.0","","","","","","false","","","","","","","","null","","1260","","1","0","null","null","arrowup","[0.85,0.15,0.325,0.675]","","",""
"sailing-trial","189","891353","0.0-11.0-154.0","","","","","","false","","","","","","","","587","","36","","3","1","arrowright","1","arrowright","[0.85,0.15,0.325,0.675]","","",""
"sailing-trial","190","894088","0.0-11.0-155.0","","","","","","false","","","","","","","","null","","758","","0","1","null","null","arrowup","[0.85,0.15,0.325,0.675]","","",""
"sailing-trial","191","897971","0.0-11.0-156.0","","","","","","false","","","","","","","","751","","173","","3","1","arrowright","1","arrowright","[0.85,0.15,0.325,0.675]","","",""
"sailing-trial","192","900887","0.0-11.0-157.0","","","","","","false","","","","","","","","null","","922","","0","1","null","null","arrowup","[0.85,0.15,0.325,0.675]","","",""
"sailing-trial","193","904538","0.0-11.0-158.0","","","","","","false","","","","","","","","461","","136","","3","1","arrowright","1","arrowright","[0.85,0.15,0.325,0.675]","","",""
"sailing-trial","194","907507","0.0-11.0-159.0","","","","","","false","","","","","","","","null","","894","","3","1","null","null","arrowup","[0.85,0.15,0.325,0.675]","","",""
"sailing-trial","195","911722","0.0-11.0-160.0","","","","","","false","","","","","","","","1158","","515","","2","0","arrowright","1","arrowleft","[0.85,0.15,0.325,0.675]","","",""
"sailing-trial","196","914772","0.0-11.0-161.0","","","","","","false","","","","","","","","null","","818","","1","1","null","null","arrowup","[0.85,0.15,0.325,0.675]","","",""
"sailing-trial","197","918538","0.0-11.0-162.0","","","","","","false","","","","","","","","641","","181","","3","0","arrowright","1","arrowright","[0.325,0.675,0.85,0.15]","","",""
"sailing-trial","198","921454","0.0-11.0-163.0","","","","","","false","","","","","","","","null","","903","","0","0","null","null","arrowup","[0.325,0.675,0.85,0.15]","","",""
"sailing-trial","199","926299","0.0-11.0-164.0","","","","","","false","","","","","","","","1727","","407","","1","0","arrowleft","0","arrowright","[0.325,0.675,0.85,0.15]","","",""
"sailing-trial","200","928944","0.0-11.0-165.0","","","","","","false","","","","","","","","null","","714","","2","1","null","null","arrowup","[0.325,0.675,0.85,0.15]","","",""
"sailing-trial","201","932896","0.0-11.0-166.0","","","","","","false","","","","","","","","1289","","176","","0","0","arrowleft","0","arrowleft","[0.325,0.675,0.85,0.15]","","",""
"sailing-trial","202","934554","0.0-11.0-167.0","","","","","","false","","","","","","","","null","","73","","0","0","null","null","arrowup","[0.325,0.675,0.85,0.15]","","",""
"sailing-trial","203","938223","0.0-11.0-168.0","","","","","","false","","","","","","","","374","","295","","2","1","arrowright","1","arrowleft","[0.325,0.675,0.85,0.15]","","",""
"sailing-trial","204","940457","0.0-11.0-169.0","","","","","","false","","","","","","","","null","","816","","0","0","null","null","arrowup","[0.325,0.675,0.85,0.15]","","",""
"sailing-trial","205","943259","0.0-11.0-170.0","","","","","","false","","","","","","","","206","","3","","3","0","arrowright","1","arrowright","[0.325,0.675,0.85,0.15]","","",""
"sailing-trial","206","945449","0.0-11.0-171.0","","","","","","false","","","","","","","","null","","743","","3","0","null","null","arrowup","[0.325,0.675,0.85,0.15]","","",""
"sailing-trial","207","949530","0.0-11.0-172.0","","","","","","false","","","","","","","","512","","350","","1","1","arrowleft","0","arrowright","[0.325,0.675,0.85,0.15]","","",""
"sailing-trial","208","951858","0.0-11.0-173.0","","","","","","false","","","","","","","","null","","902","","0","0","null","null","arrowup","[0.325,0.675,0.85,0.15]","","",""
"sailing-trial","209","955793","0.0-11.0-174.0","","","","","","false","","","","","","","","895","","12","","2","1","arrowright","1","arrowleft","[0.325,0.675,0.85,0.15]","","",""
"sailing-trial","210","958426","0.0-11.0-175.0","","","","","","false","","","","","","","","null","","1070","","1","0","null","null","arrowup","[0.325,0.675,0.85,0.15]","","",""
"sailing-trial","211","963065","0.0-11.0-176.0","","","","","","false","","","","","","","","736","","653","","2","1","arrowright","1","arrowleft","[0.325,0.675,0.85,0.15]","","",""
"sailing-trial","212","965406","0.0-11.0-177.0","","","","","","false","","","","","","","","null","","910","","3","0","null","null","arrowup","[0.325,0.675,0.85,0.15]","","",""
"sailing-trial","213","969197","0.0-11.0-178.0","","","","","","false","","","","","","","","564","","174","","2","1","arrowright","1","arrowleft","[0.325,0.675,0.85,0.15]","","",""
"sailing-trial","214","972230","0.0-11.0-179.0","","","","","","false","","","","","","","","null","","809","","2","1","null","null","arrowup","[0.325,0.675,0.85,0.15]","","",""
"sailing-trial","215","976395","0.0-11.0-180.0","","","","","","false","","","","","","","","833","","261","","2","1","arrowright","1","arrowleft","[0.325,0.675,0.85,0.15]","","",""
"sailing-trial","216","979363","0.0-11.0-181.0","","","","","","false","","","","","","","","null","","966","","1","1","null","null","arrowup","[0.325,0.675,0.85,0.15]","","",""
"sailing-trial","217","983231","0.0-11.0-182.0","","","","","","false","","","","","","","","443","","296","","1","1","arrowleft","0","arrowright","[0.325,0.675,0.85,0.15]","","",""
"sailing-trial","218","985636","0.0-11.0-183.0","","","","","","false","","","","","","","","null","","931","","1","0","null","null","arrowup","[0.325,0.675,0.85,0.15]","","",""
"sailing-trial","219","989545","0.0-11.0-184.0","","","","","","false","","","","","","","","627","","55","","2","1","arrowright","1","arrowleft","[0.325,0.675,0.85,0.15]","","",""
"sailing-trial","220","992046","0.0-11.0-185.0","","","","","","false","","","","","","","","null","","745","","1","1","null","null","arrowup","[0.325,0.675,0.85,0.15]","","",""
"sailing-trial","221","995380","0.0-11.0-186.0","","","","","","false","","","","","","","","836","","61","","2","0","arrowright","1","arrowleft","[0.15,0.85,0.675,0.325]","","",""
"sailing-trial","222","997652","0.0-11.0-187.0","","","","","","false","","","","","","","","null","","788","","0","0","null","null","arrowup","[0.15,0.85,0.675,0.325]","","",""
"sailing-trial","223","1001212","0.0-11.0-188.0","","","","","","false","","","","","","","","542","","5","","3","1","arrowright","1","arrowright","[0.15,0.85,0.675,0.325]","","",""
"sailing-trial","224","1003289","0.0-11.0-189.0","","","","","","false","","","","","","","","null","","617","","0","0","null","null","arrowup","[0.15,0.85,0.675,0.325]","","",""
"sailing-trial","225","1006495","0.0-11.0-190.0","","","","","","false","","","","","","","","697","","94","","0","0","arrowleft","0","arrowleft","[0.15,0.85,0.675,0.325]","","",""
"sailing-trial","226","1009269","0.0-11.0-191.0","","","","","","false","","","","","","","","null","","817","","1","1","null","null","arrowup","[0.15,0.85,0.675,0.325]","","",""
"sailing-trial","227","1012401","0.0-11.0-192.0","","","","","","false","","","","","","","","408","","75","","1","0","arrowleft","0","arrowright","[0.15,0.85,0.675,0.325]","","",""
"sailing-trial","228","1015501","0.0-11.0-193.0","","","","","","false","","","","","","","","null","","1113","","0","1","null","null","arrowup","[0.15,0.85,0.675,0.325]","","",""
"sailing-trial","229","1018538","0.0-11.0-194.0","","","","","","false","","","","","","","","412","","27","","3","0","arrowright","1","arrowright","[0.15,0.85,0.675,0.325]","","",""
"sailing-trial","230","1020600","0.0-11.0-195.0","","","","","","false","","","","","","","","null","","772","","3","0","null","null","arrowup","[0.15,0.85,0.675,0.325]","","",""
"sailing-trial","231","1024213","0.0-11.0-196.0","","","","","","false","","","","","","","","682","","358","","2","0","arrowright","1","arrowleft","[0.15,0.85,0.675,0.325]","","",""
"sailing-trial","232","1027000","0.0-11.0-197.0","","","","","","false","","","","","","","","null","","869","","3","1","null","null","arrowup","[0.15,0.85,0.675,0.325]","","",""
"sailing-trial","233","1030832","0.0-11.0-198.0","","","","","","false","","","","","","","","743","","119","","1","1","arrowleft","0","arrowright","[0.15,0.85,0.675,0.325]","","",""
"sailing-trial","234","1034355","0.0-11.0-199.0","","","","","","false","","","","","","","","null","","1169","","1","1","null","null","arrowup","[0.15,0.85,0.675,0.325]","","",""
"sailing-trial","235","1038333","0.0-11.0-200.0","","","","","","false","","","","","","","","672","","238","","2","1","arrowright","1","arrowleft","[0.15,0.85,0.675,0.325]","","",""
"sailing-trial","236","1041102","0.0-11.0-201.0","","","","","","false","","","","","","","","null","","687","","1","1","null","null","arrowup","[0.15,0.85,0.675,0.325]","","",""
"sailing-trial","237","1044410","0.0-11.0-202.0","","","","","","false","","","","","","","","621","","163","","0","0","arrowleft","0","arrowleft","[0.325,0.675,0.85,0.15]","","",""
"sailing-trial","238","1047351","0.0-11.0-203.0","","","","","","false","","","","","","","","null","","1024","","2","1","null","null","arrowup","[0.325,0.675,0.85,0.15]","","",""
"sailing-trial","239","1050521","0.0-11.0-204.0","","","","","","false","","","","","","","","534","","362","","3","0","arrowright","1","arrowright","[0.325,0.675,0.85,0.15]","","",""
"sailing-trial","240","1053254","0.0-11.0-205.0","","","","","","false","","","","","","","","null","","98","","1","1","null","null","arrowup","[0.325,0.675,0.85,0.15]","","",""
"sailing-trial","241","1056824","0.0-11.0-206.0","","","","","","false","","","","","","","","552","","45","","2","1","arrowright","1","arrowleft","[0.325,0.675,0.85,0.15]","","",""
"sailing-trial","242","1058774","0.0-11.0-207.0","","","","","","false","","","","","","","","null","","129","","2","0","null","null","arrowup","[0.325,0.675,0.85,0.15]","","",""
"sailing-trial","243","1063069","0.0-11.0-208.0","","","","","","false","","","","","","","","888","","322","","1","1","arrowleft","0","arrowright","[0.325,0.675,0.85,0.15]","","",""
"sailing-trial","244","1065302","0.0-11.0-209.0","","","","","","false","","","","","","","","null","","719","","3","0","null","null","arrowup","[0.325,0.675,0.85,0.15]","","",""
"sailing-trial","245","1069170","0.0-11.0-210.0","","","","","","false","","","","","","","","828","","69","","1","1","arrowleft","0","arrowright","[0.325,0.675,0.85,0.15]","","",""
"sailing-trial","246","1071270","0.0-11.0-211.0","","","","","","false","","","","","","","","null","","306","","1","1","null","null","arrowup","[0.325,0.675,0.85,0.15]","","",""
"sailing-trial","247","1075020","0.0-11.0-212.0","","","","","","false","","","","","","","","240","","398","","2","1","arrowright","1","arrowleft","[0.325,0.675,0.85,0.15]","","",""
"sailing-trial","248","1077942","0.0-11.0-213.0","","","","","","false","","","","","","","","null","","896","","2","0","null","null","arrowup","[0.325,0.675,0.85,0.15]","","",""
"sailing-trial","249","1081416","0.0-11.0-214.0","","","","","","false","","","","","","","","624","","51","","3","0","arrowright","1","arrowright","[0.325,0.675,0.85,0.15]","","",""
"sailing-trial","250","1084025","0.0-11.0-215.0","","","","","","false","","","","","","","","null","","997","","1","0","null","null","arrowup","[0.325,0.675,0.85,0.15]","","",""
"sailing-trial","251","1087760","0.0-11.0-216.0","","","","","","false","","","","","","","","443","","80","","0","0","arrowleft","0","arrowleft","[0.325,0.675,0.85,0.15]","","",""
"sailing-trial","252","1091822","0.0-11.0-217.0","","","","","","false","","","","","","","","null","","814","","2","1","null","null","arrowup","[0.325,0.675,0.85,0.15]","","",""
"sailing-trial","253","1094880","0.0-11.0-218.0","","","","","","false","","","","","","","","580","","186","","2","0","arrowright","1","arrowleft","[0.325,0.675,0.85,0.15]","","",""
"sailing-trial","254","1097368","0.0-11.0-219.0","","","","","","false","","","","","","","","null","","1006","","3","0","null","null","arrowup","[0.325,0.675,0.85,0.15]","","",""
"sailing-trial","255","1101023","0.0-11.0-220.0","","","","","","false","","","","","","","","1076","","55","","2","0","arrowright","1","arrowleft","[0.675,0.325,0.15,0.85]","","",""
"sailing-trial","256","1102393","0.0-11.0-221.0","","","","","","false","","","","","","","","null","","23","","2","0","null","null","arrowup","[0.675,0.325,0.15,0.85]","","",""
"sailing-trial","257","1105768","0.0-11.0-222.0","","","","","","false","","","","","","","","602","","234","","1","0","arrowleft","0","arrowright","[0.675,0.325,0.15,0.85]","","",""
"sailing-trial","258","1108629","0.0-11.0-223.0","","","","","","false","","","","","","","","null","","693","","1","1","null","null","arrowup","[0.675,0.325,0.15,0.85]","","",""
"sailing-trial","259","1112392","0.0-11.0-224.0","","","","","","false","","","","","","","","603","","77","","0","1","arrowleft","0","arrowleft","[0.675,0.325,0.15,0.85]","","",""
"sailing-trial","260","1117475","0.0-11.0-225.0","","","","","","false","","","","","","","","null","","1193","","3","1","null","null","arrowup","[0.675,0.325,0.15,0.85]","","",""
"sailing-trial","261","1124244","0.0-11.0-226.0","","","","","","false","","","","","","","","808","","283","","0","1","arrowleft","0","arrowleft","[0.675,0.325,0.15,0.85]","","",""
"sailing-trial","262","1127448","0.0-11.0-227.0","","","","","","false","","","","","","","","null","","1248","","3","1","null","null","arrowup","[0.675,0.325,0.15,0.85]","","",""
"sailing-trial","263","1131176","0.0-11.0-228.0","","","","","","false","","","","","","","","608","","307","","2","1","arrowright","1","arrowleft","[0.675,0.325,0.15,0.85]","","",""
"sailing-trial","264","1133627","0.0-11.0-229.0","","","","","","false","","","","","","","","null","","966","","1","0","null","null","arrowup","[0.675,0.325,0.15,0.85]","","",""
"sailing-trial","265","1138208","0.0-11.0-230.0","","","","","","false","","","","","","","","587","","198","","3","0","arrowright","1","arrowright","[0.675,0.325,0.15,0.85]","","",""
"sailing-trial","266","1142982","0.0-11.0-231.0","","","","","","false","","","","","","","","null","","2718","","1","1","null","null","arrowup","[0.675,0.325,0.15,0.85]","","",""
"sailing-trial","267","1147401","0.0-11.0-232.0","","","","","","false","","","","","","","","1039","","341","","0","0","arrowleft","0","arrowleft","[0.675,0.325,0.15,0.85]","","",""
"sailing-trial","268","1150212","0.0-11.0-233.0","","","","","","false","","","","","","","","null","","998","","0","1","null","null","arrowup","[0.675,0.325,0.15,0.85]","","",""
"sailing-trial","269","1153193","0.0-11.0-234.0","","","","","","false","","","","","","","","221","","10","","2","0","arrowright","1","arrowleft","[0.675,0.325,0.15,0.85]","","",""
"sailing-trial","270","1155998","0.0-11.0-235.0","","","","","","false","","","","","","","","null","","741","","3","1","null","null","arrowup","[0.675,0.325,0.15,0.85]","","",""
"sailing-trial","271","1159354","0.0-11.0-236.0","","","","","","false","","","","","","","","785","","263","","1","0","arrowleft","0","arrowright","[0.85,0.15,0.325,0.675]","","",""
"sailing-trial","272","1161631","0.0-11.0-237.0","","","","","","false","","","","","","","","null","","679","","3","1","null","null","arrowup","[0.85,0.15,0.325,0.675]","","",""
"sailing-trial","273","1165570","0.0-11.0-238.0","","","","","","false","","","","","","","","618","","358","","0","0","arrowleft","0","arrowleft","[0.85,0.15,0.325,0.675]","","",""
"sailing-trial","274","1169048","0.0-11.0-239.0","","","","","","false","","","","","","","","null","","992","","3","1","null","null","arrowup","[0.85,0.15,0.325,0.675]","","",""
"sailing-trial","275","1172445","0.0-11.0-240.0","","","","","","false","","","","","","","","624","","67","","2","0","arrowright","1","arrowleft","[0.85,0.15,0.325,0.675]","","",""
"sailing-trial","276","1175572","0.0-11.0-241.0","","","","","","false","","","","","","","","null","","1442","","2","0","null","null","arrowup","[0.85,0.15,0.325,0.675]","","",""
"sailing-trial","277","1179632","0.0-11.0-242.0","","","","","","false","","","","","","","","646","","156","","3","1","arrowright","1","arrowright","[0.85,0.15,0.325,0.675]","","",""
"sailing-trial","278","1181962","0.0-11.0-243.0","","","","","","false","","","","","","","","null","","967","","3","0","null","null","arrowup","[0.85,0.15,0.325,0.675]","","",""
"sailing-trial","279","1185529","0.0-11.0-244.0","","","","","","false","","","","","","","","445","","475","","1","0","arrowleft","0","arrowright","[0.85,0.15,0.325,0.675]","","",""
"sailing-trial","280","1187429","0.0-11.0-245.0","","","","","","false","","","","","","","","null","","461","","1","0","null","null","arrowup","[0.85,0.15,0.325,0.675]","","",""
"sailing-trial","281","1190305","0.0-11.0-246.0","","","","","","false","","","","","","","","292","","105","","2","0","arrowright","1","arrowleft","[0.85,0.15,0.325,0.675]","","",""
"sailing-trial","282","1193270","0.0-11.0-247.0","","","","","","false","","","","","","","","null","","849","","2","1","null","null","arrowup","[0.85,0.15,0.325,0.675]","","",""
"sailing-trial","283","1197250","0.0-11.0-248.0","","","","","","false","","","","","","","","468","","256","","0","1","arrowleft","0","arrowleft","[0.85,0.15,0.325,0.675]","","",""
"sailing-trial","284","1199556","0.0-11.0-249.0","","","","","","false","","","","","","","","null","","780","","2","0","null","null","arrowup","[0.85,0.15,0.325,0.675]","","",""
"sailing-trial","285","1203287","0.0-11.0-250.0","","","","","","false","","","","","","","","529","","58","","3","1","arrowright","1","arrowright","[0.85,0.15,0.325,0.675]","","",""
"sailing-trial","286","1206318","0.0-11.0-251.0","","","","","","false","","","","","","","","null","","1129","","3","1","null","null","arrowup","[0.85,0.15,0.325,0.675]","","",""
"sailing-trial","287","1210184","0.0-11.0-252.0","","","","","","false","","","","","","","","850","","34","","0","1","arrowleft","0","arrowleft","[0.325,0.675,0.85,0.15]","","",""
"sailing-trial","288","1212469","0.0-11.0-253.0","","","[{""event"":""focus"",""trial"":0,""time"":3},{""event"":""blur"",""trial"":2,""time"":4694},{""event"":""focus"",""trial"":3,""time"":6762},{""event"":""fullscreenenter"",""trial"":3,""time"":8768},{""event"":""blur"",""trial"":289,""time"":1215564}]","false","","false","","","","","","","","null","","892","","1","0","null","null","arrowup","[0.325,0.675,0.85,0.15]","","",""
"sailing-trial","289","1217118","0.0-11.0-254.0","","","[{""event"":""focus"",""trial"":0,""time"":3},{""event"":""blur"",""trial"":2,""time"":4694},{""event"":""focus"",""trial"":3,""time"":6762},{""event"":""fullscreenenter"",""trial"":3,""time"":8768},{""event"":""blur"",""trial"":289,""time"":1215564},{""event"":""focus"",""trial"":290,""time"":1224644}]","false","","false","","","","","","","","433","","104","","3","0","arrowright","1","arrowright","[0.325,0.675,0.85,0.15]","","",""
"sailing-trial","290","1228887","0.0-11.0-255.0","","","","","","false","","","","","","","","null","","9832","","1","1","null","null","arrowup","[0.325,0.675,0.85,0.15]","","",""
"sailing-trial","291","1233004","0.0-11.0-256.0","","","","","","false","","","","","","","","315","","523","","0","1","arrowleft","0","arrowleft","[0.325,0.675,0.85,0.15]","","",""
"sailing-trial","292","1235874","0.0-11.0-257.0","","","","","","false","","","","","","","","null","","819","","2","1","null","null","arrowup","[0.325,0.675,0.85,0.15]","","",""
"sailing-trial","293","1239772","0.0-11.0-258.0","","","","","","false","","","","","","","","554","","385","","3","1","arrowright","1","arrowright","[0.325,0.675,0.85,0.15]","","",""
"sailing-trial","294","1242501","0.0-11.0-259.0","","","","","","false","","","","","","","","null","","693","","3","0","null","null","arrowup","[0.325,0.675,0.85,0.15]","","",""
"sailing-trial","295","1245827","0.0-11.0-260.0","","","","","","false","","","","","","","","699","","122","","1","0","arrowleft","0","arrowright","[0.325,0.675,0.85,0.15]","","",""
"sailing-trial","296","1248702","0.0-11.0-261.0","","","","","","false","","","","","","","","null","","118","","1","0","null","null","arrowup","[0.325,0.675,0.85,0.15]","","",""
"sailing-trial","297","1252422","0.0-11.0-262.0","","","","","","false","","","","","","","","570","","327","","0","0","arrowleft","0","arrowleft","[0.325,0.675,0.85,0.15]","","",""
"sailing-trial","298","1254829","0.0-11.0-263.0","","","","","","false","","","","","","","","null","","914","","0","0","null","null","arrowup","[0.325,0.675,0.85,0.15]","","",""
"sailing-trial","299","1258344","0.0-11.0-264.0","","","","","","false","","","","","","","","391","","95","","2","1","arrowright","1","arrowleft","[0.325,0.675,0.85,0.15]","","",""
"sailing-trial","300","1260502","0.0-11.0-265.0","","","","","","false","","","","","","","","null","","636","","0","0","null","null","arrowup","[0.325,0.675,0.85,0.15]","","",""
"sailing-trial","301","1264045","0.0-11.0-266.0","","","","","","false","","","","","","","","420","","123","","3","0","arrowright","1","arrowright","[0.325,0.675,0.85,0.15]","","",""
"sailing-trial","302","1267090","0.0-11.0-267.0","","","","","","false","","","","","","","","null","","1237","","1","1","null","null","arrowup","[0.325,0.675,0.85,0.15]","","",""
"sailing-trial","303","1270410","0.0-11.0-268.0","","","","","","false","","","","","","","","657","","442","","1","0","arrowleft","0","arrowright","[0.325,0.675,0.85,0.15]","","",""
"sailing-trial","304","1273146","0.0-11.0-269.0","","","","","","false","","","","","","","","null","","962","","0","1","null","null","arrowup","[0.325,0.675,0.85,0.15]","","",""
"sailing-trial","305","1276878","0.0-11.0-270.0","","","","","","false","","","","","","","","216","","105","","2","1","arrowright","1","arrowleft","[0.325,0.675,0.85,0.15]","","",""
"sailing-trial","306","1279108","0.0-11.0-271.0","","","","","","false","","","","","","","","null","","782","","2","0","null","null","arrowup","[0.325,0.675,0.85,0.15]","","",""
"sailing-trial","307","1283365","0.0-11.0-272.0","","","","","","false","","","","","","","","630","","411","","2","1","arrowright","1","arrowleft","[0.675,0.325,0.15,0.85]","","",""
"sailing-trial","308","1285976","0.0-11.0-273.0","","","","","","false","","","","","","","","null","","679","","3","1","null","null","arrowup","[0.675,0.325,0.15,0.85]","","",""
"sailing-trial","309","1288921","0.0-11.0-274.0","","","","","","false","","","","","","","","138","","355","","0","0","arrowleft","0","arrowleft","[0.675,0.325,0.15,0.85]","","",""
"sailing-trial","310","1291793","0.0-11.0-275.0","","","","","","false","","","","","","","","null","","945","","3","1","null","null","arrowup","[0.675,0.325,0.15,0.85]","","",""
"sailing-trial","311","1295326","0.0-11.0-276.0","","","","","","false","","","","","","","","955","","104","","1","0","arrowleft","0","arrowright","[0.675,0.325,0.15,0.85]","","",""
"sailing-trial","312","1298746","0.0-11.0-277.0","","","","","","false","","","","","","","","null","","1309","","0","1","null","null","arrowup","[0.675,0.325,0.15,0.85]","","",""
"sailing-trial","313","1301655","0.0-11.0-278.0","","","","","","false","","","","","","","","548","","131","","2","0","arrowright","1","arrowleft","[0.675,0.325,0.15,0.85]","","",""
"sailing-trial","314","1303832","0.0-11.0-279.0","","","","","","false","","","","","","","","null","","177","","2","0","null","null","arrowup","[0.675,0.325,0.15,0.85]","","",""
"sailing-trial","315","1306990","0.0-11.0-280.0","","","","","","false","","","","","","","","117","","127","","3","1","arrowright","1","arrowright","[0.675,0.325,0.15,0.85]","","",""
"sailing-trial","316","1310445","0.0-11.0-281.0","","","","","","false","","","","","","","","null","","1514","","0","1","null","null","arrowup","[0.675,0.325,0.15,0.85]","","",""
"sailing-trial","317","1314107","0.0-11.0-282.0","","","","","","false","","","","","","","","477","","234","","3","1","arrowright","1","arrowright","[0.675,0.325,0.15,0.85]","","",""
"sailing-trial","318","1316241","0.0-11.0-283.0","","","","","","false","","","","","","","","null","","719","","2","0","null","null","arrowup","[0.675,0.325,0.15,0.85]","","",""
"sailing-trial","319","1319495","0.0-11.0-284.0","","","","","","false","","","","","","","","397","","444","","0","0","arrowleft","0","arrowleft","[0.675,0.325,0.15,0.85]","","",""
"sailing-trial","320","1322229","0.0-11.0-285.0","","","","","","false","","","","","","","","null","","790","","3","1","null","null","arrowup","[0.675,0.325,0.15,0.85]","","",""
"sailing-trial","321","1325997","0.0-11.0-286.0","","","","","","false","","","","","","","","680","","29","","3","1","arrowright","1","arrowright","[0.675,0.325,0.15,0.85]","","",""
"sailing-trial","322","1328414","0.0-11.0-287.0","","","","","","false","","","","","","","","null","","1022","","1","0","null","null","arrowup","[0.675,0.325,0.15,0.85]","","",""
"sailing-trial","323","1331630","0.0-11.0-288.0","","","","","","false","","","","","","","","122","","60","","3","1","arrowright","1","arrowright","[0.675,0.325,0.15,0.85]","","",""
"sailing-trial","324","1334080","0.0-11.0-289.0","","","","","","false","","","","","","","","null","","813","","1","1","null","null","arrowup","[0.675,0.325,0.15,0.85]","","",""
"sailing-trial","325","1337901","0.0-11.0-290.0","","","","","","false","","","","","","","","444","","39","","0","1","arrowleft","0","arrowleft","[0.85,0.15,0.325,0.675]","","",""
"sailing-trial","326","1339918","0.0-11.0-291.0","","","","","","false","","","","","","","","null","","764","","3","0","null","null","arrowup","[0.85,0.15,0.325,0.675]","","",""
"sailing-trial","327","1342888","0.0-11.0-292.0","","","","","","false","","","","","","","","133","","11","","1","0","arrowleft","0","arrowright","[0.85,0.15,0.325,0.675]","","",""
"sailing-trial","328","1345637","0.0-11.0-293.0","","","","","","false","","","","","","","","null","","805","","0","1","null","null","arrowup","[0.85,0.15,0.325,0.675]","","",""
"sailing-trial","329","1348504","0.0-11.0-294.0","","","","","","false","","","","","","","","136","","45","","3","0","arrowright","1","arrowright","[0.85,0.15,0.325,0.675]","","",""
"sailing-trial","330","1350622","0.0-11.0-295.0","","","","","","false","","","","","","","","null","","822","","1","0","null","null","arrowup","[0.85,0.15,0.325,0.675]","","",""
"sailing-trial","331","1353686","0.0-11.0-296.0","","","","","","false","","","","","","","","2","","204","","2","1","arrowright","1","arrowleft","[0.85,0.15,0.325,0.675]","","",""
"sailing-trial","332","1356281","0.0-11.0-297.0","","","","","","false","","","","","","","","null","","86","","3","1","null","null","arrowup","[0.85,0.15,0.325,0.675]","","",""
"sailing-trial","333","1360170","0.0-11.0-298.0","","","","","","false","","","","","","","","723","","11","","0","1","arrowleft","0","arrowleft","[0.85,0.15,0.325,0.675]","","",""
"sailing-trial","334","1362386","0.0-11.0-299.0","","","","","","false","","","","","","","","null","","169","","3","1","null","null","arrowup","[0.85,0.15,0.325,0.675]","","",""
"sailing-trial","335","1366154","0.0-11.0-300.0","","","","","","false","","","","","","","","547","","45","","2","1","arrowright","1","arrowleft","[0.85,0.15,0.325,0.675]","","",""
"sailing-trial","336","1368363","0.0-11.0-301.0","","","","","","false","","","","","","","","null","","497","","1","0","null","null","arrowup","[0.85,0.15,0.325,0.675]","","",""
"sailing-trial","337","1371719","0.0-11.0-302.0","","","","","","false","","","","","","","","173","","123","","0","1","arrowleft","0","arrowleft","[0.85,0.15,0.325,0.675]","","",""
"sailing-trial","338","1374571","0.0-11.0-303.0","","","","","","false","","","","","","","","null","","664","","0","1","null","null","arrowup","[0.85,0.15,0.325,0.675]","","",""
"sailing-trial","339","1378119","0.0-11.0-304.0","","","","","","false","","","","","","","","471","","160","","2","1","arrowright","1","arrowleft","[0.85,0.15,0.325,0.675]","","",""
"sailing-trial","340","1380287","0.0-11.0-305.0","","","","","","false","","","","","","","","null","","49","","0","1","null","null","arrowup","[0.85,0.15,0.325,0.675]","","",""
"sailing-trial","341","1383802","0.0-11.0-306.0","","","","","","false","","","","","","","","479","","68","","2","1","arrowright","1","arrowleft","[0.85,0.15,0.325,0.675]","","",""
"sailing-trial","342","1386188","0.0-11.0-307.0","","","","","","false","","","","","","","","null","","730","","1","0","null","null","arrowup","[0.85,0.15,0.325,0.675]","","",""
"sailing-trial","343","1389436","0.0-11.0-308.0","","","","","","false","","","","","","","","150","","197","","0","1","arrowleft","0","arrowleft","[0.85,0.15,0.325,0.675]","","",""
"sailing-trial","344","1391539","0.0-11.0-309.0","","","","","","false","","","","","","","","null","","619","","2","0","null","null","arrowup","[0.85,0.15,0.325,0.675]","","",""
"sailing-trial","345","1394215","0.0-11.0-310.0","","","","","","false","","","","","","","","101","","64","","3","0","arrowright","1","arrowright","[0.675,0.325,0.15,0.85]","","",""
"sailing-trial","346","1397137","0.0-11.0-311.0","","","","","","false","","","","","","","","null","","110","","3","1","null","null","arrowup","[0.675,0.325,0.15,0.85]","","",""
"sailing-trial","347","1399944","0.0-11.0-312.0","","","","","","false","","","","","","","","136","","163","","0","0","arrowleft","0","arrowleft","[0.675,0.325,0.15,0.85]","","",""
"sailing-trial","348","1402226","0.0-11.0-313.0","","","","","","false","","","","","","","","null","","799","","2","0","null","null","arrowup","[0.675,0.325,0.15,0.85]","","",""
"sailing-trial","349","1406010","0.0-11.0-314.0","","","","","","false","","","","","","","","1263","","60","","1","0","arrowleft","0","arrowright","[0.675,0.325,0.15,0.85]","","",""
"sailing-trial","350","1408187","0.0-11.0-315.0","","","","","","false","","","","","","","","null","","806","","2","0","null","null","arrowup","[0.675,0.325,0.15,0.85]","","",""
"sailing-trial","351","1411224","0.0-11.0-316.0","","","","","","false","","","","","","","","119","","8","","3","1","arrowright","1","arrowright","[0.675,0.325,0.15,0.85]","","",""
"sailing-trial","352","1413609","0.0-11.0-317.0","","","","","","false","","","","","","","","null","","237","","0","1","null","null","arrowup","[0.675,0.325,0.15,0.85]","","",""
"sailing-trial","353","1416475","0.0-11.0-318.0","","","","","","false","","","","","","","","134","","43","","3","1","arrowright","1","arrowright","[0.675,0.325,0.15,0.85]","","",""
"sailing-trial","354","1419426","0.0-11.0-319.0","","","","","","false","","","","","","","","null","","772","","0","1","null","null","arrowup","[0.675,0.325,0.15,0.85]","","",""
"sailing-trial","355","1422656","0.0-11.0-320.0","","","","","","false","","","","","","","","185","","61","","3","1","arrowright","1","arrowright","[0.675,0.325,0.15,0.85]","","",""
"sailing-trial","356","1424384","0.0-11.0-321.0","","","","","","false","","","","","","","","null","","385","","2","0","null","null","arrowup","[0.675,0.325,0.15,0.85]","","",""
"sailing-trial","357","1427688","0.0-11.0-322.0","","","","","","false","","","","","","","","209","","262","","3","1","arrowright","1","arrowright","[0.675,0.325,0.15,0.85]","","",""
"sailing-trial","358","1430126","0.0-11.0-323.0","","","","","","false","","","","","","","","null","","701","","3","1","null","null","arrowup","[0.675,0.325,0.15,0.85]","","",""
"sailing-trial","359","1432962","0.0-11.0-324.0","","","","","","false","","","","","","","","136","","85","","3","1","arrowright","1","arrowright","[0.675,0.325,0.15,0.85]","","",""
"sailing-trial","360","1434460","0.0-11.0-325.0","","","","","","false","","","","","","","","null","","48","","2","0","null","null","arrowup","[0.675,0.325,0.15,0.85]","","",""
"sailing-trial","361","1437875","0.0-11.0-326.0","","","","","","false","","","","","","","","104","","424","","3","1","arrowright","1","arrowright","[0.675,0.325,0.15,0.85]","","",""
"sailing-trial","362","1440078","0.0-11.0-327.0","","","","","","false","","","","","","","","null","","167","","3","1","null","null","arrowup","[0.675,0.325,0.15,0.85]","","",""
"sailing-trial","363","1443462","0.0-11.0-328.0","","","","","","false","","","","","","","","531","","229","","1","1","arrowleft","0","arrowright","[0.85,0.15,0.325,0.675]","","",""
"sailing-trial","364","1445688","0.0-11.0-329.0","","","","","","false","","","","","","","","null","","818","","1","0","null","null","arrowup","[0.85,0.15,0.325,0.675]","","",""
"sailing-trial","365","1449495","0.0-11.0-330.0","","","","","","false","","","","","","","","493","","350","","0","1","arrowleft","0","arrowleft","[0.85,0.15,0.325,0.675]","","",""
"sailing-trial","366","1451342","0.0-11.0-331.0","","","","","","false","","","","","","","","null","","382","","3","0","null","null","arrowup","[0.85,0.15,0.325,0.675]","","",""
"sailing-trial","367","1453896","0.0-11.0-332.0","","","","","","false","","","","","","","","68","","43","","2","0","arrowright","1","arrowleft","[0.85,0.15,0.325,0.675]","","",""
"sailing-trial","368","1455846","0.0-11.0-333.0","","","","","","false","","","","","","","","null","","166","","0","1","null","null","arrowup","[0.85,0.15,0.325,0.675]","","",""
"sailing-trial","369","1459192","0.0-11.0-334.0","","","","","","false","","","","","","","","199","","242","","3","1","arrowright","1","arrowright","[0.85,0.15,0.325,0.675]","","",""
"sailing-trial","370","1462029","0.0-11.0-335.0","","","","","","false","","","","","","","","null","","776","","3","1","null","null","arrowup","[0.85,0.15,0.325,0.675]","","",""
"sailing-trial","371","1466094","0.0-11.0-336.0","","","","","","false","","","","","","","","1148","","109","","0","1","arrowleft","0","arrowleft","[0.85,0.15,0.325,0.675]","","",""
"sailing-trial","372","1468130","0.0-11.0-337.0","","","","","","false","","","","","","","","null","","2","","0","1","null","null","arrowup","[0.85,0.15,0.325,0.675]","","",""
"sailing-trial","373","1471699","0.0-11.0-338.0","","","","","","false","","","","","","","","20","","165","","3","1","arrowright","1","arrowright","[0.85,0.15,0.325,0.675]","","",""
"sailing-trial","374","1473556","0.0-11.0-339.0","","","","","","false","","","","","","","","null","","710","","1","0","null","null","arrowup","[0.85,0.15,0.325,0.675]","","",""
"sailing-trial","375","1477227","0.0-11.0-340.0","","","","","","false","","","","","","","","585","","246","","3","1","arrowright","1","arrowright","[0.85,0.15,0.325,0.675]","","",""
"sailing-trial","376","1479132","0.0-11.0-341.0","","","","","","false","","","","","","","","null","","224","","0","1","null","null","arrowup","[0.85,0.15,0.325,0.675]","","",""
"sailing-trial","377","1482180","0.0-11.0-342.0","","","","","","false","","","","","","","","34","","242","","3","1","arrowright","1","arrowright","[0.85,0.15,0.325,0.675]","","",""
"sailing-trial","378","1484398","0.0-11.0-343.0","","","","","","false","","","","","","","","null","","433","","0","1","null","null","arrowup","[0.85,0.15,0.325,0.675]","","",""
"sailing-trial","379","1486876","0.0-11.0-344.0","","","","","","false","","","","","","","","232","","74","","3","0","arrowright","1","arrowright","[0.85,0.15,0.325,0.675]","","",""
"sailing-trial","380","1488622","0.0-11.0-345.0","","","","","","false","","","","","","","","null","","124","","1","0","null","null","arrowup","[0.85,0.15,0.325,0.675]","","",""
"sailing-trial","381","1492342","0.0-11.0-346.0","","","","","","false","","","","","","","","612","","121","","0","1","arrowleft","0","arrowleft","[0.85,0.15,0.325,0.675]","","",""
"sailing-trial","382","1495236","0.0-11.0-347.0","","","","","","false","","","","","","","","null","","824","","1","0","null","null","arrowup","[0.85,0.15,0.325,0.675]","","",""
"sailing-trial","383","1498965","0.0-11.0-348.0","","","","","","false","","","","","","","","446","","853","","2","0","arrowright","1","arrowleft","[0.85,0.15,0.325,0.675]","","",""
"sailing-trial","384","1501452","0.0-11.0-349.0","","","","","","false","","","","","","","","null","","49","","0","1","null","null","arrowup","[0.85,0.15,0.325,0.675]","","",""
"sailing-trial","385","1504551","0.0-11.0-350.0","","","","","","false","","","","","","","","22","","256","","0","1","arrowleft","0","arrowleft","[0.675,0.325,0.15,0.85]","","",""
"sailing-trial","386","1507333","0.0-11.0-351.0","","","","","","false","","","","","","","","null","","893","","3","1","null","null","arrowup","[0.675,0.325,0.15,0.85]","","",""
"sailing-trial","387","1510479","0.0-11.0-352.0","","","","","","false","","","","","","","","185","","126","","0","1","arrowleft","0","arrowleft","[0.675,0.325,0.15,0.85]","","",""
"sailing-trial","388","1511984","0.0-11.0-353.0","","","","","","false","","","","","","","","null","","50","","2","0","null","null","arrowup","[0.675,0.325,0.15,0.85]","","",""
"sailing-trial","389","1515218","0.0-11.0-354.0","","","","","","false","","","","","","","","151","","115","","0","1","arrowleft","0","arrowleft","[0.675,0.325,0.15,0.85]","","",""
"sailing-trial","390","1516435","0.0-11.0-355.0","","","","","","false","","","","","","","","null","","100","","1","0","null","null","arrowup","[0.675,0.325,0.15,0.85]","","",""
"sailing-trial","391","1519669","0.0-11.0-356.0","","","","","","false","","","","","","","","106","","155","","3","1","arrowright","1","arrowright","[0.675,0.325,0.15,0.85]","","",""
"sailing-trial","392","1522216","0.0-11.0-357.0","","","","","","false","","","","","","","","null","","886","","3","1","null","null","arrowup","[0.675,0.325,0.15,0.85]","","",""
"sailing-trial","393","1525295","0.0-11.0-358.0","","","","","","false","","","","","","","","335","","73","","0","0","arrowleft","0","arrowleft","[0.675,0.325,0.15,0.85]","","",""
"sailing-trial","394","1527725","0.0-11.0-359.0","","","","","","false","","","","","","","","null","","892","","1","0","null","null","arrowup","[0.675,0.325,0.15,0.85]","","",""
"sailing-trial","395","1531952","0.0-11.0-360.0","","","","","","false","","","","","","","","439","","52","","3","1","arrowright","1","arrowright","[0.675,0.325,0.15,0.85]","","",""
"sailing-trial","396","1533973","0.0-11.0-361.0","","","","","","false","","","","","","","","null","","605","","3","0","null","null","arrowup","[0.675,0.325,0.15,0.85]","","",""
"sailing-trial","397","1537132","0.0-11.0-362.0","","","","","","false","","","","","","","","585","","25","","2","0","arrowright","1","arrowleft","[0.675,0.325,0.15,0.85]","","",""
"sailing-trial","398","1540083","0.0-11.0-363.0","","","","","","false","","","","","","","","null","","888","","0","1","null","null","arrowup","[0.675,0.325,0.15,0.85]","","",""
"sailing-trial","399","1544103","0.0-11.0-364.0","","","","","","false","","","","","","","","367","","470","","3","1","arrowright","1","arrowright","[0.675,0.325,0.15,0.85]","","",""
"sailing-trial","400","1546453","0.0-11.0-365.0","","","","","","false","","","","","","","","null","","170","","0","1","null","null","arrowup","[0.675,0.325,0.15,0.85]","","",""
"sailing-trial","401","1549437","0.0-11.0-366.0","","","","","","false","","","","","","","","120","","62","","0","1","arrowleft","0","arrowleft","[0.85,0.15,0.325,0.675]","","",""
"sailing-trial","402","1551250","0.0-11.0-367.0","","","","","","false","","","","","","","","null","","39","","1","0","null","null","arrowup","[0.85,0.15,0.325,0.675]","","",""
"sailing-trial","403","1554902","0.0-11.0-368.0","","","","","","false","","","","","","","","289","","96","","1","1","arrowleft","0","arrowright","[0.85,0.15,0.325,0.675]","","",""
"sailing-trial","404","1557704","0.0-11.0-369.0","","","","","","false","","","","","","","","null","","720","","2","1","null","null","arrowup","[0.85,0.15,0.325,0.675]","","",""
"sailing-trial","405","1560683","0.0-11.0-370.0","","","","","","false","","","","","","","","317","","260","","1","0","arrowleft","0","arrowright","[0.85,0.15,0.325,0.675]","","",""
"sailing-trial","406","1563636","0.0-11.0-371.0","","","","","","false","","","","","","","","null","","615","","0","1","null","null","arrowup","[0.85,0.15,0.325,0.675]","","",""
"sailing-trial","407","1567276","0.0-11.0-372.0","","","","","","false","","","","","","","","308","","359","","2","0","arrowright","1","arrowleft","[0.85,0.15,0.325,0.675]","","",""
"sailing-trial","408","1570721","0.0-11.0-373.0","","","","","","false","","","","","","","","null","","1816","","2","1","null","null","arrowup","[0.85,0.15,0.325,0.675]","","",""
"sailing-trial","409","1573493","0.0-11.0-374.0","","","","","","false","","","","","","","","137","","156","","3","0","arrowright","1","arrowright","[0.85,0.15,0.325,0.675]","","",""
"sailing-trial","410","1575885","0.0-11.0-375.0","","","","","","false","","","","","","","","null","","1024","","2","0","null","null","arrowup","[0.85,0.15,0.325,0.675]","","",""
"sailing-trial","411","1580055","0.0-11.0-376.0","","","","","","false","","","","","","","","462","","518","","0","1","arrowleft","0","arrowleft","[0.85,0.15,0.325,0.675]","","",""
"sailing-trial","412","1582761","0.0-11.0-377.0","","","","","","false","","","","","","","","null","","741","","2","1","null","null","arrowup","[0.85,0.15,0.325,0.675]","","",""
"sailing-trial","413","1586694","0.0-11.0-378.0","","","","","","false","","","","","","","","10","","1397","","2","0","arrowright","1","arrowleft","[0.85,0.15,0.325,0.675]","","",""
"sailing-trial","414","1589440","0.0-11.0-379.0","","","","","","false","","","","","","","","null","","1100","","3","1","null","null","arrowup","[0.85,0.15,0.325,0.675]","","",""
"sailing-trial","415","1592143","0.0-11.0-380.0","","","","","","false","","","","","","","","230","","37","","0","0","arrowleft","0","arrowleft","[0.85,0.15,0.325,0.675]","","",""
"sailing-trial","416","1594223","0.0-11.0-381.0","","","","","","false","","","","","","","","null","","917","","2","0","null","null","arrowup","[0.85,0.15,0.325,0.675]","","",""
"sailing-trial","417","1597226","0.0-11.0-382.0","","","","","","false","","","","","","","","37","","257","","1","1","arrowleft","0","arrowright","[0.675,0.325,0.15,0.85]","","",""
"sailing-trial","418","1600359","0.0-11.0-383.0","","","","","","false","","","","","","","","null","","229","","3","1","null","null","arrowup","[0.675,0.325,0.15,0.85]","","",""
"sailing-trial","419","1604010","0.0-11.0-384.0","","","","","","false","","","","","","","","2","","172","","1","1","arrowleft","0","arrowright","[0.675,0.325,0.15,0.85]","","",""
"sailing-trial","420","1606032","0.0-11.0-385.0","","","","","","false","","","","","","","","null","","523","","1","0","null","null","arrowup","[0.675,0.325,0.15,0.85]","","",""
"sailing-trial","421","1610142","0.0-11.0-386.0","","","","","","false","","","","","","","","330","","214","","3","1","arrowright","1","arrowright","[0.675,0.325,0.15,0.85]","","",""
"sailing-trial","422","1613027","0.0-11.0-387.0","","","","","","false","","","","","","","","null","","636","","0","1","null","null","arrowup","[0.675,0.325,0.15,0.85]","","",""
"sailing-trial","423","1616922","0.0-11.0-388.0","","","","","","false","","","","","","","","891","","135","","3","1","arrowright","1","arrowright","[0.675,0.325,0.15,0.85]","","",""
"sailing-trial","424","1619043","0.0-11.0-389.0","","","","","","false","","","","","","","","null","","992","","3","0","null","null","arrowup","[0.675,0.325,0.15,0.85]","","",""
"sailing-trial","425","1621944","0.0-11.0-390.0","","","","","","false","","","","","","","","164","","23","","0","1","arrowleft","0","arrowleft","[0.675,0.325,0.15,0.85]","","",""
"sailing-trial","426","1624429","0.0-11.0-391.0","","","","","","false","","","","","","","","null","","252","","0","1","null","null","arrowup","[0.675,0.325,0.15,0.85]","","",""
"sailing-trial","427","1627182","0.0-11.0-392.0","","","","","","false","","","","","","","","434","","128","","1","0","arrowleft","0","arrowright","[0.675,0.325,0.15,0.85]","","",""
"sailing-trial","428","1628631","0.0-11.0-393.0","","","","","","false","","","","","","","","null","","202","","1","0","null","null","arrowup","[0.675,0.325,0.15,0.85]","","",""
"sailing-trial","429","1632013","0.0-11.0-394.0","","","","","","false","","","","","","","","119","","580","","0","1","arrowleft","0","arrowleft","[0.675,0.325,0.15,0.85]","","",""
"sailing-trial","430","1634038","0.0-11.0-395.0","","","","","","false","","","","","","","","null","","333","","0","0","null","null","arrowup","[0.675,0.325,0.15,0.85]","","",""
"sailing-trial","431","1637310","0.0-11.0-396.0","","","","","","false","","","","","","","","47","","398","","3","1","arrowright","1","arrowright","[0.675,0.325,0.15,0.85]","","",""
"sailing-trial","432","1639281","0.0-11.0-397.0","","","","","","false","","","","","","","","null","","805","","2","0","null","null","arrowup","[0.675,0.325,0.15,0.85]","","",""
"sailing-trial","433","1642415","0.0-11.0-398.0","","","","","","false","","","","","","","","86","","252","","1","0","arrowleft","0","arrowright","[0.675,0.325,0.15,0.85]","","",""
"sailing-trial","434","1645126","0.0-11.0-399.0","","","","","","false","","","","","","","","null","","1351","","2","0","null","null","arrowup","[0.675,0.325,0.15,0.85]","","",""
"instructions","435","1645162","0.0-12.0","","","","","","","","","","31","","","","","","","","","","","","","","","","[{""page_index"":0,""viewing_time"":31}]"
"survey-debrief","436","1717499","0.0-13.0","","","","","","","","","","72308","","","","","","","","","","","","","","{""difficulty"":""3"",""fun"":""4"",""clarity"":""5"",""strategy"":""I looked to see the gold"",""feedback"":""ITS epic I am good at it!""}","",""
