"trial_type","trial_index","time_elapsed","internal_node_id","value","metadata","success","timeout","failed_images","failed_audio","failed_video","browser_interaction","low_quality","rt","stimulus","response","button_pressed","island_rt","island_response","boat_rt","boat_response","boat","reward","island_key","island","boat_key","reward_probabilities","responses","num_errors","view_history"
"pavlovia","0","4","0.0-0.0","","","","","","","","","","","","","","","","","","","","","","","","","",""
"call-function","1","5","0.0-1.0","","{""task_version"":""sailing_part1_v1"",""task_condition"":""good"",""boats"":[""C"",""A"",""D"",""B""],""boats_demo"":[""H"",""E"",""F"",""G""],""islands"":[""A"",""B""],""subject_id"":""14935"",""age"":""14"",""gender"":""Female""}","","","","","","","","","","","","","","","","","","","","","","","",""
"preload","2","20844","0.0-2.0","","","true","false","[]","[]","[]","[{""event"":""fullscreenenter"",""trial"":3,""time"":26558}]","false","","","","","","","","","","","","","","","","",""
"fullscreen","3","27506","0.0-3.0","","","true","","","","","","","","","","","","","","","","","","","","","","",""
"audio-keyboard-response","4","117345","0.0-4.0-0.0","","","","","","","","","","89621.33333333334","audio/beep_loop.wav"," ","","","","","","","","","","","","","",""
"audio-test","5","130723","0.0-4.0-1.0","","","","","","","","","","null","audio/turtle.mp3","","3","","","","","","","","","","","","",""
"audio-test","6","133203","0.0-4.0-2.0","","","","","","","","","","null","audio/shark.mp3","","2","","","","","","","","","","","","",""
"sailing-instructions","7","166165","0.0-5.0-0.0-0.0","","","","","","","","","","","","","","null","null","null","null","null","null","","","","","","",""
"sailing-trial","8","171036","0.0-5.0-0.0-1.0-0.0","","","","false","","","","","","","","","","3749","","null","","null","null","arrowleft","0","null","null","","",""
"sailing-trial","9","173118","0.0-5.0-0.0-1.0-1.0","","","","false","","","","","","","","","","967.9000000059605","","null","","null","null","arrowright","1","null","null","","",""
"sailing-trial","10","176119","0.0-5.0-0.0-1.0-2.0","","","","false","","","","","","","","","","1889.699999988079","","null","","null","null","arrowright","1","null","null","","",""
"sailing-instructions","11","225358","0.0-5.0-0.0-2.0","","","","","","","","","","","","","","null","null","null","null","0","null","","","","","","",""
"sailing-trial","12","231133","0.0-5.0-0.0-3.0-0.0","","","","false","","","","","","","","","","null","","1820.7999999970198","","2","1","null","null","arrowleft","[1,1,1,1]","","",""
"sailing-trial","13","234516","0.0-5.0-0.0-3.0-1.0","","","","false","","","","","","","","","","null","","611.5999999940395","","3","1","null","null","arrowright","[1,1,1,1]","","",""
"sailing-trial","14","238440","0.0-5.0-0.0-3.0-2.0","","","","false","","","","","","","","","","null","","881.5","","3","0","null","null","arrowright","[0,0,0,0]","","",""
"sailing-instructions","15","249524","0.0-5.0-0.0-4.0","","","","","","","","","","","","","","null","null","null","null","null","null","","","","","","",""
"sailing-comprehension","16","278450","0.0-5.0-0.0-5.0","","","","","","","","","","24863.20000000298","","","","","","","","","","","","","","[""true"",""true"",""false"",""true""]","0",""
"sailing-instructions","17","340788","0.0-6.0-0.0-0.0","","","","","","","","","","","","","","null","null","null","null","null","null","","","","","","",""
"sailing-comprehension","18","372912","0.0-6.0-0.0-1.0","","","","","","","","","","29131.59999999404","","","","","","","","","","","","","","[""true"",""false"",""true""]","0",""
"sailing-instructions","19","388463","0.0-7.0-0.0-0.0","","","","","","","","","","","","","","null","null","null","null","null","null","","","","","","",""
"sailing-trial","20","394498","0.0-7.0-0.0-1.0-0.0","","","","false","","","","","","","","","","null","","3515.5","","0","0","null","null","arrowup","[0.2,0.8,0.2,0.8]","","",""
"sailing-trial","21","398207","0.0-7.0-0.0-1.0-1.0","","","","false","","","","","","","","","","null","","1756.3999999910593","","1","1","null","null","arrowup","[0.2,0.8,0.2,0.8]","","",""
"sailing-trial","22","400743","0.0-7.0-0.0-1.0-2.0","","","","false","","","","","","","","","","null","","1294.2999999970198","","2","0","null","null","arrowup","[0.2,0.8,0.2,0.8]","","",""
"sailing-trial","23","403539","0.0-7.0-0.0-1.0-3.0","","","","false","","","","","","","","","","null","","1514.7999999970198","","3","0","null","null","arrowup","[0.2,0.8,0.2,0.8]","","",""
"sailing-comprehension","24","410503","0.0-7.0-0.0-2.0","","","","","","","","","","4345.9000000059605","","","","","","","","","","","","","","[""false""]","0",""
"sailing-instructions","25","420579","0.0-8.0-0.0-0.0","","","","","","","","","","","","","","null","null","null","null","null","null","","","","","","",""
"sailing-comprehension","26","429758","0.0-8.0-0.0-1.0","","","","","","","","","","4136.600000008941","","","","","","","","","","","","","","[""true""]","0",""
"sailing-instructions","27","468336","0.0-9.0-0.0-0.0","","","","","","","","","","","","","","null","null","null","null","null","null","","","","","","",""
"sailing-trial","28","474955","0.0-9.0-0.0-1.0-0.0","","","","false","","","","","","","","","","1802.7999999970198","","1102","","2","0","arrowright","1","arrowleft","[0.2,0.8,0.2,0.8]","","",""
"sailing-trial","29","480636","0.0-9.0-0.0-1.0-1.0","","","","false","","","","","","","","","","1537.4000000059605","","806.1000000089407","","1","1","arrowleft","0","arrowright","[0.2,0.8,0.2,0.8]","","",""
"sailing-trial","30","484554","0.0-9.0-0.0-1.0-2.0","","","","false","","","","","","","","","","null","","2014","","0","0","null","null","arrowup","[0.2,0.8,0.2,0.8]","","",""
"sailing-trial","31","488862","0.0-9.0-0.0-1.0-3.0","","","","false","","","","","","","","","","957","","158.59999999403954","","3","0","arrowright","1","arrowright","[0.2,0.8,0.2,0.8]","","",""
"sailing-trial","32","492351","0.0-9.0-0.0-1.0-4.0","","","","false","","","","","","","","","","null","","1709.8999999910593","","3","1","null","null","arrowup","[0.2,0.8,0.2,0.8]","","",""
"sailing-trial","33","497235","0.0-9.0-0.0-1.0-5.0","","","","false","","","","","","","","","","856.2000000029802","","899.2999999970198","","1","1","arrowleft","0","arrowright","[0.2,0.8,0.2,0.8]","","",""
"sailing-instructions","34","525864","0.0-10.0","","","","","","","","","","","","","","null","null","null","null","null","null","","","","","","",""
"sailing-trial","35","530118","0.0-11.0-0.0","","","","false","","","","","","","","","","1354.2000000029802","","400.8999999910593","","0","0","arrowleft","0","arrowleft","[0.325,0.675,0.15,0.85]","","",""
"sailing-trial","36","534434","0.0-11.0-1.0","","","","false","","","","","","","","","","null","","2230.7999999970198","","0","1","null","null","arrowup","[0.325,0.675,0.15,0.85]","","",""
"sailing-trial","37","539139","0.0-11.0-2.0","","","","false","","","","","","","","","","767.2000000029802","","540.0999999940395","","2","0","arrowright","1","arrowleft","[0.325,0.675,0.15,0.85]","","",""
"sailing-trial","38","542850","0.0-11.0-3.0","","","","false","","","","","","","","","","null","","1398.2000000029802","","1","1","null","null","arrowup","[0.325,0.675,0.15,0.85]","","",""
"sailing-trial","39","546583","0.0-11.0-4.0","","","","false","","","","","","","","","","567.2000000029802","","809.8999999910593","","2","0","arrowright","1","arrowleft","[0.325,0.675,0.15,0.85]","","",""
"sailing-trial","40","550734","0.0-11.0-5.0","","","","false","","","","","","","","","","null","","2093.9000000059605","","3","1","null","null","arrowup","[0.325,0.675,0.15,0.85]","","",""
"sailing-trial","41","555115","0.0-11.0-6.0","","","","false","","","","","","","","","","783.7999999970198","","518.5999999940395","","0","1","arrowleft","0","arrowleft","[0.325,0.675,0.15,0.85]","","",""
"sailing-trial","42","558465","0.0-11.0-7.0","","","","false","","","","","","","","","","null","","1226.9000000059605","","3","1","null","null","arrowup","[0.325,0.675,0.15,0.85]","","",""
"sailing-trial","43","562430","0.0-11.0-8.0","","","","false","","","","","","","","","","469.59999999403954","","1009.7000000029802","","0","0","arrowleft","0","arrowleft","[0.325,0.675,0.15,0.85]","","",""
"sailing-trial","44","566297","0.0-11.0-9.0","","","","false","","","","","","","","","","null","","1748.7000000029802","","2","0","null","null","arrowup","[0.325,0.675,0.15,0.85]","","",""
"sailing-trial","45","570366","0.0-11.0-10.0","","","","false","","","","","","","","","","654.2999999970198","","479.5","","3","1","arrowright","1","arrowright","[0.325,0.675,0.15,0.85]","","",""
"sailing-trial","46","573447","0.0-11.0-11.0","","","","false","","","","","","","","","","null","","1261.7000000029802","","1","1","null","null","arrowup","[0.325,0.675,0.15,0.85]","","",""
"sailing-trial","47","577512","0.0-11.0-12.0","","","","false","","","","","","","","","","989.3999999910593","","548.6000000089407","","0","0","arrowleft","0","arrowleft","[0.325,0.675,0.15,0.85]","","",""
"sailing-trial","48","580880","0.0-11.0-13.0","","","","false","","","","","","","","","","null","","1381.1000000089407","","3","1","null","null","arrowup","[0.325,0.675,0.15,0.85]","","",""
"sailing-trial","49","584838","0.0-11.0-14.0","","","","false","","","","","","","","","","795.7000000029802","","391.29999999701977","","0","0","arrowleft","0","arrowleft","[0.325,0.675,0.15,0.85]","","",""
"sailing-trial","50","587779","0.0-11.0-15.0","","","","false","","","","","","","","","","null","","1057.0999999940395","","0","1","null","null","arrowup","[0.325,0.675,0.15,0.85]","","",""
"sailing-trial","51","590670","0.0-11.0-16.0","","","","false","","","","","","","","","","553.7000000029802","","78.79999999701977","","1","0","arrowleft","0","arrowright","[0.325,0.675,0.15,0.85]","","",""
"sailing-trial","52","593228","0.0-11.0-17.0","","","","false","","","","","","","","","","null","","1335.9000000059605","","0","0","null","null","arrowup","[0.325,0.675,0.15,0.85]","","",""
"sailing-trial","53","596929","0.0-11.0-18.0","","","","false","","","","","","","","","","559.7999999970198","","135","","3","1","arrowright","1","arrowright","[0.15,0.85,0.325,0.675]","","",""
"sailing-trial","54","598885","0.0-11.0-19.0","","","","false","","","","","","","","","","null","","927.5999999940395","","0","0","null","null","arrowup","[0.15,0.85,0.325,0.675]","","",""
"sailing-trial","55","602695","0.0-11.0-20.0","","","","false","","","","","","","","","","854.2999999970198","","165.29999999701977","","1","1","arrowleft","0","arrowright","[0.15,0.85,0.325,0.675]","","",""
"sailing-trial","56","605913","0.0-11.0-21.0","","","","false","","","","","","","","","","null","","1440","","1","1","null","null","arrowup","[0.15,0.85,0.325,0.675]","","",""
"sailing-trial","57","610111","0.0-11.0-22.0","","","","false","","","","","","","","","","474.59999999403954","","1040","","3","0","arrowright","1","arrowright","[0.15,0.85,0.325,0.675]","","",""
"sailing-trial","58","614496","0.0-11.0-23.0","","","","false","","","","","","","","","","null","","1378.7999999970198","","1","0","null","null","arrowup","[0.15,0.85,0.325,0.675]","","",""
"sailing-trial","59","617942","0.0-11.0-24.0","","","","false","","","","","","","","","","807.7000000029802","","157.6000000089407","","0","0","arrowleft","0","arrowleft","[0.15,0.85,0.325,0.675]","","",""
"sailing-trial","60","620845","0.0-11.0-25.0","","","","false","","","","","","","","","","null","","1045.5999999940395","","3","1","null","null","arrowup","[0.15,0.85,0.325,0.675]","","",""
"sailing-trial","61","624844","0.0-11.0-26.0","","","","false","","","","","","","","","","937","","249.59999999403954","","1","1","arrowleft","0","arrowright","[0.15,0.85,0.325,0.675]","","",""
"sailing-trial","62","626905","0.0-11.0-27.0","","","","false","","","","","","","","","","null","","995.2000000029802","","3","0","null","null","arrowup","[0.15,0.85,0.325,0.675]","","",""
"sailing-trial","63","630778","0.0-11.0-28.0","","","","false","","","","","","","","","","783.4000000059605","","130.79999999701977","","2","1","arrowright","1","arrowleft","[0.15,0.85,0.325,0.675]","","",""
"sailing-trial","64","633544","0.0-11.0-29.0","","","","false","","","","","","","","","","null","","889.1000000089407","","3","1","null","null","arrowup","[0.15,0.85,0.325,0.675]","","",""
"sailing-trial","65","638561","0.0-11.0-30.0","","","","false","","","","","","","","","","891.2000000029802","","110.59999999403954","","3","0","arrowright","1","arrowright","[0.15,0.85,0.325,0.675]","","",""
"sailing-trial","66","640948","0.0-11.0-31.0","","","","false","","","","","","","","","","null","","1025.8999999910593","","3","0","null","null","arrowup","[0.15,0.85,0.325,0.675]","","",""
"sailing-trial","67","644677","0.0-11.0-32.0","","","","false","","","","","","","","","","575.7000000029802","","424.1000000089407","","1","1","arrowleft","0","arrowright","[0.15,0.85,0.325,0.675]","","",""
"sailing-trial","68","648671","0.0-11.0-33.0","","","","false","","","","","","","","","","null","","1048.9000000059605","","0","0","null","null","arrowup","[0.15,0.85,0.325,0.675]","","",""
"sailing-trial","69","652677","0.0-11.0-34.0","","","","false","","","","","","","","","","512.5","","455.20000000298023","","2","1","arrowright","1","arrowleft","[0.15,0.85,0.325,0.675]","","",""
"sailing-trial","70","657577","0.0-11.0-35.0","","","","false","","","","","","","","","","null","","1898.5","","2","0","null","null","arrowup","[0.15,0.85,0.325,0.675]","","",""
"sailing-trial","71","661434","0.0-11.0-36.0","","","","false","","","","","","","","","","580.5","","185.3999999910593","","3","0","arrowright","1","arrowright","[0.15,0.85,0.325,0.675]","","",""
"sailing-trial","72","664388","0.0-11.0-37.0","","","","false","","","","","","","","","","null","","963.2000000029802","","0","0","null","null","arrowup","[0.15,0.85,0.325,0.675]","","",""
"sailing-trial","73","669142","0.0-11.0-38.0","","","","false","","","","","","","","","","1482.5999999940395","","400.3999999910593","","3","1","arrowright","1","arrowright","[0.15,0.85,0.325,0.675]","","",""
"sailing-trial","74","671410","0.0-11.0-39.0","","","","false","","","","","","","","","","null","","712.4000000059605","","2","0","null","null","arrowup","[0.15,0.85,0.325,0.675]","","",""
"sailing-trial","75","675541","0.0-11.0-40.0","","","","false","","","","","","","","","","792.6999999880791","","670.7999999970198","","3","1","arrowright","1","arrowright","[0.15,0.85,0.325,0.675]","","",""
"sailing-trial","76","678640","0.0-11.0-41.0","","","","false","","","","","","","","","","null","","1242.9000000059605","","3","0","null","null","arrowup","[0.15,0.85,0.325,0.675]","","",""
"sailing-trial","77","681908","0.0-11.0-42.0","","","","false","","","","","","","","","","444","","161.5","","0","1","arrowleft","0","arrowleft","[0.675,0.325,0.85,0.15]","","",""
"sailing-trial","78","684941","0.0-11.0-43.0","","","","false","","","","","","","","","","null","","921.4000000059605","","0","1","null","null","arrowup","[0.675,0.325,0.85,0.15]","","",""
"sailing-trial","79","688957","0.0-11.0-44.0","","","","false","","","","","","","","","","1223.9000000059605","","25.600000008940697","","2","1","arrowright","1","arrowleft","[0.675,0.325,0.85,0.15]","","",""
"sailing-trial","80","690886","0.0-11.0-45.0","","","","false","","","","","","","","","","null","","656.7999999970198","","1","0","null","null","arrowup","[0.675,0.325,0.85,0.15]","","",""
"sailing-trial","81","695512","0.0-11.0-46.0","","","","false","","","","","","","","","","778.5","","334.5","","1","0","arrowleft","0","arrowright","[0.675,0.325,0.85,0.15]","","",""
"sailing-trial","82","698173","0.0-11.0-47.0","","","","false","","","","","","","","","","null","","887.7000000029802","","2","1","null","null","arrowup","[0.675,0.325,0.85,0.15]","","",""
"sailing-trial","83","701107","0.0-11.0-48.0","","","","false","","","","","","","","","","180.59999999403954","","153.40000000596046","","2","1","arrowright","1","arrowleft","[0.675,0.325,0.85,0.15]","","",""
"sailing-trial","84","703525","0.0-11.0-49.0","","","","false","","","","","","","","","","null","","673","","0","1","null","null","arrowup","[0.675,0.325,0.85,0.15]","","",""
"sailing-trial","85","706890","0.0-11.0-50.0","","","","false","","","","","","","","","","418.8999999910593","","245.1000000089407","","0","1","arrowleft","0","arrowleft","[0.675,0.325,0.85,0.15]","","",""
"sailing-trial","86","709525","0.0-11.0-51.0","","","","false","","","","","","","","","","null","","853.6000000089407","","0","1","null","null","arrowup","[0.675,0.325,0.85,0.15]","","",""
"sailing-trial","87","712989","0.0-11.0-52.0","","","","false","","","","","","","","","","1090.300000011921","","338.59999999403954","","0","0","arrowleft","0","arrowleft","[0.675,0.325,0.85,0.15]","","",""
"sailing-trial","88","715290","0.0-11.0-53.0","","","","false","","","","","","","","","","null","","692.5999999940395","","0","1","null","null","arrowup","[0.675,0.325,0.85,0.15]","","",""
"sailing-trial","89","718673","0.0-11.0-54.0","","","","false","","","","","","","","","","569","","249.70000000298023","","2","1","arrowright","1","arrowleft","[0.675,0.325,0.85,0.15]","","",""
"sailing-trial","90","720988","0.0-11.0-55.0","","","","false","","","","","","","","","","null","","644.5","","1","1","null","null","arrowup","[0.675,0.325,0.85,0.15]","","",""
"sailing-trial","91","723528","0.0-11.0-56.0","","","","false","","","","","","","","","","413.20000000298023","","123.79999999701977","","1","0","arrowleft","0","arrowright","[0.675,0.325,0.85,0.15]","","",""
"sailing-trial","92","725890","0.0-11.0-57.0","","","","false","","","","","","","","","","null","","609.1999999880791","","1","1","null","null","arrowup","[0.675,0.325,0.85,0.15]","","",""
"sailing-trial","93","731138","0.0-11.0-58.0","","","","false","","","","","","","","","","1350.2000000029802","","583.5","","1","1","arrowleft","0","arrowright","[0.85,0.15,0.675,0.325]","","",""
"sailing-trial","94","733572","0.0-11.0-59.0","","","","false","","","","","","","","","","null","","714.8999999910593","","3","1","null","null","arrowup","[0.85,0.15,0.675,0.325]","","",""
"sailing-trial","95","737238","0.0-11.0-60.0","","","","false","","","","","","","","","","383.3999999910593","","128.8999999910593","","2","1","arrowright","1","arrowleft","[0.85,0.15,0.675,0.325]","","",""
"sailing-trial","96","739260","0.0-11.0-61.0","","","","false","","","","","","","","","","null","","925.6999999880791","","3","0","null","null","arrowup","[0.85,0.15,0.675,0.325]","","",""
"sailing-trial","97","742688","0.0-11.0-62.0","","","","false","","","","","","","","","","703.8999999910593","","200","","0","1","arrowleft","0","arrowleft","[0.85,0.15,0.675,0.325]","","",""
"sailing-trial","98","746021","0.0-11.0-63.0","","","","false","","","","","","","","","","null","","702.5","","2","1","null","null","arrowup","[0.85,0.15,0.675,0.325]","","",""
"sailing-trial","99","748822","0.0-11.0-64.0","","","","false","","","","","","","","","","529.7000000029802","","144.29999999701977","","3","0","arrowright","1","arrowright","[0.85,0.15,0.675,0.325]","","",""
"sailing-trial","100","751504","0.0-11.0-65.0","","","","false","","","","","","","","","","null","","798.7999999970198","","0","1","null","null","arrowup","[0.85,0.15,0.675,0.325]","","",""
"sailing-trial","101","754789","0.0-11.0-66.0","","","","false","","","","","","","","","","465","","555.4000000059605","","0","0","arrowleft","0","arrowleft","[0.85,0.15,0.675,0.325]","","",""
"sailing-trial","102","757553","0.0-11.0-67.0","","","","false","","","","","","","","","","null","","1027.7000000029802","","1","0","null","null","arrowup","[0.85,0.15,0.675,0.325]","","",""
"sailing-trial","103","761959","0.0-11.0-68.0","","","","false","","","","","","","","","","457.79999999701977","","75","","1","0","arrowleft","0","arrowright","[0.85,0.15,0.675,0.325]","","",""
"sailing-trial","104","764095","0.0-11.0-69.0","","","","false","","","","","","","","","","null","","960.2999999970198","","1","0","null","null","arrowup","[0.85,0.15,0.675,0.325]","","",""
"sailing-trial","105","767537","0.0-11.0-70.0","","","","false","","","","","","","","","","607.5","","232.40000000596046","","3","1","arrowright","1","arrowright","[0.85,0.15,0.675,0.325]","","",""
"sailing-trial","106","770470","0.0-11.0-71.0","","","","false","","","","","","","","","","null","","1141.3999999910593","","0","1","null","null","arrowup","[0.85,0.15,0.675,0.325]","","",""
"sailing-trial","107","774553","0.0-11.0-72.0","","","","false","","","","","","","","","","803.8000000119209","","456.80000001192093","","0","1","arrowleft","0","arrowleft","[0.85,0.15,0.675,0.325]","","",""
"sailing-trial","108","776805","0.0-11.0-73.0","","","","false","","","","","","","","","","null","","1153","","1","0","null","null","arrowup","[0.85,0.15,0.675,0.325]","","",""
"sailing-trial","109","780169","0.0-11.0-74.0","","","","false","","","","","","","","","","451.40000000596046","","219.6000000089407","","3","1","arrowright","1","arrowright","[0.675,0.325,0.85,0.15]","","",""
"sailing-trial","110","781935","0.0-11.0-75.0","","","","false","","","","","","","","","","null","","465.5","","0","0","null","null","arrowup","[0.675,0.325,0.85,0.15]","","",""
"sailing-trial","111","785586","0.0-11.0-76.0","","","","false","","","","","","","","","","542","","369.29999999701977","","0","1","arrowleft","0","arrowleft","[0.675,0.325,0.85,0.15]","","",""
"sailing-trial","112","787889","0.0-11.0-77.0","","","","false","","","","","","","","","","null","","507.6000000089407","","3","0","null","null","arrowup","[0.675,0.325,0.85,0.15]","","",""
"sailing-trial","113","792082","0.0-11.0-78.0","","","","false","","","","","","","","","","705.5","","197.3999999910593","","3","0","arrowright","1","arrowright","[0.675,0.325,0.85,0.15]","","",""
"sailing-trial","114","794402","0.0-11.0-79.0","","","","false","","","","","","","","","","null","","1019.6999999880791","","3","0","null","null","arrowup","[0.675,0.325,0.85,0.15]","","",""
"sailing-trial","115","797422","0.0-11.0-80.0","","","","false","","","","","","","","","","532.0999999940395","","384","","1","0","arrowleft","0","arrowright","[0.675,0.325,0.85,0.15]","","",""
"sailing-trial","116","800334","0.0-11.0-81.0","","","","false","","","","","","","","","","null","","959.9000000059605","","2","1","null","null","arrowup","[0.675,0.325,0.85,0.15]","","",""
"sailing-trial","117","803861","0.0-11.0-82.0","","","","false","","","","","","","","","","643.5","","81.40000000596046","","0","0","arrowleft","0","arrowleft","[0.675,0.325,0.85,0.15]","","",""
"sailing-trial","118","808350","0.0-11.0-83.0","","","","false","","","","","","","","","","null","","2745.9000000059605","","0","0","null","null","arrowup","[0.675,0.325,0.85,0.15]","","",""
"sailing-trial","119","811361","0.0-11.0-84.0","","","","false","","","","","","","","","","608.0999999940395","","173.1000000089407","","1","0","arrowleft","0","arrowright","[0.675,0.325,0.85,0.15]","","",""
"sailing-trial","120","814484","0.0-11.0-85.0","","","","false","","","","","","","","","","null","","1168","","0","1","null","null","arrowup","[0.675,0.325,0.85,0.15]","","",""
"sailing-trial","121","818217","0.0-11.0-86.0","","","","false","","","","","","","","","","550.2000000029802","","361.5","","2","1","arrowright","1","arrowleft","[0.675,0.325,0.85,0.15]","","",""
"sailing-trial","122","821784","0.0-11.0-87.0","","","","false","","","","","","","","","","null","","948.2000000029802","","2","1","null","null","arrowup","[0.675,0.325,0.85,0.15]","","",""
"sailing-trial","123","827079","0.0-11.0-88.0","","","","false","","","","","","","","","","1389.2000000029802","","79.5","","3","0","arrowright","1","arrowright","[0.675,0.325,0.85,0.15]","","",""
"sailing-trial","124","830750","0.0-11.0-89.0","","","","false","","","","","","","","","","null","","1820.4000000059605","","3","1","null","null","arrowup","[0.675,0.325,0.85,0.15]","","",""
"sailing-trial","125","835500","0.0-11.0-90.0","","","","false","","","","","","","","","","916","","501.70000000298023","","0","1","arrowleft","0","arrowleft","[0.675,0.325,0.85,0.15]","","",""
"sailing-trial","126","839099","0.0-11.0-91.0","","","","false","","","","","","","","","","null","","1806.0999999940395","","0","1","null","null","arrowup","[0.675,0.325,0.85,0.15]","","",""
"sailing-trial","127","842081","0.0-11.0-92.0","","","","false","","","","","","","","","","479.5","","131.90000000596046","","3","0","arrowright","1","arrowright","[0.675,0.325,0.85,0.15]","","",""
"sailing-trial","128","845415","0.0-11.0-93.0","","","","false","","","","","","","","","","null","","858.8000000119209","","2","1","null","null","arrowup","[0.675,0.325,0.85,0.15]","","",""
"sailing-trial","129","849799","0.0-11.0-94.0","","","","false","","","","","","","","","","1005.4000000059605","","528.0999999940395","","2","1","arrowright","1","arrowleft","[0.675,0.325,0.85,0.15]","","",""
"sailing-trial","130","851826","0.0-11.0-95.0","","","","false","","","","","","","","","","null","","777.6999999880791","","1","0","null","null","arrowup","[0.675,0.325,0.85,0.15]","","",""
"sailing-trial","131","856582","0.0-11.0-96.0","","","","false","","","","","","","","","","1580.699999988079","","49.79999999701977","","2","1","arrowright","1","arrowleft","[0.85,0.15,0.675,0.325]","","",""
"sailing-trial","132","859364","0.0-11.0-97.0","","","","false","","","","","","","","","","null","","824.5999999940395","","3","0","null","null","arrowup","[0.85,0.15,0.675,0.325]","","",""
"sailing-trial","133","862998","0.0-11.0-98.0","","","","false","","","","","","","","","","611.8999999910593","","257.79999999701977","","0","1","arrowleft","0","arrowleft","[0.85,0.15,0.675,0.325]","","",""
"sailing-trial","134","866248","0.0-11.0-99.0","","","","false","","","","","","","","","","null","","1039.8999999910593","","0","1","null","null","arrowup","[0.85,0.15,0.675,0.325]","","",""
"sailing-trial","135","869635","0.0-11.0-100.0","","","","false","","","","","","","","","","861.1999999880791","","287.8999999910593","","3","0","arrowright","1","arrowright","[0.85,0.15,0.675,0.325]","","",""
"sailing-trial","136","871628","0.0-11.0-101.0","","","","false","","","","","","","","","","null","","708.7000000029802","","3","0","null","null","arrowup","[0.85,0.15,0.675,0.325]","","",""
"sailing-trial","137","875147","0.0-11.0-102.0","","","","false","","","","","","","","","","499.29999999701977","","162.70000000298023","","0","1","arrowleft","0","arrowleft","[0.85,0.15,0.675,0.325]","","",""
"sailing-trial","138","877444","0.0-11.0-103.0","","","","false","","","","","","","","","","null","","938.8999999910593","","1","0","null","null","arrowup","[0.85,0.15,0.675,0.325]","","",""
"sailing-trial","139","880864","0.0-11.0-104.0","","","","false","","","","","","","","","","497.70000000298023","","148.79999999701977","","2","1","arrowright","1","arrowleft","[0.85,0.15,0.675,0.325]","","",""
"sailing-trial","140","883197","0.0-11.0-105.0","","","","false","","","","","","","","","","null","","501.29999999701977","","3","1","null","null","arrowup","[0.85,0.15,0.675,0.325]","","",""
"sailing-trial","141","887797","0.0-11.0-106.0","","","","false","","","","","","","","","","1173.5","","616.3000000119209","","2","1","arrowright","1","arrowleft","[0.85,0.15,0.675,0.325]","","",""
"sailing-trial","142","890613","0.0-11.0-107.0","","","","false","","","","","","","","","","null","","693.2000000029802","","1","1","null","null","arrowup","[0.85,0.15,0.675,0.325]","","",""
"sailing-trial","143","893658","0.0-11.0-108.0","","","","false","","","","","","","","","","390","","429.59999999403954","","1","0","arrowleft","0","arrowright","[0.85,0.15,0.675,0.325]","","",""
"sailing-trial","144","896646","0.0-11.0-109.0","","","","false","","","","","","","","","","null","","1246.6000000089407","","0","1","null","null","arrowup","[0.85,0.15,0.675,0.325]","","",""
"sailing-trial","145","900797","0.0-11.0-110.0","","","","false","","","","","","","","","","523.4000000059605","","368.5","","0","0","arrowleft","0","arrowleft","[0.85,0.15,0.675,0.325]","","",""
"sailing-trial","146","904180","0.0-11.0-111.0","","","","false","","","","","","","","","","null","","736","","0","1","null","null","arrowup","[0.85,0.15,0.675,0.325]","","",""
"sailing-trial","147","907297","0.0-11.0-112.0","","","","false","","","","","","","","","","770.4000000059605","","163.09999999403954","","3","0","arrowright","1","arrowright","[0.85,0.15,0.675,0.325]","","",""
"sailing-trial","148","909967","0.0-11.0-113.0","","","","false","","","","","","","","","","null","","754.1000000089407","","2","1","null","null","arrowup","[0.85,0.15,0.675,0.325]","","",""
"sailing-trial","149","913895","0.0-11.0-114.0","","","","false","","","","","","","","","","671.2000000029802","","426.1000000089407","","2","1","arrowright","1","arrowleft","[0.675,0.325,0.85,0.15]","","",""
"sailing-trial","150","917513","0.0-11.0-115.0","","","","false","","","","","","","","","","null","","649","","3","1","null","null","arrowup","[0.675,0.325,0.85,0.15]","","",""
"sailing-trial","151","921455","0.0-11.0-116.0","","","","false","","","","","","","","","","1174.7000000029802","","567.0999999940395","","0","0","arrowleft","0","arrowleft","[0.675,0.325,0.85,0.15]","","",""
"sailing-trial","152","925155","0.0-11.0-117.0","","","","false","","","","","","","","","","null","","855.2000000029802","","3","0","null","null","arrowup","[0.675,0.325,0.85,0.15]","","",""
"sailing-trial","153","928523","0.0-11.0-118.0","","","","false","","","","","","","","","","840.2999999970198","","283.30000001192093","","1","0","arrowleft","0","arrowright","[0.675,0.325,0.85,0.15]","","",""
"sailing-trial","154","932294","0.0-11.0-119.0","","","","false","","","","","","","","","","null","","1483.7999999970198","","1","1","null","null","arrowup","[0.675,0.325,0.85,0.15]","","",""
"sailing-trial","155","936344","0.0-11.0-120.0","","","","false","","","","","","","","","","544.4000000059605","","660.2999999970198","","0","1","arrowleft","0","arrowleft","[0.675,0.325,0.85,0.15]","","",""
"sailing-trial","156","940127","0.0-11.0-121.0","","","","false","","","","","","","","","","null","","805.7000000029802","","1","0","null","null","arrowup","[0.675,0.325,0.85,0.15]","","",""
"sailing-trial","157","944194","0.0-11.0-122.0","","","","false","","","","","","","","","","746.4000000059605","","413.40000000596046","","0","1","arrowleft","0","arrowleft","[0.675,0.325,0.85,0.15]","","",""
"sailing-trial","158","947239","0.0-11.0-123.0","","","","false","","","","","","","","","","null","","936.2000000029802","","3","0","null","null","arrowup","[0.675,0.325,0.85,0.15]","","",""
"sailing-trial","159","951026","0.0-11.0-124.0","","","","false","","","","","","","","","","562","","367","","2","1","arrowright","1","arrowleft","[0.675,0.325,0.85,0.15]","","",""
"sailing-trial","160","953551","0.0-11.0-125.0","","","","false","","","","","","","","","","null","","1287.3999999910593","","3","0","null","null","arrowup","[0.675,0.325,0.85,0.15]","","",""
"sailing-trial","161","957159","0.0-11.0-126.0","","","","false","","","","","","","","","","430.80000001192093","","351.6000000089407","","0","1","arrowleft","0","arrowleft","[0.675,0.325,0.85,0.15]","","",""
"sailing-trial","162","960159","0.0-11.0-127.0","","","","false","","","","","","","","","","null","","960.7000000029802","","3","1","null","null","arrowup","[0.675,0.325,0.85,0.15]","","",""
"sailing-trial","163","963642","0.0-11.0-128.0","","","","false","","","","","","","","","","470","","164.5","","0","1","arrowleft","0","arrowleft","[0.675,0.325,0.85,0.15]","","",""
"sailing-trial","164","966309","0.0-11.0-129.0","","","","false","","","","","","","","","","null","","905.6000000089407","","0","1","null","null","arrowup","[0.675,0.325,0.85,0.15]","","",""
"sailing-trial","165","969430","0.0-11.0-130.0","","","","false","","","","","","","","","","759.7999999970198","","202.3999999910593","","0","0","arrowleft","0","arrowleft","[0.675,0.325,0.85,0.15]","","",""
"sailing-trial","166","971558","0.0-11.0-131.0","","","","false","","","","","","","","","","null","","951.7000000029802","","3","0","null","null","arrowup","[0.675,0.325,0.85,0.15]","","",""
"sailing-trial","167","974843","0.0-11.0-132.0","","","","false","","","","","","","","","","440.80000001192093","","126.79999999701977","","2","1","arrowright","1","arrowleft","[0.85,0.15,0.675,0.325]","","",""
"sailing-trial","168","976689","0.0-11.0-133.0","","","","false","","","","","","","","","","null","","726.7999999970198","","0","0","null","null","arrowup","[0.85,0.15,0.675,0.325]","","",""
"sailing-trial","169","979532","0.0-11.0-134.0","","","","false","","","","","","","","","","483.29999999701977","","233.40000000596046","","1","0","arrowleft","0","arrowright","[0.85,0.15,0.675,0.325]","","",""
"sailing-trial","170","981959","0.0-11.0-135.0","","","","false","","","","","","","","","","null","","874.1000000089407","","2","1","null","null","arrowup","[0.85,0.15,0.675,0.325]","","",""
"sailing-trial","171","985230","0.0-11.0-136.0","","","","false","","","","","","","","","","322.80000001192093","","160.29999999701977","","0","1","arrowleft","0","arrowleft","[0.85,0.15,0.675,0.325]","","",""
"sailing-trial","172","987658","0.0-11.0-137.0","","","","false","","","","","","","","","","null","","889","","0","1","null","null","arrowup","[0.85,0.15,0.675,0.325]","","",""
"sailing-trial","173","991123","0.0-11.0-138.0","","","","false","","","","","","","","","","1289.699999988079","","99.40000000596046","","0","0","arrowleft","0","arrowleft","[0.85,0.15,0.675,0.325]","","",""
"sailing-trial","174","993288","0.0-11.0-139.0","","","","false","","","","","","","","","","null","","875.7999999970198","","3","0","null","null","arrowup","[0.85,0.15,0.675,0.325]","","",""
"sailing-trial","175","997006","0.0-11.0-140.0","","","","false","","","","","","","","","","335.20000000298023","","159","","0","0","arrowleft","0","arrowleft","[0.85,0.15,0.675,0.325]","","",""
"sailing-trial","176","998860","0.0-11.0-141.0","","","","false","","","","","","","","","","null","","675.2999999970198","","1","0","null","null","arrowup","[0.85,0.15,0.675,0.325]","","",""
"sailing-trial","177","1002255","0.0-11.0-142.0","","","","false","","","","","","","","","","933.5999999940395","","105.29999999701977","","2","0","arrowright","1","arrowleft","[0.85,0.15,0.675,0.325]","","",""
"sailing-trial","178","1005496","0.0-11.0-143.0","","","","false","","","","","","","","","","null","","1030","","1","0","null","null","arrowup","[0.85,0.15,0.675,0.325]","","",""
"sailing-trial","179","1008381","0.0-11.0-144.0","","","","false","","","","","","","","","","470.79999999701977","","212.09999999403954","","3","0","arrowright","1","arrowright","[0.85,0.15,0.675,0.325]","","",""
"sailing-trial","180","1011517","0.0-11.0-145.0","","","","false","","","","","","","","","","null","","1318.1000000089407","","3","0","null","null","arrowup","[0.85,0.15,0.675,0.325]","","",""
"sailing-trial","181","1015790","0.0-11.0-146.0","","","","false","","","","","","","","","","571","","19.100000008940697","","0","1","arrowleft","0","arrowleft","[0.85,0.15,0.675,0.325]","","",""
"sailing-trial","182","1018690","0.0-11.0-147.0","","","","false","","","","","","","","","","null","","857.1000000089407","","3","1","null","null","arrowup","[0.85,0.15,0.675,0.325]","","",""
"sailing-trial","183","1021771","0.0-11.0-148.0","","","","false","","","","","","","","","","358.19999998807907","","109.8999999910593","","2","1","arrowright","1","arrowleft","[0.85,0.15,0.675,0.325]","","",""
"sailing-trial","184","1023772","0.0-11.0-149.0","","","","false","","","","","","","","","","null","","776.2000000029802","","1","0","null","null","arrowup","[0.85,0.15,0.675,0.325]","","",""
"sailing-trial","185","1026586","0.0-11.0-150.0","","","","false","","","","","","","","","","567.7000000029802","","11.300000011920929","","1","0","arrowleft","0","arrowright","[0.85,0.15,0.675,0.325]","","",""
"sailing-trial","186","1028456","0.0-11.0-151.0","","","","false","","","","","","","","","","null","","869.4000000059605","","2","0","null","null","arrowup","[0.85,0.15,0.675,0.325]","","",""
"sailing-trial","187","1031119","0.0-11.0-152.0","","","","false","","","","","","","","","","534.7999999970198","","15.699999988079071","","2","0","arrowright","1","arrowleft","[0.325,0.675,0.15,0.85]","","",""
"sailing-trial","188","1034968","0.0-11.0-153.0","","","","false","","","","","","","","","","null","","1062.7000000029802","","2","0","null","null","arrowup","[0.325,0.675,0.15,0.85]","","",""
"sailing-trial","189","1038055","0.0-11.0-154.0","","","","false","","","","","","","","","","464.69999998807907","","14.399999991059303","","0","1","arrowleft","0","arrowleft","[0.325,0.675,0.15,0.85]","","",""
"sailing-trial","190","1040606","0.0-11.0-155.0","","","","false","","","","","","","","","","null","","876.2000000029802","","0","1","null","null","arrowup","[0.325,0.675,0.15,0.85]","","",""
"sailing-trial","191","1044071","0.0-11.0-156.0","","","","false","","","","","","","","","","415.3999999910593","","242.90000000596046","","2","1","arrowright","1","arrowleft","[0.325,0.675,0.15,0.85]","","",""
"sailing-trial","192","1046129","0.0-11.0-157.0","","","","false","","","","","","","","","","null","","869.3000000119209","","1","0","null","null","arrowup","[0.325,0.675,0.15,0.85]","","",""
"sailing-trial","193","1050282","0.0-11.0-158.0","","","","false","","","","","","","","","","582.5","","1048.0999999940395","","2","0","arrowright","1","arrowleft","[0.325,0.675,0.15,0.85]","","",""
"sailing-trial","194","1052398","0.0-11.0-159.0","","","","false","","","","","","","","","","null","","816.5999999940395","","0","0","null","null","arrowup","[0.325,0.675,0.15,0.85]","","",""
"sailing-trial","195","1056592","0.0-11.0-160.0","","","","false","","","","","","","","","","581.5999999940395","","788.9000000059605","","0","1","arrowleft","0","arrowleft","[0.325,0.675,0.15,0.85]","","",""
"sailing-trial","196","1058703","0.0-11.0-161.0","","","","false","","","","","","","","","","null","","814.0999999940395","","1","0","null","null","arrowup","[0.325,0.675,0.15,0.85]","","",""
"sailing-trial","197","1063571","0.0-11.0-162.0","","","","false","","","","","","","","","","709.5","","153.29999999701977","","2","0","arrowright","1","arrowleft","[0.325,0.675,0.15,0.85]","","",""
"sailing-trial","198","1066490","0.0-11.0-163.0","","","","false","","","","","","","","","","null","","1303.2000000029802","","0","0","null","null","arrowup","[0.325,0.675,0.15,0.85]","","",""
"sailing-trial","199","1069553","0.0-11.0-164.0","","","","false","","","","","","","","","","447","","357.40000000596046","","2","0","arrowright","1","arrowleft","[0.325,0.675,0.15,0.85]","","",""
"sailing-trial","200","1072187","0.0-11.0-165.0","","","","false","","","","","","","","","","null","","924","","3","1","null","null","arrowup","[0.325,0.675,0.15,0.85]","","",""
"sailing-trial","201","1076438","0.0-11.0-166.0","","","","false","","","","","","","","","","921","","199.40000000596046","","3","1","arrowright","1","arrowright","[0.325,0.675,0.15,0.85]","","",""
"sailing-trial","202","1078614","0.0-11.0-167.0","","","","false","","","","","","","","","","null","","892.2000000029802","","2","0","null","null","arrowup","[0.325,0.675,0.15,0.85]","","",""
"sailing-trial","203","1081820","0.0-11.0-168.0","","","","false","","","","","","","","","","291.5","","184.20000000298023","","1","1","arrowleft","0","arrowright","[0.325,0.675,0.15,0.85]","","",""
"sailing-trial","204","1084702","0.0-11.0-169.0","","","","false","","","","","","","","","","null","","1109.1000000089407","","1","1","null","null","arrowup","[0.325,0.675,0.15,0.85]","","",""
"sailing-trial","205","1087602","0.0-11.0-170.0","","","","false","","","","","","","","","","439.80000001192093","","218.8999999910593","","1","0","arrowleft","0","arrowright","[0.325,0.675,0.15,0.85]","","",""
"sailing-trial","206","1090252","0.0-11.0-171.0","","","","false","","","","","","","","","","null","","891.7999999970198","","1","1","null","null","arrowup","[0.325,0.675,0.15,0.85]","","",""
"sailing-trial","207","1094338","0.0-11.0-172.0","","","","false","","","","","","","","","","1018.7000000029802","","183.69999998807907","","1","0","arrowleft","0","arrowright","[0.325,0.675,0.15,0.85]","","",""
"sailing-trial","208","1096753","0.0-11.0-173.0","","","","false","","","","","","","","","","null","","849.9000000059605","","1","1","null","null","arrowup","[0.325,0.675,0.15,0.85]","","",""
"sailing-trial","209","1099868","0.0-11.0-174.0","","","","false","","","","","","","","","","424.6000000089407","","40.400000005960464","","2","1","arrowright","1","arrowleft","[0.15,0.85,0.325,0.675]","","",""
"sailing-trial","210","1102010","0.0-11.0-175.0","","","","false","","","","","","","","","","null","","770.9000000059605","","1","0","null","null","arrowup","[0.15,0.85,0.325,0.675]","","",""
"sailing-trial","211","1105902","0.0-11.0-176.0","","","","false","","","","","","","","","","458.1000000089407","","564.6000000089407","","3","1","arrowright","1","arrowright","[0.15,0.85,0.325,0.675]","","",""
"sailing-trial","212","1109685","0.0-11.0-177.0","","","","false","","","","","","","","","","null","","969.1999999880791","","0","1","null","null","arrowup","[0.15,0.85,0.325,0.675]","","",""
"sailing-trial","213","1113165","0.0-11.0-178.0","","","","false","","","","","","","","","","685.3999999910593","","348.90000000596046","","1","0","arrowleft","0","arrowright","[0.15,0.85,0.325,0.675]","","",""
"sailing-trial","214","1116317","0.0-11.0-179.0","","","","false","","","","","","","","","","null","","839.7999999970198","","1","1","null","null","arrowup","[0.15,0.85,0.325,0.675]","","",""
"sailing-trial","215","1119678","0.0-11.0-180.0","","","","false","","","","","","","","","","648.5999999940395","","402.79999999701977","","2","0","arrowright","1","arrowleft","[0.15,0.85,0.325,0.675]","","",""
"sailing-trial","216","1122867","0.0-11.0-181.0","","","","false","","","","","","","","","","null","","742.6000000089407","","3","1","null","null","arrowup","[0.15,0.85,0.325,0.675]","","",""
"sailing-trial","217","1126450","0.0-11.0-182.0","","","","false","","","","","","","","","","513.8999999910593","","251.20000000298023","","3","1","arrowright","1","arrowright","[0.15,0.85,0.325,0.675]","","",""
"sailing-trial","218","1130782","0.0-11.0-183.0","","","","false","","","","","","","","","","null","","1503.2999999970198","","0","0","null","null","arrowup","[0.15,0.85,0.325,0.675]","","",""
"sailing-trial","219","1137983","0.0-11.0-184.0","","","","false","","","","","","","","","","4165.20000000298","","217.5","","2","1","arrowright","1","arrowleft","[0.15,0.85,0.325,0.675]","","",""
"sailing-trial","220","1140719","0.0-11.0-185.0","","","","false","","","","","","","","","","null","","814.7999999970198","","2","0","null","null","arrowup","[0.15,0.85,0.325,0.675]","","",""
"sailing-trial","221","1145515","0.0-11.0-186.0","","","","false","","","","","","","","","","1221.7000000029802","","649.5","","0","0","arrowleft","0","arrowleft","[0.15,0.85,0.325,0.675]","","",""
"sailing-trial","222","1150582","0.0-11.0-187.0","","","","false","","","","","","","","","","null","","2053.4000000059605","","2","0","null","null","arrowup","[0.15,0.85,0.325,0.675]","","",""
"sailing-trial","223","1158649","0.0-11.0-188.0","","","","false","","","","","","","","","","2058.4000000059605","","2571.7000000029802","","3","1","arrowright","1","arrowright","[0.15,0.85,0.325,0.675]","","",""
"sailing-trial","224","1163631","0.0-11.0-189.0","","","","false","","","","","","","","","","null","","1967.5","","2","0","null","null","arrowup","[0.15,0.85,0.325,0.675]","","",""
"sailing-trial","225","1170563","0.0-11.0-190.0","","","","false","","","","","","","","","","3386.7999999970198","","700.5","","3","0","arrowright","1","arrowright","[0.675,0.325,0.85,0.15]","","",""
"sailing-trial","226","1174285","0.0-11.0-191.0","","","","false","","","","","","","","","","null","","1316.6000000089407","","1","0","null","null","arrowup","[0.675,0.325,0.85,0.15]","","",""
"sailing-trial","227","1178148","0.0-11.0-192.0","","","","false","","","","","","","","","","595.3000000119209","","190.79999999701977","","2","1","arrowright","1","arrowleft","[0.675,0.325,0.85,0.15]","","",""
"sailing-trial","228","1181664","0.0-11.0-193.0","","","","false","","","","","","","","","","null","","1226.8999999910593","","1","1","null","null","arrowup","[0.675,0.325,0.85,0.15]","","",""
"sailing-trial","229","1185681","0.0-11.0-194.0","","","","false","","","","","","","","","","1057.9000000059605","","84.79999999701977","","0","1","arrowleft","0","arrowleft","[0.675,0.325,0.85,0.15]","","",""
"sailing-trial","230","1188681","0.0-11.0-195.0","","","","false","","","","","","","","","","null","","1388.5","","0","1","null","null","arrowup","[0.675,0.325,0.85,0.15]","","",""
"sailing-trial","231","1193230","0.0-11.0-196.0","","","","false","","","","","","","","","","1279.2000000029802","","517.2000000029802","","3","1","arrowright","1","arrowright","[0.675,0.325,0.85,0.15]","","",""
"sailing-trial","232","1196429","0.0-11.0-197.0","","","","false","","","","","","","","","","null","","1857","","3","0","null","null","arrowup","[0.675,0.325,0.85,0.15]","","",""
"sailing-trial","233","1200862","0.0-11.0-198.0","","","","false","","","","","","","","","","843.1000000089407","","360.70000000298023","","2","1","arrowright","1","arrowleft","[0.675,0.325,0.85,0.15]","","",""
"sailing-trial","234","1204662","0.0-11.0-199.0","","","","false","","","","","","","","","","null","","1260.5","","0","1","null","null","arrowup","[0.675,0.325,0.85,0.15]","","",""
"sailing-trial","235","1211572","0.0-11.0-200.0","","","","false","","","","","","","","","","2813","","1629.0999999940395","","0","0","arrowleft","0","arrowleft","[0.675,0.325,0.85,0.15]","","",""
"sailing-trial","236","1214845","0.0-11.0-201.0","","","","false","","","","","","","","","","null","","1278.0999999940395","","1","1","null","null","arrowup","[0.675,0.325,0.85,0.15]","","",""
"sailing-trial","237","1218845","0.0-11.0-202.0","","","","false","","","","","","","","","","579.3999999910593","","332.09999999403954","","1","1","arrowleft","0","arrowright","[0.675,0.325,0.85,0.15]","","",""
"sailing-trial","238","1221632","0.0-11.0-203.0","","","","false","","","","","","","","","","null","","1149.0999999940395","","1","0","null","null","arrowup","[0.675,0.325,0.85,0.15]","","",""
"sailing-trial","239","1229396","0.0-11.0-204.0","","","","false","","","","","","","","","","1099.7000000029802","","109.8999999910593","","2","1","arrowright","1","arrowleft","[0.675,0.325,0.85,0.15]","","",""
"sailing-trial","240","1235960","0.0-11.0-205.0","","","","false","","","","","","","","","","null","","5246.20000000298","","3","0","null","null","arrowup","[0.675,0.325,0.85,0.15]","","",""
"sailing-trial","241","1239843","0.0-11.0-206.0","","","","false","","","","","","","","","","1253.2999999970198","","224.09999999403954","","1","0","arrowleft","0","arrowright","[0.675,0.325,0.85,0.15]","","",""
"sailing-trial","242","1242810","0.0-11.0-207.0","","","","false","","","","","","","","","","null","","1208.4000000059605","","2","1","null","null","arrowup","[0.675,0.325,0.85,0.15]","","",""
"sailing-trial","243","1245555","0.0-11.0-208.0","","","","false","","","","","","","","","","498.5","","56.5","","3","0","arrowright","1","arrowright","[0.675,0.325,0.85,0.15]","","",""
"sailing-trial","244","1247807","0.0-11.0-209.0","","","","false","","","","","","","","","","null","","965.1999999880791","","1","0","null","null","arrowup","[0.675,0.325,0.85,0.15]","","",""
"sailing-trial","245","1250342","0.0-11.0-210.0","","","","false","","","","","","","","","","436.29999999701977","","48.599999994039536","","0","0","arrowleft","0","arrowleft","[0.85,0.15,0.675,0.325]","","",""
"sailing-trial","246","1252012","0.0-11.0-211.0","","","","false","","","","","","","","","","null","","642.2999999970198","","0","0","null","null","arrowup","[0.85,0.15,0.675,0.325]","","",""
"sailing-trial","247","1255744","0.0-11.0-212.0","","","","false","","","","","","","","","","988.6999999880791","","92","","1","0","arrowleft","0","arrowright","[0.85,0.15,0.675,0.325]","","",""
"sailing-trial","248","1257555","0.0-11.0-213.0","","","","false","","","","","","","","","","null","","752.7000000029802","","2","0","null","null","arrowup","[0.85,0.15,0.675,0.325]","","",""
"sailing-trial","249","1260477","0.0-11.0-214.0","","","","false","","","","","","","","","","555.0999999940395","","220.70000000298023","","3","0","arrowright","1","arrowright","[0.85,0.15,0.675,0.325]","","",""
"sailing-trial","250","1263376","0.0-11.0-215.0","","","","false","","","","","","","","","","null","","980.5","","2","1","null","null","arrowup","[0.85,0.15,0.675,0.325]","","",""
"sailing-trial","251","1267777","0.0-11.0-216.0","","","","false","","","","","","","","","","960.2999999970198","","521","","0","1","arrowleft","0","arrowleft","[0.85,0.15,0.675,0.325]","","",""
"sailing-trial","252","1270475","0.0-11.0-217.0","","","","false","","","","","","","","","","null","","875.5","","2","1","null","null","arrowup","[0.85,0.15,0.675,0.325]","","",""
"sailing-trial","253","1274525","0.0-11.0-218.0","","","","false","","","","","","","","","","1051.8999999910593","","117.90000000596046","","0","1","arrowleft","0","arrowleft","[0.85,0.15,0.675,0.325]","","",""
"sailing-trial","254","1277892","0.0-11.0-219.0","","","","false","","","","","","","","","","null","","1225.5","","0","1","null","null","arrowup","[0.85,0.15,0.675,0.325]","","",""
"sailing-trial","255","1281442","0.0-11.0-220.0","","","","false","","","","","","","","","","556.1000000089407","","105.59999999403954","","2","1","arrowright","1","arrowleft","[0.85,0.15,0.675,0.325]","","",""
"sailing-trial","256","1284112","0.0-11.0-221.0","","","","false","","","","","","","","","","null","","799.5","","2","1","null","null","arrowup","[0.85,0.15,0.675,0.325]","","",""
"sailing-trial","257","1288608","0.0-11.0-222.0","","","","false","","","","","","","","","","601.6000000089407","","721.3999999910593","","0","1","arrowleft","0","arrowleft","[0.85,0.15,0.675,0.325]","","",""
"sailing-trial","258","1291080","0.0-11.0-223.0","","","","false","","","","","","","","","","null","","828","","2","0","null","null","arrowup","[0.85,0.15,0.675,0.325]","","",""
"sailing-trial","259","1294039","0.0-11.0-224.0","","","","false","","","","","","","","","","553.0999999940395","","206.40000000596046","","2","0","arrowright","1","arrowleft","[0.85,0.15,0.675,0.325]","","",""
"sailing-trial","260","1296645","0.0-11.0-225.0","","","","false","","","","","","","","","","null","","990.5","","2","1","null","null","arrowup","[0.85,0.15,0.675,0.325]","","",""
"sailing-trial","261","1300361","0.0-11.0-226.0","","","","false","","","","","","","","","","559.5","","113.79999999701977","","2","1","arrowright","1","arrowleft","[0.675,0.325,0.85,0.15]","","",""
"sailing-trial","262","1302274","0.0-11.0-227.0","","","","false","","","","","","","","","","null","","733.3999999910593","","3","0","null","null","arrowup","[0.675,0.325,0.85,0.15]","","",""
"sailing-trial","263","1306074","0.0-11.0-228.0","","","","false","","","","","","","","","","644","","150.3999999910593","","0","1","arrowleft","0","arrowleft","[0.675,0.325,0.85,0.15]","","",""
"sailing-trial","264","1308456","0.0-11.0-229.0","","","","false","","","","","","","","","","null","","1124.4000000059605","","2","0","null","null","arrowup","[0.675,0.325,0.85,0.15]","","",""
"sailing-trial","265","1311993","0.0-11.0-230.0","","","","false","","","","","","","","","","883.5","","140.59999999403954","","0","0","arrowleft","0","arrowleft","[0.675,0.325,0.85,0.15]","","",""
"sailing-trial","266","1314540","0.0-11.0-231.0","","","","false","","","","","","","","","","null","","750.7999999970198","","1","1","null","null","arrowup","[0.675,0.325,0.85,0.15]","","",""
"sailing-trial","267","1318190","0.0-11.0-232.0","","","","false","","","","","","","","","","584.1000000089407","","219.59999999403954","","0","1","arrowleft","0","arrowleft","[0.675,0.325,0.85,0.15]","","",""
"sailing-trial","268","1320841","0.0-11.0-233.0","","","","false","","","","","","","","","","null","","696.7999999970198","","2","1","null","null","arrowup","[0.675,0.325,0.85,0.15]","","",""
"sailing-trial","269","1324489","0.0-11.0-234.0","","","","false","","","","","","","","","","362.20000000298023","","132.79999999701977","","0","1","arrowleft","0","arrowleft","[0.675,0.325,0.85,0.15]","","",""
"sailing-trial","270","1326682","0.0-11.0-235.0","","","","false","","","","","","","","","","null","","924.1000000089407","","1","0","null","null","arrowup","[0.675,0.325,0.85,0.15]","","",""
"sailing-trial","271","1329972","0.0-11.0-236.0","","","","false","","","","","","","","","","398.70000000298023","","365.19999998807907","","0","1","arrowleft","0","arrowleft","[0.675,0.325,0.85,0.15]","","",""
"sailing-trial","272","1332048","0.0-11.0-237.0","","","","false","","","","","","","","","","null","","743.1999999880791","","3","0","null","null","arrowup","[0.675,0.325,0.85,0.15]","","",""
"sailing-trial","273","1335539","0.0-11.0-238.0","","","","false","","","","","","","","","","557.6000000089407","","218.29999999701977","","2","1","arrowright","1","arrowleft","[0.675,0.325,0.85,0.15]","","",""
"sailing-trial","274","1337263","0.0-11.0-239.0","","","","false","","","","","","","","","","null","","705.3000000119209","","1","0","null","null","arrowup","[0.675,0.325,0.85,0.15]","","",""
"sailing-trial","275","1340958","0.0-11.0-240.0","","","","false","","","","","","","","","","447.29999999701977","","382.1000000089407","","2","1","arrowright","1","arrowleft","[0.675,0.325,0.85,0.15]","","",""
"sailing-trial","276","1343347","0.0-11.0-241.0","","","","false","","","","","","","","","","null","","853","","3","0","null","null","arrowup","[0.675,0.325,0.85,0.15]","","",""
"sailing-trial","277","1346571","0.0-11.0-242.0","","","","false","","","","","","","","","","479.40000000596046","","43.5","","2","1","arrowright","1","arrowleft","[0.675,0.325,0.85,0.15]","","",""
"sailing-trial","278","1348975","0.0-11.0-243.0","","","","false","","","","","","","","","","null","","762.5","","1","0","null","null","arrowup","[0.675,0.325,0.85,0.15]","","",""
"sailing-trial","279","1352040","0.0-11.0-244.0","","","","false","","","","","","","","","","883.8999999910593","","10.299999997019768","","2","0","arrowright","1","arrowleft","[0.325,0.675,0.15,0.85]","","",""
"sailing-trial","280","1354494","0.0-11.0-245.0","","","","false","","","","","","","","","","null","","1186","","2","0","null","null","arrowup","[0.325,0.675,0.15,0.85]","","",""
"sailing-trial","281","1357921","0.0-11.0-246.0","","","","false","","","","","","","","","","465.79999999701977","","164.69999998807907","","3","1","arrowright","1","arrowright","[0.325,0.675,0.15,0.85]","","",""
"sailing-trial","282","1359570","0.0-11.0-247.0","","","","false","","","","","","","","","","null","","463","","0","0","null","null","arrowup","[0.325,0.675,0.15,0.85]","","",""
"sailing-trial","283","1363421","0.0-11.0-248.0","","","","false","","","","","","","","","","813.5","","181.09999999403954","","0","1","arrowleft","0","arrowleft","[0.325,0.675,0.15,0.85]","","",""
"sailing-trial","284","1366021","0.0-11.0-249.0","","","","false","","","","","","","","","","null","","695.4000000059605","","1","1","null","null","arrowup","[0.325,0.675,0.15,0.85]","","",""
"sailing-trial","285","1369757","0.0-11.0-250.0","","","","false","","","","","","","","","","1251.199999988079","","77.5","","1","0","arrowleft","0","arrowright","[0.325,0.675,0.15,0.85]","","",""
"sailing-trial","286","1372520","0.0-11.0-251.0","","","","false","","","","","","","","","","null","","997","","3","1","null","null","arrowup","[0.325,0.675,0.15,0.85]","","",""
"sailing-trial","287","1376053","0.0-11.0-252.0","","","","false","","","","","","","","","","647","","33.80000001192093","","0","1","arrowleft","0","arrowleft","[0.325,0.675,0.15,0.85]","","",""
"sailing-trial","288","1377886","0.0-11.0-253.0","","","","false","","","","","","","","","","null","","672.1999999880791","","1","0","null","null","arrowup","[0.325,0.675,0.15,0.85]","","",""
"sailing-trial","289","1382653","0.0-11.0-254.0","","","","false","","","","","","","","","","659.2000000029802","","32.80000001192093","","3","1","arrowright","1","arrowright","[0.325,0.675,0.15,0.85]","","",""
"sailing-trial","290","1385496","0.0-11.0-255.0","","","","false","","","","","","","","","","null","","1552.2999999970198","","2","0","null","null","arrowup","[0.325,0.675,0.15,0.85]","","",""
"sailing-trial","291","1388621","0.0-11.0-256.0","","","","false","","","","","","","","","","561","","159.69999998807907","","0","0","arrowleft","0","arrowleft","[0.325,0.675,0.15,0.85]","","",""
"sailing-trial","292","1392219","0.0-11.0-257.0","","","","false","","","","","","","","","","null","","1303","","1","1","null","null","arrowup","[0.325,0.675,0.15,0.85]","","",""
"sailing-trial","293","1397059","0.0-11.0-258.0","","","","false","","","","","","","","","","2039.2999999970198","","16","","0","0","arrowleft","0","arrowleft","[0.325,0.675,0.15,0.85]","","",""
"sailing-trial","294","1401486","0.0-11.0-259.0","","","","false","","","","","","","","","","null","","2768.2999999970198","","2","1","null","null","arrowup","[0.325,0.675,0.15,0.85]","","",""
"sailing-trial","295","1406136","0.0-11.0-260.0","","","","false","","","","","","","","","","602","","381.5","","3","1","arrowright","1","arrowright","[0.15,0.85,0.325,0.675]","","",""
"sailing-trial","296","1411369","0.0-11.0-261.0","","","","false","","","","","","","","","","null","","3674","","3","1","null","null","arrowup","[0.15,0.85,0.325,0.675]","","",""
"sailing-trial","297","1417414","0.0-11.0-262.0","","","","false","","","","","","","","","","2637.5","","519.7999999970198","","2","0","arrowright","1","arrowleft","[0.15,0.85,0.325,0.675]","","",""
"sailing-trial","298","1420934","0.0-11.0-263.0","","","","false","","","","","","","","","","null","","1329.7999999970198","","1","1","null","null","arrowup","[0.15,0.85,0.325,0.675]","","",""
"sailing-trial","299","1425467","0.0-11.0-264.0","","","","false","","","","","","","","","","1321.5","","413.59999999403954","","3","1","arrowright","1","arrowright","[0.15,0.85,0.325,0.675]","","",""
"sailing-trial","300","1428534","0.0-11.0-265.0","","","","false","","","","","","","","","","null","","700.7000000029802","","1","1","null","null","arrowup","[0.15,0.85,0.325,0.675]","","",""
"sailing-trial","301","1431809","0.0-11.0-266.0","","","","false","","","","","","","","","","727.5999999940395","","75","","0","0","arrowleft","0","arrowleft","[0.15,0.85,0.325,0.675]","","",""
"sailing-trial","302","1434461","0.0-11.0-267.0","","","","false","","","","","","","","","","null","","808","","0","0","null","null","arrowup","[0.15,0.85,0.325,0.675]","","",""
"sailing-trial","303","1437806","0.0-11.0-268.0","","","","false","","","","","","","","","","653.5","","656.4000000059605","","3","0","arrowright","1","arrowright","[0.15,0.85,0.325,0.675]","","",""
"sailing-trial","304","1441167","0.0-11.0-269.0","","","","false","","","","","","","","","","null","","1060.699999988079","","2","1","null","null","arrowup","[0.15,0.85,0.325,0.675]","","",""
"sailing-trial","305","1445049","0.0-11.0-270.0","","","","false","","","","","","","","","","529.2999999970198","","177.6000000089407","","1","1","arrowleft","0","arrowright","[0.15,0.85,0.325,0.675]","","",""
"sailing-trial","306","1448391","0.0-11.0-271.0","","","","false","","","","","","","","","","null","","1765.0999999940395","","3","0","null","null","arrowup","[0.15,0.85,0.325,0.675]","","",""
"sailing-trial","307","1453229","0.0-11.0-272.0","","","","false","","","","","","","","","","716.8999999910593","","287.29999999701977","","2","0","arrowright","1","arrowleft","[0.15,0.85,0.325,0.675]","","",""
"sailing-trial","308","1455442","0.0-11.0-273.0","","","","false","","","","","","","","","","null","","1003.5","","3","0","null","null","arrowup","[0.15,0.85,0.325,0.675]","","",""
"sailing-trial","309","1458848","0.0-11.0-274.0","","","","false","","","","","","","","","","494.8999999910593","","28.5","","1","1","arrowleft","0","arrowright","[0.15,0.85,0.325,0.675]","","",""
"sailing-trial","310","1461365","0.0-11.0-275.0","","","","false","","","","","","","","","","null","","850.7999999970198","","2","0","null","null","arrowup","[0.15,0.85,0.325,0.675]","","",""
"sailing-trial","311","1470982","0.0-11.0-276.0","","","","false","","","","","","","","","","6336.20000000298","","118.20000000298023","","2","1","arrowright","1","arrowleft","[0.15,0.85,0.325,0.675]","","",""
"sailing-trial","312","1474111","0.0-11.0-277.0","","","","false","","","","","","","","","","null","","917.6000000089407","","0","0","null","null","arrowup","[0.15,0.85,0.325,0.675]","","",""
"sailing-trial","313","1478048","0.0-11.0-278.0","","","","false","","","","","","","","","","830.7999999970198","","299.1000000089407","","1","1","arrowleft","0","arrowright","[0.325,0.675,0.15,0.85]","","",""
"sailing-trial","314","1480071","0.0-11.0-279.0","","","","false","","","","","","","","","","null","","716.0999999940395","","1","0","null","null","arrowup","[0.325,0.675,0.15,0.85]","","",""
"sailing-trial","315","1483338","0.0-11.0-280.0","","","","false","","","","","","","","","","803.9000000059605","","226.70000000298023","","2","0","arrowright","1","arrowleft","[0.325,0.675,0.15,0.85]","","",""
"sailing-trial","316","1485455","0.0-11.0-281.0","","","","false","","","","","","","","","","null","","740.5","","2","0","null","null","arrowup","[0.325,0.675,0.15,0.85]","","",""
"sailing-trial","317","1489630","0.0-11.0-282.0","","","","false","","","","","","","","","","772.3999999910593","","316.29999999701977","","3","1","arrowright","1","arrowright","[0.325,0.675,0.15,0.85]","","",""
"sailing-trial","318","1493639","0.0-11.0-283.0","","","","false","","","","","","","","","","null","","2785.2000000029802","","2","0","null","null","arrowup","[0.325,0.675,0.15,0.85]","","",""
"sailing-trial","319","1496807","0.0-11.0-284.0","","","","false","","","","","","","","","","641.8000000119209","","320.40000000596046","","1","0","arrowleft","0","arrowright","[0.325,0.675,0.15,0.85]","","",""
"sailing-trial","320","1498720","0.0-11.0-285.0","","","","false","","","","","","","","","","null","","674.5","","2","0","null","null","arrowup","[0.325,0.675,0.15,0.85]","","",""
"sailing-trial","321","1502029","0.0-11.0-286.0","","","","false","","","","","","","","","","462.09999999403954","","116.59999999403954","","0","1","arrowleft","0","arrowleft","[0.325,0.675,0.15,0.85]","","",""
"sailing-trial","322","1503720","0.0-11.0-287.0","","","","false","","","","","","","","","","null","","527.2999999970198","","2","0","null","null","arrowup","[0.325,0.675,0.15,0.85]","","",""
"sailing-trial","323","1506371","0.0-11.0-288.0","","","","false","","","","","","","","","","382","","199.79999999701977","","3","0","arrowright","1","arrowright","[0.325,0.675,0.15,0.85]","","",""
"sailing-trial","324","1508201","0.0-11.0-289.0","","","","false","","","","","","","","","","null","","653.5","","2","0","null","null","arrowup","[0.325,0.675,0.15,0.85]","","",""
"sailing-trial","325","1511516","0.0-11.0-290.0","","","","false","","","","","","","","","","400.1000000089407","","252.40000000596046","","3","1","arrowright","1","arrowright","[0.325,0.675,0.15,0.85]","","",""
"sailing-trial","326","1513334","0.0-11.0-291.0","","","","false","","","","","","","","","","null","","354.1000000089407","","0","0","null","null","arrowup","[0.325,0.675,0.15,0.85]","","",""
"sailing-trial","327","1515848","0.0-11.0-292.0","","","","false","","","","","","","","","","374.90000000596046","","58.70000000298023","","0","0","arrowleft","0","arrowleft","[0.325,0.675,0.15,0.85]","","",""
"sailing-trial","328","1518644","0.0-11.0-293.0","","","","false","","","","","","","","","","null","","852.9000000059605","","0","0","null","null","arrowup","[0.325,0.675,0.15,0.85]","","",""
"sailing-trial","329","1522312","0.0-11.0-294.0","","","","false","","","","","","","","","","650.9000000059605","","243.79999999701977","","1","1","arrowleft","0","arrowright","[0.325,0.675,0.15,0.85]","","",""
"sailing-trial","330","1524258","0.0-11.0-295.0","","","","false","","","","","","","","","","null","","777","","3","0","null","null","arrowup","[0.325,0.675,0.15,0.85]","","",""
"sailing-trial","331","1527812","0.0-11.0-296.0","","","","false","","","","","","","","","","692","","169.59999999403954","","3","1","arrowright","1","arrowright","[0.15,0.85,0.325,0.675]","","",""
"sailing-trial","332","1529752","0.0-11.0-297.0","","","","false","","","","","","","","","","null","","705.7999999970198","","0","0","null","null","arrowup","[0.15,0.85,0.325,0.675]","","",""
"sailing-trial","333","1533116","0.0-11.0-298.0","","","","false","","","","","","","","","","346.29999999701977","","383.3999999910593","","1","0","arrowleft","0","arrowright","[0.15,0.85,0.325,0.675]","","",""
"sailing-trial","334","1535594","0.0-11.0-299.0","","","","false","","","","","","","","","","null","","821.0999999940395","","1","1","null","null","arrowup","[0.15,0.85,0.325,0.675]","","",""
"sailing-trial","335","1538828","0.0-11.0-300.0","","","","false","","","","","","","","","","491.5","","212.70000000298023","","3","1","arrowright","1","arrowright","[0.15,0.85,0.325,0.675]","","",""
"sailing-trial","336","1541427","0.0-11.0-301.0","","","","false","","","","","","","","","","null","","984.5999999940395","","2","0","null","null","arrowup","[0.15,0.85,0.325,0.675]","","",""
"sailing-trial","337","1545077","0.0-11.0-302.0","","","","false","","","","","","","","","","382.09999999403954","","171.3999999910593","","1","1","arrowleft","0","arrowright","[0.15,0.85,0.325,0.675]","","",""
"sailing-trial","338","1546895","0.0-11.0-303.0","","","","false","","","","","","","","","","null","","660.2000000029802","","3","0","null","null","arrowup","[0.15,0.85,0.325,0.675]","","",""
"sailing-trial","339","1550877","0.0-11.0-304.0","","","","false","","","","","","","","","","486.09999999403954","","62.29999999701977","","1","1","arrowleft","0","arrowright","[0.15,0.85,0.325,0.675]","","",""
"sailing-trial","340","1553360","0.0-11.0-305.0","","","","false","","","","","","","","","","null","","777.2000000029802","","1","1","null","null","arrowup","[0.15,0.85,0.325,0.675]","","",""
"sailing-trial","341","1555828","0.0-11.0-306.0","","","","false","","","","","","","","","","244.20000000298023","","14.799999997019768","","0","0","arrowleft","0","arrowleft","[0.15,0.85,0.325,0.675]","","",""
"sailing-trial","342","1558727","0.0-11.0-307.0","","","","false","","","","","","","","","","null","","1183.0999999940395","","3","1","null","null","arrowup","[0.15,0.85,0.325,0.675]","","",""
"sailing-trial","343","1561469","0.0-11.0-308.0","","","","false","","","","","","","","","","338.20000000298023","","158.20000000298023","","3","0","arrowright","1","arrowright","[0.15,0.85,0.325,0.675]","","",""
"sailing-trial","344","1563643","0.0-11.0-309.0","","","","false","","","","","","","","","","null","","533.4000000059605","","1","1","null","null","arrowup","[0.15,0.85,0.325,0.675]","","",""
"sailing-trial","345","1566925","0.0-11.0-310.0","","","","false","","","","","","","","","","268.79999999701977","","636.8999999910593","","3","0","arrowright","1","arrowright","[0.15,0.85,0.325,0.675]","","",""
"sailing-trial","346","1570192","0.0-11.0-311.0","","","","false","","","","","","","","","","null","","1673.2000000029802","","3","1","null","null","arrowup","[0.15,0.85,0.325,0.675]","","",""
"sailing-trial","347","1574876","0.0-11.0-312.0","","","","false","","","","","","","","","","611.1000000089407","","1328.7999999970198","","3","1","arrowright","1","arrowright","[0.85,0.15,0.675,0.325]","","",""
"sailing-trial","348","1578159","0.0-11.0-313.0","","","","false","","","","","","","","","","null","","899.7000000029802","","0","1","null","null","arrowup","[0.85,0.15,0.675,0.325]","","",""
"sailing-trial","349","1581642","0.0-11.0-314.0","","","","false","","","","","","","","","","549.5999999940395","","191.29999999701977","","1","1","arrowleft","0","arrowright","[0.85,0.15,0.675,0.325]","","",""
"sailing-trial","350","1584415","0.0-11.0-315.0","","","","false","","","","","","","","","","null","","891.3999999910593","","0","0","null","null","arrowup","[0.85,0.15,0.675,0.325]","","",""
"sailing-trial","351","1589176","0.0-11.0-316.0","","","","false","","","","","","","","","","683.5","","62.6000000089407","","3","0","arrowright","1","arrowright","[0.85,0.15,0.675,0.325]","","",""
"sailing-trial","352","1592691","0.0-11.0-317.0","","","","false","","","","","","","","","","null","","1289.5","","3","1","null","null","arrowup","[0.85,0.15,0.675,0.325]","","",""
"sailing-trial","353","1597573","0.0-11.0-318.0","","","","false","","","","","","","","","","1208.2000000029802","","1588.3999999910593","","3","0","arrowright","1","arrowright","[0.85,0.15,0.675,0.325]","","",""
"sailing-trial","354","1602075","0.0-11.0-319.0","","","","false","","","","","","","","","","null","","2636.7000000029802","","2","1","null","null","arrowup","[0.85,0.15,0.675,0.325]","","",""
"sailing-trial","355","1607841","0.0-11.0-320.0","","","","false","","","","","","","","","","2012.7999999970198","","163.3999999910593","","0","1","arrowleft","0","arrowleft","[0.85,0.15,0.675,0.325]","","",""
"sailing-trial","356","1611173","0.0-11.0-321.0","","","","false","","","","","","","","","","null","","1955.5999999940395","","3","0","null","null","arrowup","[0.85,0.15,0.675,0.325]","","",""
"sailing-trial","357","1625828","0.0-11.0-322.0","","","","false","","","","","","","","","","5159.0999999940395","","7200.0999999940395","","3","0","arrowright","1","arrowright","[0.85,0.15,0.675,0.325]","","",""
"sailing-trial","358","1632156","0.0-11.0-323.0","","","","false","","","","","","","","","","null","","3612.0999999940395","","0","1","null","null","arrowup","[0.85,0.15,0.675,0.325]","","",""
"sailing-trial","359","1641272","0.0-11.0-324.0","","","","false","","","","","","","","","","3054.2999999970198","","2045.1000000089407","","1","0","arrowleft","0","arrowright","[0.85,0.15,0.675,0.325]","","",""
"sailing-trial","360","1645474","0.0-11.0-325.0","","","","false","","","","","","","","","","null","","2430.5999999940395","","3","0","null","null","arrowup","[0.85,0.15,0.675,0.325]","","",""
"sailing-trial","361","1655496","0.0-11.0-326.0","","","","false","","","","","","","","","","4741.5","","2313.5999999940395","","1","0","arrowleft","0","arrowright","[0.85,0.15,0.675,0.325]","","",""
"sailing-trial","362","1660441","0.0-11.0-327.0","","","","false","","","","","","","","","","null","","3694","","2","0","null","null","arrowup","[0.85,0.15,0.675,0.325]","","",""
"sailing-trial","363","1664575","0.0-11.0-328.0","","","","false","","","","","","","","","","1722.6000000089407","","65.70000000298023","","3","0","arrowright","1","arrowright","[0.675,0.325,0.85,0.15]","","",""
"sailing-trial","364","1667804","0.0-11.0-329.0","","","","false","","","","","","","","","","null","","987.7000000029802","","3","1","null","null","arrowup","[0.675,0.325,0.85,0.15]","","",""
"sailing-trial","365","1674122","0.0-11.0-330.0","","","","false","","","","","","","","","","2500.4000000059605","","1046.7999999970198","","1","0","arrowleft","0","arrowright","[0.675,0.325,0.85,0.15]","","",""
"sailing-trial","366","1677339","0.0-11.0-331.0","","","","false","","","","","","","","","","null","","2124.199999988079","","3","0","null","null","arrowup","[0.675,0.325,0.85,0.15]","","",""
"sailing-trial","367","1681327","0.0-11.0-332.0","","","","false","","","","","","","","","","1273.3999999910593","","216.6000000089407","","3","0","arrowright","1","arrowright","[0.675,0.325,0.85,0.15]","","",""
"sailing-trial","368","1683842","0.0-11.0-333.0","","","","false","","","","","","","","","","null","","1333.5","","3","0","null","null","arrowup","[0.675,0.325,0.85,0.15]","","",""
"sailing-trial","369","1687654","0.0-11.0-334.0","","","","false","","","","","","","","","","819.7999999970198","","193.20000000298023","","2","1","arrowright","1","arrowleft","[0.675,0.325,0.85,0.15]","","",""
"sailing-trial","370","1690536","0.0-11.0-335.0","","","","false","","","","","","","","","","null","","949","","2","1","null","null","arrowup","[0.675,0.325,0.85,0.15]","","",""
"sailing-trial","371","1695269","0.0-11.0-336.0","","","","false","","","","","","","","","","793.3000000119209","","79.09999999403954","","0","1","arrowleft","0","arrowleft","[0.675,0.325,0.85,0.15]","","",""
"sailing-trial","372","1698385","0.0-11.0-337.0","","","","false","","","","","","","","","","null","","1056.8999999910593","","1","1","null","null","arrowup","[0.675,0.325,0.85,0.15]","","",""
"sailing-trial","373","1702304","0.0-11.0-338.0","","","","false","","","","","","","","","","449","","71.19999998807907","","2","1","arrowright","1","arrowleft","[0.675,0.325,0.85,0.15]","","",""
"sailing-trial","374","1705301","0.0-11.0-339.0","","","","false","","","","","","","","","","null","","917","","1","1","null","null","arrowup","[0.675,0.325,0.85,0.15]","","",""
"sailing-trial","375","1710623","0.0-11.0-340.0","","","","false","","","","","","","","","","647.2000000029802","","429.70000000298023","","0","1","arrowleft","0","arrowleft","[0.675,0.325,0.85,0.15]","","",""
"sailing-trial","376","1712932","0.0-11.0-341.0","","","","false","","","","","","","","","","null","","885.9000000059605","","0","0","null","null","arrowup","[0.675,0.325,0.85,0.15]","","",""
"sailing-trial","377","1719868","0.0-11.0-342.0","","","","false","","","","","","","","","","1751.800000011921","","834","","2","1","arrowright","1","arrowleft","[0.675,0.325,0.85,0.15]","","",""
"sailing-trial","378","1723790","0.0-11.0-343.0","","","","false","","","","","","","","","","null","","2486.5","","0","0","null","null","arrowup","[0.675,0.325,0.85,0.15]","","",""
"sailing-trial","379","1727034","0.0-11.0-344.0","","","","false","","","","","","","","","","669.7000000029802","","11.200000002980232","","0","1","arrowleft","0","arrowleft","[0.325,0.675,0.15,0.85]","","",""
"sailing-trial","380","1729349","0.0-11.0-345.0","","","","false","","","","","","","","","","null","","839.9000000059605","","0","0","null","null","arrowup","[0.325,0.675,0.15,0.85]","","",""
"sailing-trial","381","1734748","0.0-11.0-346.0","","","","false","","","","","","","","","","1879.2999999970198","","695.7000000029802","","2","0","arrowright","1","arrowleft","[0.325,0.675,0.15,0.85]","","",""
"sailing-trial","382","1739690","0.0-11.0-347.0","","","","false","","","","","","","","","","null","","2116.0999999940395","","0","0","null","null","arrowup","[0.325,0.675,0.15,0.85]","","",""
"sailing-trial","383","1743883","0.0-11.0-348.0","","","","false","","","","","","","","","","613.8999999910593","","222.1000000089407","","0","1","arrowleft","0","arrowleft","[0.325,0.675,0.15,0.85]","","",""
"sailing-trial","384","1747030","0.0-11.0-349.0","","","","false","","","","","","","","","","null","","1410.0999999940395","","0","0","null","null","arrowup","[0.325,0.675,0.15,0.85]","","",""
"sailing-trial","385","1751999","0.0-11.0-350.0","","","","false","","","","","","","","","","795.0999999940395","","164.30000001192093","","2","0","arrowright","1","arrowleft","[0.325,0.675,0.15,0.85]","","",""
"sailing-trial","386","1756017","0.0-11.0-351.0","","","","false","","","","","","","","","","null","","1510.2999999970198","","2","1","null","null","arrowup","[0.325,0.675,0.15,0.85]","","",""
"sailing-trial","387","1761499","0.0-11.0-352.0","","","","false","","","","","","","","","","795.1000000089407","","685.2999999970198","","0","0","arrowleft","0","arrowleft","[0.325,0.675,0.15,0.85]","","",""
"sailing-trial","388","1765132","0.0-11.0-353.0","","","","false","","","","","","","","","","null","","1340.8999999910593","","1","1","null","null","arrowup","[0.325,0.675,0.15,0.85]","","",""
"sailing-trial","389","1769215","0.0-11.0-354.0","","","","false","","","","","","","","","","809.3999999910593","","151.20000000298023","","3","1","arrowright","1","arrowright","[0.325,0.675,0.15,0.85]","","",""
"sailing-trial","390","1772332","0.0-11.0-355.0","","","","false","","","","","","","","","","null","","1139.2999999970198","","1","1","null","null","arrowup","[0.325,0.675,0.15,0.85]","","",""
"sailing-trial","391","1775850","0.0-11.0-356.0","","","","false","","","","","","","","","","475.5","","164.80000001192093","","1","1","arrowleft","0","arrowright","[0.325,0.675,0.15,0.85]","","",""
"sailing-trial","392","1777949","0.0-11.0-357.0","","","","false","","","","","","","","","","null","","862.7000000029802","","0","0","null","null","arrowup","[0.325,0.675,0.15,0.85]","","",""
"sailing-trial","393","1781119","0.0-11.0-358.0","","","","false","","","","","","","","","","970.7999999970198","","91","","1","0","arrowleft","0","arrowright","[0.325,0.675,0.15,0.85]","","",""
"sailing-trial","394","1783814","0.0-11.0-359.0","","","","false","","","","","","","","","","null","","940.2999999970198","","0","1","null","null","arrowup","[0.325,0.675,0.15,0.85]","","",""
"sailing-trial","395","1788548","0.0-11.0-360.0","","","","false","","","","","","","","","","748.2999999970198","","132.80000001192093","","2","0","arrowright","1","arrowleft","[0.325,0.675,0.15,0.85]","","",""
"sailing-trial","396","1793081","0.0-11.0-361.0","","","","false","","","","","","","","","","null","","1522.5999999940395","","2","0","null","null","arrowup","[0.325,0.675,0.15,0.85]","","",""
"sailing-trial","397","1803165","0.0-11.0-362.0","","","","false","","","","","","","","","","5701.5","","366.19999998807907","","2","0","arrowright","1","arrowleft","[0.325,0.675,0.15,0.85]","","",""
"sailing-trial","398","1815030","0.0-11.0-363.0","","","","false","","","","","","","","","","null","","8855","","2","0","null","null","arrowup","[0.325,0.675,0.15,0.85]","","",""
"sailing-trial","399","1822125","0.0-11.0-364.0","","","","false","","","","","","","","","","3090","","248.79999999701977","","0","0","arrowleft","0","arrowleft","[0.15,0.85,0.325,0.675]","","",""
"sailing-trial","400","1830547","0.0-11.0-365.0","","","","false","","","","","","","","","","null","","5864.100000008941","","2","1","null","null","arrowup","[0.15,0.85,0.325,0.675]","","",""
"sailing-trial","401","1834980","0.0-11.0-366.0","","","","false","","","","","","","","","","1489.6000000089407","","183.40000000596046","","0","1","arrowleft","0","arrowleft","[0.15,0.85,0.325,0.675]","","",""
"sailing-trial","402","1840195","0.0-11.0-367.0","","","","false","","","","","","","","","","null","","3586.4000000059605","","2","1","null","null","arrowup","[0.15,0.85,0.325,0.675]","","",""
"sailing-trial","403","1849261","0.0-11.0-368.0","","","","false","","","","","","","","","","1052.4000000059605","","1731.5","","2","1","arrowright","1","arrowleft","[0.15,0.85,0.325,0.675]","","",""
"sailing-trial","404","1858711","0.0-11.0-369.0","","","","false","","","","","","","","","","null","","1729","","1","1","null","null","arrowup","[0.15,0.85,0.325,0.675]","","",""
"sailing-trial","405","1866077","0.0-11.0-370.0","","","","false","","","","","","","","","","2999.199999988079","","350.20000000298023","","0","0","arrowleft","0","arrowleft","[0.15,0.85,0.325,0.675]","","",""
"sailing-trial","406","1874660","0.0-11.0-371.0","","","","false","","","","","","","","","","null","","2634.6000000089407","","3","1","null","null","arrowup","[0.15,0.85,0.325,0.675]","","",""
"sailing-trial","407","1883543","0.0-11.0-372.0","","","","false","","","","","","","","","","4354.29999999702","","509.3999999910593","","0","0","arrowleft","0","arrowleft","[0.15,0.85,0.325,0.675]","","",""
"sailing-trial","408","1887542","0.0-11.0-373.0","","","","false","","","","","","","","","","null","","1000.5","","1","0","null","null","arrowup","[0.15,0.85,0.325,0.675]","","",""
"sailing-trial","409","1891168","0.0-11.0-374.0","","","","false","","","","","","","","","","1330.4000000059605","","17.5","","0","0","arrowleft","0","arrowleft","[0.15,0.85,0.325,0.675]","","",""
"sailing-trial","410","1895392","0.0-11.0-375.0","","","","false","","","","","","","","","","null","","2392.5999999940395","","1","1","null","null","arrowup","[0.15,0.85,0.325,0.675]","","",""
"sailing-trial","411","1898393","0.0-11.0-376.0","","","","false","","","","","","","","","","568.7999999970198","","99.40000000596046","","2","0","arrowright","1","arrowleft","[0.15,0.85,0.325,0.675]","","",""
"sailing-trial","412","1901160","0.0-11.0-377.0","","","","false","","","","","","","","","","null","","1049.8999999910593","","2","0","null","null","arrowup","[0.15,0.85,0.325,0.675]","","",""
"sailing-trial","413","1906453","0.0-11.0-378.0","","","","false","","","","","","","","","","1199.5","","231.3999999910593","","0","0","arrowleft","0","arrowleft","[0.15,0.85,0.325,0.675]","","",""
"sailing-trial","414","1909026","0.0-11.0-379.0","","","","false","","","","","","","","","","null","","677.2999999970198","","3","1","null","null","arrowup","[0.15,0.85,0.325,0.675]","","",""
"sailing-trial","415","1913007","0.0-11.0-380.0","","","","false","","","","","","","","","","625.5","","263.29999999701977","","3","1","arrowright","1","arrowright","[0.325,0.675,0.15,0.85]","","",""
"sailing-trial","416","1925340","0.0-11.0-381.0","","","","false","","","","","","","","","","null","","9322.5","","2","0","null","null","arrowup","[0.325,0.675,0.15,0.85]","","",""
"sailing-trial","417","1931656","0.0-11.0-382.0","","","","false","","","","","","","","","","2149.2000000029802","","167.29999999701977","","0","0","arrowleft","0","arrowleft","[0.325,0.675,0.15,0.85]","","",""
"sailing-trial","418","1938322","0.0-11.0-383.0","","","","false","","","","","","","","","","null","","4879.70000000298","","0","1","null","null","arrowup","[0.325,0.675,0.15,0.85]","","",""
"sailing-trial","419","1941113","0.0-11.0-384.0","","","","false","","","","","","","","","","559","","152.3999999910593","","0","0","arrowleft","0","arrowleft","[0.325,0.675,0.15,0.85]","","",""
"sailing-trial","420","1943374","0.0-11.0-385.0","","","","false","","","","","","","","","","null","","687.0999999940395","","2","0","null","null","arrowup","[0.325,0.675,0.15,0.85]","","",""
"sailing-trial","421","1946739","0.0-11.0-386.0","","","","false","","","","","","","","","","527.8999999910593","","150.79999999701977","","1","1","arrowleft","0","arrowright","[0.325,0.675,0.15,0.85]","","",""
"sailing-trial","422","1948857","0.0-11.0-387.0","","","","false","","","","","","","","","","null","","617.7999999970198","","2","0","null","null","arrowup","[0.325,0.675,0.15,0.85]","","",""
"sailing-trial","423","1953107","0.0-11.0-388.0","","","","false","","","","","","","","","","1104.7000000029802","","215.70000000298023","","3","1","arrowright","1","arrowright","[0.325,0.675,0.15,0.85]","","",""
"sailing-trial","424","1955472","0.0-11.0-389.0","","","","false","","","","","","","","","","null","","765.9000000059605","","3","1","null","null","arrowup","[0.325,0.675,0.15,0.85]","","",""
"sailing-trial","425","1958621","0.0-11.0-390.0","","","","false","","","","","","","","","","483","","115.3999999910593","","1","1","arrowleft","0","arrowright","[0.325,0.675,0.15,0.85]","","",""
"sailing-trial","426","1960418","0.0-11.0-391.0","","","","false","","","","","","","","","","null","","731.1000000089407","","2","0","null","null","arrowup","[0.325,0.675,0.15,0.85]","","",""
"sailing-trial","427","1963871","0.0-11.0-392.0","","","","false","","","","","","","","","","611.6000000089407","","176.79999999701977","","3","1","arrowright","1","arrowright","[0.325,0.675,0.15,0.85]","","",""
"sailing-trial","428","1966171","0.0-11.0-393.0","","","","false","","","","","","","","","","null","","702.4000000059605","","0","1","null","null","arrowup","[0.325,0.675,0.15,0.85]","","",""
"sailing-trial","429","1969871","0.0-11.0-394.0","","","","false","","","","","","","","","","828.7000000029802","","109.19999998807907","","1","1","arrowleft","0","arrowright","[0.325,0.675,0.15,0.85]","","",""
"sailing-trial","430","1972554","0.0-11.0-395.0","","","","false","","","","","","","","","","null","","898.5999999940395","","3","1","null","null","arrowup","[0.325,0.675,0.15,0.85]","","",""
"sailing-trial","431","1975247","0.0-11.0-396.0","","","","false","","","","","","","","","","441.59999999403954","","91.3999999910593","","3","0","arrowright","1","arrowright","[0.325,0.675,0.15,0.85]","","",""
"sailing-trial","432","1977603","0.0-11.0-397.0","","","","false","","","","","","","","","","null","","1194.2999999970198","","2","0","null","null","arrowup","[0.325,0.675,0.15,0.85]","","",""
"sailing-trial","433","1981038","0.0-11.0-398.0","","","","false","","","","","","","","","","483.1000000089407","","229","","1","1","arrowleft","0","arrowright","[0.325,0.675,0.15,0.85]","","",""
"sailing-trial","434","1983439","0.0-11.0-399.0","","","","false","","","","","","","","","","null","","691.5","","0","1","null","null","arrowup","[0.325,0.675,0.15,0.85]","","",""
"instructions","435","1988989","0.0-12.0","","","","","","","","","","5548.5999999940395","","","","","","","","","","","","","","","","[{""page_index"":0,""viewing_time"":5546.5999999940395}]"
"survey-debrief","436","2026591","0.0-13.0","","","","","","","","","","37595","","","","","","","","","","","","","","{""difficulty"":""3"",""fun"":""1"",""clarity"":""4"",""strategy"":""no"",""feedback"":""""}","",""
