"trial_type","trial_index","time_elapsed","internal_node_id","value","metadata","success","timeout","failed_images","failed_audio","failed_video","browser_interaction","low_quality","rt","stimulus","response","button_pressed","island_rt","island_response","boat_rt","boat_response","boat","reward","island_key","island","boat_key","reward_probabilities","responses","num_errors","view_history"
"pavlovia","0","3","0.0-0.0","","","","","","","","","","","","","","","","","","","","","","","","","",""
"call-function","1","3","0.0-1.0","","{""task_version"":""sailing_part1_v1"",""task_condition"":""good"",""boats"":[""C"",""D"",""B"",""A""],""boats_demo"":[""H"",""E"",""F"",""G""],""islands"":[""A"",""B""],""subject_id"":""14788"",""age"":""13"",""gender"":""Male""}","","","","","","","","","","","","","","","","","","","","","","","",""
"preload","2","1202","0.0-2.0","","","true","false","[]","[]","[]","[{""event"":""fullscreenenter"",""trial"":3,""time"":5106}]","false","","","","","","","","","","","","","","","","",""
"fullscreen","3","6072","0.0-3.0","","","true","","","","","","","","","","","","","","","","","","","","","","",""
"audio-keyboard-response","4","11267","0.0-4.0-0.0","","","","","","","","","","4840","audio/beep_loop.wav"," ","","","","","","","","","","","","","",""
"audio-test","5","12618","0.0-4.0-1.0","","","","","","","","","","null","audio/turtle.mp3","","3","","","","","","","","","","","","",""
"audio-test","6","14645","0.0-4.0-2.0","","","","","","","","","","null","audio/shark.mp3","","2","","","","","","","","","","","","",""
"sailing-instructions","7","44836","0.0-5.0-0.0-0.0","","","","","","","","","","","","","","null","null","null","null","null","null","","","","","","",""
"sailing-trial","8","47391","0.0-5.0-0.0-1.0-0.0","","","","false","","","","","","","","","","1429","","null","","null","null","arrowleft","0","null","null","","",""
"sailing-trial","9","49690","0.0-5.0-0.0-1.0-1.0","","","","false","","","","","","","","","","1174.0999999046326","","null","","null","null","arrowright","1","null","null","","",""
"sailing-trial","10","53390","0.0-5.0-0.0-1.0-2.0","","","","false","","","","","","","","","","2574.7000000476837","","null","","null","null","arrowleft","0","null","null","","",""
"sailing-instructions","11","130674","0.0-5.0-0.0-2.0","","","","","","","","","","","","","","null","null","null","null","0","null","","","","","","",""
"sailing-trial","12","137860","0.0-5.0-0.0-3.0-0.0","","","","false","","","","","","","","","","null","","2148.7000000476837","","2","1","null","null","arrowleft","[1,1,1,1]","","",""
"sailing-trial","13","140960","0.0-5.0-0.0-3.0-1.0","","","","false","","","","","","","","","","null","","545","","3","1","null","null","arrowright","[1,1,1,1]","","",""
"sailing-trial","14","145820","0.0-5.0-0.0-3.0-2.0","","","","false","","","","","","","","","","null","","2227.399999856949","","3","0","null","null","arrowright","[0,0,0,0]","","",""
"sailing-instructions","15","160582","0.0-5.0-0.0-4.0","","","","","","","","","","","","","","null","null","null","null","null","null","","","","","","",""
"sailing-comprehension","16","177769","0.0-5.0-0.0-5.0","","","","","","","","","","11719.599999904633","","","","","","","","","","","","","","[""true"",""true"",""false"",""true""]","0",""
"sailing-instructions","17","266026","0.0-6.0-0.0-0.0","","","","","","","","","","","","","","null","null","null","null","null","null","","","","","","",""
"sailing-comprehension","18","286131","0.0-6.0-0.0-1.0","","","","","","","","","","9321.200000047684","","","","","","","","","","","","","","[""true"",""false"",""true""]","0",""
"sailing-instructions","19","300923","0.0-7.0-0.0-0.0","","","","","","","","","","","","","","null","null","null","null","null","null","","","","","","",""
"sailing-trial","20","305215","0.0-7.0-0.0-1.0-0.0","","","","false","","","","","","","","","","null","","1238.9000000953674","","0","0","null","null","arrowup","[0.2,0.8,0.2,0.8]","","",""
"sailing-trial","21","308766","0.0-7.0-0.0-1.0-1.0","","","","false","","","","","","","","","","null","","1071.1999998092651","","1","1","null","null","arrowup","[0.2,0.8,0.2,0.8]","","",""
"sailing-trial","22","310998","0.0-7.0-0.0-1.0-2.0","","","","false","","","","","","","","","","null","","839.7000000476837","","2","0","null","null","arrowup","[0.2,0.8,0.2,0.8]","","",""
"sailing-trial","23","313498","0.0-7.0-0.0-1.0-3.0","","","","false","","","","","","","","","","null","","585.2000000476837","","3","1","null","null","arrowup","[0.2,0.8,0.2,0.8]","","",""
"sailing-comprehension","24","320682","0.0-7.0-0.0-2.0","","","","","","","","","","5736.800000190735","","","","","","","","","","","","","","[""false""]","0",""
"sailing-instructions","25","337383","0.0-8.0-0.0-0.0","","","","","","","","","","","","","","null","null","null","null","null","null","","","","","","",""
"sailing-comprehension","26","341330","0.0-8.0-0.0-1.0","","","","","","","","","","3175.9000000953674","","","","","","","","","","","","","","[""true""]","0",""
"sailing-instructions","27","382405","0.0-9.0-0.0-0.0","","","","","","","","","","","","","","null","null","null","null","null","null","","","","","","",""
"sailing-trial","28","388718","0.0-9.0-0.0-1.0-0.0","","","","false","","","","","","","","","","1741.2999999523163","","768.2999999523163","","2","1","arrowright","1","arrowleft","[0.2,0.8,0.2,0.8]","","",""
"sailing-trial","29","392127","0.0-9.0-0.0-1.0-1.0","","","","false","","","","","","","","","","567.6000001430511","","25","","2","0","arrowright","1","arrowleft","[0.2,0.8,0.2,0.8]","","",""
"sailing-trial","30","395075","0.0-9.0-0.0-1.0-2.0","","","","false","","","","","","","","","","null","","1449.5999999046326","","0","0","null","null","arrowup","[0.2,0.8,0.2,0.8]","","",""
"sailing-trial","31","400236","0.0-9.0-0.0-1.0-3.0","","","","false","","","","","","","","","","867.5","","845.2000000476837","","0","0","arrowleft","0","arrowleft","[0.2,0.8,0.2,0.8]","","",""
"sailing-trial","32","403286","0.0-9.0-0.0-1.0-4.0","","","","false","","","","","","","","","","null","","1064.7000000476837","","3","1","null","null","arrowup","[0.2,0.8,0.2,0.8]","","",""
"sailing-trial","33","410267","0.0-9.0-0.0-1.0-5.0","","","","false","","","","","","","","","","3416.9000000953674","","745.7999999523163","","2","0","arrowright","1","arrowleft","[0.2,0.8,0.2,0.8]","","",""
"sailing-instructions","34","442668","0.0-10.0","","","","","","","","","","","","","","null","null","null","null","null","null","","","","","","",""
"sailing-trial","35","447874","0.0-11.0-0.0","","","","false","","","","","","","","","","1036.2999999523163","","678.7999999523163","","0","1","arrowleft","0","arrowleft","[0.85,0.15,0.325,0.675]","","",""
"sailing-trial","36","452034","0.0-11.0-1.0","","","","false","","","","","","","","","","null","","1139.7999999523163","","1","0","null","null","arrowup","[0.85,0.15,0.325,0.675]","","",""
"sailing-trial","37","455520","0.0-11.0-2.0","","","","false","","","","","","","","","","754.8999998569489","","143.80000019073486","","3","0","arrowright","1","arrowright","[0.85,0.15,0.325,0.675]","","",""
"sailing-trial","38","458070","0.0-11.0-3.0","","","","false","","","","","","","","","","null","","1076.6000001430511","","3","0","null","null","arrowup","[0.85,0.15,0.325,0.675]","","",""
"sailing-trial","39","461505","0.0-11.0-4.0","","","","false","","","","","","","","","","523.7000000476837","","80.20000004768372","","0","1","arrowleft","0","arrowleft","[0.85,0.15,0.325,0.675]","","",""
"sailing-trial","40","465361","0.0-11.0-5.0","","","","false","","","","","","","","","","null","","1064.1000001430511","","2","0","null","null","arrowup","[0.85,0.15,0.325,0.675]","","",""
"sailing-trial","41","468857","0.0-11.0-6.0","","","","false","","","","","","","","","","403","","276.60000014305115","","0","1","arrowleft","0","arrowleft","[0.85,0.15,0.325,0.675]","","",""
"sailing-trial","42","472189","0.0-11.0-7.0","","","","false","","","","","","","","","","null","","2040","","1","0","null","null","arrowup","[0.85,0.15,0.325,0.675]","","",""
"sailing-trial","43","475908","0.0-11.0-8.0","","","","false","","","","","","","","","","519.7999999523163","","263.5","","0","1","arrowleft","0","arrowleft","[0.85,0.15,0.325,0.675]","","",""
"sailing-trial","44","478712","0.0-11.0-9.0","","","","false","","","","","","","","","","null","","1329.5","","1","0","null","null","arrowup","[0.85,0.15,0.325,0.675]","","",""
"sailing-trial","45","482639","0.0-11.0-10.0","","","","false","","","","","","","","","","654.2000000476837","","34.5","","0","1","arrowleft","0","arrowleft","[0.85,0.15,0.325,0.675]","","",""
"sailing-trial","46","485453","0.0-11.0-11.0","","","","false","","","","","","","","","","null","","1506.6000001430511","","0","0","null","null","arrowup","[0.85,0.15,0.325,0.675]","","",""
"sailing-trial","47","489374","0.0-11.0-12.0","","","","false","","","","","","","","","","838.2000000476837","","137.30000019073486","","0","1","arrowleft","0","arrowleft","[0.85,0.15,0.325,0.675]","","",""
"sailing-trial","48","493506","0.0-11.0-13.0","","","","false","","","","","","","","","","null","","1974.4000000953674","","2","1","null","null","arrowup","[0.85,0.15,0.325,0.675]","","",""
"sailing-trial","49","499390","0.0-11.0-14.0","","","","false","","","","","","","","","","953.9000000953674","","581.6999998092651","","0","1","arrowleft","0","arrowleft","[0.85,0.15,0.325,0.675]","","",""
"sailing-trial","50","503458","0.0-11.0-15.0","","","","false","","","","","","","","","","null","","2524.699999809265","","1","0","null","null","arrowup","[0.85,0.15,0.325,0.675]","","",""
"sailing-trial","51","507132","0.0-11.0-16.0","","","","false","","","","","","","","","","921.2999999523163","","191.09999990463257","","0","0","arrowleft","0","arrowleft","[0.325,0.675,0.85,0.15]","","",""
"sailing-trial","52","510207","0.0-11.0-17.0","","","","false","","","","","","","","","","null","","1306.7000000476837","","2","1","null","null","arrowup","[0.325,0.675,0.85,0.15]","","",""
"sailing-trial","53","513824","0.0-11.0-18.0","","","","false","","","","","","","","","","563.0999999046326","","72.09999990463257","","0","1","arrowleft","0","arrowleft","[0.325,0.675,0.85,0.15]","","",""
"sailing-trial","54","515865","0.0-11.0-19.0","","","","false","","","","","","","","","","null","","985","","0","0","null","null","arrowup","[0.325,0.675,0.85,0.15]","","",""
"sailing-trial","55","519311","0.0-11.0-20.0","","","","false","","","","","","","","","","737","","339.59999990463257","","0","0","arrowleft","0","arrowleft","[0.325,0.675,0.85,0.15]","","",""
"sailing-trial","56","522241","0.0-11.0-21.0","","","","false","","","","","","","","","","null","","1005.2999999523163","","1","1","null","null","arrowup","[0.325,0.675,0.85,0.15]","","",""
"sailing-trial","57","526121","0.0-11.0-22.0","","","","false","","","","","","","","","","817.5","","144.39999985694885","","3","0","arrowright","1","arrowright","[0.325,0.675,0.85,0.15]","","",""
"sailing-trial","58","529835","0.0-11.0-23.0","","","","false","","","","","","","","","","null","","2371.800000190735","","0","0","null","null","arrowup","[0.325,0.675,0.85,0.15]","","",""
"sailing-trial","59","533374","0.0-11.0-24.0","","","","false","","","","","","","","","","988.2999999523163","","84.29999995231628","","1","0","arrowleft","0","arrowright","[0.325,0.675,0.85,0.15]","","",""
"sailing-trial","60","535797","0.0-11.0-25.0","","","","false","","","","","","","","","","null","","1013.7999999523163","","2","0","null","null","arrowup","[0.325,0.675,0.85,0.15]","","",""
"sailing-trial","61","539740","0.0-11.0-26.0","","","","false","","","","","","","","","","956.1000001430511","","53.30000019073486","","2","1","arrowright","1","arrowleft","[0.325,0.675,0.85,0.15]","","",""
"sailing-trial","62","541651","0.0-11.0-27.0","","","","false","","","","","","","","","","null","","634.7000000476837","","0","0","null","null","arrowup","[0.325,0.675,0.85,0.15]","","",""
"sailing-trial","63","545350","0.0-11.0-28.0","","","","false","","","","","","","","","","578","","414.2999999523163","","2","0","arrowright","1","arrowleft","[0.325,0.675,0.85,0.15]","","",""
"sailing-trial","64","548511","0.0-11.0-29.0","","","","false","","","","","","","","","","null","","1641.9000000953674","","3","0","null","null","arrowup","[0.325,0.675,0.85,0.15]","","",""
"sailing-trial","65","553177","0.0-11.0-30.0","","","","false","","","","","","","","","","1318","","339.2999999523163","","2","1","arrowright","1","arrowleft","[0.325,0.675,0.85,0.15]","","",""
"sailing-trial","66","555221","0.0-11.0-31.0","","","","false","","","","","","","","","","null","","794.6000001430511","","0","0","null","null","arrowup","[0.325,0.675,0.85,0.15]","","",""
"sailing-trial","67","558908","0.0-11.0-32.0","","","","false","","","","","","","","","","518.3999998569489","","301.89999985694885","","2","1","arrowright","1","arrowleft","[0.325,0.675,0.85,0.15]","","",""
"sailing-trial","68","561891","0.0-11.0-33.0","","","","false","","","","","","","","","","null","","1204","","2","1","null","null","arrowup","[0.325,0.675,0.85,0.15]","","",""
"sailing-trial","69","565192","0.0-11.0-34.0","","","","false","","","","","","","","","","450.90000009536743","","85.20000004768372","","2","1","arrowright","1","arrowleft","[0.325,0.675,0.85,0.15]","","",""
"sailing-trial","70","567861","0.0-11.0-35.0","","","","false","","","","","","","","","","null","","1260.9000000953674","","1","0","null","null","arrowup","[0.325,0.675,0.85,0.15]","","",""
"sailing-trial","71","571309","0.0-11.0-36.0","","","","false","","","","","","","","","","814","","126.40000009536743","","2","0","arrowright","1","arrowleft","[0.675,0.325,0.15,0.85]","","",""
"sailing-trial","72","574409","0.0-11.0-37.0","","","","false","","","","","","","","","","null","","1165","","2","1","null","null","arrowup","[0.675,0.325,0.15,0.85]","","",""
"sailing-trial","73","578547","0.0-11.0-38.0","","","","false","","","","","","","","","","917.9000000953674","","193.30000019073486","","2","0","arrowright","1","arrowleft","[0.675,0.325,0.15,0.85]","","",""
"sailing-trial","74","582910","0.0-11.0-39.0","","","","false","","","","","","","","","","null","","1448.9000000953674","","3","1","null","null","arrowup","[0.675,0.325,0.15,0.85]","","",""
"sailing-trial","75","587333","0.0-11.0-40.0","","","","false","","","","","","","","","","1630.8000001907349","","326.89999985694885","","2","0","arrowright","1","arrowleft","[0.675,0.325,0.15,0.85]","","",""
"sailing-trial","76","590159","0.0-11.0-41.0","","","","false","","","","","","","","","","null","","947.6000001430511","","0","1","null","null","arrowup","[0.675,0.325,0.15,0.85]","","",""
"sailing-trial","77","595865","0.0-11.0-42.0","","","","false","","","","","","","","","","1905.5","","994.3000001907349","","0","0","arrowleft","0","arrowleft","[0.675,0.325,0.15,0.85]","","",""
"sailing-trial","78","599843","0.0-11.0-43.0","","","","false","","","","","","","","","","null","","1274.9000000953674","","3","1","null","null","arrowup","[0.675,0.325,0.15,0.85]","","",""
"sailing-trial","79","604427","0.0-11.0-44.0","","","","false","","","","","","","","","","654.7999999523163","","533.8000001907349","","3","1","arrowright","1","arrowright","[0.675,0.325,0.15,0.85]","","",""
"sailing-trial","80","607409","0.0-11.0-45.0","","","","false","","","","","","","","","","null","","1137.2000000476837","","0","1","null","null","arrowup","[0.675,0.325,0.15,0.85]","","",""
"sailing-trial","81","611543","0.0-11.0-46.0","","","","false","","","","","","","","","","1083.0999999046326","","50.700000047683716","","3","1","arrowright","1","arrowright","[0.675,0.325,0.15,0.85]","","",""
"sailing-trial","82","615428","0.0-11.0-47.0","","","","false","","","","","","","","","","null","","892.7000000476837","","0","0","null","null","arrowup","[0.675,0.325,0.15,0.85]","","",""
"sailing-trial","83","622062","0.0-11.0-48.0","","","","false","","","","","","","","","","1496.5999999046326","","1700","","3","1","arrowright","1","arrowright","[0.675,0.325,0.15,0.85]","","",""
"sailing-trial","84","624390","0.0-11.0-49.0","","","","false","","","","","","","","","","null","","1061.4000000953674","","1","0","null","null","arrowup","[0.675,0.325,0.15,0.85]","","",""
"sailing-trial","85","630194","0.0-11.0-50.0","","","","false","","","","","","","","","","1551","","283.2999999523163","","3","1","arrowright","1","arrowright","[0.675,0.325,0.15,0.85]","","",""
"sailing-trial","86","633027","0.0-11.0-51.0","","","","false","","","","","","","","","","null","","913.8999998569489","","0","1","null","null","arrowup","[0.675,0.325,0.15,0.85]","","",""
"sailing-trial","87","636863","0.0-11.0-52.0","","","","false","","","","","","","","","","738.0999999046326","","121.79999995231628","","3","1","arrowright","1","arrowright","[0.675,0.325,0.15,0.85]","","",""
"sailing-trial","88","640012","0.0-11.0-53.0","","","","false","","","","","","","","","","null","","1698.4000000953674","","1","0","null","null","arrowup","[0.675,0.325,0.15,0.85]","","",""
"sailing-trial","89","644429","0.0-11.0-54.0","","","","false","","","","","","","","","","611.6999998092651","","482.19999980926514","","3","1","arrowright","1","arrowright","[0.675,0.325,0.15,0.85]","","",""
"sailing-trial","90","647179","0.0-11.0-55.0","","","","false","","","","","","","","","","null","","914.3999998569489","","0","1","null","null","arrowup","[0.675,0.325,0.15,0.85]","","",""
"sailing-trial","91","657695","0.0-11.0-56.0","","","","false","","","","","","","","","","5990.100000143051","","1492.4000000953674","","3","1","arrowright","1","arrowright","[0.85,0.15,0.325,0.675]","","",""
"sailing-trial","92","661395","0.0-11.0-57.0","","","","false","","","","","","","","","","null","","1863.3999998569489","","0","1","null","null","arrowup","[0.85,0.15,0.325,0.675]","","",""
"sailing-trial","93","668039","0.0-11.0-58.0","","","","false","","","","","","","","","","3347.2000000476837","","256.2999999523163","","3","0","arrowright","1","arrowright","[0.85,0.15,0.325,0.675]","","",""
"sailing-trial","94","671128","0.0-11.0-59.0","","","","false","","","","","","","","","","null","","1280.2999999523163","","3","1","null","null","arrowup","[0.85,0.15,0.325,0.675]","","",""
"sailing-trial","95","674512","0.0-11.0-60.0","","","","false","","","","","","","","","","481.30000019073486","","122.90000009536743","","3","1","arrowright","1","arrowright","[0.85,0.15,0.325,0.675]","","",""
"sailing-trial","96","677193","0.0-11.0-61.0","","","","false","","","","","","","","","","null","","1514.9000000953674","","3","0","null","null","arrowup","[0.85,0.15,0.325,0.675]","","",""
"sailing-trial","97","682179","0.0-11.0-62.0","","","","false","","","","","","","","","","1266.0999999046326","","509.40000009536743","","3","1","arrowright","1","arrowright","[0.85,0.15,0.325,0.675]","","",""
"sailing-trial","98","684371","0.0-11.0-63.0","","","","false","","","","","","","","","","null","","991.2999999523163","","2","0","null","null","arrowup","[0.85,0.15,0.325,0.675]","","",""
"sailing-trial","99","688862","0.0-11.0-64.0","","","","false","","","","","","","","","","617.7999999523163","","1174.8999998569489","","3","1","arrowright","1","arrowright","[0.85,0.15,0.325,0.675]","","",""
"sailing-trial","100","691856","0.0-11.0-65.0","","","","false","","","","","","","","","","null","","1140.2000000476837","","2","0","null","null","arrowup","[0.85,0.15,0.325,0.675]","","",""
"sailing-trial","101","700962","0.0-11.0-66.0","","","","false","","","","","","","","","","5919.700000047684","","231.90000009536743","","3","1","arrowright","1","arrowright","[0.85,0.15,0.325,0.675]","","",""
"sailing-trial","102","703555","0.0-11.0-67.0","","","","false","","","","","","","","","","null","","1122.7000000476837","","2","0","null","null","arrowup","[0.85,0.15,0.325,0.675]","","",""
"sailing-trial","103","707997","0.0-11.0-68.0","","","","false","","","","","","","","","","1087.6000001430511","","308.2000000476837","","2","1","arrowright","1","arrowleft","[0.85,0.15,0.325,0.675]","","",""
"sailing-trial","104","712031","0.0-11.0-69.0","","","","false","","","","","","","","","","null","","2002.4000000953674","","3","1","null","null","arrowup","[0.85,0.15,0.325,0.675]","","",""
"sailing-trial","105","717080","0.0-11.0-70.0","","","","false","","","","","","","","","","787.7000000476837","","439.90000009536743","","2","1","arrowright","1","arrowleft","[0.85,0.15,0.325,0.675]","","",""
"sailing-trial","106","719780","0.0-11.0-71.0","","","","false","","","","","","","","","","null","","858.0999999046326","","2","1","null","null","arrowup","[0.85,0.15,0.325,0.675]","","",""
"sailing-trial","107","725346","0.0-11.0-72.0","","","","false","","","","","","","","","","1296.7000000476837","","1024.9000000953674","","2","1","arrowright","1","arrowleft","[0.85,0.15,0.325,0.675]","","",""
"sailing-trial","108","729264","0.0-11.0-73.0","","","","false","","","","","","","","","","null","","2022.5","","0","1","null","null","arrowup","[0.85,0.15,0.325,0.675]","","",""
"sailing-trial","109","734281","0.0-11.0-74.0","","","","false","","","","","","","","","","887.2000000476837","","122.40000009536743","","2","0","arrowright","1","arrowleft","[0.675,0.325,0.15,0.85]","","",""
"sailing-trial","110","737152","0.0-11.0-75.0","","","","false","","","","","","","","","","null","","1470.2999999523163","","1","0","null","null","arrowup","[0.675,0.325,0.15,0.85]","","",""
"sailing-trial","111","741369","0.0-11.0-76.0","","","","false","","","","","","","","","","675.7000000476837","","401.69999980926514","","2","0","arrowright","1","arrowleft","[0.675,0.325,0.15,0.85]","","",""
"sailing-trial","112","744153","0.0-11.0-77.0","","","","false","","","","","","","","","","null","","1432.2000000476837","","2","0","null","null","arrowup","[0.675,0.325,0.15,0.85]","","",""
"sailing-trial","113","748515","0.0-11.0-78.0","","","","false","","","","","","","","","","620.3999998569489","","294.5","","3","1","arrowright","1","arrowright","[0.675,0.325,0.15,0.85]","","",""
"sailing-trial","114","751682","0.0-11.0-79.0","","","","false","","","","","","","","","","null","","1164.3000001907349","","3","1","null","null","arrowup","[0.675,0.325,0.15,0.85]","","",""
"sailing-trial","115","756447","0.0-11.0-80.0","","","","false","","","","","","","","","","769.3999998569489","","1109.7000000476837","","3","1","arrowright","1","arrowright","[0.675,0.325,0.15,0.85]","","",""
"sailing-trial","116","759482","0.0-11.0-81.0","","","","false","","","","","","","","","","null","","1246.2999999523163","","3","1","null","null","arrowup","[0.675,0.325,0.15,0.85]","","",""
"sailing-trial","117","763565","0.0-11.0-82.0","","","","false","","","","","","","","","","703.5","","179.80000019073486","","3","1","arrowright","1","arrowright","[0.675,0.325,0.15,0.85]","","",""
"sailing-trial","118","768000","0.0-11.0-83.0","","","","false","","","","","","","","","","null","","1442.7000000476837","","1","0","null","null","arrowup","[0.675,0.325,0.15,0.85]","","",""
"sailing-trial","119","772133","0.0-11.0-84.0","","","","false","","","","","","","","","","537.7000000476837","","99.29999995231628","","3","1","arrowright","1","arrowright","[0.675,0.325,0.15,0.85]","","",""
"sailing-trial","120","775911","0.0-11.0-85.0","","","","false","","","","","","","","","","null","","2462.2999999523163","","0","0","null","null","arrowup","[0.675,0.325,0.15,0.85]","","",""
"sailing-trial","121","779955","0.0-11.0-86.0","","","","false","","","","","","","","","","1266.7999999523163","","611.1000001430511","","3","0","arrowright","1","arrowright","[0.675,0.325,0.15,0.85]","","",""
"sailing-trial","122","782631","0.0-11.0-87.0","","","","false","","","","","","","","","","null","","662.4000000953674","","2","1","null","null","arrowup","[0.675,0.325,0.15,0.85]","","",""
"sailing-trial","123","787535","0.0-11.0-88.0","","","","false","","","","","","","","","","577.7000000476837","","322.60000014305115","","1","0","arrowleft","0","arrowright","[0.675,0.325,0.15,0.85]","","",""
"sailing-trial","124","792583","0.0-11.0-89.0","","","","false","","","","","","","","","","null","","1320.7999999523163","","1","1","null","null","arrowup","[0.675,0.325,0.15,0.85]","","",""
"sailing-trial","125","797565","0.0-11.0-90.0","","","","false","","","","","","","","","","912.5","","30.09999990463257","","1","0","arrowleft","0","arrowright","[0.85,0.15,0.325,0.675]","","",""
"sailing-trial","126","800214","0.0-11.0-91.0","","","","false","","","","","","","","","","null","","1208.0999999046326","","2","0","null","null","arrowup","[0.85,0.15,0.325,0.675]","","",""
"sailing-trial","127","807049","0.0-11.0-92.0","","","","false","","","","","","","","","","2206.7000000476837","","106.40000009536743","","0","1","arrowleft","0","arrowleft","[0.85,0.15,0.325,0.675]","","",""
"sailing-trial","128","810616","0.0-11.0-93.0","","","","false","","","","","","","","","","null","","1783.2000000476837","","3","1","null","null","arrowup","[0.85,0.15,0.325,0.675]","","",""
"sailing-trial","129","814450","0.0-11.0-94.0","","","","false","","","","","","","","","","507.7000000476837","","174.59999990463257","","3","1","arrowright","1","arrowright","[0.85,0.15,0.325,0.675]","","",""
"sailing-trial","130","817089","0.0-11.0-95.0","","","","false","","","","","","","","","","null","","1137.8999998569489","","2","0","null","null","arrowup","[0.85,0.15,0.325,0.675]","","",""
"sailing-trial","131","822282","0.0-11.0-96.0","","","","false","","","","","","","","","","2484.4000000953674","","48.200000047683716","","1","0","arrowleft","0","arrowright","[0.85,0.15,0.325,0.675]","","",""
"sailing-trial","132","826418","0.0-11.0-97.0","","","","false","","","","","","","","","","null","","2247.7000000476837","","3","1","null","null","arrowup","[0.85,0.15,0.325,0.675]","","",""
"sailing-trial","133","830288","0.0-11.0-98.0","","","","false","","","","","","","","","","972.7999999523163","","126.59999990463257","","3","0","arrowright","1","arrowright","[0.85,0.15,0.325,0.675]","","",""
"sailing-trial","134","833900","0.0-11.0-99.0","","","","false","","","","","","","","","","null","","1627.1000001430511","","3","1","null","null","arrowup","[0.85,0.15,0.325,0.675]","","",""
"sailing-trial","135","838371","0.0-11.0-100.0","","","","false","","","","","","","","","","752","","354.09999990463257","","1","0","arrowleft","0","arrowright","[0.85,0.15,0.325,0.675]","","",""
"sailing-trial","136","840923","0.0-11.0-101.0","","","","false","","","","","","","","","","null","","1241.9000000953674","","1","0","null","null","arrowup","[0.85,0.15,0.325,0.675]","","",""
"sailing-trial","137","844402","0.0-11.0-102.0","","","","false","","","","","","","","","","636.8000001907349","","234.79999995231628","","0","1","arrowleft","0","arrowleft","[0.85,0.15,0.325,0.675]","","",""
"sailing-trial","138","846629","0.0-11.0-103.0","","","","false","","","","","","","","","","null","","984.7000000476837","","2","0","null","null","arrowup","[0.85,0.15,0.325,0.675]","","",""
"sailing-trial","139","851854","0.0-11.0-104.0","","","","false","","","","","","","","","","939.9000000953674","","296.7000000476837","","0","0","arrowleft","0","arrowleft","[0.85,0.15,0.325,0.675]","","",""
"sailing-trial","140","856686","0.0-11.0-105.0","","","","false","","","","","","","","","","null","","1797.2999999523163","","0","1","null","null","arrowup","[0.85,0.15,0.325,0.675]","","",""
"sailing-trial","141","862034","0.0-11.0-106.0","","","","false","","","","","","","","","","1169.9000000953674","","1741","","2","0","arrowright","1","arrowleft","[0.675,0.325,0.15,0.85]","","",""
"sailing-trial","142","864968","0.0-11.0-107.0","","","","false","","","","","","","","","","null","","1023.3000001907349","","3","1","null","null","arrowup","[0.675,0.325,0.15,0.85]","","",""
"sailing-trial","143","868869","0.0-11.0-108.0","","","","false","","","","","","","","","","857.1000001430511","","208.39999985694885","","3","1","arrowright","1","arrowright","[0.675,0.325,0.15,0.85]","","",""
"sailing-trial","144","871784","0.0-11.0-109.0","","","","false","","","","","","","","","","null","","914.5999999046326","","0","1","null","null","arrowup","[0.675,0.325,0.15,0.85]","","",""
"sailing-trial","145","882654","0.0-11.0-110.0","","","","false","","","","","","","","","","5105.700000047684","","205.29999995231628","","3","1","arrowright","1","arrowright","[0.675,0.325,0.15,0.85]","","",""
"sailing-trial","146","886739","0.0-11.0-111.0","","","","false","","","","","","","","","","null","","1080.2999999523163","","0","0","null","null","arrowup","[0.675,0.325,0.15,0.85]","","",""
"sailing-trial","147","891802","0.0-11.0-112.0","","","","false","","","","","","","","","","577","","1321.7000000476837","","3","1","arrowright","1","arrowright","[0.675,0.325,0.15,0.85]","","",""
"sailing-trial","148","895948","0.0-11.0-113.0","","","","false","","","","","","","","","","null","","2668.7999999523163","","1","0","null","null","arrowup","[0.675,0.325,0.15,0.85]","","",""
"sailing-trial","149","900719","0.0-11.0-114.0","","","","false","","","","","","","","","","1106.5999999046326","","488.5","","3","1","arrowright","1","arrowright","[0.675,0.325,0.15,0.85]","","",""
"sailing-trial","150","903412","0.0-11.0-115.0","","","","false","","","","","","","","","","null","","1267.0999999046326","","0","0","null","null","arrowup","[0.675,0.325,0.15,0.85]","","",""
"sailing-trial","151","907255","0.0-11.0-116.0","","","","false","","","","","","","","","","628.5","","482","","3","1","arrowright","1","arrowright","[0.675,0.325,0.15,0.85]","","",""
"sailing-trial","152","909525","0.0-11.0-117.0","","","","false","","","","","","","","","","null","","920.0999999046326","","2","0","null","null","arrowup","[0.675,0.325,0.15,0.85]","","",""
"sailing-trial","153","914688","0.0-11.0-118.0","","","","false","","","","","","","","","","829.7999999523163","","474.60000014305115","","0","1","arrowleft","0","arrowleft","[0.675,0.325,0.15,0.85]","","",""
"sailing-trial","154","919237","0.0-11.0-119.0","","","","false","","","","","","","","","","null","","1890.4000000953674","","3","1","null","null","arrowup","[0.675,0.325,0.15,0.85]","","",""
"sailing-trial","155","925103","0.0-11.0-120.0","","","","false","","","","","","","","","","1283.7999999523163","","1017","","0","1","arrowleft","0","arrowleft","[0.675,0.325,0.15,0.85]","","",""
"sailing-trial","156","928037","0.0-11.0-121.0","","","","false","","","","","","","","","","null","","853.7000000476837","","1","1","null","null","arrowup","[0.675,0.325,0.15,0.85]","","",""
"sailing-trial","157","933056","0.0-11.0-122.0","","","","false","","","","","","","","","","823.1000001430511","","206.70000004768372","","3","0","arrowright","1","arrowright","[0.675,0.325,0.15,0.85]","","",""
"sailing-trial","158","936386","0.0-11.0-123.0","","","","false","","","","","","","","","","null","","1012.0999999046326","","3","1","null","null","arrowup","[0.675,0.325,0.15,0.85]","","",""
"sailing-trial","159","940320","0.0-11.0-124.0","","","","false","","","","","","","","","","583.4000000953674","","65.79999995231628","","0","1","arrowleft","0","arrowleft","[0.675,0.325,0.15,0.85]","","",""
"sailing-trial","160","943170","0.0-11.0-125.0","","","","false","","","","","","","","","","null","","1225.7999999523163","","0","1","null","null","arrowup","[0.675,0.325,0.15,0.85]","","",""
"sailing-trial","161","947020","0.0-11.0-126.0","","","","false","","","","","","","","","","751","","51.5","","0","1","arrowleft","0","arrowleft","[0.325,0.675,0.85,0.15]","","",""
"sailing-trial","162","951771","0.0-11.0-127.0","","","","false","","","","","","","","","","null","","1775.2999999523163","","2","1","null","null","arrowup","[0.325,0.675,0.85,0.15]","","",""
"sailing-trial","163","956270","0.0-11.0-128.0","","","","false","","","","","","","","","","538.4000000953674","","205.60000014305115","","0","0","arrowleft","0","arrowleft","[0.325,0.675,0.85,0.15]","","",""
"sailing-trial","164","959420","0.0-11.0-129.0","","","","false","","","","","","","","","","null","","955.7999999523163","","2","1","null","null","arrowup","[0.325,0.675,0.85,0.15]","","",""
"sailing-trial","165","963788","0.0-11.0-130.0","","","","false","","","","","","","","","","630.7999999523163","","83.5","","2","1","arrowright","1","arrowleft","[0.325,0.675,0.85,0.15]","","",""
"sailing-trial","166","968387","0.0-11.0-131.0","","","","false","","","","","","","","","","null","","2865.0999999046326","","0","1","null","null","arrowup","[0.325,0.675,0.85,0.15]","","",""
"sailing-trial","167","973607","0.0-11.0-132.0","","","","false","","","","","","","","","","504.7000000476837","","1558.2000000476837","","2","1","arrowright","1","arrowleft","[0.325,0.675,0.85,0.15]","","",""
"sailing-trial","168","976089","0.0-11.0-133.0","","","","false","","","","","","","","","","null","","921.0999999046326","","2","1","null","null","arrowup","[0.325,0.675,0.85,0.15]","","",""
"sailing-trial","169","979624","0.0-11.0-134.0","","","","false","","","","","","","","","","639.0999999046326","","150.09999990463257","","2","1","arrowright","1","arrowleft","[0.325,0.675,0.85,0.15]","","",""
"sailing-trial","170","981911","0.0-11.0-135.0","","","","false","","","","","","","","","","null","","1020.8000001907349","","2","0","null","null","arrowup","[0.325,0.675,0.85,0.15]","","",""
"sailing-trial","171","985469","0.0-11.0-136.0","","","","false","","","","","","","","","","756.1000001430511","","19","","0","0","arrowleft","0","arrowleft","[0.325,0.675,0.85,0.15]","","",""
"sailing-trial","172","987725","0.0-11.0-137.0","","","","false","","","","","","","","","","null","","838.8999998569489","","0","0","null","null","arrowup","[0.325,0.675,0.85,0.15]","","",""
"sailing-trial","173","991633","0.0-11.0-138.0","","","","false","","","","","","","","","","527.5999999046326","","769.2000000476837","","2","0","arrowright","1","arrowleft","[0.325,0.675,0.85,0.15]","","",""
"sailing-trial","174","993799","0.0-11.0-139.0","","","","false","","","","","","","","","","null","","848.3999998569489","","3","0","null","null","arrowup","[0.325,0.675,0.85,0.15]","","",""
"sailing-trial","175","998106","0.0-11.0-140.0","","","","false","","","","","","","","","","1224.6000001430511","","126","","2","1","arrowright","1","arrowleft","[0.325,0.675,0.85,0.15]","","",""
"sailing-trial","176","1001046","0.0-11.0-141.0","","","","false","","","","","","","","","","null","","1445.7000000476837","","0","0","null","null","arrowup","[0.325,0.675,0.85,0.15]","","",""
"sailing-trial","177","1005090","0.0-11.0-142.0","","","","false","","","","","","","","","","670.1000001430511","","446.90000009536743","","2","1","arrowright","1","arrowleft","[0.325,0.675,0.85,0.15]","","",""
"sailing-trial","178","1008840","0.0-11.0-143.0","","","","false","","","","","","","","","","null","","1926.5","","2","1","null","null","arrowup","[0.325,0.675,0.85,0.15]","","",""
"sailing-trial","179","1013156","0.0-11.0-144.0","","","","false","","","","","","","","","","911.6999998092651","","248.20000004768372","","2","1","arrowright","1","arrowleft","[0.15,0.85,0.675,0.325]","","",""
"sailing-trial","180","1015624","0.0-11.0-145.0","","","","false","","","","","","","","","","null","","1024.6999998092651","","2","0","null","null","arrowup","[0.15,0.85,0.675,0.325]","","",""
"sailing-trial","181","1020808","0.0-11.0-146.0","","","","false","","","","","","","","","","1442.7000000476837","","1184","","0","0","arrowleft","0","arrowleft","[0.15,0.85,0.675,0.325]","","",""
"sailing-trial","182","1023182","0.0-11.0-147.0","","","","false","","","","","","","","","","null","","1006.2000000476837","","1","0","null","null","arrowup","[0.15,0.85,0.675,0.325]","","",""
"sailing-trial","183","1027690","0.0-11.0-148.0","","","","false","","","","","","","","","","695","","557.7999999523163","","3","1","arrowright","1","arrowright","[0.15,0.85,0.675,0.325]","","",""
"sailing-trial","184","1032219","0.0-11.0-149.0","","","","false","","","","","","","","","","null","","3438.4000000953674","","0","0","null","null","arrowup","[0.15,0.85,0.675,0.325]","","",""
"sailing-trial","185","1036808","0.0-11.0-150.0","","","","false","","","","","","","","","","520.6000001430511","","56.299999952316284","","3","0","arrowright","1","arrowright","[0.15,0.85,0.675,0.325]","","",""
"sailing-trial","186","1039973","0.0-11.0-151.0","","","","false","","","","","","","","","","null","","1304.8000001907349","","1","1","null","null","arrowup","[0.15,0.85,0.675,0.325]","","",""
"sailing-trial","187","1043807","0.0-11.0-152.0","","","","false","","","","","","","","","","1015","","57.799999952316284","","2","1","arrowright","1","arrowleft","[0.15,0.85,0.675,0.325]","","",""
"sailing-trial","188","1047958","0.0-11.0-153.0","","","","false","","","","","","","","","","null","","1912.0999999046326","","3","1","null","null","arrowup","[0.15,0.85,0.675,0.325]","","",""
"sailing-trial","189","1052076","0.0-11.0-154.0","","","","false","","","","","","","","","","1166.0999999046326","","157.70000004768372","","3","0","arrowright","1","arrowright","[0.15,0.85,0.675,0.325]","","",""
"sailing-trial","190","1055091","0.0-11.0-155.0","","","","false","","","","","","","","","","null","","1474.4000000953674","","3","1","null","null","arrowup","[0.15,0.85,0.675,0.325]","","",""
"sailing-trial","191","1060324","0.0-11.0-156.0","","","","false","","","","","","","","","","1512.2999999523163","","499","","2","1","arrowright","1","arrowleft","[0.15,0.85,0.675,0.325]","","",""
"sailing-trial","192","1063691","0.0-11.0-157.0","","","","false","","","","","","","","","","null","","1294.6999998092651","","1","1","null","null","arrowup","[0.15,0.85,0.675,0.325]","","",""
"sailing-trial","193","1067809","0.0-11.0-158.0","","","","false","","","","","","","","","","703.5999999046326","","597.1000001430511","","1","1","arrowleft","0","arrowright","[0.15,0.85,0.675,0.325]","","",""
"sailing-trial","194","1073293","0.0-11.0-159.0","","","","false","","","","","","","","","","null","","2479.600000143051","","3","0","null","null","arrowup","[0.15,0.85,0.675,0.325]","","",""
"sailing-trial","195","1078808","0.0-11.0-160.0","","","","false","","","","","","","","","","1203.2999999523163","","1607.6000001430511","","0","0","arrowleft","0","arrowleft","[0.15,0.85,0.675,0.325]","","",""
"sailing-trial","196","1083743","0.0-11.0-161.0","","","","false","","","","","","","","","","null","","2264.600000143051","","1","1","null","null","arrowup","[0.15,0.85,0.675,0.325]","","",""
"sailing-trial","197","1091012","0.0-11.0-162.0","","","","false","","","","","","","","","","2973","","309.90000009536743","","2","0","arrowright","1","arrowleft","[0.325,0.675,0.85,0.15]","","",""
"sailing-trial","198","1093106","0.0-11.0-163.0","","","","false","","","","","","","","","","null","","909.7000000476837","","0","0","null","null","arrowup","[0.325,0.675,0.85,0.15]","","",""
"sailing-trial","199","1096662","0.0-11.0-164.0","","","","false","","","","","","","","","","1022.1000001430511","","253.60000014305115","","3","0","arrowright","1","arrowright","[0.325,0.675,0.85,0.15]","","",""
"sailing-trial","200","1101499","0.0-11.0-165.0","","","","false","","","","","","","","","","null","","3495.7000000476837","","3","0","null","null","arrowup","[0.325,0.675,0.85,0.15]","","",""
"sailing-trial","201","1105909","0.0-11.0-166.0","","","","false","","","","","","","","","","1333.2000000476837","","460","","2","1","arrowright","1","arrowleft","[0.325,0.675,0.85,0.15]","","",""
"sailing-trial","202","1112075","0.0-11.0-167.0","","","","false","","","","","","","","","","null","","4278.200000047684","","1","1","null","null","arrowup","[0.325,0.675,0.85,0.15]","","",""
"sailing-trial","203","1116459","0.0-11.0-168.0","","","","false","","","","","","","","","","560.6000001430511","","311.10000014305115","","1","1","arrowleft","0","arrowright","[0.325,0.675,0.85,0.15]","","",""
"sailing-trial","204","1119926","0.0-11.0-169.0","","","","false","","","","","","","","","","null","","1593.7000000476837","","2","1","null","null","arrowup","[0.325,0.675,0.85,0.15]","","",""
"sailing-trial","205","1125412","0.0-11.0-170.0","","","","false","","","","","","","","","","978.5","","522","","1","0","arrowleft","0","arrowright","[0.325,0.675,0.85,0.15]","","",""
"sailing-trial","206","1129927","0.0-11.0-171.0","","","","false","","","","","","","","","","null","","1562.0999999046326","","2","1","null","null","arrowup","[0.325,0.675,0.85,0.15]","","",""
"sailing-trial","207","1144279","0.0-11.0-172.0","","","","false","","","","","","","","","","9711.399999856949","","614.2000000476837","","0","0","arrowleft","0","arrowleft","[0.325,0.675,0.85,0.15]","","",""
"sailing-trial","208","1152413","0.0-11.0-173.0","","","","false","","","","","","","","","","null","","5118.400000095367","","3","0","null","null","arrowup","[0.325,0.675,0.85,0.15]","","",""
"sailing-trial","209","1158802","0.0-11.0-174.0","","","","false","","","","","","","","","","2100.0999999046326","","464.60000014305115","","3","0","arrowright","1","arrowright","[0.325,0.675,0.85,0.15]","","",""
"sailing-trial","210","1162581","0.0-11.0-175.0","","","","false","","","","","","","","","","null","","779.0999999046326","","3","0","null","null","arrowup","[0.325,0.675,0.85,0.15]","","",""
"sailing-trial","211","1174695","0.0-11.0-176.0","","","","false","","","","","","","","","","3281.5999999046326","","2089.7000000476837","","0","1","arrowleft","0","arrowleft","[0.325,0.675,0.85,0.15]","","",""
"sailing-trial","212","1179028","0.0-11.0-177.0","","","","false","","","","","","","","","","null","","1256.8000001907349","","1","1","null","null","arrowup","[0.325,0.675,0.85,0.15]","","",""
"sailing-trial","213","1183695","0.0-11.0-178.0","","","","false","","","","","","","","","","1181.7000000476837","","554","","3","1","arrowright","1","arrowright","[0.85,0.15,0.325,0.675]","","",""
"sailing-trial","214","1191463","0.0-11.0-179.0","","","","false","","","","","","","","","","null","","1902.9000000953674","","0","1","null","null","arrowup","[0.85,0.15,0.325,0.675]","","",""
"sailing-trial","215","1198675","0.0-11.0-180.0","","","","false","","","","","","","","","","2058.4000000953674","","1530.5999999046326","","0","0","arrowleft","0","arrowleft","[0.85,0.15,0.325,0.675]","","",""
"sailing-trial","216","1203128","0.0-11.0-181.0","","","","false","","","","","","","","","","null","","2182.7000000476837","","3","1","null","null","arrowup","[0.85,0.15,0.325,0.675]","","",""
"sailing-trial","217","1212213","0.0-11.0-182.0","","","","false","","","","","","","","","","1960.5999999046326","","866.5","","3","1","arrowright","1","arrowright","[0.85,0.15,0.325,0.675]","","",""
"sailing-trial","218","1214523","0.0-11.0-183.0","","","","false","","","","","","","","","","null","","901.2000000476837","","3","0","null","null","arrowup","[0.85,0.15,0.325,0.675]","","",""
"sailing-trial","219","1223076","0.0-11.0-184.0","","","","false","","","","","","","","","","4062.0999999046326","","823.3000001907349","","1","0","arrowleft","0","arrowright","[0.85,0.15,0.325,0.675]","","",""
"sailing-trial","220","1225990","0.0-11.0-185.0","","","","false","","","","","","","","","","null","","1486.5","","2","0","null","null","arrowup","[0.85,0.15,0.325,0.675]","","",""
"sailing-trial","221","1235948","0.0-11.0-186.0","","","","false","","","","","","","","","","4616.799999952316","","1318.2999999523163","","3","0","arrowright","1","arrowright","[0.85,0.15,0.325,0.675]","","",""
"sailing-trial","222","1240680","0.0-11.0-187.0","","","","false","","","","","","","","","","null","","1697.4000000953674","","3","1","null","null","arrowup","[0.85,0.15,0.325,0.675]","","",""
"sailing-trial","223","1255147","0.0-11.0-188.0","","","","false","","","","","","","","","","6501.900000095367","","2007.5","","0","1","arrowleft","0","arrowleft","[0.85,0.15,0.325,0.675]","","",""
"sailing-trial","224","1258830","0.0-11.0-189.0","","","","false","","","","","","","","","","null","","1311.5","","0","1","null","null","arrowup","[0.85,0.15,0.325,0.675]","","",""
"sailing-trial","225","1268634","0.0-11.0-190.0","","","","false","","","","","","","","","","2376.7999999523163","","1083.9000000953674","","0","1","arrowleft","0","arrowleft","[0.85,0.15,0.325,0.675]","","",""
"sailing-trial","226","1272431","0.0-11.0-191.0","","","","false","","","","","","","","","","null","","1693.1000001430511","","0","1","null","null","arrowup","[0.85,0.15,0.325,0.675]","","",""
"sailing-trial","227","1279648","0.0-11.0-192.0","","","","false","","","","","","","","","","2064.4000000953674","","90.60000014305115","","0","1","arrowleft","0","arrowleft","[0.85,0.15,0.325,0.675]","","",""
"sailing-trial","228","1284545","0.0-11.0-193.0","","","","false","","","","","","","","","","null","","3428.2000000476837","","2","0","null","null","arrowup","[0.85,0.15,0.325,0.675]","","",""
"sailing-trial","229","1291015","0.0-11.0-194.0","","","","false","","","","","","","","","","3346.199999809265","","403.10000014305115","","0","1","arrowleft","0","arrowleft","[0.675,0.325,0.15,0.85]","","",""
"sailing-trial","230","1297008","0.0-11.0-195.0","","","","false","","","","","","","","","","null","","4434.799999952316","","2","0","null","null","arrowup","[0.675,0.325,0.15,0.85]","","",""
"sailing-trial","231","1302781","0.0-11.0-196.0","","","","false","","","","","","","","","","999.7999999523163","","722.3999998569489","","0","0","arrowleft","0","arrowleft","[0.675,0.325,0.15,0.85]","","",""
"sailing-trial","232","1307101","0.0-11.0-197.0","","","","false","","","","","","","","","","null","","1310","","2","0","null","null","arrowup","[0.675,0.325,0.15,0.85]","","",""
"sailing-trial","233","1312199","0.0-11.0-198.0","","","","false","","","","","","","","","","799.5999999046326","","588","","0","1","arrowleft","0","arrowleft","[0.675,0.325,0.15,0.85]","","",""
"sailing-trial","234","1315359","0.0-11.0-199.0","","","","false","","","","","","","","","","null","","980.3999998569489","","2","0","null","null","arrowup","[0.675,0.325,0.15,0.85]","","",""
"sailing-trial","235","1323650","0.0-11.0-200.0","","","","false","","","","","","","","","","3986.2000000476837","","306.90000009536743","","0","1","arrowleft","0","arrowleft","[0.675,0.325,0.15,0.85]","","",""
"sailing-trial","236","1328908","0.0-11.0-201.0","","","","false","","","","","","","","","","null","","3857.2000000476837","","0","0","null","null","arrowup","[0.675,0.325,0.15,0.85]","","",""
"sailing-trial","237","1336050","0.0-11.0-202.0","","","","false","","","","","","","","","","2414.7999999523163","","191.70000004768372","","3","1","arrowright","1","arrowright","[0.675,0.325,0.15,0.85]","","",""
"sailing-trial","238","1338967","0.0-11.0-203.0","","","","false","","","","","","","","","","null","","940.5999999046326","","0","1","null","null","arrowup","[0.675,0.325,0.15,0.85]","","",""
"sailing-trial","239","1343867","0.0-11.0-204.0","","","","false","","","","","","","","","","1169.1000001430511","","464.09999990463257","","3","1","arrowright","1","arrowright","[0.675,0.325,0.15,0.85]","","",""
"sailing-trial","240","1349934","0.0-11.0-205.0","","","","false","","","","","","","","","","null","","4142.900000095367","","3","1","null","null","arrowup","[0.675,0.325,0.15,0.85]","","",""
"sailing-trial","241","1355751","0.0-11.0-206.0","","","","false","","","","","","","","","","1220.3999998569489","","406.5","","3","1","arrowright","1","arrowright","[0.675,0.325,0.15,0.85]","","",""
"sailing-trial","242","1360973","0.0-11.0-207.0","","","","false","","","","","","","","","","null","","3796.699999809265","","1","0","null","null","arrowup","[0.675,0.325,0.15,0.85]","","",""
"sailing-trial","243","1366700","0.0-11.0-208.0","","","","false","","","","","","","","","","1583.7999999523163","","1140.8000001907349","","2","0","arrowright","1","arrowleft","[0.675,0.325,0.15,0.85]","","",""
"sailing-trial","244","1377884","0.0-11.0-209.0","","","","false","","","","","","","","","","null","","8887.300000190735","","0","1","null","null","arrowup","[0.675,0.325,0.15,0.85]","","",""
"sailing-trial","245","1389320","0.0-11.0-210.0","","","","false","","","","","","","","","","4594.799999952316","","1427.6999998092651","","0","1","arrowleft","0","arrowleft","[0.675,0.325,0.15,0.85]","","",""
"sailing-trial","246","1391923","0.0-11.0-211.0","","","","false","","","","","","","","","","null","","1001","","2","0","null","null","arrowup","[0.675,0.325,0.15,0.85]","","",""
"sailing-trial","247","1397902","0.0-11.0-212.0","","","","false","","","","","","","","","","1997.7999999523163","","664.5999999046326","","0","1","arrowleft","0","arrowleft","[0.675,0.325,0.15,0.85]","","",""
"sailing-trial","248","1403152","0.0-11.0-213.0","","","","false","","","","","","","","","","null","","3291.600000143051","","3","1","null","null","arrowup","[0.675,0.325,0.15,0.85]","","",""
"sailing-trial","249","1408516","0.0-11.0-214.0","","","","false","","","","","","","","","","1109.5999999046326","","364.10000014305115","","0","0","arrowleft","0","arrowleft","[0.675,0.325,0.15,0.85]","","",""
"sailing-trial","250","1411293","0.0-11.0-215.0","","","","false","","","","","","","","","","null","","1526.2999999523163","","1","0","null","null","arrowup","[0.675,0.325,0.15,0.85]","","",""
"sailing-trial","251","1417454","0.0-11.0-216.0","","","","false","","","","","","","","","","2499.7999999523163","","266.09999990463257","","2","1","arrowright","1","arrowleft","[0.85,0.15,0.325,0.675]","","",""
"sailing-trial","252","1419498","0.0-11.0-217.0","","","","false","","","","","","","","","","null","","776.6000001430511","","2","0","null","null","arrowup","[0.85,0.15,0.325,0.675]","","",""
"sailing-trial","253","1429655","0.0-11.0-218.0","","","","false","","","","","","","","","","1465.7000000476837","","6118.799999952316","","1","0","arrowleft","0","arrowright","[0.85,0.15,0.325,0.675]","","",""
"sailing-trial","254","1435721","0.0-11.0-219.0","","","","false","","","","","","","","","","null","","3941.2000000476837","","3","1","null","null","arrowup","[0.85,0.15,0.325,0.675]","","",""
"sailing-trial","255","1443303","0.0-11.0-220.0","","","","false","","","","","","","","","","4847.700000047684","","242","","3","0","arrowright","1","arrowright","[0.85,0.15,0.325,0.675]","","",""
"sailing-trial","256","1447701","0.0-11.0-221.0","","","","false","","","","","","","","","","null","","1402","","1","0","null","null","arrowup","[0.85,0.15,0.325,0.675]","","",""
"sailing-trial","257","1454364","0.0-11.0-222.0","","","","false","","","","","","","","","","2617.899999856949","","671.2000000476837","","1","0","arrowleft","0","arrowright","[0.85,0.15,0.325,0.675]","","",""
"sailing-trial","258","1457644","0.0-11.0-223.0","","","","false","","","","","","","","","","null","","1006.1000001430511","","3","0","null","null","arrowup","[0.85,0.15,0.325,0.675]","","",""
"sailing-trial","259","1462004","0.0-11.0-224.0","","","","false","","","","","","","","","","646.4000000953674","","481.90000009536743","","0","1","arrowleft","0","arrowleft","[0.85,0.15,0.325,0.675]","","",""
"sailing-trial","260","1466106","0.0-11.0-225.0","","","","false","","","","","","","","","","null","","1085.2000000476837","","1","0","null","null","arrowup","[0.85,0.15,0.325,0.675]","","",""
"sailing-trial","261","1471139","0.0-11.0-226.0","","","","false","","","","","","","","","","1700.5","","101.79999995231628","","0","1","arrowleft","0","arrowleft","[0.85,0.15,0.325,0.675]","","",""
"sailing-trial","262","1474621","0.0-11.0-227.0","","","","false","","","","","","","","","","null","","1257.7000000476837","","2","1","null","null","arrowup","[0.85,0.15,0.325,0.675]","","",""
"sailing-trial","263","1478854","0.0-11.0-228.0","","","","false","","","","","","","","","","812.1000001430511","","38.10000014305115","","0","1","arrowleft","0","arrowleft","[0.85,0.15,0.325,0.675]","","",""
"sailing-trial","264","1481973","0.0-11.0-229.0","","","","false","","","","","","","","","","null","","1009.6000001430511","","1","1","null","null","arrowup","[0.85,0.15,0.325,0.675]","","",""
"sailing-trial","265","1486172","0.0-11.0-230.0","","","","false","","","","","","","","","","652.2999999523163","","103.39999985694885","","0","1","arrowleft","0","arrowleft","[0.85,0.15,0.325,0.675]","","",""
"sailing-trial","266","1489243","0.0-11.0-231.0","","","","false","","","","","","","","","","null","","1577.2000000476837","","1","0","null","null","arrowup","[0.85,0.15,0.325,0.675]","","",""
"sailing-trial","267","1496139","0.0-11.0-232.0","","","","false","","","","","","","","","","2515.7000000476837","","1044.5999999046326","","0","1","arrowleft","0","arrowleft","[0.85,0.15,0.325,0.675]","","",""
"sailing-trial","268","1501244","0.0-11.0-233.0","","","","false","","","","","","","","","","null","","2437.7999999523163","","2","0","null","null","arrowup","[0.85,0.15,0.325,0.675]","","",""
"sailing-trial","269","1508005","0.0-11.0-234.0","","","","false","","","","","","","","","","2850.9000000953674","","584.2999999523163","","0","1","arrowleft","0","arrowleft","[0.85,0.15,0.325,0.675]","","",""
"sailing-trial","270","1510737","0.0-11.0-235.0","","","","false","","","","","","","","","","null","","977.5999999046326","","1","0","null","null","arrowup","[0.85,0.15,0.325,0.675]","","",""
"sailing-trial","271","1518641","0.0-11.0-236.0","","","","false","","","","","","","","","","2054","","211.19999980926514","","0","1","arrowleft","0","arrowleft","[0.85,0.15,0.325,0.675]","","",""
"sailing-trial","272","1521989","0.0-11.0-237.0","","","","false","","","","","","","","","","null","","909.7000000476837","","3","1","null","null","arrowup","[0.85,0.15,0.325,0.675]","","",""
"sailing-trial","273","1528240","0.0-11.0-238.0","","","","false","","","","","","","","","","1152.4000000953674","","1051.2000000476837","","0","0","arrowleft","0","arrowleft","[0.15,0.85,0.675,0.325]","","",""
"sailing-trial","274","1534324","0.0-11.0-239.0","","","","false","","","","","","","","","","null","","3718.4000000953674","","2","1","null","null","arrowup","[0.15,0.85,0.675,0.325]","","",""
"sailing-trial","275","1541004","0.0-11.0-240.0","","","","false","","","","","","","","","","2795.7000000476837","","55.200000047683716","","0","0","arrowleft","0","arrowleft","[0.15,0.85,0.675,0.325]","","",""
"sailing-trial","276","1544125","0.0-11.0-241.0","","","","false","","","","","","","","","","null","","1148.8000001907349","","3","0","null","null","arrowup","[0.15,0.85,0.675,0.325]","","",""
"sailing-trial","277","1552143","0.0-11.0-242.0","","","","false","","","","","","","","","","1116.5","","2888.7999999523163","","3","0","arrowright","1","arrowright","[0.15,0.85,0.675,0.325]","","",""
"sailing-trial","278","1554882","0.0-11.0-243.0","","","","false","","","","","","","","","","null","","1067.3999998569489","","1","0","null","null","arrowup","[0.15,0.85,0.675,0.325]","","",""
"sailing-trial","279","1562008","0.0-11.0-244.0","","","","false","","","","","","","","","","1492.2000000476837","","764.7999999523163","","2","1","arrowright","1","arrowleft","[0.15,0.85,0.675,0.325]","","",""
"sailing-trial","280","1565359","0.0-11.0-245.0","","","","false","","","","","","","","","","null","","986.7999999523163","","3","0","null","null","arrowup","[0.15,0.85,0.675,0.325]","","",""
"sailing-trial","281","1571541","0.0-11.0-246.0","","","","false","","","","","","","","","","1040.9000000953674","","1174.6000001430511","","2","1","arrowright","1","arrowleft","[0.15,0.85,0.675,0.325]","","",""
"sailing-trial","282","1577259","0.0-11.0-247.0","","","","false","","","","","","","","","","null","","2761.7999999523163","","2","1","null","null","arrowup","[0.15,0.85,0.675,0.325]","","",""
"sailing-trial","283","1583375","0.0-11.0-248.0","","","","false","","","","","","","","","","893.9000000953674","","170.90000009536743","","2","1","arrowright","1","arrowleft","[0.15,0.85,0.675,0.325]","","",""
"sailing-trial","284","1587228","0.0-11.0-249.0","","","","false","","","","","","","","","","null","","1069.2999999523163","","1","1","null","null","arrowup","[0.15,0.85,0.675,0.325]","","",""
"sailing-trial","285","1594705","0.0-11.0-250.0","","","","false","","","","","","","","","","2863.399999856949","","1241.7000000476837","","2","0","arrowright","1","arrowleft","[0.15,0.85,0.675,0.325]","","",""
"sailing-trial","286","1597498","0.0-11.0-251.0","","","","false","","","","","","","","","","null","","1014.8999998569489","","0","0","null","null","arrowup","[0.15,0.85,0.675,0.325]","","",""
"sailing-trial","287","1605061","0.0-11.0-252.0","","","","false","","","","","","","","","","1684.8999998569489","","1853.7000000476837","","3","0","arrowright","1","arrowright","[0.15,0.85,0.675,0.325]","","",""
"sailing-trial","288","1611923","0.0-11.0-253.0","","","","false","","","","","","","","","","null","","3842.7999999523163","","2","0","null","null","arrowup","[0.15,0.85,0.675,0.325]","","",""
"sailing-trial","289","1621126","0.0-11.0-254.0","","","","false","","","","","","","","","","975.6000001430511","","2543.100000143051","","0","1","arrowleft","0","arrowleft","[0.675,0.325,0.15,0.85]","","",""
"sailing-trial","290","1624239","0.0-11.0-255.0","","","","false","","","","","","","","","","null","","1150.7000000476837","","1","0","null","null","arrowup","[0.675,0.325,0.15,0.85]","","",""
"sailing-trial","291","1630196","0.0-11.0-256.0","","","","false","","","","","","","","","","849.5","","1053.9000000953674","","0","0","arrowleft","0","arrowleft","[0.675,0.325,0.15,0.85]","","",""
"sailing-trial","292","1634710","0.0-11.0-257.0","","","","false","","","","","","","","","","null","","1497.8000001907349","","1","0","null","null","arrowup","[0.675,0.325,0.15,0.85]","","",""
"sailing-trial","293","1640565","0.0-11.0-258.0","","","","false","","","","","","","","","","2840.399999856949","","160.59999990463257","","0","0","arrowleft","0","arrowleft","[0.675,0.325,0.15,0.85]","","",""
"sailing-trial","294","1646495","0.0-11.0-259.0","","","","false","","","","","","","","","","null","","4512.400000095367","","2","0","null","null","arrowup","[0.675,0.325,0.15,0.85]","","",""
"sailing-trial","295","1660696","0.0-11.0-260.0","","","","false","","","","","","","","","","5865.599999904633","","4851.299999952316","","3","1","arrowright","1","arrowright","[0.675,0.325,0.15,0.85]","","",""
"sailing-trial","296","1664530","0.0-11.0-261.0","","","","false","","","","","","","","","","null","","793.7000000476837","","2","0","null","null","arrowup","[0.675,0.325,0.15,0.85]","","",""
"sailing-trial","297","1670502","0.0-11.0-262.0","","","","false","","","","","","","","","","1707.5","","716.2999999523163","","2","0","arrowright","1","arrowleft","[0.675,0.325,0.15,0.85]","","",""
"sailing-trial","298","1673445","0.0-11.0-263.0","","","","false","","","","","","","","","","null","","1241.6000001430511","","3","1","null","null","arrowup","[0.675,0.325,0.15,0.85]","","",""
"sailing-trial","299","1678494","0.0-11.0-264.0","","","","false","","","","","","","","","","1158.8000001907349","","555.5","","3","1","arrowright","1","arrowright","[0.675,0.325,0.15,0.85]","","",""
"sailing-trial","300","1680699","0.0-11.0-265.0","","","","false","","","","","","","","","","null","","984.3999998569489","","0","0","null","null","arrowup","[0.675,0.325,0.15,0.85]","","",""
"sailing-trial","301","1685205","0.0-11.0-266.0","","","","false","","","","","","","","","","1003.7999999523163","","724.4000000953674","","3","0","arrowright","1","arrowright","[0.675,0.325,0.15,0.85]","","",""
"sailing-trial","302","1689229","0.0-11.0-267.0","","","","false","","","","","","","","","","null","","2265.9000000953674","","1","1","null","null","arrowup","[0.675,0.325,0.15,0.85]","","",""
"sailing-trial","303","1696382","0.0-11.0-268.0","","","","false","","","","","","","","","","3226.2000000476837","","110.5","","1","0","arrowleft","0","arrowright","[0.675,0.325,0.15,0.85]","","",""
"sailing-trial","304","1702011","0.0-11.0-269.0","","","","false","","","","","","","","","","null","","511.40000009536743","","0","1","null","null","arrowup","[0.675,0.325,0.15,0.85]","","",""
"sailing-trial","305","1711062","0.0-11.0-270.0","","","","false","","","","","","","","","","1556","","248.60000014305115","","0","1","arrowleft","0","arrowleft","[0.85,0.15,0.325,0.675]","","",""
"sailing-trial","306","1714561","0.0-11.0-271.0","","","","false","","","","","","","","","","null","","1796","","1","0","null","null","arrowup","[0.85,0.15,0.325,0.675]","","",""
"sailing-trial","307","1720830","0.0-11.0-272.0","","","","false","","","","","","","","","","1981","","267.80000019073486","","0","0","arrowleft","0","arrowleft","[0.85,0.15,0.325,0.675]","","",""
"sailing-trial","308","1725076","0.0-11.0-273.0","","","","false","","","","","","","","","","null","","2632.4000000953674","","3","0","null","null","arrowup","[0.85,0.15,0.325,0.675]","","",""
"sailing-trial","309","1730644","0.0-11.0-274.0","","","","false","","","","","","","","","","1005.2000000476837","","1381.7999999523163","","3","0","arrowright","1","arrowright","[0.85,0.15,0.325,0.675]","","",""
"sailing-trial","310","1737847","0.0-11.0-275.0","","","","false","","","","","","","","","","null","","2836.4000000953674","","1","1","null","null","arrowup","[0.85,0.15,0.325,0.675]","","",""
"sailing-trial","311","1743541","0.0-11.0-276.0","","","","false","","","","","","","","","","1056.7000000476837","","597.7000000476837","","2","0","arrowright","1","arrowleft","[0.85,0.15,0.325,0.675]","","",""
"sailing-trial","312","1746909","0.0-11.0-277.0","","","","false","","","","","","","","","","null","","688.7999999523163","","3","0","null","null","arrowup","[0.85,0.15,0.325,0.675]","","",""
"sailing-trial","313","1754964","0.0-11.0-278.0","","","","false","","","","","","","","","","4106.100000143051","","440.09999990463257","","3","1","arrowright","1","arrowright","[0.85,0.15,0.325,0.675]","","",""
"sailing-trial","314","1762455","0.0-11.0-279.0","","","","false","","","","","","","","","","null","","6415.5","","1","0","null","null","arrowup","[0.85,0.15,0.325,0.675]","","",""
"sailing-trial","315","1766557","0.0-11.0-280.0","","","","false","","","","","","","","","","595.8000001907349","","251","","3","0","arrowright","1","arrowright","[0.85,0.15,0.325,0.675]","","",""
"sailing-trial","316","1769792","0.0-11.0-281.0","","","","false","","","","","","","","","","null","","1653.0999999046326","","1","0","null","null","arrowup","[0.85,0.15,0.325,0.675]","","",""
"sailing-trial","317","1773460","0.0-11.0-282.0","","","","false","","","","","","","","","","777.2000000476837","","217.80000019073486","","0","0","arrowleft","0","arrowleft","[0.85,0.15,0.325,0.675]","","",""
"sailing-trial","318","1775736","0.0-11.0-283.0","","","","false","","","","","","","","","","null","","839.2000000476837","","1","0","null","null","arrowup","[0.85,0.15,0.325,0.675]","","",""
"sailing-trial","319","1781731","0.0-11.0-284.0","","","","false","","","","","","","","","","687.8999998569489","","1059.7000000476837","","2","1","arrowright","1","arrowleft","[0.85,0.15,0.325,0.675]","","",""
"sailing-trial","320","1784681","0.0-11.0-285.0","","","","false","","","","","","","","","","null","","1092.9000000953674","","0","1","null","null","arrowup","[0.85,0.15,0.325,0.675]","","",""
"sailing-trial","321","1789692","0.0-11.0-286.0","","","","false","","","","","","","","","","996.8000001907349","","635.4000000953674","","2","0","arrowright","1","arrowleft","[0.675,0.325,0.15,0.85]","","",""
"sailing-trial","322","1794714","0.0-11.0-287.0","","","","false","","","","","","","","","","null","","3627.399999856949","","1","0","null","null","arrowup","[0.675,0.325,0.15,0.85]","","",""
"sailing-trial","323","1799828","0.0-11.0-288.0","","","","false","","","","","","","","","","1620.2999999523163","","825.7000000476837","","2","0","arrowright","1","arrowleft","[0.675,0.325,0.15,0.85]","","",""
"sailing-trial","324","1803148","0.0-11.0-289.0","","","","false","","","","","","","","","","null","","1064.8000001907349","","1","0","null","null","arrowup","[0.675,0.325,0.15,0.85]","","",""
"sailing-trial","325","1815366","0.0-11.0-290.0","","","","false","","","","","","","","","","1141.4000000953674","","309.2000000476837","","1","1","arrowleft","0","arrowright","[0.675,0.325,0.15,0.85]","","",""
"sailing-trial","326","1820783","0.0-11.0-291.0","","","","false","","","","","","","","","","null","","1447","","1","1","null","null","arrowup","[0.675,0.325,0.15,0.85]","","",""
"sailing-trial","327","1826799","0.0-11.0-292.0","","","","false","","","","","","","","","","2296.0999999046326","","586.7999999523163","","3","1","arrowright","1","arrowright","[0.675,0.325,0.15,0.85]","","",""
"sailing-trial","328","1829766","0.0-11.0-293.0","","","","false","","","","","","","","","","null","","1180.3999998569489","","3","1","null","null","arrowup","[0.675,0.325,0.15,0.85]","","",""
"sailing-trial","329","1833851","0.0-11.0-294.0","","","","false","","","","","","","","","","888","","273.5","","3","1","arrowright","1","arrowright","[0.675,0.325,0.15,0.85]","","",""
"sailing-trial","330","1836249","0.0-11.0-295.0","","","","false","","","","","","","","","","null","","1089.1999998092651","","1","0","null","null","arrowup","[0.675,0.325,0.15,0.85]","","",""
"sailing-trial","331","1839916","0.0-11.0-296.0","","","","false","","","","","","","","","","534.6000001430511","","252","","3","1","arrowright","1","arrowright","[0.675,0.325,0.15,0.85]","","",""
"sailing-trial","332","1843566","0.0-11.0-297.0","","","","false","","","","","","","","","","null","","809.5999999046326","","0","1","null","null","arrowup","[0.675,0.325,0.15,0.85]","","",""
"sailing-trial","333","1847319","0.0-11.0-298.0","","","","false","","","","","","","","","","707.6000001430511","","148.90000009536743","","3","1","arrowright","1","arrowright","[0.675,0.325,0.15,0.85]","","",""
"sailing-trial","334","1849740","0.0-11.0-299.0","","","","false","","","","","","","","","","null","","1122","","3","0","null","null","arrowup","[0.675,0.325,0.15,0.85]","","",""
"sailing-trial","335","1853217","0.0-11.0-300.0","","","","false","","","","","","","","","","562.5","","78.70000004768372","","3","1","arrowright","1","arrowright","[0.675,0.325,0.15,0.85]","","",""
"sailing-trial","336","1855632","0.0-11.0-301.0","","","","false","","","","","","","","","","null","","725.8999998569489","","2","1","null","null","arrowup","[0.675,0.325,0.15,0.85]","","",""
"sailing-trial","337","1860235","0.0-11.0-302.0","","","","false","","","","","","","","","","625.5","","1123.5","","3","1","arrowright","1","arrowright","[0.675,0.325,0.15,0.85]","","",""
"sailing-trial","338","1862836","0.0-11.0-303.0","","","","false","","","","","","","","","","null","","904.7000000476837","","3","0","null","null","arrowup","[0.675,0.325,0.15,0.85]","","",""
"sailing-trial","339","1867461","0.0-11.0-304.0","","","","false","","","","","","","","","","838.8000001907349","","568.9000000953674","","1","0","arrowleft","0","arrowright","[0.85,0.15,0.325,0.675]","","",""
"sailing-trial","340","1870285","0.0-11.0-305.0","","","","false","","","","","","","","","","null","","1131.5999999046326","","3","1","null","null","arrowup","[0.85,0.15,0.325,0.675]","","",""
"sailing-trial","341","1874251","0.0-11.0-306.0","","","","false","","","","","","","","","","523.1000001430511","","285.2999999523163","","3","1","arrowright","1","arrowright","[0.85,0.15,0.325,0.675]","","",""
"sailing-trial","342","1879718","0.0-11.0-307.0","","","","false","","","","","","","","","","null","","1407.5999999046326","","0","1","null","null","arrowup","[0.85,0.15,0.325,0.675]","","",""
"sailing-trial","343","1883486","0.0-11.0-308.0","","","","false","","","","","","","","","","612.1000001430511","","267.39999985694885","","3","1","arrowright","1","arrowright","[0.85,0.15,0.325,0.675]","","",""
"sailing-trial","344","1885227","0.0-11.0-309.0","","","","false","","","","","","","","","","null","","623.8999998569489","","2","0","null","null","arrowup","[0.85,0.15,0.325,0.675]","","",""
"sailing-trial","345","1889434","0.0-11.0-310.0","","","","false","","","","","","","","","","494.5","","591.5","","3","1","arrowright","1","arrowright","[0.85,0.15,0.325,0.675]","","",""
"sailing-trial","346","1891581","0.0-11.0-311.0","","","","false","","","","","","","","","","null","","601.7999999523163","","1","0","null","null","arrowup","[0.85,0.15,0.325,0.675]","","",""
"sailing-trial","347","1896229","0.0-11.0-312.0","","","","false","","","","","","","","","","519.0999999046326","","152.40000009536743","","3","0","arrowright","1","arrowright","[0.85,0.15,0.325,0.675]","","",""
"sailing-trial","348","1900678","0.0-11.0-313.0","","","","false","","","","","","","","","","null","","3306.5999999046326","","3","0","null","null","arrowup","[0.85,0.15,0.325,0.675]","","",""
"sailing-trial","349","1904670","0.0-11.0-314.0","","","","false","","","","","","","","","","568.4000000953674","","61.700000047683716","","1","0","arrowleft","0","arrowright","[0.85,0.15,0.325,0.675]","","",""
"sailing-trial","350","1906682","0.0-11.0-315.0","","","","false","","","","","","","","","","null","","720.4000000953674","","2","0","null","null","arrowup","[0.85,0.15,0.325,0.675]","","",""
"sailing-trial","351","1912069","0.0-11.0-316.0","","","","false","","","","","","","","","","1519.7999999523163","","51.19999980926514","","0","1","arrowleft","0","arrowleft","[0.85,0.15,0.325,0.675]","","",""
"sailing-trial","352","1914277","0.0-11.0-317.0","","","","false","","","","","","","","","","null","","848.0999999046326","","2","0","null","null","arrowup","[0.85,0.15,0.325,0.675]","","",""
"sailing-trial","353","1919705","0.0-11.0-318.0","","","","false","","","","","","","","","","1317.3999998569489","","118.5","","0","0","arrowleft","0","arrowleft","[0.85,0.15,0.325,0.675]","","",""
"sailing-trial","354","1922870","0.0-11.0-319.0","","","","false","","","","","","","","","","null","","1890.2000000476837","","3","0","null","null","arrowup","[0.85,0.15,0.325,0.675]","","",""
"sailing-trial","355","1928852","0.0-11.0-320.0","","","","false","","","","","","","","","","688.5","","576.6999998092651","","0","1","arrowleft","0","arrowleft","[0.85,0.15,0.325,0.675]","","",""
"sailing-trial","356","1930590","0.0-11.0-321.0","","","","false","","","","","","","","","","null","","732.2000000476837","","1","0","null","null","arrowup","[0.85,0.15,0.325,0.675]","","",""
"sailing-trial","357","1933805","0.0-11.0-322.0","","","","false","","","","","","","","","","697.1000001430511","","44.09999990463257","","0","0","arrowleft","0","arrowleft","[0.85,0.15,0.325,0.675]","","",""
"sailing-trial","358","1938287","0.0-11.0-323.0","","","","false","","","","","","","","","","null","","2440.2000000476837","","0","1","null","null","arrowup","[0.85,0.15,0.325,0.675]","","",""
"sailing-trial","359","1948454","0.0-11.0-324.0","","","","false","","","","","","","","","","4234","","1150","","3","1","arrowright","1","arrowright","[0.675,0.325,0.15,0.85]","","",""
"sailing-trial","360","1955227","0.0-11.0-325.0","","","","false","","","","","","","","","","null","","5549.099999904633","","2","0","null","null","arrowup","[0.675,0.325,0.15,0.85]","","",""
"sailing-trial","361","1960904","0.0-11.0-326.0","","","","false","","","","","","","","","","1559.3999998569489","","503.5","","3","1","arrowright","1","arrowright","[0.675,0.325,0.15,0.85]","","",""
"sailing-trial","362","1963932","0.0-11.0-327.0","","","","false","","","","","","","","","","null","","1041.3000001907349","","0","0","null","null","arrowup","[0.675,0.325,0.15,0.85]","","",""
"sailing-trial","363","1968477","0.0-11.0-328.0","","","","false","","","","","","","","","","644.7000000476837","","1381.7999999523163","","2","0","arrowright","1","arrowleft","[0.675,0.325,0.15,0.85]","","",""
"sailing-trial","364","1972307","0.0-11.0-329.0","","","","false","","","","","","","","","","null","","836.5","","2","0","null","null","arrowup","[0.675,0.325,0.15,0.85]","","",""
"sailing-trial","365","1977321","0.0-11.0-330.0","","","","false","","","","","","","","","","396.5","","696.5","","0","1","arrowleft","0","arrowleft","[0.675,0.325,0.15,0.85]","","",""
"sailing-trial","366","1981140","0.0-11.0-331.0","","","","false","","","","","","","","","","null","","808.5999999046326","","2","0","null","null","arrowup","[0.675,0.325,0.15,0.85]","","",""
"sailing-trial","367","1988513","0.0-11.0-332.0","","","","false","","","","","","","","","","3934.5","","750.3999998569489","","1","0","arrowleft","0","arrowright","[0.675,0.325,0.15,0.85]","","",""
"sailing-trial","368","1991837","0.0-11.0-333.0","","","","false","","","","","","","","","","null","","1541.7000000476837","","3","1","null","null","arrowup","[0.675,0.325,0.15,0.85]","","",""
"sailing-trial","369","1995471","0.0-11.0-334.0","","","","false","","","","","","","","","","474.2000000476837","","259.2999999523163","","3","1","arrowright","1","arrowright","[0.675,0.325,0.15,0.85]","","",""
"sailing-trial","370","1999897","0.0-11.0-335.0","","","","false","","","","","","","","","","null","","2528.800000190735","","0","0","null","null","arrowup","[0.675,0.325,0.15,0.85]","","",""
"sailing-trial","371","2005538","0.0-11.0-336.0","","","","false","","","","","","","","","","754.5999999046326","","718.4000000953674","","3","1","arrowright","1","arrowright","[0.675,0.325,0.15,0.85]","","",""
"sailing-trial","372","2009642","0.0-11.0-337.0","","","","false","","","","","","","","","","null","","1103.7000000476837","","3","0","null","null","arrowup","[0.675,0.325,0.15,0.85]","","",""
"sailing-trial","373","2013789","0.0-11.0-338.0","","","","false","","","","","","","","","","691.3999998569489","","741.8999998569489","","3","1","arrowright","1","arrowright","[0.675,0.325,0.15,0.85]","","",""
"sailing-trial","374","2015678","0.0-11.0-339.0","","","","false","","","","","","","","","","null","","706.1000001430511","","3","0","null","null","arrowup","[0.675,0.325,0.15,0.85]","","",""
"sailing-trial","375","2019824","0.0-11.0-340.0","","","","false","","","","","","","","","","814","","489.2999999523163","","0","1","arrowleft","0","arrowleft","[0.675,0.325,0.15,0.85]","","",""
"sailing-trial","376","2022161","0.0-11.0-341.0","","","","false","","","","","","","","","","null","","988.1999998092651","","0","0","null","null","arrowup","[0.675,0.325,0.15,0.85]","","",""
"sailing-trial","377","2030809","0.0-11.0-342.0","","","","false","","","","","","","","","","830.7000000476837","","3827.100000143051","","3","0","arrowright","1","arrowright","[0.85,0.15,0.325,0.675]","","",""
"sailing-trial","378","2033706","0.0-11.0-343.0","","","","false","","","","","","","","","","null","","786.0999999046326","","2","1","null","null","arrowup","[0.85,0.15,0.325,0.675]","","",""
"sailing-trial","379","2041722","0.0-11.0-344.0","","","","false","","","","","","","","","","1488.2000000476837","","190","","2","1","arrowright","1","arrowleft","[0.85,0.15,0.325,0.675]","","",""
"sailing-trial","380","2046190","0.0-11.0-345.0","","","","false","","","","","","","","","","null","","1111.5","","1","1","null","null","arrowup","[0.85,0.15,0.325,0.675]","","",""
"sailing-trial","381","2050956","0.0-11.0-346.0","","","","false","","","","","","","","","","887.6000001430511","","491.5","","2","1","arrowright","1","arrowleft","[0.85,0.15,0.325,0.675]","","",""
"sailing-trial","382","2053322","0.0-11.0-347.0","","","","false","","","","","","","","","","null","","740.5","","0","1","null","null","arrowup","[0.85,0.15,0.325,0.675]","","",""
"sailing-trial","383","2056142","0.0-11.0-348.0","","","","false","","","","","","","","","","588.6000001430511","","72.5","","2","0","arrowright","1","arrowleft","[0.85,0.15,0.325,0.675]","","",""
"sailing-trial","384","2059290","0.0-11.0-349.0","","","","false","","","","","","","","","","null","","1325","","1","1","null","null","arrowup","[0.85,0.15,0.325,0.675]","","",""
"sailing-trial","385","2065076","0.0-11.0-350.0","","","","false","","","","","","","","","","551.7000000476837","","278.2999999523163","","0","1","arrowleft","0","arrowleft","[0.85,0.15,0.325,0.675]","","",""
"sailing-trial","386","2068781","0.0-11.0-351.0","","","","false","","","","","","","","","","null","","1691.2999999523163","","1","0","null","null","arrowup","[0.85,0.15,0.325,0.675]","","",""
"sailing-trial","387","2074326","0.0-11.0-352.0","","","","false","","","","","","","","","","1374.5","","167.5","","2","0","arrowright","1","arrowleft","[0.85,0.15,0.325,0.675]","","",""
"sailing-trial","388","2079460","0.0-11.0-353.0","","","","false","","","","","","","","","","null","","2109.7000000476837","","1","0","null","null","arrowup","[0.85,0.15,0.325,0.675]","","",""
"sailing-trial","389","2084192","0.0-11.0-354.0","","","","false","","","","","","","","","","548.7000000476837","","164","","1","0","arrowleft","0","arrowright","[0.85,0.15,0.325,0.675]","","",""
"sailing-trial","390","2088298","0.0-11.0-355.0","","","","false","","","","","","","","","","null","","2075.5","","1","0","null","null","arrowup","[0.85,0.15,0.325,0.675]","","",""
"sailing-trial","391","2093908","0.0-11.0-356.0","","","","false","","","","","","","","","","864","","240.79999995231628","","0","1","arrowleft","0","arrowleft","[0.85,0.15,0.325,0.675]","","",""
"sailing-trial","392","2096737","0.0-11.0-357.0","","","","false","","","","","","","","","","null","","1008","","2","0","null","null","arrowup","[0.85,0.15,0.325,0.675]","","",""
"sailing-trial","393","2103225","0.0-11.0-358.0","","","","false","","","","","","","","","","661","","158.60000014305115","","0","1","arrowleft","0","arrowleft","[0.85,0.15,0.325,0.675]","","",""
"sailing-trial","394","2110291","0.0-11.0-359.0","","","","false","","","","","","","","","","null","","992.2999999523163","","1","1","null","null","arrowup","[0.85,0.15,0.325,0.675]","","",""
"sailing-trial","395","2116208","0.0-11.0-360.0","","","","false","","","","","","","","","","978.4000000953674","","1127","","0","1","arrowleft","0","arrowleft","[0.85,0.15,0.325,0.675]","","",""
"sailing-trial","396","2122796","0.0-11.0-361.0","","","","false","","","","","","","","","","null","","5144.600000143051","","2","0","null","null","arrowup","[0.85,0.15,0.325,0.675]","","",""
"sailing-trial","397","2131848","0.0-11.0-362.0","","","","false","","","","","","","","","","4311","","1373.1000001430511","","3","0","arrowright","1","arrowright","[0.85,0.15,0.325,0.675]","","",""
"sailing-trial","398","2135111","0.0-11.0-363.0","","","","false","","","","","","","","","","null","","1071.2000000476837","","2","1","null","null","arrowup","[0.85,0.15,0.325,0.675]","","",""
"sailing-trial","399","2147510","0.0-11.0-364.0","","","","false","","","","","","","","","","4251.700000047684","","4532.900000095367","","3","1","arrowright","1","arrowright","[0.85,0.15,0.325,0.675]","","",""
"sailing-trial","400","2149907","0.0-11.0-365.0","","","","false","","","","","","","","","","null","","944.7999999523163","","2","0","null","null","arrowup","[0.85,0.15,0.325,0.675]","","",""
"sailing-trial","401","2154496","0.0-11.0-366.0","","","","false","","","","","","","","","","1024","","968.6000001430511","","3","0","arrowright","1","arrowright","[0.675,0.325,0.15,0.85]","","",""
"sailing-trial","402","2157036","0.0-11.0-367.0","","","","false","","","","","","","","","","null","","1399.5","","3","0","null","null","arrowup","[0.675,0.325,0.15,0.85]","","",""
"sailing-trial","403","2162137","0.0-11.0-368.0","","","","false","","","","","","","","","","947.5999999046326","","267.2999999523163","","2","0","arrowright","1","arrowleft","[0.675,0.325,0.15,0.85]","","",""
"sailing-trial","404","2164392","0.0-11.0-369.0","","","","false","","","","","","","","","","null","","997.5","","0","0","null","null","arrowup","[0.675,0.325,0.15,0.85]","","",""
"sailing-trial","405","2169212","0.0-11.0-370.0","","","","false","","","","","","","","","","711.8999998569489","","85.79999995231628","","1","0","arrowleft","0","arrowright","[0.675,0.325,0.15,0.85]","","",""
"sailing-trial","406","2173378","0.0-11.0-371.0","","","","false","","","","","","","","","","null","","1359.5","","0","1","null","null","arrowup","[0.675,0.325,0.15,0.85]","","",""
"sailing-trial","407","2177206","0.0-11.0-372.0","","","","false","","","","","","","","","","1016.8999998569489","","101.29999995231628","","0","0","arrowleft","0","arrowleft","[0.675,0.325,0.15,0.85]","","",""
"sailing-trial","408","2181247","0.0-11.0-373.0","","","","false","","","","","","","","","","null","","2050.7999999523163","","0","0","null","null","arrowup","[0.675,0.325,0.15,0.85]","","",""
"sailing-trial","409","2185237","0.0-11.0-374.0","","","","false","","","","","","","","","","777","","642.3000001907349","","1","0","arrowleft","0","arrowright","[0.675,0.325,0.15,0.85]","","",""
"sailing-trial","410","2192177","0.0-11.0-375.0","","","","false","","","","","","","","","","null","","2956.5999999046326","","0","1","null","null","arrowup","[0.675,0.325,0.15,0.85]","","",""
"sailing-trial","411","2204511","0.0-11.0-376.0","","","","false","","","","","","","","","","7511","","68.5","","3","1","arrowright","1","arrowright","[0.675,0.325,0.15,0.85]","","",""
"sailing-trial","412","2211079","0.0-11.0-377.0","","","","false","","","","","","","","","","null","","1055.5","","0","1","null","null","arrowup","[0.675,0.325,0.15,0.85]","","",""
"sailing-trial","413","2224478","0.0-11.0-378.0","","","","false","","","","","","","","","","4250.700000047684","","5612.300000190735","","3","1","arrowright","1","arrowright","[0.675,0.325,0.15,0.85]","","",""
"sailing-trial","414","2226618","0.0-11.0-379.0","","","","false","","","","","","","","","","null","","1066.4000000953674","","1","0","null","null","arrowup","[0.675,0.325,0.15,0.85]","","",""
"sailing-trial","415","2231803","0.0-11.0-380.0","","","","false","","","","","","","","","","1032.2999999523163","","1597.7999999523163","","3","0","arrowright","1","arrowright","[0.675,0.325,0.15,0.85]","","",""
"sailing-trial","416","2233941","0.0-11.0-381.0","","","","false","","","","","","","","","","null","","988.7000000476837","","3","0","null","null","arrowup","[0.675,0.325,0.15,0.85]","","",""
"sailing-trial","417","2237303","0.0-11.0-382.0","","","","false","","","","","","","","","","494.40000009536743","","408.2000000476837","","2","0","arrowright","1","arrowleft","[0.675,0.325,0.15,0.85]","","",""
"sailing-trial","418","2243013","0.0-11.0-383.0","","","","false","","","","","","","","","","null","","3923.800000190735","","0","1","null","null","arrowup","[0.675,0.325,0.15,0.85]","","",""
"sailing-trial","419","2246563","0.0-11.0-384.0","","","","false","","","","","","","","","","284.7999999523163","","453.7999999523163","","0","1","arrowleft","0","arrowleft","[0.85,0.15,0.325,0.675]","","",""
"sailing-trial","420","2255446","0.0-11.0-385.0","","","","false","","","","","","","","","","null","","6729.200000047684","","0","1","null","null","arrowup","[0.85,0.15,0.325,0.675]","","",""
"sailing-trial","421","2261596","0.0-11.0-386.0","","","","false","","","","","","","","","","2431.2000000476837","","460.5","","0","1","arrowleft","0","arrowleft","[0.85,0.15,0.325,0.675]","","",""
"sailing-trial","422","2267413","0.0-11.0-387.0","","","","false","","","","","","","","","","null","","3954.0999999046326","","0","1","null","null","arrowup","[0.85,0.15,0.325,0.675]","","",""
"sailing-trial","423","2271148","0.0-11.0-388.0","","","","false","","","","","","","","","","516.3999998569489","","150.90000009536743","","0","1","arrowleft","0","arrowleft","[0.85,0.15,0.325,0.675]","","",""
"sailing-trial","424","2276348","0.0-11.0-389.0","","","","false","","","","","","","","","","null","","3497","","0","1","null","null","arrowup","[0.85,0.15,0.325,0.675]","","",""
"sailing-trial","425","2281147","0.0-11.0-390.0","","","","false","","","","","","","","","","1063.0999999046326","","215.79999995231628","","0","1","arrowleft","0","arrowleft","[0.85,0.15,0.325,0.675]","","",""
"sailing-trial","426","2284231","0.0-11.0-391.0","","","","false","","","","","","","","","","null","","976.5","","3","1","null","null","arrowup","[0.85,0.15,0.325,0.675]","","",""
"sailing-trial","427","2287697","0.0-11.0-392.0","","","","false","","","","","","","","","","566.4000000953674","","26","","0","1","arrowleft","0","arrowleft","[0.85,0.15,0.325,0.675]","","",""
"sailing-trial","428","2290197","0.0-11.0-393.0","","","","false","","","","","","","","","","null","","1133","","3","0","null","null","arrowup","[0.85,0.15,0.325,0.675]","","",""
"sailing-trial","429","2295347","0.0-11.0-394.0","","","","false","","","","","","","","","","1726.6000001430511","","494.7000000476837","","0","1","arrowleft","0","arrowleft","[0.85,0.15,0.325,0.675]","","",""
"sailing-trial","430","2302282","0.0-11.0-395.0","","","","false","","","","","","","","","","null","","1279.0999999046326","","3","1","null","null","arrowup","[0.85,0.15,0.325,0.675]","","",""
"sailing-trial","431","2305771","0.0-11.0-396.0","","","","false","","","","","","","","","","613.4000000953674","","114.79999995231628","","0","0","arrowleft","0","arrowleft","[0.85,0.15,0.325,0.675]","","",""
"sailing-trial","432","2310382","0.0-11.0-397.0","","","","false","","","","","","","","","","null","","2087.2999999523163","","0","1","null","null","arrowup","[0.85,0.15,0.325,0.675]","","",""
"sailing-trial","433","2315061","0.0-11.0-398.0","","","","false","","","","","","","","","","1399.3999998569489","","67.10000014305115","","0","1","arrowleft","0","arrowleft","[0.85,0.15,0.325,0.675]","","",""
"sailing-trial","434","2319550","0.0-11.0-399.0","","","","false","","","","","","","","","","null","","2312.5","","3","1","null","null","arrowup","[0.85,0.15,0.325,0.675]","","",""
"instructions","435","2329630","0.0-12.0","","","","","","","","","","10079.599999904633","","","","","","","","","","","","","","","","[{""page_index"":0,""viewing_time"":10079.099999904633}]"
"survey-debrief","436","2385519","0.0-13.0","","","","","","","","","","55887.59999990463","","","","","","","","","","","","","","{""difficulty"":""5"",""fun"":""2"",""clarity"":""5"",""strategy"":""Using each shop once to see which one's gave me gold then repeatedly used them."",""feedback"":""No.""}","",""
