"trial_type","trial_index","time_elapsed","internal_node_id","value","metadata","success","timeout","failed_images","failed_audio","failed_video","browser_interaction","low_quality","rt","stimulus","response","button_pressed","island_rt","island_response","boat_rt","boat_response","boat","reward","island_key","island","boat_key","reward_probabilities","responses","num_errors","view_history"
"pavlovia","0","5","0.0-0.0","","","","","","","","","","","","","","","","","","","","","","","","","",""
"call-function","1","5","0.0-1.0","","{""task_version"":""sailing_part1_v1"",""task_condition"":""good"",""boats"":[""B"",""A"",""C"",""D""],""boats_demo"":[""G"",""E"",""F"",""H""],""islands"":[""A"",""B""],""subject_id"":""14536"",""age"":""10"",""gender"":""Female""}","","","","","","","","","","","","","","","","","","","","","","","",""
"preload","2","1027","0.0-2.0","","","true","false","[]","[]","[]","[{""event"":""fullscreenenter"",""trial"":3,""time"":9404}]","false","","","","","","","","","","","","","","","","",""
"fullscreen","3","10364","0.0-3.0","","","true","","","","","","","","","","","","","","","","","","","","","","",""
"audio-keyboard-response","4","14357","0.0-4.0-0.0","","","","","","","","","","0","audio/beep_loop.wav"," ","","","","","","","","","","","","","",""
"audio-test","5","15612","0.0-4.0-1.0","","","","","","","","","","null","audio/turtle.mp3","","3","","","","","","","","","","","","",""
"audio-test","6","17446","0.0-4.0-2.0","","","","","","","","","","null","audio/shark.mp3","","2","","","","","","","","","","","","",""
"sailing-instructions","7","47610","0.0-5.0-0.0-0.0","","","","","","","","","","","","","","null","null","null","null","null","null","","","","","","",""
"sailing-trial","8","49845","0.0-5.0-0.0-1.0-0.0","","","","false","","","","","","","","","","1098.9999999999927","","null","","null","null","arrowleft","0","null","null","","",""
"sailing-trial","9","51595","0.0-5.0-0.0-1.0-1.0","","","","false","","","","","","","","","","610","","null","","null","null","arrowright","1","null","null","","",""
"sailing-trial","10","53910","0.0-5.0-0.0-1.0-2.0","","","","false","","","","","","","","","","1180","","null","","null","null","arrowleft","0","null","null","","",""
"sailing-instructions","11","93435","0.0-5.0-0.0-2.0","","","","","","","","","","","","","","null","null","null","null","0","null","","","","","","",""
"sailing-trial","12","97723","0.0-5.0-0.0-3.0-0.0","","","","false","","","","","","","","","","null","","1147","","2","1","null","null","arrowleft","[1,1,1,1]","","",""
"sailing-trial","13","100987","0.0-5.0-0.0-3.0-1.0","","","","false","","","","","","","","","","null","","711","","3","1","null","null","arrowright","[1,1,1,1]","","",""
"sailing-trial","14","105488","0.0-5.0-0.0-3.0-2.0","","","","false","","","","","","","","","","null","","940","","2","0","null","null","arrowleft","[0,0,0,0]","","",""
"sailing-instructions","15","113163","0.0-5.0-0.0-4.0","","","","","","","","","","","","","","null","null","null","null","null","null","","","","","","",""
"sailing-comprehension","16","126354","0.0-5.0-0.0-5.0","","","","","","","","","","11571","","","","","","","","","","","","","","[""true"",""true"",""false"",""true""]","0",""
"sailing-instructions","17","188098","0.0-6.0-0.0-0.0","","","","","","","","","","","","","","null","null","null","null","null","null","","","","","","",""
"sailing-comprehension","18","201786","0.0-6.0-0.0-1.0","","","","","","","","","","12851","","","","","","","","","","","","","","[""true"",""false"",""true""]","0",""
"sailing-instructions","19","216082","0.0-7.0-0.0-0.0","","","","","","","","","","","","","","null","null","null","null","null","null","","","","","","",""
"sailing-trial","20","221091","0.0-7.0-0.0-1.0-0.0","","","","false","","","","","","","","","","null","","1965","","0","0","null","null","arrowup","[0.2,0.8,0.2,0.8]","","",""
"sailing-trial","21","225475","0.0-7.0-0.0-1.0-1.0","","","","false","","","","","","","","","","null","","2005","","1","1","null","null","arrowup","[0.2,0.8,0.2,0.8]","","",""
"sailing-trial","22","229742","0.0-7.0-0.0-1.0-2.0","","","","false","","","","","","","","","","null","","1228","","2","0","null","null","arrowup","[0.2,0.8,0.2,0.8]","","",""
"sailing-trial","23","233975","0.0-7.0-0.0-1.0-3.0","","","","false","","","","","","","","","","null","","1200","","3","0","null","null","arrowup","[0.2,0.8,0.2,0.8]","","",""
"sailing-comprehension","24","242122","0.0-7.0-0.0-2.0","","","","","","","","","","4868.000000000029","","","","","","","","","","","","","","[""false""]","0",""
"sailing-instructions","25","252171","0.0-8.0-0.0-0.0","","","","","","","","","","","","","","null","null","null","null","null","null","","","","","","",""
"sailing-comprehension","26","256138","0.0-8.0-0.0-1.0","","","","","","","","","","3108.999999999971","","","","","","","","","","","","","","[""true""]","0",""
"sailing-instructions","27","284507","0.0-9.0-0.0-0.0","","","","","","","","","","","","","","null","null","null","null","null","null","","","","","","",""
"sailing-trial","28","290705","0.0-9.0-0.0-1.0-0.0","","","","false","","","","","","","","","","1380","","636","","0","0","arrowleft","0","arrowleft","[0.2,0.8,0.2,0.8]","","",""
"sailing-trial","29","295869","0.0-9.0-0.0-1.0-1.0","","","","false","","","","","","","","","","734","","845","","3","1","arrowright","1","arrowright","[0.2,0.8,0.2,0.8]","","",""
"sailing-trial","30","299471","0.0-9.0-0.0-1.0-2.0","","","","false","","","","","","","","","","null","","1257","","0","0","null","null","arrowup","[0.2,0.8,0.2,0.8]","","",""
"sailing-trial","31","304220","0.0-9.0-0.0-1.0-3.0","","","","false","","","","","","","","","","686","","820","","3","1","arrowright","1","arrowright","[0.2,0.8,0.2,0.8]","","",""
"sailing-trial","32","307823","0.0-9.0-0.0-1.0-4.0","","","","false","","","","","","","","","","null","","900.0000000000582","","3","0","null","null","arrowup","[0.2,0.8,0.2,0.8]","","",""
"sailing-trial","33","312056","0.0-9.0-0.0-1.0-5.0","","","","false","","","","","","","","","","670","","61","","1","1","arrowleft","0","arrowright","[0.2,0.8,0.2,0.8]","","",""
"sailing-instructions","34","336088","0.0-10.0","","","","","","","","","","","","","","null","null","null","null","null","null","","","","","","",""
"sailing-trial","35","344410","0.0-11.0-0.0","","","","false","","","","","","","","","","3752.000000000058","","213","","3","0","arrowright","1","arrowright","[0.85,0.15,0.325,0.675]","","",""
"sailing-trial","36","348512","0.0-11.0-1.0","","","","false","","","","","","","","","","null","","1062","","2","0","null","null","arrowup","[0.85,0.15,0.325,0.675]","","",""
"sailing-trial","37","353995","0.0-11.0-2.0","","","","false","","","","","","","","","","632.0000000000582","","496","","1","0","arrowleft","0","arrowright","[0.85,0.15,0.325,0.675]","","",""
"sailing-trial","38","357810","0.0-11.0-3.0","","","","false","","","","","","","","","","null","","788.9999999999418","","1","0","null","null","arrowup","[0.85,0.15,0.325,0.675]","","",""
"sailing-trial","39","362180","0.0-11.0-4.0","","","","false","","","","","","","","","","534","","358","","0","1","arrowleft","0","arrowleft","[0.85,0.15,0.325,0.675]","","",""
"sailing-trial","40","366062","0.0-11.0-5.0","","","","false","","","","","","","","","","null","","843.9999999999418","","1","0","null","null","arrowup","[0.85,0.15,0.325,0.675]","","",""
"sailing-trial","41","370213","0.0-11.0-6.0","","","","false","","","","","","","","","","562","","122","","0","1","arrowleft","0","arrowleft","[0.85,0.15,0.325,0.675]","","",""
"sailing-trial","42","373594","0.0-11.0-7.0","","","","false","","","","","","","","","","null","","963","","0","1","null","null","arrowup","[0.85,0.15,0.325,0.675]","","",""
"sailing-trial","43","378376","0.0-11.0-8.0","","","","false","","","","","","","","","","910","","381","","0","1","arrowleft","0","arrowleft","[0.85,0.15,0.325,0.675]","","",""
"sailing-trial","44","381803","0.0-11.0-9.0","","","","false","","","","","","","","","","null","","1142","","0","1","null","null","arrowup","[0.85,0.15,0.325,0.675]","","",""
"sailing-trial","45","387581","0.0-11.0-10.0","","","","false","","","","","","","","","","1212","","207","","0","0","arrowleft","0","arrowleft","[0.85,0.15,0.325,0.675]","","",""
"sailing-trial","46","391590","0.0-11.0-11.0","","","","false","","","","","","","","","","null","","986","","3","0","null","null","arrowup","[0.85,0.15,0.325,0.675]","","",""
"sailing-trial","47","396699","0.0-11.0-12.0","","","","false","","","","","","","","","","480","","292","","2","0","arrowright","1","arrowleft","[0.85,0.15,0.325,0.675]","","",""
"sailing-trial","48","400330","0.0-11.0-13.0","","","","false","","","","","","","","","","null","","1138","","3","1","null","null","arrowup","[0.85,0.15,0.325,0.675]","","",""
"sailing-trial","49","404993","0.0-11.0-14.0","","","","false","","","","","","","","","","806.9999999999418","","295.0000000000582","","3","1","arrowright","1","arrowright","[0.85,0.15,0.325,0.675]","","",""
"sailing-trial","50","409773","0.0-11.0-15.0","","","","false","","","","","","","","","","null","","1036","","3","1","null","null","arrowup","[0.85,0.15,0.325,0.675]","","",""
"sailing-trial","51","414954","0.0-11.0-16.0","","","","false","","","","","","","","","","677","","169","","3","0","arrowright","1","arrowright","[0.85,0.15,0.325,0.675]","","",""
"sailing-trial","52","418038","0.0-11.0-17.0","","","","false","","","","","","","","","","null","","876","","3","1","null","null","arrowup","[0.85,0.15,0.325,0.675]","","",""
"sailing-trial","53","423420","0.0-11.0-18.0","","","","false","","","","","","","","","","783","","248.9999999999418","","0","0","arrowleft","0","arrowleft","[0.675,0.325,0.15,0.85]","","",""
"sailing-trial","54","428321","0.0-11.0-19.0","","","","false","","","","","","","","","","null","","1869","","3","0","null","null","arrowup","[0.675,0.325,0.15,0.85]","","",""
"sailing-trial","55","433355","0.0-11.0-20.0","","","","false","","","","","","","","","","641","","49","","1","0","arrowleft","0","arrowright","[0.675,0.325,0.15,0.85]","","",""
"sailing-trial","56","437536","0.0-11.0-21.0","","","","false","","","","","","","","","","null","","1141.9999999999418","","3","0","null","null","arrowup","[0.675,0.325,0.15,0.85]","","",""
"sailing-trial","57","443070","0.0-11.0-22.0","","","","false","","","","","","","","","","736","","450","","1","0","arrowleft","0","arrowright","[0.675,0.325,0.15,0.85]","","",""
"sailing-trial","58","446505","0.0-11.0-23.0","","","","false","","","","","","","","","","null","","1098","","3","1","null","null","arrowup","[0.675,0.325,0.15,0.85]","","",""
"sailing-trial","59","451622","0.0-11.0-24.0","","","","false","","","","","","","","","","767.0000000000582","","2","","2","0","arrowright","1","arrowleft","[0.675,0.325,0.15,0.85]","","",""
"sailing-trial","60","455788","0.0-11.0-25.0","","","","false","","","","","","","","","","null","","1130","","1","0","null","null","arrowup","[0.675,0.325,0.15,0.85]","","",""
"sailing-trial","61","459924","0.0-11.0-26.0","","","","false","","","","","","","","","","620","","68","","3","1","arrowright","1","arrowright","[0.675,0.325,0.15,0.85]","","",""
"sailing-trial","62","465319","0.0-11.0-27.0","","","","false","","","","","","","","","","null","","2372","","2","0","null","null","arrowup","[0.675,0.325,0.15,0.85]","","",""
"sailing-trial","63","470041","0.0-11.0-28.0","","","","false","","","","","","","","","","598","","653","","1","1","arrowleft","0","arrowright","[0.675,0.325,0.15,0.85]","","",""
"sailing-trial","64","474226","0.0-11.0-29.0","","","","false","","","","","","","","","","null","","1140","","1","0","null","null","arrowup","[0.675,0.325,0.15,0.85]","","",""
"sailing-trial","65","479707","0.0-11.0-30.0","","","","false","","","","","","","","","","652","","485","","0","0","arrowleft","0","arrowleft","[0.675,0.325,0.15,0.85]","","",""
"sailing-trial","66","483200","0.0-11.0-31.0","","","","false","","","","","","","","","","null","","946","","0","1","null","null","arrowup","[0.675,0.325,0.15,0.85]","","",""
"sailing-trial","67","489042","0.0-11.0-32.0","","","","false","","","","","","","","","","1031","","461","","1","0","arrowleft","0","arrowright","[0.675,0.325,0.15,0.85]","","",""
"sailing-trial","68","492714","0.0-11.0-33.0","","","","false","","","","","","","","","","null","","1123","","0","1","null","null","arrowup","[0.675,0.325,0.15,0.85]","","",""
"sailing-trial","69","498276","0.0-11.0-34.0","","","","false","","","","","","","","","","757","","450","","3","0","arrowright","1","arrowright","[0.675,0.325,0.15,0.85]","","",""
"sailing-trial","70","501646","0.0-11.0-35.0","","","","false","","","","","","","","","","null","","1231","","0","1","null","null","arrowup","[0.675,0.325,0.15,0.85]","","",""
"sailing-trial","71","506894","0.0-11.0-36.0","","","","false","","","","","","","","","","985","","419","","2","1","arrowright","1","arrowleft","[0.675,0.325,0.15,0.85]","","",""
"sailing-trial","72","510994","0.0-11.0-37.0","","","","false","","","","","","","","","","null","","985","","0","1","null","null","arrowup","[0.675,0.325,0.15,0.85]","","",""
"sailing-trial","73","515515","0.0-11.0-38.0","","","","false","","","","","","","","","","692.0000000000582","","541.0000000000582","","2","1","arrowright","1","arrowleft","[0.85,0.15,0.325,0.675]","","",""
"sailing-trial","74","519199","0.0-11.0-39.0","","","","false","","","","","","","","","","null","","1295.9999999999418","","3","1","null","null","arrowup","[0.85,0.15,0.325,0.675]","","",""
"sailing-trial","75","525030","0.0-11.0-40.0","","","","false","","","","","","","","","","791.0000000000582","","690.0000000000582","","2","0","arrowright","1","arrowleft","[0.85,0.15,0.325,0.675]","","",""
"sailing-trial","76","528898","0.0-11.0-41.0","","","","false","","","","","","","","","","null","","830","","1","0","null","null","arrowup","[0.85,0.15,0.325,0.675]","","",""
"sailing-trial","77","533135","0.0-11.0-42.0","","","","false","","","","","","","","","","591","","188","","2","1","arrowright","1","arrowleft","[0.85,0.15,0.325,0.675]","","",""
"sailing-trial","78","537483","0.0-11.0-43.0","","","","false","","","","","","","","","","null","","1319.0000000001164","","1","0","null","null","arrowup","[0.85,0.15,0.325,0.675]","","",""
"sailing-trial","79","541817","0.0-11.0-44.0","","","","false","","","","","","","","","","738","","165","","3","1","arrowright","1","arrowright","[0.85,0.15,0.325,0.675]","","",""
"sailing-trial","80","546349","0.0-11.0-45.0","","","","false","","","","","","","","","","null","","1491","","1","0","null","null","arrowup","[0.85,0.15,0.325,0.675]","","",""
"sailing-trial","81","551119","0.0-11.0-46.0","","","","false","","","","","","","","","","545","","618","","3","1","arrowright","1","arrowright","[0.85,0.15,0.325,0.675]","","",""
"sailing-trial","82","555684","0.0-11.0-47.0","","","","false","","","","","","","","","","null","","1527","","0","0","null","null","arrowup","[0.85,0.15,0.325,0.675]","","",""
"sailing-trial","83","562835","0.0-11.0-48.0","","","","false","","","","","","","","","","739","","243","","2","1","arrowright","1","arrowleft","[0.85,0.15,0.325,0.675]","","",""
"sailing-trial","84","565898","0.0-11.0-49.0","","","","false","","","","","","","","","","null","","907","","0","1","null","null","arrowup","[0.85,0.15,0.325,0.675]","","",""
"sailing-trial","85","569789","0.0-11.0-50.0","","","","false","","","","","","","","","","540","","67","","0","1","arrowleft","0","arrowleft","[0.85,0.15,0.325,0.675]","","",""
"sailing-trial","86","573856","0.0-11.0-51.0","","","","false","","","","","","","","","","null","","1030","","0","0","null","null","arrowup","[0.85,0.15,0.325,0.675]","","",""
"sailing-trial","87","577989","0.0-11.0-52.0","","","","false","","","","","","","","","","539.9999999998836","","130","","3","1","arrowright","1","arrowright","[0.85,0.15,0.325,0.675]","","",""
"sailing-trial","88","582106","0.0-11.0-53.0","","","","false","","","","","","","","","","null","","1081","","2","0","null","null","arrowup","[0.85,0.15,0.325,0.675]","","",""
"sailing-trial","89","587090","0.0-11.0-54.0","","","","false","","","","","","","","","","604","","43","","3","0","arrowright","1","arrowright","[0.85,0.15,0.325,0.675]","","",""
"sailing-trial","90","591142","0.0-11.0-55.0","","","","false","","","","","","","","","","null","","1012","","2","0","null","null","arrowup","[0.85,0.15,0.325,0.675]","","",""
"sailing-trial","91","596308","0.0-11.0-56.0","","","","false","","","","","","","","","","524","","283","","2","0","arrowright","1","arrowleft","[0.675,0.325,0.15,0.85]","","",""
"sailing-trial","92","600222","0.0-11.0-57.0","","","","false","","","","","","","","","","null","","1305","","3","1","null","null","arrowup","[0.675,0.325,0.15,0.85]","","",""
"sailing-trial","93","604742","0.0-11.0-58.0","","","","false","","","","","","","","","","566.9999999998836","","122","","0","1","arrowleft","0","arrowleft","[0.675,0.325,0.15,0.85]","","",""
"sailing-trial","94","607827","0.0-11.0-59.0","","","","false","","","","","","","","","","null","","881","","0","1","null","null","arrowup","[0.675,0.325,0.15,0.85]","","",""
"sailing-trial","95","611928","0.0-11.0-60.0","","","","false","","","","","","","","","","555.0000000001164","","241","","0","1","arrowleft","0","arrowleft","[0.675,0.325,0.15,0.85]","","",""
"sailing-trial","96","616128","0.0-11.0-61.0","","","","false","","","","","","","","","","null","","1166","","1","0","null","null","arrowup","[0.675,0.325,0.15,0.85]","","",""
"sailing-trial","97","620511","0.0-11.0-62.0","","","","false","","","","","","","","","","733","","159","","0","1","arrowleft","0","arrowleft","[0.675,0.325,0.15,0.85]","","",""
"sailing-trial","98","624714","0.0-11.0-63.0","","","","false","","","","","","","","","","null","","1175","","1","0","null","null","arrowup","[0.675,0.325,0.15,0.85]","","",""
"sailing-trial","99","630026","0.0-11.0-64.0","","","","false","","","","","","","","","","1163","","646","","0","1","arrowleft","0","arrowleft","[0.675,0.325,0.15,0.85]","","",""
"sailing-trial","100","633497","0.0-11.0-65.0","","","","false","","","","","","","","","","null","","1171","","3","1","null","null","arrowup","[0.675,0.325,0.15,0.85]","","",""
"sailing-trial","101","638715","0.0-11.0-66.0","","","","false","","","","","","","","","","844.9999999998836","","19","","0","0","arrowleft","0","arrowleft","[0.675,0.325,0.15,0.85]","","",""
"sailing-trial","102","642465","0.0-11.0-67.0","","","","false","","","","","","","","","","null","","722","","2","0","null","null","arrowup","[0.675,0.325,0.15,0.85]","","",""
"sailing-trial","103","647599","0.0-11.0-68.0","","","","false","","","","","","","","","","1084.0000000001164","","121","","1","1","arrowleft","0","arrowright","[0.675,0.325,0.15,0.85]","","",""
"sailing-trial","104","651700","0.0-11.0-69.0","","","","false","","","","","","","","","","null","","1062","","2","0","null","null","arrowup","[0.675,0.325,0.15,0.85]","","",""
"sailing-trial","105","656900","0.0-11.0-70.0","","","","false","","","","","","","","","","561","","298","","1","0","arrowleft","0","arrowright","[0.675,0.325,0.15,0.85]","","",""
"sailing-trial","106","660999","0.0-11.0-71.0","","","","false","","","","","","","","","","null","","1074","","2","0","null","null","arrowup","[0.675,0.325,0.15,0.85]","","",""
"sailing-trial","107","666118","0.0-11.0-72.0","","","","false","","","","","","","","","","765","","16","","2","0","arrowright","1","arrowleft","[0.675,0.325,0.15,0.85]","","",""
"sailing-trial","108","669676","0.0-11.0-73.0","","","","false","","","","","","","","","","null","","1047","","0","1","null","null","arrowup","[0.675,0.325,0.15,0.85]","","",""
"sailing-trial","109","674421","0.0-11.0-74.0","","","","false","","","","","","","","","","536","","671","","3","1","arrowright","1","arrowright","[0.675,0.325,0.15,0.85]","","",""
"sailing-trial","110","678519","0.0-11.0-75.0","","","","false","","","","","","","","","","null","","1070","","2","0","null","null","arrowup","[0.675,0.325,0.15,0.85]","","",""
"sailing-trial","111","681698","0.0-11.0-76.0","","","","false","","","","","","","","","","692","","2","","2","0","arrowright","1","arrowleft","[0.675,0.325,0.15,0.85]","","",""
"sailing-trial","112","685755","0.0-11.0-77.0","","","","false","","","","","","","","","","null","","1666","","0","1","null","null","arrowup","[0.675,0.325,0.15,0.85]","","",""
"sailing-trial","113","690138","0.0-11.0-78.0","","","","false","","","","","","","","","","682","","299","","3","1","arrowright","1","arrowright","[0.325,0.675,0.85,0.15]","","",""
"sailing-trial","114","693854","0.0-11.0-79.0","","","","false","","","","","","","","","","null","","1089.0000000001164","","2","1","null","null","arrowup","[0.325,0.675,0.85,0.15]","","",""
"sailing-trial","115","697940","0.0-11.0-80.0","","","","false","","","","","","","","","","574.0000000001164","","44","","2","1","arrowright","1","arrowleft","[0.325,0.675,0.85,0.15]","","",""
"sailing-trial","116","701973","0.0-11.0-81.0","","","","false","","","","","","","","","","null","","1000","","0","0","null","null","arrowup","[0.325,0.675,0.85,0.15]","","",""
"sailing-trial","117","706159","0.0-11.0-82.0","","","","false","","","","","","","","","","536","","81","","1","1","arrowleft","0","arrowright","[0.325,0.675,0.85,0.15]","","",""
"sailing-trial","118","709664","0.0-11.0-83.0","","","","false","","","","","","","","","","null","","1046","","0","1","null","null","arrowup","[0.325,0.675,0.85,0.15]","","",""
"sailing-trial","119","714077","0.0-11.0-84.0","","","","false","","","","","","","","","","540","","129","","0","1","arrowleft","0","arrowleft","[0.325,0.675,0.85,0.15]","","",""
"sailing-trial","120","717244","0.0-11.0-85.0","","","","false","","","","","","","","","","null","","1072","","0","1","null","null","arrowup","[0.325,0.675,0.85,0.15]","","",""
"sailing-trial","121","724094","0.0-11.0-86.0","","","","false","","","","","","","","","","1081","","1429","","3","0","arrowright","1","arrowright","[0.325,0.675,0.85,0.15]","","",""
"sailing-trial","122","728245","0.0-11.0-87.0","","","","false","","","","","","","","","","null","","1117","","3","0","null","null","arrowup","[0.325,0.675,0.85,0.15]","","",""
"sailing-trial","123","733068","0.0-11.0-88.0","","","","false","","","","","","","","","","646.9999999998836","","204.99999999988358","","2","1","arrowright","1","arrowleft","[0.325,0.675,0.85,0.15]","","",""
"sailing-trial","124","736914","0.0-11.0-89.0","","","","false","","","","","","","","","","null","","1617","","2","1","null","null","arrowup","[0.325,0.675,0.85,0.15]","","",""
"sailing-trial","125","741496","0.0-11.0-90.0","","","","false","","","","","","","","","","922","","291","","2","1","arrowright","1","arrowleft","[0.325,0.675,0.85,0.15]","","",""
"sailing-trial","126","745104","0.0-11.0-91.0","","","","false","","","","","","","","","","null","","1196","","0","1","null","null","arrowup","[0.325,0.675,0.85,0.15]","","",""
"sailing-trial","127","749148","0.0-11.0-92.0","","","","false","","","","","","","","","","600","","88","","2","1","arrowright","1","arrowleft","[0.325,0.675,0.85,0.15]","","",""
"sailing-trial","128","753165","0.0-11.0-93.0","","","","false","","","","","","","","","","null","","982.9999999998836","","0","0","null","null","arrowup","[0.325,0.675,0.85,0.15]","","",""
"sailing-trial","129","757466","0.0-11.0-94.0","","","","false","","","","","","","","","","663","","83","","3","1","arrowright","1","arrowright","[0.15,0.85,0.675,0.325]","","",""
"sailing-trial","130","762518","0.0-11.0-95.0","","","","false","","","","","","","","","","null","","2026","","0","0","null","null","arrowup","[0.15,0.85,0.675,0.325]","","",""
"sailing-trial","131","768035","0.0-11.0-96.0","","","","false","","","","","","","","","","710","","458","","3","0","arrowright","1","arrowright","[0.15,0.85,0.675,0.325]","","",""
"sailing-trial","132","772318","0.0-11.0-97.0","","","","false","","","","","","","","","","null","","1241","","3","0","null","null","arrowup","[0.15,0.85,0.675,0.325]","","",""
"sailing-trial","133","777987","0.0-11.0-98.0","","","","false","","","","","","","","","","534","","784","","0","0","arrowleft","0","arrowleft","[0.15,0.85,0.675,0.325]","","",""
"sailing-trial","134","781468","0.0-11.0-99.0","","","","false","","","","","","","","","","null","","1096","","3","1","null","null","arrowup","[0.15,0.85,0.675,0.325]","","",""
"sailing-trial","135","785521","0.0-11.0-100.0","","","","false","","","","","","","","","","625","","82","","1","1","arrowleft","0","arrowright","[0.15,0.85,0.675,0.325]","","",""
"sailing-trial","136","788984","0.0-11.0-101.0","","","","false","","","","","","","","","","null","","1284","","1","1","null","null","arrowup","[0.15,0.85,0.675,0.325]","","",""
"sailing-trial","137","793422","0.0-11.0-102.0","","","","false","","","","","","","","","","675","","418","","1","1","arrowleft","0","arrowright","[0.15,0.85,0.675,0.325]","","",""
"sailing-trial","138","797472","0.0-11.0-103.0","","","","false","","","","","","","","","","null","","1021.9999999998836","","3","0","null","null","arrowup","[0.15,0.85,0.675,0.325]","","",""
"sailing-trial","139","801824","0.0-11.0-104.0","","","","false","","","","","","","","","","683","","296","","1","1","arrowleft","0","arrowright","[0.15,0.85,0.675,0.325]","","",""
"sailing-trial","140","805906","0.0-11.0-105.0","","","","false","","","","","","","","","","null","","1044","","3","0","null","null","arrowup","[0.15,0.85,0.675,0.325]","","",""
"sailing-trial","141","810009","0.0-11.0-106.0","","","","false","","","","","","","","","","673","","13.000000000116415","","1","1","arrowleft","0","arrowright","[0.15,0.85,0.675,0.325]","","",""
"sailing-trial","142","813424","0.0-11.0-107.0","","","","false","","","","","","","","","","null","","1107","","0","1","null","null","arrowup","[0.15,0.85,0.675,0.325]","","",""
"sailing-trial","143","817510","0.0-11.0-108.0","","","","false","","","","","","","","","","836","","54","","1","1","arrowleft","0","arrowright","[0.15,0.85,0.675,0.325]","","",""
"sailing-trial","144","821643","0.0-11.0-109.0","","","","false","","","","","","","","","","null","","1093","","2","0","null","null","arrowup","[0.15,0.85,0.675,0.325]","","",""
"sailing-trial","145","829636","0.0-11.0-110.0","","","","false","","","","","","","","","","1311.9999999998836","","2732","","1","1","arrowleft","0","arrowright","[0.325,0.675,0.85,0.15]","","",""
"sailing-trial","146","832830","0.0-11.0-111.0","","","","false","","","","","","","","","","null","","905","","1","1","null","null","arrowup","[0.325,0.675,0.85,0.15]","","",""
"sailing-trial","147","837114","0.0-11.0-112.0","","","","false","","","","","","","","","","692.9999999998836","","146.99999999988358","","1","1","arrowleft","0","arrowright","[0.325,0.675,0.85,0.15]","","",""
"sailing-trial","148","841586","0.0-11.0-113.0","","","","false","","","","","","","","","","null","","1297","","2","1","null","null","arrowup","[0.325,0.675,0.85,0.15]","","",""
"sailing-trial","149","846748","0.0-11.0-114.0","","","","false","","","","","","","","","","529","","1248","","1","1","arrowleft","0","arrowright","[0.325,0.675,0.85,0.15]","","",""
"sailing-trial","150","853115","0.0-11.0-115.0","","","","false","","","","","","","","","","null","","3333","","2","0","null","null","arrowup","[0.325,0.675,0.85,0.15]","","",""
"sailing-trial","151","857577","0.0-11.0-116.0","","","","false","","","","","","","","","","606","","897","","3","0","arrowright","1","arrowright","[0.325,0.675,0.85,0.15]","","",""
"sailing-trial","152","862080","0.0-11.0-117.0","","","","false","","","","","","","","","","null","","1464","","0","0","null","null","arrowup","[0.325,0.675,0.85,0.15]","","",""
"sailing-trial","153","866167","0.0-11.0-118.0","","","","false","","","","","","","","","","585.0000000001164","","49","","1","1","arrowleft","0","arrowright","[0.325,0.675,0.85,0.15]","","",""
"sailing-trial","154","870500","0.0-11.0-119.0","","","","false","","","","","","","","","","null","","1299.9999999998836","","1","0","null","null","arrowup","[0.325,0.675,0.85,0.15]","","",""
"sailing-trial","155","875104","0.0-11.0-120.0","","","","false","","","","","","","","","","701","","410","","1","1","arrowleft","0","arrowright","[0.325,0.675,0.85,0.15]","","",""
"sailing-trial","156","878801","0.0-11.0-121.0","","","","false","","","","","","","","","","null","","1203","","1","1","null","null","arrowup","[0.325,0.675,0.85,0.15]","","",""
"sailing-trial","157","882887","0.0-11.0-122.0","","","","false","","","","","","","","","","560.9999999998836","","90","","1","1","arrowleft","0","arrowright","[0.325,0.675,0.85,0.15]","","",""
"sailing-trial","158","887018","0.0-11.0-123.0","","","","false","","","","","","","","","","null","","1091","","0","0","null","null","arrowup","[0.325,0.675,0.85,0.15]","","",""
"sailing-trial","159","891656","0.0-11.0-124.0","","","","false","","","","","","","","","","604","","615.0000000001164","","1","1","arrowleft","0","arrowright","[0.325,0.675,0.85,0.15]","","",""
"sailing-trial","160","895786","0.0-11.0-125.0","","","","false","","","","","","","","","","null","","1098","","3","0","null","null","arrowup","[0.325,0.675,0.85,0.15]","","",""
"sailing-trial","161","899956","0.0-11.0-126.0","","","","false","","","","","","","","","","566.0000000001164","","79.99999999988358","","1","1","arrowleft","0","arrowright","[0.15,0.85,0.675,0.325]","","",""
"sailing-trial","162","904104","0.0-11.0-127.0","","","","false","","","","","","","","","","null","","1109","","0","0","null","null","arrowup","[0.15,0.85,0.675,0.325]","","",""
"sailing-trial","163","909289","0.0-11.0-128.0","","","","false","","","","","","","","","","679","","149","","3","0","arrowright","1","arrowright","[0.15,0.85,0.675,0.325]","","",""
"sailing-trial","164","913856","0.0-11.0-129.0","","","","false","","","","","","","","","","null","","1554","","2","0","null","null","arrowup","[0.15,0.85,0.675,0.325]","","",""
"sailing-trial","165","918141","0.0-11.0-130.0","","","","false","","","","","","","","","","586","","178","","1","1","arrowleft","0","arrowright","[0.15,0.85,0.675,0.325]","","",""
"sailing-trial","166","922407","0.0-11.0-131.0","","","","false","","","","","","","","","","null","","1227.9999999998836","","3","0","null","null","arrowup","[0.15,0.85,0.675,0.325]","","",""
"sailing-trial","167","927825","0.0-11.0-132.0","","","","false","","","","","","","","","","587","","491","","1","0","arrowleft","0","arrowright","[0.15,0.85,0.675,0.325]","","",""
"sailing-trial","168","932107","0.0-11.0-133.0","","","","false","","","","","","","","","","null","","1248","","2","0","null","null","arrowup","[0.15,0.85,0.675,0.325]","","",""
"sailing-trial","169","936443","0.0-11.0-134.0","","","","false","","","","","","","","","","583.0000000001164","","413","","1","1","arrowleft","0","arrowright","[0.15,0.85,0.675,0.325]","","",""
"sailing-trial","170","939677","0.0-11.0-135.0","","","","false","","","","","","","","","","null","","1120","","2","1","null","null","arrowup","[0.15,0.85,0.675,0.325]","","",""
"sailing-trial","171","944644","0.0-11.0-136.0","","","","false","","","","","","","","","","1085.0000000001164","","240.00000000011642","","1","1","arrowleft","0","arrowright","[0.15,0.85,0.675,0.325]","","",""
"sailing-trial","172","948723","0.0-11.0-137.0","","","","false","","","","","","","","","","null","","1600","","3","1","null","null","arrowup","[0.15,0.85,0.675,0.325]","","",""
"sailing-trial","173","952413","0.0-11.0-138.0","","","","false","","","","","","","","","","654","","172","","1","1","arrowleft","0","arrowright","[0.15,0.85,0.675,0.325]","","",""
"sailing-trial","174","955040","0.0-11.0-139.0","","","","false","","","","","","","","","","null","","995","","3","0","null","null","arrowup","[0.15,0.85,0.675,0.325]","","",""
"sailing-trial","175","960330","0.0-11.0-140.0","","","","false","","","","","","","","","","722.0000000001164","","230.99999999988358","","0","0","arrowleft","0","arrowleft","[0.15,0.85,0.675,0.325]","","",""
"sailing-trial","176","964730","0.0-11.0-141.0","","","","false","","","","","","","","","","null","","1368.9999999998836","","1","0","null","null","arrowup","[0.15,0.85,0.675,0.325]","","",""
"sailing-trial","177","968530","0.0-11.0-142.0","","","","false","","","","","","","","","","704","","242.99999999988358","","1","1","arrowleft","0","arrowright","[0.15,0.85,0.675,0.325]","","",""
"sailing-trial","178","972648","0.0-11.0-143.0","","","","false","","","","","","","","","","null","","1088.0000000001164","","0","0","null","null","arrowup","[0.15,0.85,0.675,0.325]","","",""
"sailing-trial","179","977232","0.0-11.0-144.0","","","","false","","","","","","","","","","594","","593","","1","1","arrowleft","0","arrowright","[0.15,0.85,0.675,0.325]","","",""
"sailing-trial","180","981499","0.0-11.0-145.0","","","","false","","","","","","","","","","null","","1233","","0","0","null","null","arrowup","[0.15,0.85,0.675,0.325]","","",""
"sailing-trial","181","985106","0.0-11.0-146.0","","","","false","","","","","","","","","","708","","225","","1","0","arrowleft","0","arrowright","[0.325,0.675,0.85,0.15]","","",""
"sailing-trial","182","989468","0.0-11.0-147.0","","","","false","","","","","","","","","","null","","1325","","0","0","null","null","arrowup","[0.325,0.675,0.85,0.15]","","",""
"sailing-trial","183","995103","0.0-11.0-148.0","","","","false","","","","","","","","","","726.9999999998836","","554","","3","0","arrowright","1","arrowright","[0.325,0.675,0.85,0.15]","","",""
"sailing-trial","184","999119","0.0-11.0-149.0","","","","false","","","","","","","","","","null","","977.9999999998836","","3","0","null","null","arrowup","[0.325,0.675,0.85,0.15]","","",""
"sailing-trial","185","1003663","0.0-11.0-150.0","","","","false","","","","","","","","","","794","","105","","2","1","arrowright","1","arrowleft","[0.325,0.675,0.85,0.15]","","",""
"sailing-trial","186","1007837","0.0-11.0-151.0","","","","false","","","","","","","","","","null","","1139","","3","0","null","null","arrowup","[0.325,0.675,0.85,0.15]","","",""
"sailing-trial","187","1011905","0.0-11.0-152.0","","","","false","","","","","","","","","","636.0000000001164","","43","","1","1","arrowleft","0","arrowright","[0.325,0.675,0.85,0.15]","","",""
"sailing-trial","188","1014920","0.0-11.0-153.0","","","","false","","","","","","","","","","null","","1400","","3","0","null","null","arrowup","[0.325,0.675,0.85,0.15]","","",""
"sailing-trial","189","1019823","0.0-11.0-154.0","","","","false","","","","","","","","","","1018","","406","","1","1","arrowleft","0","arrowright","[0.325,0.675,0.85,0.15]","","",""
"sailing-trial","190","1024173","0.0-11.0-155.0","","","","false","","","","","","","","","","null","","1315","","0","0","null","null","arrowup","[0.325,0.675,0.85,0.15]","","",""
"sailing-trial","191","1030391","0.0-11.0-156.0","","","","false","","","","","","","","","","804.0000000001164","","1675.9999999998836","","1","1","arrowleft","0","arrowright","[0.325,0.675,0.85,0.15]","","",""
"sailing-trial","192","1034422","0.0-11.0-157.0","","","","false","","","","","","","","","","null","","993.9999999998836","","2","0","null","null","arrowup","[0.325,0.675,0.85,0.15]","","",""
"sailing-trial","193","1039109","0.0-11.0-158.0","","","","false","","","","","","","","","","265.0000000001164","","966.0000000001164","","1","1","arrowleft","0","arrowright","[0.325,0.675,0.85,0.15]","","",""
"sailing-trial","194","1042480","0.0-11.0-159.0","","","","false","","","","","","","","","","null","","1764.0000000001164","","3","0","null","null","arrowup","[0.325,0.675,0.85,0.15]","","",""
"sailing-trial","195","1047661","0.0-11.0-160.0","","","","false","","","","","","","","","","840.0000000001164","","777.9999999997672","","1","1","arrowleft","0","arrowright","[0.325,0.675,0.85,0.15]","","",""
"sailing-trial","196","1050626","0.0-11.0-161.0","","","","false","","","","","","","","","","null","","1036","","0","1","null","null","arrowup","[0.325,0.675,0.85,0.15]","","",""
"sailing-trial","197","1056177","0.0-11.0-162.0","","","","false","","","","","","","","","","959","","222","","1","0","arrowleft","0","arrowright","[0.325,0.675,0.85,0.15]","","",""
"sailing-trial","198","1059578","0.0-11.0-163.0","","","","false","","","","","","","","","","null","","975","","2","1","null","null","arrowup","[0.325,0.675,0.85,0.15]","","",""
"sailing-trial","199","1064646","0.0-11.0-164.0","","","","false","","","","","","","","","","615","","110","","0","0","arrowleft","0","arrowleft","[0.325,0.675,0.85,0.15]","","",""
"sailing-trial","200","1067729","0.0-11.0-165.0","","","","false","","","","","","","","","","null","","883","","2","1","null","null","arrowup","[0.325,0.675,0.85,0.15]","","",""
"sailing-trial","201","1071714","0.0-11.0-166.0","","","","false","","","","","","","","","","487","","82","","2","1","arrowright","1","arrowleft","[0.325,0.675,0.85,0.15]","","",""
"sailing-trial","202","1074848","0.0-11.0-167.0","","","","false","","","","","","","","","","null","","911","","2","1","null","null","arrowup","[0.325,0.675,0.85,0.15]","","",""
"sailing-trial","203","1078881","0.0-11.0-168.0","","","","false","","","","","","","","","","722","","25","","2","1","arrowright","1","arrowleft","[0.325,0.675,0.85,0.15]","","",""
"sailing-trial","204","1083266","0.0-11.0-169.0","","","","false","","","","","","","","","","null","","1343.0000000002328","","1","0","null","null","arrowup","[0.325,0.675,0.85,0.15]","","",""
"sailing-trial","205","1088597","0.0-11.0-170.0","","","","false","","","","","","","","","","808","","166","","0","0","arrowleft","0","arrowleft","[0.675,0.325,0.15,0.85]","","",""
"sailing-trial","206","1091700","0.0-11.0-171.0","","","","false","","","","","","","","","","null","","987","","0","1","null","null","arrowup","[0.675,0.325,0.15,0.85]","","",""
"sailing-trial","207","1096816","0.0-11.0-172.0","","","","false","","","","","","","","","","683","","96","","0","0","arrowleft","0","arrowleft","[0.675,0.325,0.15,0.85]","","",""
"sailing-trial","208","1100321","0.0-11.0-173.0","","","","false","","","","","","","","","","null","","791","","3","1","null","null","arrowup","[0.675,0.325,0.15,0.85]","","",""
"sailing-trial","209","1104752","0.0-11.0-174.0","","","","false","","","","","","","","","","599","","583","","2","1","arrowright","1","arrowleft","[0.675,0.325,0.15,0.85]","","",""
"sailing-trial","210","1109188","0.0-11.0-175.0","","","","false","","","","","","","","","","null","","1401","","1","0","null","null","arrowup","[0.675,0.325,0.15,0.85]","","",""
"sailing-trial","211","1113544","0.0-11.0-176.0","","","","false","","","","","","","","","","597","","460.99999999976717","","2","0","arrowright","1","arrowleft","[0.675,0.325,0.15,0.85]","","",""
"sailing-trial","212","1117637","0.0-11.0-177.0","","","","false","","","","","","","","","","null","","1063","","1","0","null","null","arrowup","[0.675,0.325,0.15,0.85]","","",""
"sailing-trial","213","1121455","0.0-11.0-178.0","","","","false","","","","","","","","","","587.0000000002328","","187","","3","1","arrowright","1","arrowright","[0.675,0.325,0.15,0.85]","","",""
"sailing-trial","214","1125571","0.0-11.0-179.0","","","","false","","","","","","","","","","null","","1080.9999999997672","","2","0","null","null","arrowup","[0.675,0.325,0.15,0.85]","","",""
"sailing-trial","215","1130374","0.0-11.0-180.0","","","","false","","","","","","","","","","589","","653","","2","0","arrowright","1","arrowleft","[0.675,0.325,0.15,0.85]","","",""
"sailing-trial","216","1134094","0.0-11.0-181.0","","","","false","","","","","","","","","","null","","1394","","1","1","null","null","arrowup","[0.675,0.325,0.15,0.85]","","",""
"sailing-trial","217","1139960","0.0-11.0-182.0","","","","false","","","","","","","","","","746","","910","","3","0","arrowright","1","arrowright","[0.675,0.325,0.15,0.85]","","",""
"sailing-trial","218","1143424","0.0-11.0-183.0","","","","false","","","","","","","","","","null","","1159","","1","1","null","null","arrowup","[0.675,0.325,0.15,0.85]","","",""
"sailing-trial","219","1147807","0.0-11.0-184.0","","","","false","","","","","","","","","","736","","8","","2","0","arrowright","1","arrowleft","[0.675,0.325,0.15,0.85]","","",""
"sailing-trial","220","1151743","0.0-11.0-185.0","","","","false","","","","","","","","","","null","","1608","","3","1","null","null","arrowup","[0.675,0.325,0.15,0.85]","","",""
"sailing-trial","221","1155943","0.0-11.0-186.0","","","","false","","","","","","","","","","672.9999999997672","","267","","3","1","arrowright","1","arrowright","[0.675,0.325,0.15,0.85]","","",""
"sailing-trial","222","1159647","0.0-11.0-187.0","","","","false","","","","","","","","","","null","","1368","","0","1","null","null","arrowup","[0.675,0.325,0.15,0.85]","","",""
"sailing-trial","223","1165829","0.0-11.0-188.0","","","","false","","","","","","","","","","728","","1243","","1","0","arrowleft","0","arrowright","[0.675,0.325,0.15,0.85]","","",""
"sailing-trial","224","1171779","0.0-11.0-189.0","","","","false","","","","","","","","","","null","","2921.999999999767","","3","0","null","null","arrowup","[0.675,0.325,0.15,0.85]","","",""
"sailing-trial","225","1175781","0.0-11.0-190.0","","","","false","","","","","","","","","","385.99999999976717","","149","","2","1","arrowright","1","arrowleft","[0.325,0.675,0.85,0.15]","","",""
"sailing-trial","226","1180129","0.0-11.0-191.0","","","","false","","","","","","","","","","null","","1313","","3","0","null","null","arrowup","[0.325,0.675,0.85,0.15]","","",""
"sailing-trial","227","1186146","0.0-11.0-192.0","","","","false","","","","","","","","","","1173","","494","","0","0","arrowleft","0","arrowleft","[0.325,0.675,0.85,0.15]","","",""
"sailing-trial","228","1190232","0.0-11.0-193.0","","","","false","","","","","","","","","","null","","1340.9999999997672","","2","1","null","null","arrowup","[0.325,0.675,0.85,0.15]","","",""
"sailing-trial","229","1196631","0.0-11.0-194.0","","","","false","","","","","","","","","","912","","1264","","3","0","arrowright","1","arrowright","[0.325,0.675,0.85,0.15]","","",""
"sailing-trial","230","1200930","0.0-11.0-195.0","","","","false","","","","","","","","","","null","","1264","","0","0","null","null","arrowup","[0.325,0.675,0.85,0.15]","","",""
"sailing-trial","231","1206066","0.0-11.0-196.0","","","","false","","","","","","","","","","475","","327","","0","0","arrowleft","0","arrowleft","[0.325,0.675,0.85,0.15]","","",""
"sailing-trial","232","1210465","0.0-11.0-197.0","","","","false","","","","","","","","","","null","","1363","","1","0","null","null","arrowup","[0.325,0.675,0.85,0.15]","","",""
"sailing-trial","233","1215786","0.0-11.0-198.0","","","","false","","","","","","","","","","564.0000000002328","","404","","3","0","arrowright","1","arrowright","[0.325,0.675,0.85,0.15]","","",""
"sailing-trial","234","1219784","0.0-11.0-199.0","","","","false","","","","","","","","","","null","","963","","0","0","null","null","arrowup","[0.325,0.675,0.85,0.15]","","",""
"sailing-trial","235","1224506","0.0-11.0-200.0","","","","false","","","","","","","","","","931","","391","","2","1","arrowright","1","arrowleft","[0.325,0.675,0.85,0.15]","","",""
"sailing-trial","236","1227921","0.0-11.0-201.0","","","","false","","","","","","","","","","null","","1308","","2","1","null","null","arrowup","[0.325,0.675,0.85,0.15]","","",""
"sailing-trial","237","1233321","0.0-11.0-202.0","","","","false","","","","","","","","","","733","","320","","2","0","arrowright","1","arrowleft","[0.325,0.675,0.85,0.15]","","",""
"sailing-trial","238","1237430","0.0-11.0-203.0","","","","false","","","","","","","","","","null","","1381","","1","1","null","null","arrowup","[0.325,0.675,0.85,0.15]","","",""
"sailing-trial","239","1242249","0.0-11.0-204.0","","","","false","","","","","","","","","","1113","","67.00000000023283","","1","1","arrowleft","0","arrowright","[0.325,0.675,0.85,0.15]","","",""
"sailing-trial","240","1246622","0.0-11.0-205.0","","","","false","","","","","","","","","","null","","2062","","3","1","null","null","arrowup","[0.325,0.675,0.85,0.15]","","",""
"sailing-trial","241","1252290","0.0-11.0-206.0","","","","false","","","","","","","","","","1022","","302","","1","0","arrowleft","0","arrowright","[0.325,0.675,0.85,0.15]","","",""
"sailing-trial","242","1256323","0.0-11.0-207.0","","","","false","","","","","","","","","","null","","995","","0","0","null","null","arrowup","[0.325,0.675,0.85,0.15]","","",""
"sailing-trial","243","1261275","0.0-11.0-208.0","","","","false","","","","","","","","","","539","","68","","0","0","arrowleft","0","arrowleft","[0.15,0.85,0.675,0.325]","","",""
"sailing-trial","244","1265259","0.0-11.0-209.0","","","","false","","","","","","","","","","null","","985","","1","1","null","null","arrowup","[0.15,0.85,0.675,0.325]","","",""
"sailing-trial","245","1270711","0.0-11.0-210.0","","","","false","","","","","","","","","","1071","","14","","3","0","arrowright","1","arrowright","[0.15,0.85,0.675,0.325]","","",""
"sailing-trial","246","1275194","0.0-11.0-211.0","","","","false","","","","","","","","","","null","","1444","","0","0","null","null","arrowup","[0.15,0.85,0.675,0.325]","","",""
"sailing-trial","247","1279650","0.0-11.0-212.0","","","","false","","","","","","","","","","644","","226.00000000023283","","1","1","arrowleft","0","arrowright","[0.15,0.85,0.675,0.325]","","",""
"sailing-trial","248","1284446","0.0-11.0-213.0","","","","false","","","","","","","","","","null","","1766","","0","0","null","null","arrowup","[0.15,0.85,0.675,0.325]","","",""
"sailing-trial","249","1288881","0.0-11.0-214.0","","","","false","","","","","","","","","","863","","117","","1","1","arrowleft","0","arrowright","[0.15,0.85,0.675,0.325]","","",""
"sailing-trial","250","1292460","0.0-11.0-215.0","","","","false","","","","","","","","","","null","","1245","","1","1","null","null","arrowup","[0.15,0.85,0.675,0.325]","","",""
"sailing-trial","251","1296594","0.0-11.0-216.0","","","","false","","","","","","","","","","642","","146","","1","1","arrowleft","0","arrowright","[0.15,0.85,0.675,0.325]","","",""
"sailing-trial","252","1300830","0.0-11.0-217.0","","","","false","","","","","","","","","","null","","1195","","3","0","null","null","arrowup","[0.15,0.85,0.675,0.325]","","",""
"sailing-trial","253","1305347","0.0-11.0-218.0","","","","false","","","","","","","","","","622","","524.9999999997672","","1","1","arrowleft","0","arrowright","[0.15,0.85,0.675,0.325]","","",""
"sailing-trial","254","1308630","0.0-11.0-219.0","","","","false","","","","","","","","","","null","","1041","","2","1","null","null","arrowup","[0.15,0.85,0.675,0.325]","","",""
"sailing-trial","255","1313130","0.0-11.0-220.0","","","","false","","","","","","","","","","565","","398.99999999976717","","1","1","arrowleft","0","arrowright","[0.15,0.85,0.675,0.325]","","",""
"sailing-trial","256","1317864","0.0-11.0-221.0","","","","false","","","","","","","","","","null","","1705","","2","0","null","null","arrowup","[0.15,0.85,0.675,0.325]","","",""
"sailing-trial","257","1323132","0.0-11.0-222.0","","","","false","","","","","","","","","","563","","363","","3","0","arrowright","1","arrowright","[0.15,0.85,0.675,0.325]","","",""
"sailing-trial","258","1327217","0.0-11.0-223.0","","","","false","","","","","","","","","","null","","1052","","1","0","null","null","arrowup","[0.15,0.85,0.675,0.325]","","",""
"sailing-trial","259","1331248","0.0-11.0-224.0","","","","false","","","","","","","","","","521","","52","","1","1","arrowleft","0","arrowright","[0.15,0.85,0.675,0.325]","","",""
"sailing-trial","260","1335767","0.0-11.0-225.0","","","","false","","","","","","","","","","null","","1450","","3","1","null","null","arrowup","[0.15,0.85,0.675,0.325]","","",""
"sailing-trial","261","1340318","0.0-11.0-226.0","","","","false","","","","","","","","","","955","","2","","1","1","arrowleft","0","arrowright","[0.325,0.675,0.85,0.15]","","",""
"sailing-trial","262","1344251","0.0-11.0-227.0","","","","false","","","","","","","","","","null","","1172","","1","1","null","null","arrowup","[0.325,0.675,0.85,0.15]","","",""
"sailing-trial","263","1349535","0.0-11.0-228.0","","","","false","","","","","","","","","","519","","426","","1","0","arrowleft","0","arrowright","[0.325,0.675,0.85,0.15]","","",""
"sailing-trial","264","1352449","0.0-11.0-229.0","","","","false","","","","","","","","","","null","","1010.9999999997672","","3","0","null","null","arrowup","[0.325,0.675,0.85,0.15]","","",""
"sailing-trial","265","1357952","0.0-11.0-230.0","","","","false","","","","","","","","","","704.9999999997672","","449","","0","0","arrowleft","0","arrowleft","[0.325,0.675,0.85,0.15]","","",""
"sailing-trial","266","1362454","0.0-11.0-231.0","","","","false","","","","","","","","","","null","","1025.0000000002328","","0","1","null","null","arrowup","[0.325,0.675,0.85,0.15]","","",""
"sailing-trial","267","1368369","0.0-11.0-232.0","","","","false","","","","","","","","","","1483","","71","","1","0","arrowleft","0","arrowright","[0.325,0.675,0.85,0.15]","","",""
"sailing-trial","268","1372270","0.0-11.0-233.0","","","","false","","","","","","","","","","null","","872","","3","0","null","null","arrowup","[0.325,0.675,0.85,0.15]","","",""
"sailing-trial","269","1376673","0.0-11.0-234.0","","","","false","","","","","","","","","","587","","346","","0","1","arrowleft","0","arrowleft","[0.325,0.675,0.85,0.15]","","",""
"sailing-trial","270","1380972","0.0-11.0-235.0","","","","false","","","","","","","","","","null","","1047","","0","1","null","null","arrowup","[0.325,0.675,0.85,0.15]","","",""
"sailing-trial","271","1385157","0.0-11.0-236.0","","","","false","","","","","","","","","","613","","139","","0","1","arrowleft","0","arrowleft","[0.325,0.675,0.85,0.15]","","",""
"sailing-trial","272","1389807","0.0-11.0-237.0","","","","false","","","","","","","","","","null","","1612","","3","0","null","null","arrowup","[0.325,0.675,0.85,0.15]","","",""
"sailing-trial","273","1394942","0.0-11.0-238.0","","","","false","","","","","","","","","","634","","168","","1","1","arrowleft","0","arrowright","[0.325,0.675,0.85,0.15]","","",""
"sailing-trial","274","1398158","0.0-11.0-239.0","","","","false","","","","","","","","","","null","","891","","1","1","null","null","arrowup","[0.325,0.675,0.85,0.15]","","",""
"sailing-trial","275","1402384","0.0-11.0-240.0","","","","false","","","","","","","","","","627","","968","","1","0","arrowleft","0","arrowright","[0.325,0.675,0.85,0.15]","","",""
"sailing-trial","276","1406293","0.0-11.0-241.0","","","","false","","","","","","","","","","null","","1576","","2","1","null","null","arrowup","[0.325,0.675,0.85,0.15]","","",""
"sailing-trial","277","1411794","0.0-11.0-242.0","","","","false","","","","","","","","","","1042.9999999997672","","360","","2","1","arrowright","1","arrowleft","[0.325,0.675,0.85,0.15]","","",""
"sailing-trial","278","1416544","0.0-11.0-243.0","","","","false","","","","","","","","","","null","","1711","","3","0","null","null","arrowup","[0.325,0.675,0.85,0.15]","","",""
"sailing-trial","279","1419968","0.0-11.0-244.0","","","","false","","","","","","","","","","365","","353","","3","0","arrowright","1","arrowright","[0.85,0.15,0.325,0.675]","","",""
"sailing-trial","280","1424297","0.0-11.0-245.0","","","","false","","","","","","","","","","null","","1287","","1","0","null","null","arrowup","[0.85,0.15,0.325,0.675]","","",""
"sailing-trial","281","1429296","0.0-11.0-246.0","","","","false","","","","","","","","","","631.0000000002328","","22.00000000023283","","1","0","arrowleft","0","arrowright","[0.85,0.15,0.325,0.675]","","",""
"sailing-trial","282","1434147","0.0-11.0-247.0","","","","false","","","","","","","","","","null","","1736","","3","1","null","null","arrowup","[0.85,0.15,0.325,0.675]","","",""
"sailing-trial","283","1440215","0.0-11.0-248.0","","","","false","","","","","","","","","","549","","1167","","0","0","arrowleft","0","arrowleft","[0.85,0.15,0.325,0.675]","","",""
"sailing-trial","284","1445015","0.0-11.0-249.0","","","","false","","","","","","","","","","null","","1760.9999999997672","","2","0","null","null","arrowup","[0.85,0.15,0.325,0.675]","","",""
"sailing-trial","285","1450482","0.0-11.0-250.0","","","","false","","","","","","","","","","847","","278","","1","0","arrowleft","0","arrowright","[0.85,0.15,0.325,0.675]","","",""
"sailing-trial","286","1454547","0.0-11.0-251.0","","","","false","","","","","","","","","","null","","1028","","1","0","null","null","arrowup","[0.85,0.15,0.325,0.675]","","",""
"sailing-trial","287","1461270","0.0-11.0-252.0","","","","false","","","","","","","","","","707","","253.99999999976717","","3","1","arrowright","1","arrowright","[0.85,0.15,0.325,0.675]","","",""
"sailing-trial","288","1464487","0.0-11.0-253.0","","","","false","","","","","","","","","","null","","1017","","0","1","null","null","arrowup","[0.85,0.15,0.325,0.675]","","",""
"sailing-trial","289","1469372","0.0-11.0-254.0","","","","false","","","","","","","","","","688","","783.0000000002328","","3","1","arrowright","1","arrowright","[0.85,0.15,0.325,0.675]","","",""
"sailing-trial","290","1473868","0.0-11.0-255.0","","","","false","","","","","","","","","","null","","1467","","1","0","null","null","arrowup","[0.85,0.15,0.325,0.675]","","",""
"sailing-trial","291","1478822","0.0-11.0-256.0","","","","false","","","","","","","","","","593","","27.00000000023283","","3","0","arrowright","1","arrowright","[0.85,0.15,0.325,0.675]","","",""
"sailing-trial","292","1483223","0.0-11.0-257.0","","","","false","","","","","","","","","","null","","1360","","0","0","null","null","arrowup","[0.85,0.15,0.325,0.675]","","",""
"sailing-trial","293","1488804","0.0-11.0-258.0","","","","false","","","","","","","","","","775","","458","","1","0","arrowleft","0","arrowright","[0.85,0.15,0.325,0.675]","","",""
"sailing-trial","294","1492276","0.0-11.0-259.0","","","","false","","","","","","","","","","null","","1074.0000000002328","","3","1","null","null","arrowup","[0.85,0.15,0.325,0.675]","","",""
"sailing-trial","295","1496909","0.0-11.0-260.0","","","","false","","","","","","","","","","651.0000000002328","","404","","2","1","arrowright","1","arrowleft","[0.325,0.675,0.85,0.15]","","",""
"sailing-trial","296","1501508","0.0-11.0-261.0","","","","false","","","","","","","","","","null","","1569","","2","0","null","null","arrowup","[0.325,0.675,0.85,0.15]","","",""
"sailing-trial","297","1506858","0.0-11.0-262.0","","","","false","","","","","","","","","","722","","287","","3","0","arrowright","1","arrowright","[0.325,0.675,0.85,0.15]","","",""
"sailing-trial","298","1510224","0.0-11.0-263.0","","","","false","","","","","","","","","","null","","1085","","3","1","null","null","arrowup","[0.325,0.675,0.85,0.15]","","",""
"sailing-trial","299","1515395","0.0-11.0-264.0","","","","false","","","","","","","","","","591","","238.00000000023283","","1","0","arrowleft","0","arrowright","[0.325,0.675,0.85,0.15]","","",""
"sailing-trial","300","1519295","0.0-11.0-265.0","","","","false","","","","","","","","","","null","","856.9999999997672","","0","0","null","null","arrowup","[0.325,0.675,0.85,0.15]","","",""
"sailing-trial","301","1524327","0.0-11.0-266.0","","","","false","","","","","","","","","","590","","105","","1","0","arrowleft","0","arrowright","[0.325,0.675,0.85,0.15]","","",""
"sailing-trial","302","1527512","0.0-11.0-267.0","","","","false","","","","","","","","","","null","","1064","","2","1","null","null","arrowup","[0.325,0.675,0.85,0.15]","","",""
"sailing-trial","303","1532444","0.0-11.0-268.0","","","","false","","","","","","","","","","543","","50.00000000023283","","2","0","arrowright","1","arrowleft","[0.325,0.675,0.85,0.15]","","",""
"sailing-trial","304","1535564","0.0-11.0-269.0","","","","false","","","","","","","","","","null","","911.0000000002328","","1","1","null","null","arrowup","[0.325,0.675,0.85,0.15]","","",""
"sailing-trial","305","1539797","0.0-11.0-270.0","","","","false","","","","","","","","","","651.0000000002328","","98","","3","1","arrowright","1","arrowright","[0.325,0.675,0.85,0.15]","","",""
"sailing-trial","306","1543164","0.0-11.0-271.0","","","","false","","","","","","","","","","null","","1226.0000000002328","","2","1","null","null","arrowup","[0.325,0.675,0.85,0.15]","","",""
"sailing-trial","307","1548416","0.0-11.0-272.0","","","","false","","","","","","","","","","570","","348.99999999976717","","3","0","arrowright","1","arrowright","[0.325,0.675,0.85,0.15]","","",""
"sailing-trial","308","1552632","0.0-11.0-273.0","","","","false","","","","","","","","","","null","","1178.0000000002328","","3","0","null","null","arrowup","[0.325,0.675,0.85,0.15]","","",""
"sailing-trial","309","1557082","0.0-11.0-274.0","","","","false","","","","","","","","","","630.0000000002328","","469","","1","1","arrowleft","0","arrowright","[0.325,0.675,0.85,0.15]","","",""
"sailing-trial","310","1561032","0.0-11.0-275.0","","","","false","","","","","","","","","","null","","924","","2","0","null","null","arrowup","[0.325,0.675,0.85,0.15]","","",""
"sailing-trial","311","1567733","0.0-11.0-276.0","","","","false","","","","","","","","","","1766","","573","","1","0","arrowleft","0","arrowright","[0.325,0.675,0.85,0.15]","","",""
"sailing-trial","312","1570984","0.0-11.0-277.0","","","","false","","","","","","","","","","null","","946","","1","1","null","null","arrowup","[0.325,0.675,0.85,0.15]","","",""
"sailing-trial","313","1576052","0.0-11.0-278.0","","","","false","","","","","","","","","","1158.9999999997672","","399","","3","1","arrowright","1","arrowright","[0.325,0.675,0.85,0.15]","","",""
"sailing-trial","314","1581155","0.0-11.0-279.0","","","","false","","","","","","","","","","null","","2962","","3","1","null","null","arrowup","[0.325,0.675,0.85,0.15]","","",""
"sailing-trial","315","1587737","0.0-11.0-280.0","","","","false","","","","","","","","","","811","","1420.9999999997672","","3","0","arrowright","1","arrowright","[0.325,0.675,0.85,0.15]","","",""
"sailing-trial","316","1592857","0.0-11.0-281.0","","","","false","","","","","","","","","","null","","1748","","0","1","null","null","arrowup","[0.325,0.675,0.85,0.15]","","",""
"sailing-trial","317","1598287","0.0-11.0-282.0","","","","false","","","","","","","","","","1253","","572","","1","1","arrowleft","0","arrowright","[0.15,0.85,0.675,0.325]","","",""
"sailing-trial","318","1602405","0.0-11.0-283.0","","","","false","","","","","","","","","","null","","2049","","1","1","null","null","arrowup","[0.15,0.85,0.675,0.325]","","",""
"sailing-trial","319","1607269","0.0-11.0-284.0","","","","false","","","","","","","","","","841","","390","","1","1","arrowleft","0","arrowright","[0.15,0.85,0.675,0.325]","","",""
"sailing-trial","320","1610506","0.0-11.0-285.0","","","","false","","","","","","","","","","null","","1065","","1","1","null","null","arrowup","[0.15,0.85,0.675,0.325]","","",""
"sailing-trial","321","1614640","0.0-11.0-286.0","","","","false","","","","","","","","","","619","","90","","1","1","arrowleft","0","arrowright","[0.15,0.85,0.675,0.325]","","",""
"sailing-trial","322","1617974","0.0-11.0-287.0","","","","false","","","","","","","","","","null","","1030","","3","1","null","null","arrowup","[0.15,0.85,0.675,0.325]","","",""
"sailing-trial","323","1622908","0.0-11.0-288.0","","","","false","","","","","","","","","","575.0000000002328","","19","","3","0","arrowright","1","arrowright","[0.15,0.85,0.675,0.325]","","",""
"sailing-trial","324","1626243","0.0-11.0-289.0","","","","false","","","","","","","","","","null","","1225","","1","1","null","null","arrowup","[0.15,0.85,0.675,0.325]","","",""
"sailing-trial","325","1630569","0.0-11.0-290.0","","","","false","","","","","","","","","","722.9999999997672","","5.999999999767169","","1","1","arrowleft","0","arrowright","[0.15,0.85,0.675,0.325]","","",""
"sailing-trial","326","1634441","0.0-11.0-291.0","","","","false","","","","","","","","","","null","","1738.0000000002328","","2","1","null","null","arrowup","[0.15,0.85,0.675,0.325]","","",""
"sailing-trial","327","1639274","0.0-11.0-292.0","","","","false","","","","","","","","","","902","","163","","1","1","arrowleft","0","arrowright","[0.15,0.85,0.675,0.325]","","",""
"sailing-trial","328","1643729","0.0-11.0-293.0","","","","false","","","","","","","","","","null","","1427","","3","0","null","null","arrowup","[0.15,0.85,0.675,0.325]","","",""
"sailing-trial","329","1648714","0.0-11.0-294.0","","","","false","","","","","","","","","","596","","36","","3","0","arrowright","1","arrowright","[0.15,0.85,0.675,0.325]","","",""
"sailing-trial","330","1653462","0.0-11.0-295.0","","","","false","","","","","","","","","","null","","1723","","0","0","null","null","arrowup","[0.15,0.85,0.675,0.325]","","",""
"sailing-trial","331","1661749","0.0-11.0-296.0","","","","false","","","","","","","","","","2183.000000000233","","93.00000000023283","","1","1","arrowleft","0","arrowright","[0.15,0.85,0.675,0.325]","","",""
"sailing-trial","332","1667267","0.0-11.0-297.0","","","","false","","","","","","","","","","null","","2487","","0","0","null","null","arrowup","[0.15,0.85,0.675,0.325]","","",""
"sailing-trial","333","1671318","0.0-11.0-298.0","","","","false","","","","","","","","","","539","","23","","3","1","arrowright","1","arrowright","[0.15,0.85,0.675,0.325]","","",""
"sailing-trial","334","1674835","0.0-11.0-299.0","","","","false","","","","","","","","","","null","","1293","","1","1","null","null","arrowup","[0.15,0.85,0.675,0.325]","","",""
"sailing-trial","335","1679486","0.0-11.0-300.0","","","","false","","","","","","","","","","792","","323","","3","1","arrowright","1","arrowright","[0.15,0.85,0.675,0.325]","","",""
"sailing-trial","336","1683335","0.0-11.0-301.0","","","","false","","","","","","","","","","null","","1359","","1","1","null","null","arrowup","[0.15,0.85,0.675,0.325]","","",""
"sailing-trial","337","1688435","0.0-11.0-302.0","","","","false","","","","","","","","","","534","","224.00000000023283","","3","0","arrowright","1","arrowright","[0.325,0.675,0.85,0.15]","","",""
"sailing-trial","338","1692205","0.0-11.0-303.0","","","","false","","","","","","","","","","null","","1424","","2","1","null","null","arrowup","[0.325,0.675,0.85,0.15]","","",""
"sailing-trial","339","1697338","0.0-11.0-304.0","","","","false","","","","","","","","","","704","","70","","0","0","arrowleft","0","arrowleft","[0.325,0.675,0.85,0.15]","","",""
"sailing-trial","340","1702288","0.0-11.0-305.0","","","","false","","","","","","","","","","null","","1986","","1","1","null","null","arrowup","[0.325,0.675,0.85,0.15]","","",""
"sailing-trial","341","1707672","0.0-11.0-306.0","","","","false","","","","","","","","","","683.9999999997672","","354","","1","0","arrowleft","0","arrowright","[0.325,0.675,0.85,0.15]","","",""
"sailing-trial","342","1712971","0.0-11.0-307.0","","","","false","","","","","","","","","","null","","2273.999999999767","","3","0","null","null","arrowup","[0.325,0.675,0.85,0.15]","","",""
"sailing-trial","343","1718639","0.0-11.0-308.0","","","","false","","","","","","","","","","503.99999999976717","","821","","3","0","arrowright","1","arrowright","[0.325,0.675,0.85,0.15]","","",""
"sailing-trial","344","1722189","0.0-11.0-309.0","","","","false","","","","","","","","","","null","","1364","","1","1","null","null","arrowup","[0.325,0.675,0.85,0.15]","","",""
"sailing-trial","345","1727174","0.0-11.0-310.0","","","","false","","","","","","","","","","687.0000000002328","","96","","0","0","arrowleft","0","arrowleft","[0.325,0.675,0.85,0.15]","","",""
"sailing-trial","346","1733292","0.0-11.0-311.0","","","","false","","","","","","","","","","null","","3072","","0","0","null","null","arrowup","[0.325,0.675,0.85,0.15]","","",""
"sailing-trial","347","1738442","0.0-11.0-312.0","","","","false","","","","","","","","","","702","","108","","3","0","arrowright","1","arrowright","[0.325,0.675,0.85,0.15]","","",""
"sailing-trial","348","1742093","0.0-11.0-313.0","","","","false","","","","","","","","","","null","","992","","2","1","null","null","arrowup","[0.325,0.675,0.85,0.15]","","",""
"sailing-trial","349","1746377","0.0-11.0-314.0","","","","false","","","","","","","","","","688","","368","","1","1","arrowleft","0","arrowright","[0.325,0.675,0.85,0.15]","","",""
"sailing-trial","350","1749788","0.0-11.0-315.0","","","","false","","","","","","","","","","null","","1259","","1","1","null","null","arrowup","[0.325,0.675,0.85,0.15]","","",""
"sailing-trial","351","1754246","0.0-11.0-316.0","","","","false","","","","","","","","","","608","","463","","1","1","arrowleft","0","arrowright","[0.325,0.675,0.85,0.15]","","",""
"sailing-trial","352","1757528","0.0-11.0-317.0","","","","false","","","","","","","","","","null","","1046","","1","1","null","null","arrowup","[0.325,0.675,0.85,0.15]","","",""
"sailing-trial","353","1761863","0.0-11.0-318.0","","","","false","","","","","","","","","","516","","455","","1","1","arrowleft","0","arrowright","[0.15,0.85,0.675,0.325]","","",""
"sailing-trial","354","1766198","0.0-11.0-319.0","","","","false","","","","","","","","","","null","","1124","","3","0","null","null","arrowup","[0.15,0.85,0.675,0.325]","","",""
"sailing-trial","355","1770130","0.0-11.0-320.0","","","","false","","","","","","","","","","333","","10","","1","1","arrowleft","0","arrowright","[0.15,0.85,0.675,0.325]","","",""
"sailing-trial","356","1774049","0.0-11.0-321.0","","","","false","","","","","","","","","","null","","1385","","0","1","null","null","arrowup","[0.15,0.85,0.675,0.325]","","",""
"sailing-trial","357","1778031","0.0-11.0-322.0","","","","false","","","","","","","","","","625","","11","","0","1","arrowleft","0","arrowleft","[0.15,0.85,0.675,0.325]","","",""
"sailing-trial","358","1780610","0.0-11.0-323.0","","","","false","","","","","","","","","","null","","996","","2","0","null","null","arrowup","[0.15,0.85,0.675,0.325]","","",""
"sailing-trial","359","1785984","0.0-11.0-324.0","","","","false","","","","","","","","","","697.0000000002328","","319","","0","0","arrowleft","0","arrowleft","[0.15,0.85,0.675,0.325]","","",""
"sailing-trial","360","1789034","0.0-11.0-325.0","","","","false","","","","","","","","","","null","","788","","1","1","null","null","arrowup","[0.15,0.85,0.675,0.325]","","",""
"sailing-trial","361","1794183","0.0-11.0-326.0","","","","false","","","","","","","","","","513.0000000002328","","293","","1","0","arrowleft","0","arrowright","[0.15,0.85,0.675,0.325]","","",""
"sailing-trial","362","1798167","0.0-11.0-327.0","","","","false","","","","","","","","","","null","","948","","3","0","null","null","arrowup","[0.15,0.85,0.675,0.325]","","",""
"sailing-trial","363","1803502","0.0-11.0-328.0","","","","false","","","","","","","","","","612","","370","","3","0","arrowright","1","arrowright","[0.15,0.85,0.675,0.325]","","",""
"sailing-trial","364","1807603","0.0-11.0-329.0","","","","false","","","","","","","","","","null","","1070","","3","0","null","null","arrowup","[0.15,0.85,0.675,0.325]","","",""
"sailing-trial","365","1813136","0.0-11.0-330.0","","","","false","","","","","","","","","","776","","408","","1","0","arrowleft","0","arrowright","[0.15,0.85,0.675,0.325]","","",""
"sailing-trial","366","1816771","0.0-11.0-331.0","","","","false","","","","","","","","","","null","","1275","","1","1","null","null","arrowup","[0.15,0.85,0.675,0.325]","","",""
"sailing-trial","367","1821689","0.0-11.0-332.0","","","","false","","","","","","","","","","879","","211","","1","1","arrowleft","0","arrowright","[0.15,0.85,0.675,0.325]","","",""
"sailing-trial","368","1825646","0.0-11.0-333.0","","","","false","","","","","","","","","","null","","1378.0000000002328","","2","1","null","null","arrowup","[0.15,0.85,0.675,0.325]","","",""
"sailing-trial","369","1830990","0.0-11.0-334.0","","","","false","","","","","","","","","","653","","495","","1","0","arrowleft","0","arrowright","[0.675,0.325,0.15,0.85]","","",""
"sailing-trial","370","1836407","0.0-11.0-335.0","","","","false","","","","","","","","","","null","","2379.999999999767","","3","0","null","null","arrowup","[0.675,0.325,0.15,0.85]","","",""
"sailing-trial","371","1840625","0.0-11.0-336.0","","","","false","","","","","","","","","","564.0000000002328","","277","","0","1","arrowleft","0","arrowleft","[0.675,0.325,0.15,0.85]","","",""
"sailing-trial","372","1844276","0.0-11.0-337.0","","","","false","","","","","","","","","","null","","1329.9999999997672","","1","1","null","null","arrowup","[0.675,0.325,0.15,0.85]","","",""
"sailing-trial","373","1849375","0.0-11.0-338.0","","","","false","","","","","","","","","","679","","76","","1","0","arrowleft","0","arrowright","[0.675,0.325,0.15,0.85]","","",""
"sailing-trial","374","1853443","0.0-11.0-339.0","","","","false","","","","","","","","","","null","","1771.9999999997672","","0","1","null","null","arrowup","[0.675,0.325,0.15,0.85]","","",""
"sailing-trial","375","1858525","0.0-11.0-340.0","","","","false","","","","","","","","","","720.0000000002328","","28.00000000023283","","0","0","arrowleft","0","arrowleft","[0.675,0.325,0.15,0.85]","","",""
"sailing-trial","376","1862645","0.0-11.0-341.0","","","","false","","","","","","","","","","null","","1085","","2","0","null","null","arrowup","[0.675,0.325,0.15,0.85]","","",""
"sailing-trial","377","1867613","0.0-11.0-342.0","","","","false","","","","","","","","","","630","","84","","3","1","arrowright","1","arrowright","[0.675,0.325,0.15,0.85]","","",""
"sailing-trial","378","1872012","0.0-11.0-343.0","","","","false","","","","","","","","","","null","","1708.9999999997672","","3","1","null","null","arrowup","[0.675,0.325,0.15,0.85]","","",""
"sailing-trial","379","1875561","0.0-11.0-344.0","","","","false","","","","","","","","","","598","","442","","3","0","arrowright","1","arrowright","[0.675,0.325,0.15,0.85]","","",""
"sailing-trial","380","1879931","0.0-11.0-345.0","","","","false","","","","","","","","","","null","","1329","","1","0","null","null","arrowup","[0.675,0.325,0.15,0.85]","","",""
"sailing-trial","381","1884798","0.0-11.0-346.0","","","","false","","","","","","","","","","654.9999999997672","","804.9999999997672","","3","1","arrowright","1","arrowright","[0.675,0.325,0.15,0.85]","","",""
"sailing-trial","382","1889147","0.0-11.0-347.0","","","","false","","","","","","","","","","null","","1316.0000000002328","","1","0","null","null","arrowup","[0.675,0.325,0.15,0.85]","","",""
"sailing-trial","383","1893032","0.0-11.0-348.0","","","","false","","","","","","","","","","453","","26.99999999976717","","0","1","arrowleft","0","arrowleft","[0.675,0.325,0.15,0.85]","","",""
"sailing-trial","384","1895949","0.0-11.0-349.0","","","","false","","","","","","","","","","null","","841.0000000002328","","0","1","null","null","arrowup","[0.675,0.325,0.15,0.85]","","",""
"sailing-trial","385","1900300","0.0-11.0-350.0","","","","false","","","","","","","","","","539.9999999997672","","367.00000000023283","","0","1","arrowleft","0","arrowleft","[0.85,0.15,0.325,0.675]","","",""
"sailing-trial","386","1904900","0.0-11.0-351.0","","","","false","","","","","","","","","","null","","1574.0000000002328","","2","0","null","null","arrowup","[0.85,0.15,0.325,0.675]","","",""
"sailing-trial","387","1909419","0.0-11.0-352.0","","","","false","","","","","","","","","","671","","450","","3","1","arrowright","1","arrowright","[0.85,0.15,0.325,0.675]","","",""
"sailing-trial","388","1916087","0.0-11.0-353.0","","","","false","","","","","","","","","","null","","3639","","3","0","null","null","arrowup","[0.85,0.15,0.325,0.675]","","",""
"sailing-trial","389","1921034","0.0-11.0-354.0","","","","false","","","","","","","","","","698.0000000002328","","47","","0","1","arrowleft","0","arrowleft","[0.85,0.15,0.325,0.675]","","",""
"sailing-trial","390","1925554","0.0-11.0-355.0","","","","false","","","","","","","","","","null","","2296","","0","1","null","null","arrowup","[0.85,0.15,0.325,0.675]","","",""
"sailing-trial","391","1931022","0.0-11.0-356.0","","","","false","","","","","","","","","","1013.9999999997672","","102.99999999976717","","1","0","arrowleft","0","arrowright","[0.85,0.15,0.325,0.675]","","",""
"sailing-trial","392","1936840","0.0-11.0-357.0","","","","false","","","","","","","","","","null","","2139.000000000233","","2","1","null","null","arrowup","[0.85,0.15,0.325,0.675]","","",""
"sailing-trial","393","1941806","0.0-11.0-358.0","","","","false","","","","","","","","","","826","","633","","3","1","arrowright","1","arrowright","[0.85,0.15,0.325,0.675]","","",""
"sailing-trial","394","1946357","0.0-11.0-359.0","","","","false","","","","","","","","","","null","","1515","","1","0","null","null","arrowup","[0.85,0.15,0.325,0.675]","","",""
"sailing-trial","395","1950726","0.0-11.0-360.0","","","","false","","","","","","","","","","477","","530","","0","1","arrowleft","0","arrowleft","[0.85,0.15,0.325,0.675]","","",""
"sailing-trial","396","1953241","0.0-11.0-361.0","","","","false","","","","","","","","","","null","","859","","2","0","null","null","arrowup","[0.85,0.15,0.325,0.675]","","",""
"sailing-trial","397","1958592","0.0-11.0-362.0","","","","false","","","","","","","","","","896","","686","","0","1","arrowleft","0","arrowleft","[0.85,0.15,0.325,0.675]","","",""
"sailing-trial","398","1961744","0.0-11.0-363.0","","","","false","","","","","","","","","","null","","1041","","0","1","null","null","arrowup","[0.85,0.15,0.325,0.675]","","",""
"sailing-trial","399","1966228","0.0-11.0-364.0","","","","false","","","","","","","","","","642","","441","","0","1","arrowleft","0","arrowleft","[0.85,0.15,0.325,0.675]","","",""
"sailing-trial","400","1969927","0.0-11.0-365.0","","","","false","","","","","","","","","","null","","1140","","2","1","null","null","arrowup","[0.85,0.15,0.325,0.675]","","",""
"sailing-trial","401","1974779","0.0-11.0-366.0","","","","false","","","","","","","","","","570.0000000002328","","80","","0","0","arrowleft","0","arrowleft","[0.675,0.325,0.15,0.85]","","",""
"sailing-trial","402","1979411","0.0-11.0-367.0","","","","false","","","","","","","","","","null","","1605","","1","0","null","null","arrowup","[0.675,0.325,0.15,0.85]","","",""
"sailing-trial","403","1984131","0.0-11.0-368.0","","","","false","","","","","","","","","","530","","577","","3","1","arrowright","1","arrowright","[0.675,0.325,0.15,0.85]","","",""
"sailing-trial","404","1990162","0.0-11.0-369.0","","","","false","","","","","","","","","","null","","3006","","2","0","null","null","arrowup","[0.675,0.325,0.15,0.85]","","",""
"sailing-trial","405","1995513","0.0-11.0-370.0","","","","false","","","","","","","","","","605","","405","","1","0","arrowleft","0","arrowright","[0.675,0.325,0.15,0.85]","","",""
"sailing-trial","406","1999616","0.0-11.0-371.0","","","","false","","","","","","","","","","null","","1070","","2","0","null","null","arrowup","[0.675,0.325,0.15,0.85]","","",""
"sailing-trial","407","2004282","0.0-11.0-372.0","","","","false","","","","","","","","","","792","","418","","3","1","arrowright","1","arrowright","[0.675,0.325,0.15,0.85]","","",""
"sailing-trial","408","2010008","0.0-11.0-373.0","","","","false","","","","","","","","","","null","","3326","","2","0","null","null","arrowup","[0.675,0.325,0.15,0.85]","","",""
"sailing-trial","409","2014736","0.0-11.0-374.0","","","","false","","","","","","","","","","761","","497.00000000023283","","1","1","arrowleft","0","arrowright","[0.675,0.325,0.15,0.85]","","",""
"sailing-trial","410","2018018","0.0-11.0-375.0","","","","false","","","","","","","","","","null","","1184","","1","1","null","null","arrowup","[0.675,0.325,0.15,0.85]","","",""
"sailing-trial","411","2024685","0.0-11.0-376.0","","","","false","","","","","","","","","","1767.0000000002328","","119","","3","1","arrowright","1","arrowright","[0.675,0.325,0.15,0.85]","","",""
"sailing-trial","412","2029702","0.0-11.0-377.0","","","","false","","","","","","","","","","null","","1974.0000000002328","","2","0","null","null","arrowup","[0.675,0.325,0.15,0.85]","","",""
"sailing-trial","413","2034886","0.0-11.0-378.0","","","","false","","","","","","","","","","436.99999999976717","","409","","0","0","arrowleft","0","arrowleft","[0.675,0.325,0.15,0.85]","","",""
"sailing-trial","414","2038937","0.0-11.0-379.0","","","","false","","","","","","","","","","null","","1004","","2","0","null","null","arrowup","[0.675,0.325,0.15,0.85]","","",""
"sailing-trial","415","2043080","0.0-11.0-380.0","","","","false","","","","","","","","","","1086","","339.00000000023283","","1","0","arrowleft","0","arrowright","[0.675,0.325,0.15,0.85]","","",""
"sailing-trial","416","2046154","0.0-11.0-381.0","","","","false","","","","","","","","","","null","","1032.0000000002328","","2","1","null","null","arrowup","[0.675,0.325,0.15,0.85]","","",""
"sailing-trial","417","2051383","0.0-11.0-382.0","","","","false","","","","","","","","","","605.0000000002328","","341","","1","0","arrowleft","0","arrowright","[0.85,0.15,0.325,0.675]","","",""
"sailing-trial","418","2055322","0.0-11.0-383.0","","","","false","","","","","","","","","","null","","913","","3","0","null","null","arrowup","[0.85,0.15,0.325,0.675]","","",""
"sailing-trial","419","2059541","0.0-11.0-384.0","","","","false","","","","","","","","","","509.99999999976717","","117.00000000023283","","0","1","arrowleft","0","arrowleft","[0.85,0.15,0.325,0.675]","","",""
"sailing-trial","420","2064607","0.0-11.0-385.0","","","","false","","","","","","","","","","null","","2273.999999999767","","3","0","null","null","arrowup","[0.85,0.15,0.325,0.675]","","",""
"sailing-trial","421","2068984","0.0-11.0-386.0","","","","false","","","","","","","","","","721","","379.00000000046566","","1","0","arrowleft","0","arrowright","[0.85,0.15,0.325,0.675]","","",""
"sailing-trial","422","2072416","0.0-11.0-387.0","","","","false","","","","","","","","","","null","","1766.9999999997672","","2","0","null","null","arrowup","[0.85,0.15,0.325,0.675]","","",""
"sailing-trial","423","2077777","0.0-11.0-388.0","","","","false","","","","","","","","","","726.9999999997672","","1233.0000000002328","","0","1","arrowleft","0","arrowleft","[0.85,0.15,0.325,0.675]","","",""
"sailing-trial","424","2080632","0.0-11.0-389.0","","","","false","","","","","","","","","","null","","1174.9999999997672","","2","0","null","null","arrowup","[0.85,0.15,0.325,0.675]","","",""
"sailing-trial","425","2084545","0.0-11.0-390.0","","","","false","","","","","","","","","","799","","100.00000000023283","","3","1","arrowright","1","arrowright","[0.85,0.15,0.325,0.675]","","",""
"sailing-trial","426","2086894","0.0-11.0-391.0","","","","false","","","","","","","","","","null","","774.0000000004657","","2","0","null","null","arrowup","[0.85,0.15,0.325,0.675]","","",""
"sailing-trial","427","2090103","0.0-11.0-392.0","","","","false","","","","","","","","","","626.0000000002328","","9.00000000023283","","1","0","arrowleft","0","arrowright","[0.85,0.15,0.325,0.675]","","",""
"sailing-trial","428","2093279","0.0-11.0-393.0","","","","false","","","","","","","","","","null","","1192","","1","0","null","null","arrowup","[0.85,0.15,0.325,0.675]","","",""
"sailing-trial","429","2097596","0.0-11.0-394.0","","","","false","","","","","","","","","","591.9999999997672","","33","","3","1","arrowright","1","arrowright","[0.85,0.15,0.325,0.675]","","",""
"sailing-trial","430","2102163","0.0-11.0-395.0","","","","false","","","","","","","","","","null","","1530.9999999995343","","0","0","null","null","arrowup","[0.85,0.15,0.325,0.675]","","",""
"sailing-trial","431","2106397","0.0-11.0-396.0","","","","false","","","","","","","","","","620.9999999995343","","11","","3","1","arrowright","1","arrowright","[0.85,0.15,0.325,0.675]","","",""
"sailing-trial","432","2108918","0.0-11.0-397.0","","","","false","","","","","","","","","","null","","952","","1","0","null","null","arrowup","[0.85,0.15,0.325,0.675]","","",""
"sailing-trial","433","2113015","0.0-11.0-398.0","","","","false","","","","","","","","","","527","","295","","3","1","arrowright","1","arrowright","[0.85,0.15,0.325,0.675]","","",""
"sailing-trial","434","2116464","0.0-11.0-399.0","","","","false","","","","","","","","","","null","","1320","","0","1","null","null","arrowup","[0.85,0.15,0.325,0.675]","","",""
"instructions","435","2120760","0.0-12.0","","","","","","","","","","4283.000000000466","","","","","","","","","","","","","","","","[{""page_index"":0,""viewing_time"":4282}]"
"survey-debrief","436","2130900","0.0-13.0","","","","","","","","","","10139","","","","","","","","","","","","","","{""difficulty"":""4"",""fun"":""5"",""clarity"":""5"",""strategy"":"""",""feedback"":""""}","",""
