"trial_type","trial_index","time_elapsed","internal_node_id","value","metadata","success","timeout","failed_images","failed_audio","failed_video","browser_interaction","low_quality","rt","stimulus","response","button_pressed","island_rt","island_response","boat_rt","boat_response","boat","reward","island_key","island","boat_key","reward_probabilities","responses","num_errors","view_history"
"pavlovia","0","1","0.0-0.0","","","","","","","","","","","","","","","","","","","","","","","","","",""
"call-function","1","2","0.0-1.0","","{""task_version"":""sailing_part1_v1"",""task_condition"":""good"",""boats"":[""D"",""A"",""B"",""C""],""boats_demo"":[""F"",""E"",""G"",""H""],""islands"":[""B"",""A""],""subject_id"":""13888"",""age"":""14"",""gender"":""Male""}","","","","","","","","","","","","","","","","","","","","","","","",""
"preload","2","1317","0.0-2.0","","","true","false","[]","[]","[]","[{""event"":""fullscreenenter"",""trial"":3,""time"":2561}]","false","","","","","","","","","","","","","","","","",""
"fullscreen","3","3553","0.0-3.0","","","true","","","","","","","","","","","","","","","","","","","","","","",""
"audio-keyboard-response","4","5875","0.0-4.0-0.0","","","","","","","","","","2240","audio/beep_loop.wav"," ","","","","","","","","","","","","","",""
"audio-test","5","7314","0.0-4.0-1.0","","","","","","","","","","null","audio/turtle.mp3","","3","","","","","","","","","","","","",""
"audio-test","6","8969","0.0-4.0-2.0","","","","","","","","","","null","audio/shark.mp3","","2","","","","","","","","","","","","",""
"sailing-instructions","7","39503","0.0-5.0-0.0-0.0","","","","","","","","","","","","","","null","null","null","null","null","null","","","","","","",""
"sailing-trial","8","43185","0.0-5.0-0.0-1.0-0.0","","","","false","","","","","","","","","","2565.5","","null","","null","null","arrowleft","0","null","null","","",""
"sailing-trial","9","44809","0.0-5.0-0.0-1.0-1.0","","","","false","","","","","","","","","","511.0999999642372","","null","","null","null","arrowright","1","null","null","","",""
"sailing-trial","10","47179","0.0-5.0-0.0-1.0-2.0","","","","false","","","","","","","","","","1255.800000011921","","null","","null","null","arrowleft","0","null","null","","",""
"sailing-instructions","11","88533","0.0-5.0-0.0-2.0","","","","","","","","","","","","","","null","null","null","null","0","null","","","","","","",""
"sailing-trial","12","92213","0.0-5.0-0.0-3.0-0.0","","","","false","","","","","","","","","","null","","1014.8000000119209","","2","1","null","null","arrowleft","[1,1,1,1]","","",""
"sailing-trial","13","95086","0.0-5.0-0.0-3.0-1.0","","","","false","","","","","","","","","","null","","586.2000000476837","","3","1","null","null","arrowright","[1,1,1,1]","","",""
"sailing-trial","14","97528","0.0-5.0-0.0-3.0-2.0","","","","false","","","","","","","","","","null","","770.5","","3","0","null","null","arrowright","[0,0,0,0]","","",""
"sailing-instructions","15","104743","0.0-5.0-0.0-4.0","","","","","","","","","","","","","","null","null","null","null","null","null","","","","","","",""
"sailing-comprehension","16","120701","0.0-5.0-0.0-5.0","","","","","","","","","","11290.199999988079","","","","","","","","","","","","","","[""true"",""false"",""false"",""true""]","1",""
"sailing-instructions","17","152406","0.0-5.0-0.1-0.1","","","","","","","","","","","","","","null","null","null","null","null","null","","","","","","",""
"sailing-trial","18","154557","0.0-5.0-0.1-1.1-0.1","","","","false","","","","","","","","","","1030.8999999761581","","null","","null","null","arrowleft","0","null","null","","",""
"sailing-trial","19","156042","0.0-5.0-0.1-1.1-1.1","","","","false","","","","","","","","","","380.39999997615814","","null","","null","null","arrowright","1","null","null","","",""
"sailing-trial","20","157242","0.0-5.0-0.1-1.1-2.1","","","","false","","","","","","","","","","88.5","","null","","null","null","arrowright","1","null","null","","",""
"sailing-instructions","21","195414","0.0-5.0-0.1-2.1","","","","","","","","","","","","","","null","null","null","null","0","null","","","","","","",""
"sailing-trial","22","198519","0.0-5.0-0.1-3.1-0.1","","","","false","","","","","","","","","","null","","170","","2","1","null","null","arrowleft","[1,1,1,1]","","",""
"sailing-trial","23","202306","0.0-5.0-0.1-3.1-1.1","","","","false","","","","","","","","","","null","","1644.8999999761581","","3","1","null","null","arrowright","[1,1,1,1]","","",""
"sailing-trial","24","205313","0.0-5.0-0.1-3.1-2.1","","","","false","","","","","","","","","","null","","618.0999999642372","","3","0","null","null","arrowright","[0,0,0,0]","","",""
"sailing-instructions","25","212575","0.0-5.0-0.1-4.1","","","","","","","","","","","","","","null","null","null","null","null","null","","","","","","",""
"sailing-comprehension","26","218115","0.0-5.0-0.1-5.1","","","","","","","","","","4181.899999976158","","","","","","","","","","","","","","[""true"",""true"",""false"",""true""]","0",""
"sailing-instructions","27","277060","0.0-6.0-0.0-0.0","","","","","","","","","","","","","","null","null","null","null","null","null","","","","","","",""
"sailing-comprehension","28","285325","0.0-6.0-0.0-1.0","","","","","","","","","","7322.399999976158","","","","","","","","","","","","","","[""true"",""false"",""true""]","0",""
"sailing-instructions","29","298857","0.0-7.0-0.0-0.0","","","","","","","","","","","","","","null","null","null","null","null","null","","","","","","",""
"sailing-trial","30","301554","0.0-7.0-0.0-1.0-0.0","","","","false","","","","","","","","","","null","","1365.8999999761581","","0","0","null","null","arrowup","[0.2,0.8,0.2,0.8]","","",""
"sailing-trial","31","304031","0.0-7.0-0.0-1.0-1.0","","","","false","","","","","","","","","","null","","642.5","","1","1","null","null","arrowup","[0.2,0.8,0.2,0.8]","","",""
"sailing-trial","32","305764","0.0-7.0-0.0-1.0-2.0","","","","false","","","","","","","","","","null","","351.2000000476837","","2","0","null","null","arrowup","[0.2,0.8,0.2,0.8]","","",""
"sailing-trial","33","308619","0.0-7.0-0.0-1.0-3.0","","","","false","","","","","","","","","","null","","931.6000000238419","","3","1","null","null","arrowup","[0.2,0.8,0.2,0.8]","","",""
"sailing-comprehension","34","313156","0.0-7.0-0.0-2.0","","","","","","","","","","3436.5","","","","","","","","","","","","","","[""false""]","0",""
"sailing-instructions","35","323216","0.0-8.0-0.0-0.0","","","","","","","","","","","","","","null","null","null","null","null","null","","","","","","",""
"sailing-comprehension","36","327104","0.0-8.0-0.0-1.0","","","","","","","","","","2951.300000011921","","","","","","","","","","","","","","[""true""]","0",""
"sailing-instructions","37","357441","0.0-9.0-0.0-0.0","","","","","","","","","","","","","","null","null","null","null","null","null","","","","","","",""
"sailing-trial","38","361515","0.0-9.0-0.0-1.0-0.0","","","","false","","","","","","","","","","951.8000000119209","","95.89999997615814","","1","1","arrowleft","0","arrowright","[0.2,0.8,0.2,0.8]","","",""
"sailing-trial","39","364969","0.0-9.0-0.0-1.0-1.0","","","","false","","","","","","","","","","413.60000002384186","","199.19999998807907","","3","1","arrowright","1","arrowright","[0.2,0.8,0.2,0.8]","","",""
"sailing-trial","40","367163","0.0-9.0-0.0-1.0-2.0","","","","false","","","","","","","","","","null","","964.3000000119209","","0","0","null","null","arrowup","[0.2,0.8,0.2,0.8]","","",""
"sailing-trial","41","370466","0.0-9.0-0.0-1.0-3.0","","","","false","","","","","","","","","","601.5","","261","","0","0","arrowleft","0","arrowleft","[0.2,0.8,0.2,0.8]","","",""
"sailing-trial","42","372949","0.0-9.0-0.0-1.0-4.0","","","","false","","","","","","","","","","null","","625.4000000357628","","3","1","null","null","arrowup","[0.2,0.8,0.2,0.8]","","",""
"sailing-trial","43","376224","0.0-9.0-0.0-1.0-5.0","","","","false","","","","","","","","","","515.3000000119209","","394.10000002384186","","2","0","arrowright","1","arrowleft","[0.2,0.8,0.2,0.8]","","",""
"sailing-instructions","44","400599","0.0-10.0","","","","","","","","","","","","","","null","null","null","null","null","null","","","","","","",""
"sailing-trial","45","403896","0.0-11.0-0.0","","","","false","","","","","","","","","","699.6999999880791","","99.5","","1","0","arrowleft","0","arrowright","[0.85,0.15,0.675,0.325]","","",""
"sailing-trial","46","406654","0.0-11.0-1.0","","","","false","","","","","","","","","","null","","997.8999999761581","","2","1","null","null","arrowup","[0.85,0.15,0.675,0.325]","","",""
"sailing-trial","47","409805","0.0-11.0-2.0","","","","false","","","","","","","","","","347.80000001192093","","8","","0","1","arrowleft","0","arrowleft","[0.85,0.15,0.675,0.325]","","",""
"sailing-trial","48","412332","0.0-11.0-3.0","","","","false","","","","","","","","","","null","","955.8000000119209","","0","1","null","null","arrowup","[0.85,0.15,0.675,0.325]","","",""
"sailing-trial","49","415520","0.0-11.0-4.0","","","","false","","","","","","","","","","344.60000002384186","","289.9000000357628","","0","1","arrowleft","0","arrowleft","[0.85,0.15,0.675,0.325]","","",""
"sailing-trial","50","417605","0.0-11.0-5.0","","","","false","","","","","","","","","","null","","771.8000000119209","","2","0","null","null","arrowup","[0.85,0.15,0.675,0.325]","","",""
"sailing-trial","51","420672","0.0-11.0-6.0","","","","false","","","","","","","","","","436.30000001192093","","82.5","","0","1","arrowleft","0","arrowleft","[0.85,0.15,0.675,0.325]","","",""
"sailing-trial","52","422574","0.0-11.0-7.0","","","","false","","","","","","","","","","null","","827.3999999761581","","3","0","null","null","arrowup","[0.85,0.15,0.675,0.325]","","",""
"sailing-trial","53","425955","0.0-11.0-8.0","","","","false","","","","","","","","","","471.19999998807907","","198.69999998807907","","0","1","arrowleft","0","arrowleft","[0.85,0.15,0.675,0.325]","","",""
"sailing-trial","54","428422","0.0-11.0-9.0","","","","false","","","","","","","","","","null","","729.1999999880791","","1","1","null","null","arrowup","[0.85,0.15,0.675,0.325]","","",""
"sailing-trial","55","431808","0.0-11.0-10.0","","","","false","","","","","","","","","","435.0999999642372","","183.60000002384186","","0","1","arrowleft","0","arrowleft","[0.85,0.15,0.675,0.325]","","",""
"sailing-trial","56","434165","0.0-11.0-11.0","","","","false","","","","","","","","","","null","","621.3999999761581","","0","1","null","null","arrowup","[0.85,0.15,0.675,0.325]","","",""
"sailing-trial","57","437306","0.0-11.0-12.0","","","","false","","","","","","","","","","920.8000000119209","","180.5","","0","0","arrowleft","0","arrowleft","[0.85,0.15,0.675,0.325]","","",""
"sailing-trial","58","439784","0.0-11.0-13.0","","","","false","","","","","","","","","","null","","731.3999999761581","","3","1","null","null","arrowup","[0.85,0.15,0.675,0.325]","","",""
"sailing-trial","59","442708","0.0-11.0-14.0","","","","false","","","","","","","","","","434.5999999642372","","127.60000002384186","","0","0","arrowleft","0","arrowleft","[0.85,0.15,0.675,0.325]","","",""
"sailing-trial","60","444697","0.0-11.0-15.0","","","","false","","","","","","","","","","null","","675.5999999642372","","3","0","null","null","arrowup","[0.85,0.15,0.675,0.325]","","",""
"sailing-trial","61","448364","0.0-11.0-16.0","","","","false","","","","","","","","","","652.5","","279.69999998807907","","3","1","arrowright","1","arrowright","[0.325,0.675,0.15,0.85]","","",""
"sailing-trial","62","450583","0.0-11.0-17.0","","","","false","","","","","","","","","","null","","513.3999999761581","","3","1","null","null","arrowup","[0.325,0.675,0.15,0.85]","","",""
"sailing-trial","63","453989","0.0-11.0-18.0","","","","false","","","","","","","","","","400.10000002384186","","104.39999997615814","","3","1","arrowright","1","arrowright","[0.325,0.675,0.15,0.85]","","",""
"sailing-trial","64","455951","0.0-11.0-19.0","","","","false","","","","","","","","","","null","","654.5999999642372","","0","0","null","null","arrowup","[0.325,0.675,0.15,0.85]","","",""
"sailing-trial","65","459506","0.0-11.0-20.0","","","","false","","","","","","","","","","515.3999999761581","","356.39999997615814","","3","0","arrowright","1","arrowright","[0.325,0.675,0.15,0.85]","","",""
"sailing-trial","66","462310","0.0-11.0-21.0","","","","false","","","","","","","","","","null","","761.3000000119209","","0","1","null","null","arrowup","[0.325,0.675,0.15,0.85]","","",""
"sailing-trial","67","465880","0.0-11.0-22.0","","","","false","","","","","","","","","","496","","348.39999997615814","","3","1","arrowright","1","arrowright","[0.325,0.675,0.15,0.85]","","",""
"sailing-trial","68","468195","0.0-11.0-23.0","","","","false","","","","","","","","","","null","","589.3000000119209","","0","1","null","null","arrowup","[0.325,0.675,0.15,0.85]","","",""
"sailing-trial","69","471316","0.0-11.0-24.0","","","","false","","","","","","","","","","360.39999997615814","","74.79999995231628","","3","1","arrowright","1","arrowright","[0.325,0.675,0.15,0.85]","","",""
"sailing-trial","70","473401","0.0-11.0-25.0","","","","false","","","","","","","","","","null","","460.5","","3","1","null","null","arrowup","[0.325,0.675,0.15,0.85]","","",""
"sailing-trial","71","476588","0.0-11.0-26.0","","","","false","","","","","","","","","","346.80000001192093","","144","","3","1","arrowright","1","arrowright","[0.325,0.675,0.15,0.85]","","",""
"sailing-trial","72","478917","0.0-11.0-27.0","","","","false","","","","","","","","","","null","","592.3999999761581","","1","1","null","null","arrowup","[0.325,0.675,0.15,0.85]","","",""
"sailing-trial","73","481890","0.0-11.0-28.0","","","","false","","","","","","","","","","524.1000000238419","","111.19999998807907","","3","0","arrowright","1","arrowright","[0.325,0.675,0.15,0.85]","","",""
"sailing-trial","74","484382","0.0-11.0-29.0","","","","false","","","","","","","","","","null","","747.6000000238419","","1","1","null","null","arrowup","[0.325,0.675,0.15,0.85]","","",""
"sailing-trial","75","487733","0.0-11.0-30.0","","","","false","","","","","","","","","","427.30000001192093","","115.80000001192093","","3","1","arrowright","1","arrowright","[0.325,0.675,0.15,0.85]","","",""
"sailing-trial","76","489701","0.0-11.0-31.0","","","","false","","","","","","","","","","null","","757.8999999761581","","2","0","null","null","arrowup","[0.325,0.675,0.15,0.85]","","",""
"sailing-trial","77","493036","0.0-11.0-32.0","","","","false","","","","","","","","","","435.80000001192093","","152.30000001192093","","3","1","arrowright","1","arrowright","[0.15,0.85,0.325,0.675]","","",""
"sailing-trial","78","495291","0.0-11.0-33.0","","","","false","","","","","","","","","","null","","594.6999999880791","","3","1","null","null","arrowup","[0.15,0.85,0.325,0.675]","","",""
"sailing-trial","79","498951","0.0-11.0-34.0","","","","false","","","","","","","","","","467.30000001192093","","148.19999998807907","","3","1","arrowright","1","arrowright","[0.15,0.85,0.325,0.675]","","",""
"sailing-trial","80","501200","0.0-11.0-35.0","","","","false","","","","","","","","","","null","","635.4000000357628","","1","1","null","null","arrowup","[0.15,0.85,0.325,0.675]","","",""
"sailing-trial","81","504582","0.0-11.0-36.0","","","","false","","","","","","","","","","446.2999999523163","","103.5","","3","1","arrowright","1","arrowright","[0.15,0.85,0.325,0.675]","","",""
"sailing-trial","82","506281","0.0-11.0-37.0","","","","false","","","","","","","","","","null","","660.4000000357628","","0","0","null","null","arrowup","[0.15,0.85,0.325,0.675]","","",""
"sailing-trial","83","509497","0.0-11.0-38.0","","","","false","","","","","","","","","","402.39999997615814","","60.09999996423721","","3","1","arrowright","1","arrowright","[0.15,0.85,0.325,0.675]","","",""
"sailing-trial","84","511987","0.0-11.0-39.0","","","","false","","","","","","","","","","null","","718.1000000238419","","1","1","null","null","arrowup","[0.15,0.85,0.325,0.675]","","",""
"sailing-trial","85","515224","0.0-11.0-40.0","","","","false","","","","","","","","","","387.60000002384186","","97.29999995231628","","3","1","arrowright","1","arrowright","[0.15,0.85,0.325,0.675]","","",""
"sailing-trial","86","517447","0.0-11.0-41.0","","","","false","","","","","","","","","","null","","533.6999999880791","","2","1","null","null","arrowup","[0.15,0.85,0.325,0.675]","","",""
"sailing-trial","87","520666","0.0-11.0-42.0","","","","false","","","","","","","","","","384.5999999642372","","176.5999999642372","","3","1","arrowright","1","arrowright","[0.15,0.85,0.325,0.675]","","",""
"sailing-trial","88","522291","0.0-11.0-43.0","","","","false","","","","","","","","","","null","","483.2000000476837","","0","0","null","null","arrowup","[0.15,0.85,0.325,0.675]","","",""
"sailing-trial","89","525400","0.0-11.0-44.0","","","","false","","","","","","","","","","449.5","","75.59999996423721","","3","1","arrowright","1","arrowright","[0.15,0.85,0.325,0.675]","","",""
"sailing-trial","90","527793","0.0-11.0-45.0","","","","false","","","","","","","","","","null","","662.1999999880791","","2","1","null","null","arrowup","[0.15,0.85,0.325,0.675]","","",""
"sailing-trial","91","530975","0.0-11.0-46.0","","","","false","","","","","","","","","","445.39999997615814","","64.69999998807907","","3","1","arrowright","1","arrowright","[0.15,0.85,0.325,0.675]","","",""
"sailing-trial","92","532856","0.0-11.0-47.0","","","","false","","","","","","","","","","null","","581.8999999761581","","2","0","null","null","arrowup","[0.15,0.85,0.325,0.675]","","",""
"sailing-trial","93","536140","0.0-11.0-48.0","","","","false","","","","","","","","","","524.6999999880791","","140.39999997615814","","3","1","arrowright","1","arrowright","[0.15,0.85,0.325,0.675]","","",""
"sailing-trial","94","537734","0.0-11.0-49.0","","","","false","","","","","","","","","","null","","520.8999999761581","","0","0","null","null","arrowup","[0.15,0.85,0.325,0.675]","","",""
"sailing-trial","95","540805","0.0-11.0-50.0","","","","false","","","","","","","","","","378.39999997615814","","152.19999998807907","","3","1","arrowright","1","arrowright","[0.325,0.675,0.15,0.85]","","",""
"sailing-trial","96","543249","0.0-11.0-51.0","","","","false","","","","","","","","","","null","","707.1999999880791","","3","1","null","null","arrowup","[0.325,0.675,0.15,0.85]","","",""
"sailing-trial","97","546301","0.0-11.0-52.0","","","","false","","","","","","","","","","246.89999997615814","","96.20000004768372","","3","1","arrowright","1","arrowright","[0.325,0.675,0.15,0.85]","","",""
"sailing-trial","98","548374","0.0-11.0-53.0","","","","false","","","","","","","","","","null","","545","","2","1","null","null","arrowup","[0.325,0.675,0.15,0.85]","","",""
"sailing-trial","99","551574","0.0-11.0-54.0","","","","false","","","","","","","","","","466.2000000476837","","116.80000001192093","","3","1","arrowright","1","arrowright","[0.325,0.675,0.15,0.85]","","",""
"sailing-trial","100","553646","0.0-11.0-55.0","","","","false","","","","","","","","","","null","","526","","2","1","null","null","arrowup","[0.325,0.675,0.15,0.85]","","",""
"sailing-trial","101","556859","0.0-11.0-56.0","","","","false","","","","","","","","","","282.30000001192093","","94.19999998807907","","3","1","arrowright","1","arrowright","[0.325,0.675,0.15,0.85]","","",""
"sailing-trial","102","558524","0.0-11.0-57.0","","","","false","","","","","","","","","","null","","548.1000000238419","","2","0","null","null","arrowup","[0.325,0.675,0.15,0.85]","","",""
"sailing-trial","103","561629","0.0-11.0-58.0","","","","false","","","","","","","","","","409.5","","128.79999995231628","","3","1","arrowright","1","arrowright","[0.325,0.675,0.15,0.85]","","",""
"sailing-trial","104","563089","0.0-11.0-59.0","","","","false","","","","","","","","","","null","","378.89999997615814","","2","0","null","null","arrowup","[0.325,0.675,0.15,0.85]","","",""
"sailing-trial","105","565642","0.0-11.0-60.0","","","","false","","","","","","","","","","404.60000002384186","","14.399999976158142","","3","0","arrowright","1","arrowright","[0.325,0.675,0.15,0.85]","","",""
"sailing-trial","106","567937","0.0-11.0-61.0","","","","false","","","","","","","","","","null","","694.3000000119209","","1","1","null","null","arrowup","[0.325,0.675,0.15,0.85]","","",""
"sailing-trial","107","570640","0.0-11.0-62.0","","","","false","","","","","","","","","","249.89999997615814","","128.70000004768372","","1","0","arrowleft","0","arrowright","[0.325,0.675,0.15,0.85]","","",""
"sailing-trial","108","572956","0.0-11.0-63.0","","","","false","","","","","","","","","","null","","616.9000000357628","","3","1","null","null","arrowup","[0.325,0.675,0.15,0.85]","","",""
"sailing-trial","109","575594","0.0-11.0-64.0","","","","false","","","","","","","","","","345.69999998807907","","101.5","","3","0","arrowright","1","arrowright","[0.325,0.675,0.15,0.85]","","",""
"sailing-trial","110","577715","0.0-11.0-65.0","","","","false","","","","","","","","","","null","","695.6000000238419","","1","0","null","null","arrowup","[0.325,0.675,0.15,0.85]","","",""
"sailing-trial","111","580767","0.0-11.0-66.0","","","","false","","","","","","","","","","423.7000000476837","","35.80000001192093","","2","1","arrowright","1","arrowleft","[0.15,0.85,0.325,0.675]","","",""
"sailing-trial","112","582642","0.0-11.0-67.0","","","","false","","","","","","","","","","null","","559","","3","0","null","null","arrowup","[0.15,0.85,0.325,0.675]","","",""
"sailing-trial","113","585216","0.0-11.0-68.0","","","","false","","","","","","","","","","482.89999997615814","","37.09999996423721","","2","0","arrowright","1","arrowleft","[0.15,0.85,0.325,0.675]","","",""
"sailing-trial","114","587761","0.0-11.0-69.0","","","","false","","","","","","","","","","null","","791.0999999642372","","2","1","null","null","arrowup","[0.15,0.85,0.325,0.675]","","",""
"sailing-trial","115","590351","0.0-11.0-70.0","","","","false","","","","","","","","","","368.19999998807907","","214.19999998807907","","2","0","arrowright","1","arrowleft","[0.15,0.85,0.325,0.675]","","",""
"sailing-trial","116","592984","0.0-11.0-71.0","","","","false","","","","","","","","","","null","","1452","","0","0","null","null","arrowup","[0.15,0.85,0.325,0.675]","","",""
"sailing-trial","117","596227","0.0-11.0-72.0","","","","false","","","","","","","","","","478.89999997615814","","86","","3","1","arrowright","1","arrowright","[0.15,0.85,0.325,0.675]","","",""
"sailing-trial","118","598494","0.0-11.0-73.0","","","","false","","","","","","","","","","null","","591.1999999880791","","1","1","null","null","arrowup","[0.15,0.85,0.325,0.675]","","",""
"sailing-trial","119","602034","0.0-11.0-74.0","","","","false","","","","","","","","","","737.6000000238419","","107.39999997615814","","3","1","arrowright","1","arrowright","[0.15,0.85,0.325,0.675]","","",""
"sailing-trial","120","603844","0.0-11.0-75.0","","","","false","","","","","","","","","","null","","596.1000000238419","","2","0","null","null","arrowup","[0.15,0.85,0.325,0.675]","","",""
"sailing-trial","121","606736","0.0-11.0-76.0","","","","false","","","","","","","","","","417.5","","205.19999998807907","","0","0","arrowleft","0","arrowleft","[0.15,0.85,0.325,0.675]","","",""
"sailing-trial","122","608561","0.0-11.0-77.0","","","","false","","","","","","","","","","null","","608.8000000119209","","2","0","null","null","arrowup","[0.15,0.85,0.325,0.675]","","",""
"sailing-trial","123","611712","0.0-11.0-78.0","","","","false","","","","","","","","","","358.2000000476837","","183.4000000357628","","3","1","arrowright","1","arrowright","[0.15,0.85,0.325,0.675]","","",""
"sailing-trial","124","613543","0.0-11.0-79.0","","","","false","","","","","","","","","","null","","719.7000000476837","","3","0","null","null","arrowup","[0.15,0.85,0.325,0.675]","","",""
"sailing-trial","125","616129","0.0-11.0-80.0","","","","false","","","","","","","","","","498.89999997615814","","22.30000001192093","","2","0","arrowright","1","arrowleft","[0.15,0.85,0.325,0.675]","","",""
"sailing-trial","126","617776","0.0-11.0-81.0","","","","false","","","","","","","","","","null","","638.8000000119209","","2","0","null","null","arrowup","[0.15,0.85,0.325,0.675]","","",""
"sailing-trial","127","620874","0.0-11.0-82.0","","","","false","","","","","","","","","","420.89999997615814","","66.89999997615814","","3","1","arrowright","1","arrowright","[0.325,0.675,0.15,0.85]","","",""
"sailing-trial","128","622722","0.0-11.0-83.0","","","","false","","","","","","","","","","null","","599.9000000357628","","3","0","null","null","arrowup","[0.325,0.675,0.15,0.85]","","",""
"sailing-trial","129","625491","0.0-11.0-84.0","","","","false","","","","","","","","","","497","","241.69999998807907","","1","0","arrowleft","0","arrowright","[0.325,0.675,0.15,0.85]","","",""
"sailing-trial","130","627341","0.0-11.0-85.0","","","","false","","","","","","","","","","null","","639.5","","0","0","null","null","arrowup","[0.325,0.675,0.15,0.85]","","",""
"sailing-trial","131","630487","0.0-11.0-86.0","","","","false","","","","","","","","","","285.80000001192093","","30.600000023841858","","3","1","arrowright","1","arrowright","[0.325,0.675,0.15,0.85]","","",""
"sailing-trial","132","632851","0.0-11.0-87.0","","","","false","","","","","","","","","","null","","698.5999999642372","","3","1","null","null","arrowup","[0.325,0.675,0.15,0.85]","","",""
"sailing-trial","133","636136","0.0-11.0-88.0","","","","false","","","","","","","","","","442.30000001192093","","188.79999995231628","","3","1","arrowright","1","arrowright","[0.325,0.675,0.15,0.85]","","",""
"sailing-trial","134","637784","0.0-11.0-89.0","","","","false","","","","","","","","","","null","","478.80000001192093","","0","0","null","null","arrowup","[0.325,0.675,0.15,0.85]","","",""
"sailing-trial","135","640821","0.0-11.0-90.0","","","","false","","","","","","","","","","307","","187.0999999642372","","3","1","arrowright","1","arrowright","[0.325,0.675,0.15,0.85]","","",""
"sailing-trial","136","642442","0.0-11.0-91.0","","","","false","","","","","","","","","","null","","470.80000001192093","","1","0","null","null","arrowup","[0.325,0.675,0.15,0.85]","","",""
"sailing-trial","137","645626","0.0-11.0-92.0","","","","false","","","","","","","","","","451.69999998807907","","63","","3","1","arrowright","1","arrowright","[0.325,0.675,0.15,0.85]","","",""
"sailing-trial","138","647862","0.0-11.0-93.0","","","","false","","","","","","","","","","null","","475.5999999642372","","3","1","null","null","arrowup","[0.325,0.675,0.15,0.85]","","",""
"sailing-trial","139","650814","0.0-11.0-94.0","","","","false","","","","","","","","","","240","","80.89999997615814","","3","1","arrowright","1","arrowright","[0.325,0.675,0.15,0.85]","","",""
"sailing-trial","140","653426","0.0-11.0-95.0","","","","false","","","","","","","","","","null","","641.6000000238419","","3","1","null","null","arrowup","[0.325,0.675,0.15,0.85]","","",""
"sailing-trial","141","656474","0.0-11.0-96.0","","","","false","","","","","","","","","","326.7000000476837","","122.5","","3","1","arrowright","1","arrowright","[0.325,0.675,0.15,0.85]","","",""
"sailing-trial","142","658220","0.0-11.0-97.0","","","","false","","","","","","","","","","null","","683","","2","0","null","null","arrowup","[0.325,0.675,0.15,0.85]","","",""
"sailing-trial","143","661820","0.0-11.0-98.0","","","","false","","","","","","","","","","468.19999998807907","","35.40000003576279","","3","1","arrowright","1","arrowright","[0.15,0.85,0.325,0.675]","","",""
"sailing-trial","144","664081","0.0-11.0-99.0","","","","false","","","","","","","","","","null","","621.2999999523163","","3","1","null","null","arrowup","[0.15,0.85,0.325,0.675]","","",""
"sailing-trial","145","666374","0.0-11.0-100.0","","","","false","","","","","","","","","","59.10000002384186","","140","","3","0","arrowright","1","arrowright","[0.15,0.85,0.325,0.675]","","",""
"sailing-trial","146","668325","0.0-11.0-101.0","","","","false","","","","","","","","","","null","","782.5","","0","0","null","null","arrowup","[0.15,0.85,0.325,0.675]","","",""
"sailing-trial","147","671146","0.0-11.0-102.0","","","","false","","","","","","","","","","452.69999998807907","","296.5","","2","0","arrowright","1","arrowleft","[0.15,0.85,0.325,0.675]","","",""
"sailing-trial","148","673721","0.0-11.0-103.0","","","","false","","","","","","","","","","null","","953.3000000119209","","3","1","null","null","arrowup","[0.15,0.85,0.325,0.675]","","",""
"sailing-trial","149","677073","0.0-11.0-104.0","","","","false","","","","","","","","","","493.9000000357628","","135.5","","3","1","arrowright","1","arrowright","[0.15,0.85,0.325,0.675]","","",""
"sailing-trial","150","678821","0.0-11.0-105.0","","","","false","","","","","","","","","","null","","655.7000000476837","","2","0","null","null","arrowup","[0.15,0.85,0.325,0.675]","","",""
"sailing-trial","151","681935","0.0-11.0-106.0","","","","false","","","","","","","","","","467.60000002384186","","96.5","","3","1","arrowright","1","arrowright","[0.15,0.85,0.325,0.675]","","",""
"sailing-trial","152","684176","0.0-11.0-107.0","","","","false","","","","","","","","","","null","","705.3000000119209","","3","1","null","null","arrowup","[0.15,0.85,0.325,0.675]","","",""
"sailing-trial","153","687279","0.0-11.0-108.0","","","","false","","","","","","","","","","166.79999995231628","","45.10000002384186","","3","1","arrowright","1","arrowright","[0.15,0.85,0.325,0.675]","","",""
"sailing-trial","154","688829","0.0-11.0-109.0","","","","false","","","","","","","","","","null","","543.5","","0","0","null","null","arrowup","[0.15,0.85,0.325,0.675]","","",""
"sailing-trial","155","692122","0.0-11.0-110.0","","","","false","","","","","","","","","","381.39999997615814","","306.39999997615814","","3","1","arrowright","1","arrowright","[0.15,0.85,0.325,0.675]","","",""
"sailing-trial","156","693869","0.0-11.0-111.0","","","","false","","","","","","","","","","null","","631.3000000119209","","1","0","null","null","arrowup","[0.15,0.85,0.325,0.675]","","",""
"sailing-trial","157","697000","0.0-11.0-112.0","","","","false","","","","","","","","","","498.89999997615814","","112.10000002384186","","3","1","arrowright","1","arrowright","[0.15,0.85,0.325,0.675]","","",""
"sailing-trial","158","699437","0.0-11.0-113.0","","","","false","","","","","","","","","","null","","675.6999999880791","","1","1","null","null","arrowup","[0.15,0.85,0.325,0.675]","","",""
"sailing-trial","159","702062","0.0-11.0-114.0","","","","false","","","","","","","","","","372.39999997615814","","134.39999997615814","","1","0","arrowleft","0","arrowright","[0.85,0.15,0.675,0.325]","","",""
"sailing-trial","160","703948","0.0-11.0-115.0","","","","false","","","","","","","","","","null","","610.8000000119209","","3","0","null","null","arrowup","[0.85,0.15,0.675,0.325]","","",""
"sailing-trial","161","706673","0.0-11.0-116.0","","","","false","","","","","","","","","","316.19999998807907","","185.60000002384186","","3","0","arrowright","1","arrowright","[0.85,0.15,0.675,0.325]","","",""
"sailing-trial","162","708463","0.0-11.0-117.0","","","","false","","","","","","","","","","null","","642.5","","1","0","null","null","arrowup","[0.85,0.15,0.675,0.325]","","",""
"sailing-trial","163","711049","0.0-11.0-118.0","","","","false","","","","","","","","","","405.5","","3.899999976158142","","2","0","arrowright","1","arrowleft","[0.85,0.15,0.675,0.325]","","",""
"sailing-trial","164","713491","0.0-11.0-119.0","","","","false","","","","","","","","","","null","","723.5","","0","1","null","null","arrowup","[0.85,0.15,0.675,0.325]","","",""
"sailing-trial","165","716667","0.0-11.0-120.0","","","","false","","","","","","","","","","360.69999998807907","","119.59999996423721","","0","1","arrowleft","0","arrowleft","[0.85,0.15,0.675,0.325]","","",""
"sailing-trial","166","718564","0.0-11.0-121.0","","","","false","","","","","","","","","","null","","637","","2","0","null","null","arrowup","[0.85,0.15,0.675,0.325]","","",""
"sailing-trial","167","721521","0.0-11.0-122.0","","","","false","","","","","","","","","","336.19999998807907","","1.600000023841858","","0","1","arrowleft","0","arrowleft","[0.85,0.15,0.675,0.325]","","",""
"sailing-trial","168","723836","0.0-11.0-123.0","","","","false","","","","","","","","","","null","","528.1999999880791","","2","1","null","null","arrowup","[0.85,0.15,0.675,0.325]","","",""
"sailing-trial","169","727430","0.0-11.0-124.0","","","","false","","","","","","","","","","751.2999999523163","","113.19999998807907","","2","1","arrowright","1","arrowleft","[0.85,0.15,0.675,0.325]","","",""
"sailing-trial","170","730041","0.0-11.0-125.0","","","","false","","","","","","","","","","null","","899.8999999761581","","1","1","null","null","arrowup","[0.85,0.15,0.675,0.325]","","",""
"sailing-trial","171","732957","0.0-11.0-126.0","","","","false","","","","","","","","","","177.4000000357628","","82.70000004768372","","3","1","arrowright","1","arrowright","[0.85,0.15,0.675,0.325]","","",""
"sailing-trial","172","734892","0.0-11.0-127.0","","","","false","","","","","","","","","","null","","635","","1","0","null","null","arrowup","[0.85,0.15,0.675,0.325]","","",""
"sailing-trial","173","737397","0.0-11.0-128.0","","","","false","","","","","","","","","","322.5","","96.80000001192093","","3","0","arrowright","1","arrowright","[0.85,0.15,0.675,0.325]","","",""
"sailing-trial","174","739938","0.0-11.0-129.0","","","","false","","","","","","","","","","null","","845.1999999880791","","2","1","null","null","arrowup","[0.85,0.15,0.675,0.325]","","",""
"sailing-trial","175","743254","0.0-11.0-130.0","","","","false","","","","","","","","","","354.19999998807907","","293.0999999642372","","3","1","arrowright","1","arrowright","[0.85,0.15,0.675,0.325]","","",""
"sailing-trial","176","745574","0.0-11.0-131.0","","","","false","","","","","","","","","","null","","676.7000000476837","","2","1","null","null","arrowup","[0.85,0.15,0.675,0.325]","","",""
"sailing-trial","177","748642","0.0-11.0-132.0","","","","false","","","","","","","","","","433.4000000357628","","51","","3","1","arrowright","1","arrowright","[0.85,0.15,0.675,0.325]","","",""
"sailing-trial","178","752301","0.0-11.0-133.0","","","","false","","","","","","","","","","null","","1681.699999988079","","1","0","null","null","arrowup","[0.85,0.15,0.675,0.325]","","",""
"sailing-trial","179","754803","0.0-11.0-134.0","","","","false","","","","","","","","","","225.80000001192093","","199.80000001192093","","3","0","arrowright","1","arrowright","[0.85,0.15,0.675,0.325]","","",""
"sailing-trial","180","756436","0.0-11.0-135.0","","","","false","","","","","","","","","","null","","595.3999999761581","","1","0","null","null","arrowup","[0.85,0.15,0.675,0.325]","","",""
"sailing-trial","181","759231","0.0-11.0-136.0","","","","false","","","","","","","","","","389.39999997615814","","131.60000002384186","","3","0","arrowright","1","arrowright","[0.675,0.325,0.85,0.15]","","",""
"sailing-trial","182","760955","0.0-11.0-137.0","","","","false","","","","","","","","","","null","","708","","0","0","null","null","arrowup","[0.675,0.325,0.85,0.15]","","",""
"sailing-trial","183","764277","0.0-11.0-138.0","","","","false","","","","","","","","","","503.30000001192093","","106.40000003576279","","2","1","arrowright","1","arrowleft","[0.675,0.325,0.85,0.15]","","",""
"sailing-trial","184","766459","0.0-11.0-139.0","","","","false","","","","","","","","","","null","","608.9000000357628","","0","1","null","null","arrowup","[0.675,0.325,0.85,0.15]","","",""
"sailing-trial","185","769368","0.0-11.0-140.0","","","","false","","","","","","","","","","360.10000002384186","","17.899999976158142","","0","1","arrowleft","0","arrowleft","[0.675,0.325,0.85,0.15]","","",""
"sailing-trial","186","771665","0.0-11.0-141.0","","","","false","","","","","","","","","","null","","602.6999999880791","","2","1","null","null","arrowup","[0.675,0.325,0.85,0.15]","","",""
"sailing-trial","187","775235","0.0-11.0-142.0","","","","false","","","","","","","","","","873.7999999523163","","129.60000002384186","","0","1","arrowleft","0","arrowleft","[0.675,0.325,0.85,0.15]","","",""
"sailing-trial","188","777642","0.0-11.0-143.0","","","","false","","","","","","","","","","null","","815.3999999761581","","2","1","null","null","arrowup","[0.675,0.325,0.85,0.15]","","",""
"sailing-trial","189","780507","0.0-11.0-144.0","","","","false","","","","","","","","","","277.30000001192093","","3.300000011920929","","0","1","arrowleft","0","arrowleft","[0.675,0.325,0.85,0.15]","","",""
"sailing-trial","190","782980","0.0-11.0-145.0","","","","false","","","","","","","","","","null","","668.6999999880791","","3","1","null","null","arrowup","[0.675,0.325,0.85,0.15]","","",""
"sailing-trial","191","786178","0.0-11.0-146.0","","","","false","","","","","","","","","","344.89999997615814","","72.19999998807907","","0","1","arrowleft","0","arrowleft","[0.675,0.325,0.85,0.15]","","",""
"sailing-trial","192","787911","0.0-11.0-147.0","","","","false","","","","","","","","","","null","","540.5","","3","0","null","null","arrowup","[0.675,0.325,0.85,0.15]","","",""
"sailing-trial","193","791003","0.0-11.0-148.0","","","","false","","","","","","","","","","252","","158.69999998807907","","0","1","arrowleft","0","arrowleft","[0.675,0.325,0.85,0.15]","","",""
"sailing-trial","194","792695","0.0-11.0-149.0","","","","false","","","","","","","","","","null","","632.1000000238419","","3","0","null","null","arrowup","[0.675,0.325,0.85,0.15]","","",""
"sailing-trial","195","795589","0.0-11.0-150.0","","","","false","","","","","","","","","","375.80000001192093","","161.80000001192093","","0","0","arrowleft","0","arrowleft","[0.675,0.325,0.85,0.15]","","",""
"sailing-trial","196","797456","0.0-11.0-151.0","","","","false","","","","","","","","","","null","","625.8000000119209","","2","0","null","null","arrowup","[0.675,0.325,0.85,0.15]","","",""
"sailing-trial","197","800602","0.0-11.0-152.0","","","","false","","","","","","","","","","458.89999997615814","","56","","2","1","arrowright","1","arrowleft","[0.675,0.325,0.85,0.15]","","",""
"sailing-trial","198","802318","0.0-11.0-153.0","","","","false","","","","","","","","","","null","","578.7999999523163","","3","0","null","null","arrowup","[0.675,0.325,0.85,0.15]","","",""
"sailing-trial","199","805978","0.0-11.0-154.0","","","","false","","","","","","","","","","616.6999999880791","","121","","2","1","arrowright","1","arrowleft","[0.675,0.325,0.85,0.15]","","",""
"sailing-trial","200","807880","0.0-11.0-155.0","","","","false","","","","","","","","","","null","","684.8999999761581","","1","0","null","null","arrowup","[0.675,0.325,0.85,0.15]","","",""
"sailing-trial","201","811275","0.0-11.0-156.0","","","","false","","","","","","","","","","504.7999999523163","","54.59999996423721","","2","1","arrowright","1","arrowleft","[0.85,0.15,0.675,0.325]","","",""
"sailing-trial","202","812988","0.0-11.0-157.0","","","","false","","","","","","","","","","null","","605.1999999880791","","3","0","null","null","arrowup","[0.85,0.15,0.675,0.325]","","",""
"sailing-trial","203","816153","0.0-11.0-158.0","","","","false","","","","","","","","","","480.5","","43.90000003576279","","2","1","arrowright","1","arrowleft","[0.85,0.15,0.675,0.325]","","",""
"sailing-trial","204","817736","0.0-11.0-159.0","","","","false","","","","","","","","","","null","","573.4000000357628","","3","0","null","null","arrowup","[0.85,0.15,0.675,0.325]","","",""
"sailing-trial","205","820880","0.0-11.0-160.0","","","","false","","","","","","","","","","458.9000000357628","","143.5","","2","1","arrowright","1","arrowleft","[0.85,0.15,0.675,0.325]","","",""
"sailing-trial","206","823056","0.0-11.0-161.0","","","","false","","","","","","","","","","null","","564.6999999880791","","3","1","null","null","arrowup","[0.85,0.15,0.675,0.325]","","",""
"sailing-trial","207","826226","0.0-11.0-162.0","","","","false","","","","","","","","","","431.7999999523163","","160.60000002384186","","2","1","arrowright","1","arrowleft","[0.85,0.15,0.675,0.325]","","",""
"sailing-trial","208","828329","0.0-11.0-163.0","","","","false","","","","","","","","","","null","","498.89999997615814","","3","1","null","null","arrowup","[0.85,0.15,0.675,0.325]","","",""
"sailing-trial","209","831607","0.0-11.0-164.0","","","","false","","","","","","","","","","358.5","","333.80000001192093","","2","1","arrowright","1","arrowleft","[0.85,0.15,0.675,0.325]","","",""
"sailing-trial","210","833359","0.0-11.0-165.0","","","","false","","","","","","","","","","null","","518.5","","3","0","null","null","arrowup","[0.85,0.15,0.675,0.325]","","",""
"sailing-trial","211","836179","0.0-11.0-166.0","","","","false","","","","","","","","","","484.7999999523163","","162.0999999642372","","2","0","arrowright","1","arrowleft","[0.85,0.15,0.675,0.325]","","",""
"sailing-trial","212","838492","0.0-11.0-167.0","","","","false","","","","","","","","","","null","","802.5","","1","1","null","null","arrowup","[0.85,0.15,0.675,0.325]","","",""
"sailing-trial","213","840886","0.0-11.0-168.0","","","","false","","","","","","","","","","296.69999998807907","","54.90000003576279","","1","0","arrowleft","0","arrowright","[0.85,0.15,0.675,0.325]","","",""
"sailing-trial","214","842775","0.0-11.0-169.0","","","","false","","","","","","","","","","null","","694.1999999880791","","1","0","null","null","arrowup","[0.85,0.15,0.675,0.325]","","",""
"sailing-trial","215","846116","0.0-11.0-170.0","","","","false","","","","","","","","","","487.80000001192093","","182.19999998807907","","3","1","arrowright","1","arrowright","[0.85,0.15,0.675,0.325]","","",""
"sailing-trial","216","847742","0.0-11.0-171.0","","","","false","","","","","","","","","","null","","584.4000000357628","","1","0","null","null","arrowup","[0.85,0.15,0.675,0.325]","","",""
"sailing-trial","217","850399","0.0-11.0-172.0","","","","false","","","","","","","","","","423.69999998807907","","46.10000002384186","","3","0","arrowright","1","arrowright","[0.85,0.15,0.675,0.325]","","",""
"sailing-trial","218","852734","0.0-11.0-173.0","","","","false","","","","","","","","","","null","","640.5999999642372","","3","1","null","null","arrowup","[0.85,0.15,0.675,0.325]","","",""
"sailing-trial","219","855734","0.0-11.0-174.0","","","","false","","","","","","","","","","254.69999998807907","","167.89999997615814","","0","1","arrowleft","0","arrowleft","[0.675,0.325,0.85,0.15]","","",""
"sailing-trial","220","857777","0.0-11.0-175.0","","","","false","","","","","","","","","","null","","513.5","","2","1","null","null","arrowup","[0.675,0.325,0.85,0.15]","","",""
"sailing-trial","221","860795","0.0-11.0-176.0","","","","false","","","","","","","","","","207.39999997615814","","167.10000002384186","","0","1","arrowleft","0","arrowleft","[0.675,0.325,0.85,0.15]","","",""
"sailing-trial","222","863776","0.0-11.0-177.0","","","","false","","","","","","","","","","null","","1311.199999988079","","0","1","null","null","arrowup","[0.675,0.325,0.85,0.15]","","",""
"sailing-trial","223","866463","0.0-11.0-178.0","","","","false","","","","","","","","","","463.30000001192093","","187.5","","0","0","arrowleft","0","arrowleft","[0.675,0.325,0.85,0.15]","","",""
"sailing-trial","224","868668","0.0-11.0-179.0","","","","false","","","","","","","","","","null","","620.1999999880791","","3","1","null","null","arrowup","[0.675,0.325,0.85,0.15]","","",""
"sailing-trial","225","871370","0.0-11.0-180.0","","","","false","","","","","","","","","","466.69999998807907","","30.600000023841858","","3","0","arrowright","1","arrowright","[0.675,0.325,0.85,0.15]","","",""
"sailing-trial","226","873637","0.0-11.0-181.0","","","","false","","","","","","","","","","null","","629.3999999761581","","0","1","null","null","arrowup","[0.675,0.325,0.85,0.15]","","",""
"sailing-trial","227","876801","0.0-11.0-182.0","","","","false","","","","","","","","","","379.7000000476837","","167.80000001192093","","2","1","arrowright","1","arrowleft","[0.675,0.325,0.85,0.15]","","",""
"sailing-trial","228","879177","0.0-11.0-183.0","","","","false","","","","","","","","","","null","","592.5","","0","1","null","null","arrowup","[0.675,0.325,0.85,0.15]","","",""
"sailing-trial","229","882346","0.0-11.0-184.0","","","","false","","","","","","","","","","347.80000001192093","","122.69999998807907","","2","1","arrowright","1","arrowleft","[0.675,0.325,0.85,0.15]","","",""
"sailing-trial","230","884558","0.0-11.0-185.0","","","","false","","","","","","","","","","null","","544.6999999880791","","1","1","null","null","arrowup","[0.675,0.325,0.85,0.15]","","",""
"sailing-trial","231","887728","0.0-11.0-186.0","","","","false","","","","","","","","","","580.7999999523163","","56.80000001192093","","2","1","arrowright","1","arrowleft","[0.675,0.325,0.85,0.15]","","",""
"sailing-trial","232","889752","0.0-11.0-187.0","","","","false","","","","","","","","","","null","","474.5","","0","1","null","null","arrowup","[0.675,0.325,0.85,0.15]","","",""
"sailing-trial","233","892631","0.0-11.0-188.0","","","","false","","","","","","","","","","310.69999998807907","","40.5","","2","1","arrowright","1","arrowleft","[0.675,0.325,0.85,0.15]","","",""
"sailing-trial","234","894209","0.0-11.0-189.0","","","","false","","","","","","","","","","null","","505.2999999523163","","2","0","null","null","arrowup","[0.675,0.325,0.85,0.15]","","",""
"sailing-trial","235","897673","0.0-11.0-190.0","","","","false","","","","","","","","","","438.5","","385.89999997615814","","2","1","arrowright","1","arrowleft","[0.85,0.15,0.675,0.325]","","",""
"sailing-trial","236","899447","0.0-11.0-191.0","","","","false","","","","","","","","","","null","","588.1999999880791","","1","0","null","null","arrowup","[0.85,0.15,0.675,0.325]","","",""
"sailing-trial","237","902498","0.0-11.0-192.0","","","","false","","","","","","","","","","426.39999997615814","","101.5","","2","1","arrowright","1","arrowleft","[0.85,0.15,0.675,0.325]","","",""
"sailing-trial","238","904304","0.0-11.0-193.0","","","","false","","","","","","","","","","null","","478.39999997615814","","0","0","null","null","arrowup","[0.85,0.15,0.675,0.325]","","",""
"sailing-trial","239","907924","0.0-11.0-194.0","","","","false","","","","","","","","","","376.19999998807907","","230.69999998807907","","2","1","arrowright","1","arrowleft","[0.85,0.15,0.675,0.325]","","",""
"sailing-trial","240","910070","0.0-11.0-195.0","","","","false","","","","","","","","","","null","","613.8999999761581","","0","1","null","null","arrowup","[0.85,0.15,0.675,0.325]","","",""
"sailing-trial","241","913719","0.0-11.0-196.0","","","","false","","","","","","","","","","479.30000001192093","","75.80000001192093","","2","1","arrowright","1","arrowleft","[0.85,0.15,0.675,0.325]","","",""
"sailing-trial","242","915809","0.0-11.0-197.0","","","","false","","","","","","","","","","null","","471.4000000357628","","2","1","null","null","arrowup","[0.85,0.15,0.675,0.325]","","",""
"sailing-trial","243","919045","0.0-11.0-198.0","","","","false","","","","","","","","","","478.10000002384186","","121.5","","2","1","arrowright","1","arrowleft","[0.85,0.15,0.675,0.325]","","",""
"sailing-trial","244","921106","0.0-11.0-199.0","","","","false","","","","","","","","","","null","","365.9000000357628","","2","1","null","null","arrowup","[0.85,0.15,0.675,0.325]","","",""
"sailing-trial","245","924554","0.0-11.0-200.0","","","","false","","","","","","","","","","422.2999999523163","","170.4000000357628","","2","1","arrowright","1","arrowleft","[0.85,0.15,0.675,0.325]","","",""
"sailing-trial","246","926797","0.0-11.0-201.0","","","","false","","","","","","","","","","null","","568.8000000119209","","1","1","null","null","arrowup","[0.85,0.15,0.675,0.325]","","",""
"sailing-trial","247","929453","0.0-11.0-202.0","","","","false","","","","","","","","","","376.0999999642372","","148.9000000357628","","2","0","arrowright","1","arrowleft","[0.85,0.15,0.675,0.325]","","",""
"sailing-trial","248","931067","0.0-11.0-203.0","","","","false","","","","","","","","","","null","","510.89999997615814","","1","0","null","null","arrowup","[0.85,0.15,0.675,0.325]","","",""
"sailing-trial","249","933538","0.0-11.0-204.0","","","","false","","","","","","","","","","397.69999998807907","","16.80000001192093","","3","0","arrowright","1","arrowright","[0.85,0.15,0.675,0.325]","","",""
"sailing-trial","250","935445","0.0-11.0-205.0","","","","false","","","","","","","","","","null","","311.9000000357628","","2","1","null","null","arrowup","[0.85,0.15,0.675,0.325]","","",""
"sailing-trial","251","938397","0.0-11.0-206.0","","","","false","","","","","","","","","","323.0999999642372","","36","","1","1","arrowleft","0","arrowright","[0.85,0.15,0.675,0.325]","","",""
"sailing-trial","252","940608","0.0-11.0-207.0","","","","false","","","","","","","","","","null","","569.5","","0","1","null","null","arrowup","[0.85,0.15,0.675,0.325]","","",""
"sailing-trial","253","943524","0.0-11.0-208.0","","","","false","","","","","","","","","","212.69999998807907","","19.5","","1","1","arrowleft","0","arrowright","[0.85,0.15,0.675,0.325]","","",""
"sailing-trial","254","945300","0.0-11.0-209.0","","","","false","","","","","","","","","","null","","166.60000002384186","","2","1","null","null","arrowup","[0.85,0.15,0.675,0.325]","","",""
"sailing-trial","255","948348","0.0-11.0-210.0","","","","false","","","","","","","","","","354.39999997615814","","84.20000004768372","","2","1","arrowright","1","arrowleft","[0.85,0.15,0.675,0.325]","","",""
"sailing-trial","256","949599","0.0-11.0-211.0","","","","false","","","","","","","","","","null","","112.90000003576279","","1","0","null","null","arrowup","[0.85,0.15,0.675,0.325]","","",""
"sailing-trial","257","952476","0.0-11.0-212.0","","","","false","","","","","","","","","","237.10000002384186","","3.299999952316284","","2","1","arrowright","1","arrowleft","[0.85,0.15,0.675,0.325]","","",""
"sailing-trial","258","954312","0.0-11.0-213.0","","","","false","","","","","","","","","","null","","269.7000000476837","","1","1","null","null","arrowup","[0.85,0.15,0.675,0.325]","","",""
"sailing-trial","259","957275","0.0-11.0-214.0","","","","false","","","","","","","","","","412.69999998807907","","2.300000011920929","","2","1","arrowright","1","arrowleft","[0.675,0.325,0.85,0.15]","","",""
"sailing-trial","260","959100","0.0-11.0-215.0","","","","false","","","","","","","","","","null","","65.5","","0","1","null","null","arrowup","[0.675,0.325,0.85,0.15]","","",""
"sailing-trial","261","962675","0.0-11.0-216.0","","","","false","","","","","","","","","","495.0999999642372","","165.89999997615814","","0","1","arrowleft","0","arrowleft","[0.675,0.325,0.85,0.15]","","",""
"sailing-trial","262","964839","0.0-11.0-217.0","","","","false","","","","","","","","","","null","","642.1999999880791","","0","1","null","null","arrowup","[0.675,0.325,0.85,0.15]","","",""
"sailing-trial","263","967789","0.0-11.0-218.0","","","","false","","","","","","","","","","259.30000001192093","","35.69999998807907","","0","1","arrowleft","0","arrowleft","[0.675,0.325,0.85,0.15]","","",""
"sailing-trial","264","970037","0.0-11.0-219.0","","","","false","","","","","","","","","","null","","553.3000000119209","","3","1","null","null","arrowup","[0.675,0.325,0.85,0.15]","","",""
"sailing-trial","265","973261","0.0-11.0-220.0","","","","false","","","","","","","","","","63.69999998807907","","527.1000000238419","","0","1","arrowleft","0","arrowleft","[0.675,0.325,0.85,0.15]","","",""
"sailing-trial","266","975661","0.0-11.0-221.0","","","","false","","","","","","","","","","null","","620.6000000238419","","3","1","null","null","arrowup","[0.675,0.325,0.85,0.15]","","",""
"sailing-trial","267","978873","0.0-11.0-222.0","","","","false","","","","","","","","","","479.10000002384186","","6.599999964237213","","0","1","arrowleft","0","arrowleft","[0.675,0.325,0.85,0.15]","","",""
"sailing-trial","268","980507","0.0-11.0-223.0","","","","false","","","","","","","","","","null","","474.89999997615814","","1","0","null","null","arrowup","[0.675,0.325,0.85,0.15]","","",""
"sailing-trial","269","983582","0.0-11.0-224.0","","","","false","","","","","","","","","","327.0999999642372","","140.79999995231628","","0","1","arrowleft","0","arrowleft","[0.675,0.325,0.85,0.15]","","",""
"sailing-trial","270","985004","0.0-11.0-225.0","","","","false","","","","","","","","","","null","","384.9000000357628","","1","0","null","null","arrowup","[0.675,0.325,0.85,0.15]","","",""
"sailing-trial","271","987599","0.0-11.0-226.0","","","","false","","","","","","","","","","287.5","","259","","0","0","arrowleft","0","arrowleft","[0.675,0.325,0.85,0.15]","","",""
"sailing-trial","272","990128","0.0-11.0-227.0","","","","false","","","","","","","","","","null","","623.3999999761581","","0","1","null","null","arrowup","[0.675,0.325,0.85,0.15]","","",""
"sailing-trial","273","993352","0.0-11.0-228.0","","","","false","","","","","","","","","","218.80000001192093","","197.69999998807907","","0","1","arrowleft","0","arrowleft","[0.675,0.325,0.85,0.15]","","",""
"sailing-trial","274","995564","0.0-11.0-229.0","","","","false","","","","","","","","","","null","","480","","2","1","null","null","arrowup","[0.675,0.325,0.85,0.15]","","",""
"sailing-trial","275","998339","0.0-11.0-230.0","","","","false","","","","","","","","","","44.19999998807907","","92","","0","1","arrowleft","0","arrowleft","[0.85,0.15,0.675,0.325]","","",""
"sailing-trial","276","1000339","0.0-11.0-231.0","","","","false","","","","","","","","","","null","","458.10000002384186","","0","1","null","null","arrowup","[0.85,0.15,0.675,0.325]","","",""
"sailing-trial","277","1003545","0.0-11.0-232.0","","","","false","","","","","","","","","","417.5","","95.79999995231628","","0","1","arrowleft","0","arrowleft","[0.85,0.15,0.675,0.325]","","",""
"sailing-trial","278","1005843","0.0-11.0-233.0","","","","false","","","","","","","","","","null","","622.5","","2","1","null","null","arrowup","[0.85,0.15,0.675,0.325]","","",""
"sailing-trial","279","1008493","0.0-11.0-234.0","","","","false","","","","","","","","","","273.5","","216","","0","0","arrowleft","0","arrowleft","[0.85,0.15,0.675,0.325]","","",""
"sailing-trial","280","1010181","0.0-11.0-235.0","","","","false","","","","","","","","","","null","","628.6000000238419","","1","0","null","null","arrowup","[0.85,0.15,0.675,0.325]","","",""
"sailing-trial","281","1013315","0.0-11.0-236.0","","","","false","","","","","","","","","","240.69999998807907","","168","","0","1","arrowleft","0","arrowleft","[0.85,0.15,0.675,0.325]","","",""
"sailing-trial","282","1015889","0.0-11.0-237.0","","","","false","","","","","","","","","","null","","1371","","3","0","null","null","arrowup","[0.85,0.15,0.675,0.325]","","",""
"sailing-trial","283","1019103","0.0-11.0-238.0","","","","false","","","","","","","","","","316.69999998807907","","127.5","","0","1","arrowleft","0","arrowleft","[0.85,0.15,0.675,0.325]","","",""
"sailing-trial","284","1021407","0.0-11.0-239.0","","","","false","","","","","","","","","","null","","559.1999999880791","","0","1","null","null","arrowup","[0.85,0.15,0.675,0.325]","","",""
"sailing-trial","285","1024369","0.0-11.0-240.0","","","","false","","","","","","","","","","303.19999998807907","","49.5","","0","1","arrowleft","0","arrowleft","[0.85,0.15,0.675,0.325]","","",""
"sailing-trial","286","1026524","0.0-11.0-241.0","","","","false","","","","","","","","","","null","","401.69999998807907","","2","1","null","null","arrowup","[0.85,0.15,0.675,0.325]","","",""
"sailing-trial","287","1029452","0.0-11.0-242.0","","","","false","","","","","","","","","","222.60000002384186","","77.19999998807907","","0","1","arrowleft","0","arrowleft","[0.85,0.15,0.675,0.325]","","",""
"sailing-trial","288","1030696","0.0-11.0-243.0","","","","false","","","","","","","","","","null","","227.10000002384186","","1","0","null","null","arrowup","[0.85,0.15,0.675,0.325]","","",""
"sailing-trial","289","1033633","0.0-11.0-244.0","","","","false","","","","","","","","","","242.10000002384186","","153.79999995231628","","0","1","arrowleft","0","arrowleft","[0.85,0.15,0.675,0.325]","","",""
"sailing-trial","290","1035463","0.0-11.0-245.0","","","","false","","","","","","","","","","null","","217.29999995231628","","0","1","null","null","arrowup","[0.85,0.15,0.675,0.325]","","",""
"sailing-trial","291","1037926","0.0-11.0-246.0","","","","false","","","","","","","","","","266.5999999642372","","77.10000002384186","","0","0","arrowleft","0","arrowleft","[0.85,0.15,0.675,0.325]","","",""
"sailing-trial","292","1040184","0.0-11.0-247.0","","","","false","","","","","","","","","","null","","679.1000000238419","","3","1","null","null","arrowup","[0.85,0.15,0.675,0.325]","","",""
"sailing-trial","293","1042921","0.0-11.0-248.0","","","","false","","","","","","","","","","367.30000001192093","","327.10000002384186","","3","0","arrowright","1","arrowright","[0.85,0.15,0.675,0.325]","","",""
"sailing-trial","294","1044613","0.0-11.0-249.0","","","","false","","","","","","","","","","null","","386.7000000476837","","1","0","null","null","arrowup","[0.85,0.15,0.675,0.325]","","",""
"sailing-trial","295","1048408","0.0-11.0-250.0","","","","false","","","","","","","","","","1106.199999988079","","91.29999995231628","","2","1","arrowright","1","arrowleft","[0.675,0.325,0.85,0.15]","","",""
"sailing-trial","296","1050084","0.0-11.0-251.0","","","","false","","","","","","","","","","null","","650.3999999761581","","1","0","null","null","arrowup","[0.675,0.325,0.85,0.15]","","",""
"sailing-trial","297","1053402","0.0-11.0-252.0","","","","false","","","","","","","","","","423","","78.39999997615814","","2","1","arrowright","1","arrowleft","[0.675,0.325,0.85,0.15]","","",""
"sailing-trial","298","1055632","0.0-11.0-253.0","","","","false","","","","","","","","","","null","","616.8999999761581","","0","1","null","null","arrowup","[0.675,0.325,0.85,0.15]","","",""
"sailing-trial","299","1059766","0.0-11.0-254.0","","","","false","","","","","","","","","","556.8000000119209","","96.60000002384186","","0","1","arrowleft","0","arrowleft","[0.675,0.325,0.85,0.15]","","",""
"sailing-trial","300","1061959","0.0-11.0-255.0","","","","false","","","","","","","","","","null","","411.30000001192093","","2","1","null","null","arrowup","[0.675,0.325,0.85,0.15]","","",""
"sailing-trial","301","1065105","0.0-11.0-256.0","","","","false","","","","","","","","","","512.3000000119209","","51","","0","1","arrowleft","0","arrowleft","[0.675,0.325,0.85,0.15]","","",""
"sailing-trial","302","1066591","0.0-11.0-257.0","","","","false","","","","","","","","","","null","","389.30000001192093","","3","0","null","null","arrowup","[0.675,0.325,0.85,0.15]","","",""
"sailing-trial","303","1069760","0.0-11.0-258.0","","","","false","","","","","","","","","","359.80000001192093","","8.399999976158142","","0","1","arrowleft","0","arrowleft","[0.675,0.325,0.85,0.15]","","",""
"sailing-trial","304","1071808","0.0-11.0-259.0","","","","false","","","","","","","","","","null","","440.10000002384186","","0","1","null","null","arrowup","[0.675,0.325,0.85,0.15]","","",""
"sailing-trial","305","1074659","0.0-11.0-260.0","","","","false","","","","","","","","","","243.4000000357628","","95.39999997615814","","0","0","arrowleft","0","arrowleft","[0.675,0.325,0.85,0.15]","","",""
"sailing-trial","306","1077075","0.0-11.0-261.0","","","","false","","","","","","","","","","null","","685.5","","2","1","null","null","arrowup","[0.675,0.325,0.85,0.15]","","",""
"sailing-trial","307","1079808","0.0-11.0-262.0","","","","false","","","","","","","","","","19.5","","119.89999997615814","","0","1","arrowleft","0","arrowleft","[0.675,0.325,0.85,0.15]","","",""
"sailing-trial","308","1081528","0.0-11.0-263.0","","","","false","","","","","","","","","","null","","415.10000002384186","","1","0","null","null","arrowup","[0.675,0.325,0.85,0.15]","","",""
"sailing-trial","309","1084591","0.0-11.0-264.0","","","","false","","","","","","","","","","184.19999998807907","","23.69999998807907","","0","1","arrowleft","0","arrowleft","[0.675,0.325,0.85,0.15]","","",""
"sailing-trial","310","1086661","0.0-11.0-265.0","","","","false","","","","","","","","","","null","","498.80000001192093","","2","1","null","null","arrowup","[0.675,0.325,0.85,0.15]","","",""
"sailing-trial","311","1089487","0.0-11.0-266.0","","","","false","","","","","","","","","","162.19999998807907","","59.69999998807907","","0","1","arrowleft","0","arrowleft","[0.675,0.325,0.85,0.15]","","",""
"sailing-trial","312","1091564","0.0-11.0-267.0","","","","false","","","","","","","","","","null","","544.6999999880791","","0","1","null","null","arrowup","[0.675,0.325,0.85,0.15]","","",""
"sailing-trial","313","1094102","0.0-11.0-268.0","","","","false","","","","","","","","","","176","","172.5","","0","0","arrowleft","0","arrowleft","[0.675,0.325,0.85,0.15]","","",""
"sailing-trial","314","1096189","0.0-11.0-269.0","","","","false","","","","","","","","","","null","","565.1999999880791","","2","1","null","null","arrowup","[0.675,0.325,0.85,0.15]","","",""
"sailing-trial","315","1099420","0.0-11.0-270.0","","","","false","","","","","","","","","","339.39999997615814","","156.80000001192093","","2","1","arrowright","1","arrowleft","[0.85,0.15,0.675,0.325]","","",""
"sailing-trial","316","1101335","0.0-11.0-271.0","","","","false","","","","","","","","","","null","","283.69999998807907","","0","1","null","null","arrowup","[0.85,0.15,0.675,0.325]","","",""
"sailing-trial","317","1104335","0.0-11.0-272.0","","","","false","","","","","","","","","","177.4000000357628","","158","","0","1","arrowleft","0","arrowleft","[0.85,0.15,0.675,0.325]","","",""
"sailing-trial","318","1105935","0.0-11.0-273.0","","","","false","","","","","","","","","","null","","515.9000000357628","","2","0","null","null","arrowup","[0.85,0.15,0.675,0.325]","","",""
"sailing-trial","319","1108631","0.0-11.0-274.0","","","","false","","","","","","","","","","118.80000001192093","","30.5","","0","1","arrowleft","0","arrowleft","[0.85,0.15,0.675,0.325]","","",""
"sailing-trial","320","1110535","0.0-11.0-275.0","","","","false","","","","","","","","","","null","","263.5","","0","1","null","null","arrowup","[0.85,0.15,0.675,0.325]","","",""
"sailing-trial","321","1113358","0.0-11.0-276.0","","","","false","","","","","","","","","","3.399999976158142","","161","","0","1","arrowleft","0","arrowleft","[0.85,0.15,0.675,0.325]","","",""
"sailing-trial","322","1115268","0.0-11.0-277.0","","","","false","","","","","","","","","","null","","365.19999998807907","","3","1","null","null","arrowup","[0.85,0.15,0.675,0.325]","","",""
"sailing-trial","323","1118225","0.0-11.0-278.0","","","","false","","","","","","","","","","314.30000001192093","","43.39999997615814","","0","1","arrowleft","0","arrowleft","[0.85,0.15,0.675,0.325]","","",""
"sailing-trial","324","1119428","0.0-11.0-279.0","","","","false","","","","","","","","","","null","","39.59999996423721","","1","0","null","null","arrowup","[0.85,0.15,0.675,0.325]","","",""
"sailing-trial","325","1122296","0.0-11.0-280.0","","","","false","","","","","","","","","","334.5999999642372","","173.60000002384186","","0","0","arrowleft","0","arrowleft","[0.85,0.15,0.675,0.325]","","",""
"sailing-trial","326","1123857","0.0-11.0-281.0","","","","false","","","","","","","","","","null","","385.9000000357628","","3","0","null","null","arrowup","[0.85,0.15,0.675,0.325]","","",""
"sailing-trial","327","1127001","0.0-11.0-282.0","","","","false","","","","","","","","","","261.80000001192093","","63.09999996423721","","0","1","arrowleft","0","arrowleft","[0.85,0.15,0.675,0.325]","","",""
"sailing-trial","328","1129321","0.0-11.0-283.0","","","","false","","","","","","","","","","null","","669.1999999880791","","0","1","null","null","arrowup","[0.85,0.15,0.675,0.325]","","",""
"sailing-trial","329","1132068","0.0-11.0-284.0","","","","false","","","","","","","","","","156.80000001192093","","67.39999997615814","","0","1","arrowleft","0","arrowleft","[0.85,0.15,0.675,0.325]","","",""
"sailing-trial","330","1133789","0.0-11.0-285.0","","","","false","","","","","","","","","","null","","477.5","","3","0","null","null","arrowup","[0.85,0.15,0.675,0.325]","","",""
"sailing-trial","331","1136861","0.0-11.0-286.0","","","","false","","","","","","","","","","415.39999997615814","","36.30000001192093","","0","1","arrowleft","0","arrowleft","[0.85,0.15,0.675,0.325]","","",""
"sailing-trial","332","1138480","0.0-11.0-287.0","","","","false","","","","","","","","","","null","","502.19999998807907","","1","0","null","null","arrowup","[0.85,0.15,0.675,0.325]","","",""
"sailing-trial","333","1141261","0.0-11.0-288.0","","","","false","","","","","","","","","","223","","22.5","","0","1","arrowleft","0","arrowleft","[0.85,0.15,0.675,0.325]","","",""
"sailing-trial","334","1142606","0.0-11.0-289.0","","","","false","","","","","","","","","","null","","232.39999997615814","","1","0","null","null","arrowup","[0.85,0.15,0.675,0.325]","","",""
"sailing-trial","335","1144960","0.0-11.0-290.0","","","","false","","","","","","","","","","266.4000000357628","","42.700000047683716","","0","0","arrowleft","0","arrowleft","[0.15,0.85,0.325,0.675]","","",""
"sailing-trial","336","1146631","0.0-11.0-291.0","","","","false","","","","","","","","","","null","","323.60000002384186","","0","0","null","null","arrowup","[0.15,0.85,0.325,0.675]","","",""
"sailing-trial","337","1149417","0.0-11.0-292.0","","","","false","","","","","","","","","","443.10000002384186","","86.5","","2","0","arrowright","1","arrowleft","[0.15,0.85,0.325,0.675]","","",""
"sailing-trial","338","1152047","0.0-11.0-293.0","","","","false","","","","","","","","","","null","","909.5999999642372","","3","1","null","null","arrowup","[0.15,0.85,0.325,0.675]","","",""
"sailing-trial","339","1154355","0.0-11.0-294.0","","","","false","","","","","","","","","","147.4000000357628","","38.5","","3","0","arrowright","1","arrowright","[0.15,0.85,0.325,0.675]","","",""
"sailing-trial","340","1156507","0.0-11.0-295.0","","","","false","","","","","","","","","","null","","531.3000000119209","","2","1","null","null","arrowup","[0.15,0.85,0.325,0.675]","","",""
"sailing-trial","341","1159150","0.0-11.0-296.0","","","","false","","","","","","","","","","423.89999997615814","","169.5","","2","0","arrowright","1","arrowleft","[0.15,0.85,0.325,0.675]","","",""
"sailing-trial","342","1161185","0.0-11.0-297.0","","","","false","","","","","","","","","","null","","479.80000001192093","","1","1","null","null","arrowup","[0.15,0.85,0.325,0.675]","","",""
"sailing-trial","343","1163717","0.0-11.0-298.0","","","","false","","","","","","","","","","327.7000000476837","","134.80000001192093","","2","0","arrowright","1","arrowleft","[0.15,0.85,0.325,0.675]","","",""
"sailing-trial","344","1165889","0.0-11.0-299.0","","","","false","","","","","","","","","","null","","643.8000000119209","","3","1","null","null","arrowup","[0.15,0.85,0.325,0.675]","","",""
"sailing-trial","345","1168750","0.0-11.0-300.0","","","","false","","","","","","","","","","287.10000002384186","","44.69999998807907","","3","1","arrowright","1","arrowright","[0.15,0.85,0.325,0.675]","","",""
"sailing-trial","346","1170979","0.0-11.0-301.0","","","","false","","","","","","","","","","null","","687.8999999761581","","3","1","null","null","arrowup","[0.15,0.85,0.325,0.675]","","",""
"sailing-trial","347","1173600","0.0-11.0-302.0","","","","false","","","","","","","","","","406.7000000476837","","166.79999995231628","","3","0","arrowright","1","arrowright","[0.15,0.85,0.325,0.675]","","",""
"sailing-trial","348","1175141","0.0-11.0-303.0","","","","false","","","","","","","","","","null","","530.8999999761581","","0","0","null","null","arrowup","[0.15,0.85,0.325,0.675]","","",""
"sailing-trial","349","1178549","0.0-11.0-304.0","","","","false","","","","","","","","","","777.1999999880791","","69.89999997615814","","1","1","arrowleft","0","arrowright","[0.15,0.85,0.325,0.675]","","",""
"sailing-trial","350","1180201","0.0-11.0-305.0","","","","false","","","","","","","","","","null","","629.6999999880791","","3","0","null","null","arrowup","[0.15,0.85,0.325,0.675]","","",""
"sailing-trial","351","1183694","0.0-11.0-306.0","","","","false","","","","","","","","","","463.80000001192093","","308","","1","1","arrowleft","0","arrowright","[0.15,0.85,0.325,0.675]","","",""
"sailing-trial","352","1185598","0.0-11.0-307.0","","","","false","","","","","","","","","","null","","218.19999998807907","","3","1","null","null","arrowup","[0.15,0.85,0.325,0.675]","","",""
"sailing-trial","353","1188543","0.0-11.0-308.0","","","","false","","","","","","","","","","221.89999997615814","","89","","1","1","arrowleft","0","arrowright","[0.15,0.85,0.325,0.675]","","",""
"sailing-trial","354","1190554","0.0-11.0-309.0","","","","false","","","","","","","","","","null","","707.0999999642372","","2","0","null","null","arrowup","[0.15,0.85,0.325,0.675]","","",""
"sailing-trial","355","1193804","0.0-11.0-310.0","","","","false","","","","","","","","","","363.39999997615814","","291.7999999523163","","1","1","arrowleft","0","arrowright","[0.15,0.85,0.325,0.675]","","",""
"sailing-trial","356","1195592","0.0-11.0-311.0","","","","false","","","","","","","","","","null","","488.69999998807907","","1","0","null","null","arrowup","[0.15,0.85,0.325,0.675]","","",""
"sailing-trial","357","1199003","0.0-11.0-312.0","","","","false","","","","","","","","","","718.5","","95.80000001192093","","2","1","arrowright","1","arrowleft","[0.675,0.325,0.85,0.15]","","",""
"sailing-trial","358","1200985","0.0-11.0-313.0","","","","false","","","","","","","","","","null","","375.0999999642372","","2","1","null","null","arrowup","[0.675,0.325,0.85,0.15]","","",""
"sailing-trial","359","1204410","0.0-11.0-314.0","","","","false","","","","","","","","","","725.3999999761581","","16.900000035762787","","2","1","arrowright","1","arrowleft","[0.675,0.325,0.85,0.15]","","",""
"sailing-trial","360","1206496","0.0-11.0-315.0","","","","false","","","","","","","","","","null","","479.30000001192093","","0","1","null","null","arrowup","[0.675,0.325,0.85,0.15]","","",""
"sailing-trial","361","1209728","0.0-11.0-316.0","","","","false","","","","","","","","","","270.0999999642372","","91.60000002384186","","2","1","arrowright","1","arrowleft","[0.675,0.325,0.85,0.15]","","",""
"sailing-trial","362","1211885","0.0-11.0-317.0","","","","false","","","","","","","","","","null","","498.10000002384186","","0","1","null","null","arrowup","[0.675,0.325,0.85,0.15]","","",""
"sailing-trial","363","1214897","0.0-11.0-318.0","","","","false","","","","","","","","","","384.69999998807907","","74.39999997615814","","2","1","arrowright","1","arrowleft","[0.675,0.325,0.85,0.15]","","",""
"sailing-trial","364","1216352","0.0-11.0-319.0","","","","false","","","","","","","","","","null","","446.4000000357628","","1","0","null","null","arrowup","[0.675,0.325,0.85,0.15]","","",""
"sailing-trial","365","1219624","0.0-11.0-320.0","","","","false","","","","","","","","","","620.6000000238419","","53.39999997615814","","2","1","arrowright","1","arrowleft","[0.675,0.325,0.85,0.15]","","",""
"sailing-trial","366","1221246","0.0-11.0-321.0","","","","false","","","","","","","","","","null","","504.39999997615814","","1","0","null","null","arrowup","[0.675,0.325,0.85,0.15]","","",""
"sailing-trial","367","1224327","0.0-11.0-322.0","","","","false","","","","","","","","","","298.69999998807907","","237.60000002384186","","2","1","arrowright","1","arrowleft","[0.675,0.325,0.85,0.15]","","",""
"sailing-trial","368","1226308","0.0-11.0-323.0","","","","false","","","","","","","","","","null","","434.39999997615814","","2","1","null","null","arrowup","[0.675,0.325,0.85,0.15]","","",""
"sailing-trial","369","1229418","0.0-11.0-324.0","","","","false","","","","","","","","","","262.30000001192093","","121.39999997615814","","2","1","arrowright","1","arrowleft","[0.675,0.325,0.85,0.15]","","",""
"sailing-trial","370","1231363","0.0-11.0-325.0","","","","false","","","","","","","","","","null","","242","","0","1","null","null","arrowup","[0.675,0.325,0.85,0.15]","","",""
"sailing-trial","371","1234206","0.0-11.0-326.0","","","","false","","","","","","","","","","98.5","","5.5","","0","1","arrowleft","0","arrowleft","[0.675,0.325,0.85,0.15]","","",""
"sailing-trial","372","1235992","0.0-11.0-327.0","","","","false","","","","","","","","","","null","","480.2999999523163","","1","0","null","null","arrowup","[0.675,0.325,0.85,0.15]","","",""
"sailing-trial","373","1239254","0.0-11.0-328.0","","","","false","","","","","","","","","","467.5999999642372","","46.700000047683716","","0","1","arrowleft","0","arrowleft","[0.325,0.675,0.15,0.85]","","",""
"sailing-trial","374","1240847","0.0-11.0-329.0","","","","false","","","","","","","","","","null","","511.5999999642372","","2","0","null","null","arrowup","[0.325,0.675,0.15,0.85]","","",""
"sailing-trial","375","1243522","0.0-11.0-330.0","","","","false","","","","","","","","","","279.19999998807907","","99.10000002384186","","0","0","arrowleft","0","arrowleft","[0.325,0.675,0.15,0.85]","","",""
"sailing-trial","376","1245787","0.0-11.0-331.0","","","","false","","","","","","","","","","null","","635.8999999761581","","3","1","null","null","arrowup","[0.325,0.675,0.15,0.85]","","",""
"sailing-trial","377","1248587","0.0-11.0-332.0","","","","false","","","","","","","","","","209.5","","24.400000035762787","","3","1","arrowright","1","arrowright","[0.325,0.675,0.15,0.85]","","",""
"sailing-trial","378","1250633","0.0-11.0-333.0","","","","false","","","","","","","","","","null","","729.7999999523163","","2","0","null","null","arrowup","[0.325,0.675,0.15,0.85]","","",""
"sailing-trial","379","1254066","0.0-11.0-334.0","","","","false","","","","","","","","","","419.5","","190.69999998807907","","3","1","arrowright","1","arrowright","[0.325,0.675,0.15,0.85]","","",""
"sailing-trial","380","1255628","0.0-11.0-335.0","","","","false","","","","","","","","","","null","","509.9000000357628","","0","0","null","null","arrowup","[0.325,0.675,0.15,0.85]","","",""
"sailing-trial","381","1258726","0.0-11.0-336.0","","","","false","","","","","","","","","","500.7000000476837","","48.19999998807907","","3","1","arrowright","1","arrowright","[0.325,0.675,0.15,0.85]","","",""
"sailing-trial","382","1260903","0.0-11.0-337.0","","","","false","","","","","","","","","","null","","483.9000000357628","","0","1","null","null","arrowup","[0.325,0.675,0.15,0.85]","","",""
"sailing-trial","383","1264224","0.0-11.0-338.0","","","","false","","","","","","","","","","408.4000000357628","","176.39999997615814","","3","1","arrowright","1","arrowright","[0.325,0.675,0.15,0.85]","","",""
"sailing-trial","384","1266471","0.0-11.0-339.0","","","","false","","","","","","","","","","null","","486.80000001192093","","3","1","null","null","arrowup","[0.325,0.675,0.15,0.85]","","",""
"sailing-trial","385","1269246","0.0-11.0-340.0","","","","false","","","","","","","","","","161.10000002384186","","84.10000002384186","","3","1","arrowright","1","arrowright","[0.325,0.675,0.15,0.85]","","",""
"sailing-trial","386","1270646","0.0-11.0-341.0","","","","false","","","","","","","","","","null","","376.2000000476837","","0","0","null","null","arrowup","[0.325,0.675,0.15,0.85]","","",""
"sailing-trial","387","1274095","0.0-11.0-342.0","","","","false","","","","","","","","","","433.80000001192093","","156.79999995231628","","3","1","arrowright","1","arrowright","[0.325,0.675,0.15,0.85]","","",""
"sailing-trial","388","1275396","0.0-11.0-343.0","","","","false","","","","","","","","","","null","","277.89999997615814","","0","0","null","null","arrowup","[0.325,0.675,0.15,0.85]","","",""
"sailing-trial","389","1278900","0.0-11.0-344.0","","","","false","","","","","","","","","","456.19999998807907","","327.39999997615814","","3","1","arrowright","1","arrowright","[0.325,0.675,0.15,0.85]","","",""
"sailing-trial","390","1280288","0.0-11.0-345.0","","","","false","","","","","","","","","","null","","322.5","","2","0","null","null","arrowup","[0.325,0.675,0.15,0.85]","","",""
"sailing-trial","391","1283204","0.0-11.0-346.0","","","","false","","","","","","","","","","678.1999999880791","","25.099999964237213","","3","0","arrowright","1","arrowright","[0.85,0.15,0.675,0.325]","","",""
"sailing-trial","392","1285234","0.0-11.0-347.0","","","","false","","","","","","","","","","null","","426.10000002384186","","3","1","null","null","arrowup","[0.85,0.15,0.675,0.325]","","",""
"sailing-trial","393","1287479","0.0-11.0-348.0","","","","false","","","","","","","","","","204","","21.399999976158142","","2","0","arrowright","1","arrowleft","[0.85,0.15,0.675,0.325]","","",""
"sailing-trial","394","1289317","0.0-11.0-349.0","","","","false","","","","","","","","","","null","","609.3000000119209","","2","0","null","null","arrowup","[0.85,0.15,0.675,0.325]","","",""
"sailing-trial","395","1292119","0.0-11.0-350.0","","","","false","","","","","","","","","","130.20000004768372","","155.19999998807907","","3","1","arrowright","1","arrowright","[0.85,0.15,0.675,0.325]","","",""
"sailing-trial","396","1293869","0.0-11.0-351.0","","","","false","","","","","","","","","","null","","598.0999999642372","","1","0","null","null","arrowup","[0.85,0.15,0.675,0.325]","","",""
"sailing-trial","397","1296470","0.0-11.0-352.0","","","","false","","","","","","","","","","338.10000002384186","","96.59999996423721","","3","0","arrowright","1","arrowright","[0.85,0.15,0.675,0.325]","","",""
"sailing-trial","398","1298761","0.0-11.0-353.0","","","","false","","","","","","","","","","null","","543","","2","1","null","null","arrowup","[0.85,0.15,0.675,0.325]","","",""
"sailing-trial","399","1301268","0.0-11.0-354.0","","","","false","","","","","","","","","","125.80000001192093","","61.90000003576279","","1","0","arrowleft","0","arrowright","[0.85,0.15,0.675,0.325]","","",""
"sailing-trial","400","1302961","0.0-11.0-355.0","","","","false","","","","","","","","","","null","","520.9000000357628","","3","0","null","null","arrowup","[0.85,0.15,0.675,0.325]","","",""
"sailing-trial","401","1306264","0.0-11.0-356.0","","","","false","","","","","","","","","","416","","233.39999997615814","","0","1","arrowleft","0","arrowleft","[0.85,0.15,0.675,0.325]","","",""
"sailing-trial","402","1309082","0.0-11.0-357.0","","","","false","","","","","","","","","","null","","1308.699999988079","","0","1","null","null","arrowup","[0.85,0.15,0.675,0.325]","","",""
"sailing-trial","403","1311672","0.0-11.0-358.0","","","","false","","","","","","","","","","270","","103.39999997615814","","0","0","arrowleft","0","arrowleft","[0.85,0.15,0.675,0.325]","","",""
"sailing-trial","404","1313157","0.0-11.0-359.0","","","","false","","","","","","","","","","null","","382.5","","1","0","null","null","arrowup","[0.85,0.15,0.675,0.325]","","",""
"sailing-trial","405","1316476","0.0-11.0-360.0","","","","false","","","","","","","","","","450.80000001192093","","234.19999998807907","","0","1","arrowleft","0","arrowleft","[0.85,0.15,0.675,0.325]","","",""
"sailing-trial","406","1317898","0.0-11.0-361.0","","","","false","","","","","","","","","","null","","322.89999997615814","","3","0","null","null","arrowup","[0.85,0.15,0.675,0.325]","","",""
"sailing-trial","407","1321063","0.0-11.0-362.0","","","","false","","","","","","","","","","320","","30.900000035762787","","0","1","arrowleft","0","arrowleft","[0.85,0.15,0.675,0.325]","","",""
"sailing-trial","408","1322695","0.0-11.0-363.0","","","","false","","","","","","","","","","null","","73.69999998807907","","1","1","null","null","arrowup","[0.85,0.15,0.675,0.325]","","",""
"sailing-trial","409","1325585","0.0-11.0-364.0","","","","false","","","","","","","","","","78","","2.100000023841858","","0","1","arrowleft","0","arrowleft","[0.675,0.325,0.85,0.15]","","",""
"sailing-trial","410","1326952","0.0-11.0-365.0","","","","false","","","","","","","","","","null","","146.5","","2","0","null","null","arrowup","[0.675,0.325,0.85,0.15]","","",""
"sailing-trial","411","1329771","0.0-11.0-366.0","","","","false","","","","","","","","","","172.80000001192093","","16.80000001192093","","0","1","arrowleft","0","arrowleft","[0.675,0.325,0.85,0.15]","","",""
"sailing-trial","412","1331673","0.0-11.0-367.0","","","","false","","","","","","","","","","null","","238.69999998807907","","2","1","null","null","arrowup","[0.675,0.325,0.85,0.15]","","",""
"sailing-trial","413","1334365","0.0-11.0-368.0","","","","false","","","","","","","","","","159.80000001192093","","3.899999976158142","","0","1","arrowleft","0","arrowleft","[0.675,0.325,0.85,0.15]","","",""
"sailing-trial","414","1336055","0.0-11.0-369.0","","","","false","","","","","","","","","","null","","77.5","","1","1","null","null","arrowup","[0.675,0.325,0.85,0.15]","","",""
"sailing-trial","415","1339280","0.0-11.0-370.0","","","","false","","","","","","","","","","245.39999997615814","","190.19999998807907","","0","1","arrowleft","0","arrowleft","[0.675,0.325,0.85,0.15]","","",""
"sailing-trial","416","1341122","0.0-11.0-371.0","","","","false","","","","","","","","","","null","","222.30000001192093","","0","1","null","null","arrowup","[0.675,0.325,0.85,0.15]","","",""
"sailing-trial","417","1344073","0.0-11.0-372.0","","","","false","","","","","","","","","","186","","32.10000002384186","","0","1","arrowleft","0","arrowleft","[0.675,0.325,0.85,0.15]","","",""
"sailing-trial","418","1345834","0.0-11.0-373.0","","","","false","","","","","","","","","","null","","517.1000000238419","","3","0","null","null","arrowup","[0.675,0.325,0.85,0.15]","","",""
"sailing-trial","419","1348686","0.0-11.0-374.0","","","","false","","","","","","","","","","129.80000001192093","","188.80000001192093","","0","1","arrowleft","0","arrowleft","[0.675,0.325,0.85,0.15]","","",""
"sailing-trial","420","1351437","0.0-11.0-375.0","","","","false","","","","","","","","","","null","","1086.800000011921","","0","1","null","null","arrowup","[0.675,0.325,0.85,0.15]","","",""
"sailing-trial","421","1353884","0.0-11.0-376.0","","","","false","","","","","","","","","","249.30000001192093","","45.59999996423721","","0","0","arrowleft","0","arrowleft","[0.675,0.325,0.85,0.15]","","",""
"sailing-trial","422","1355761","0.0-11.0-377.0","","","","false","","","","","","","","","","null","","774.8999999761581","","3","0","null","null","arrowup","[0.675,0.325,0.85,0.15]","","",""
"sailing-trial","423","1358719","0.0-11.0-378.0","","","","false","","","","","","","","","","763.1999999880791","","142.19999998807907","","0","0","arrowleft","0","arrowleft","[0.675,0.325,0.85,0.15]","","",""
"sailing-trial","424","1360440","0.0-11.0-379.0","","","","false","","","","","","","","","","null","","592.6999999880791","","3","0","null","null","arrowup","[0.675,0.325,0.85,0.15]","","",""
"sailing-trial","425","1363398","0.0-11.0-380.0","","","","false","","","","","","","","","","633.8000000119209","","138.89999997615814","","1","0","arrowleft","0","arrowright","[0.675,0.325,0.85,0.15]","","",""
"sailing-trial","426","1365788","0.0-11.0-381.0","","","","false","","","","","","","","","","null","","705.8000000119209","","0","1","null","null","arrowup","[0.675,0.325,0.85,0.15]","","",""
"sailing-trial","427","1368734","0.0-11.0-382.0","","","","false","","","","","","","","","","279.69999998807907","","111","","2","1","arrowright","1","arrowleft","[0.85,0.15,0.675,0.325]","","",""
"sailing-trial","428","1370427","0.0-11.0-383.0","","","","false","","","","","","","","","","null","","575.4000000357628","","1","0","null","null","arrowup","[0.85,0.15,0.675,0.325]","","",""
"sailing-trial","429","1373514","0.0-11.0-384.0","","","","false","","","","","","","","","","444.60000002384186","","441","","2","0","arrowright","1","arrowleft","[0.85,0.15,0.675,0.325]","","",""
"sailing-trial","430","1375332","0.0-11.0-385.0","","","","false","","","","","","","","","","null","","643","","1","0","null","null","arrowup","[0.85,0.15,0.675,0.325]","","",""
"sailing-trial","431","1378053","0.0-11.0-386.0","","","","false","","","","","","","","","","371.5","","127.80000001192093","","3","0","arrowright","1","arrowright","[0.85,0.15,0.675,0.325]","","",""
"sailing-trial","432","1379784","0.0-11.0-387.0","","","","false","","","","","","","","","","null","","607.6999999880791","","1","0","null","null","arrowup","[0.85,0.15,0.675,0.325]","","",""
"sailing-trial","433","1382771","0.0-11.0-388.0","","","","false","","","","","","","","","","173","","19.69999998807907","","0","1","arrowleft","0","arrowleft","[0.85,0.15,0.675,0.325]","","",""
"sailing-trial","434","1384505","0.0-11.0-389.0","","","","false","","","","","","","","","","null","","479.19999998807907","","1","0","null","null","arrowup","[0.85,0.15,0.675,0.325]","","",""
"sailing-trial","435","1386830","0.0-11.0-390.0","","","","false","","","","","","","","","","212.30000001192093","","68.19999998807907","","0","0","arrowleft","0","arrowleft","[0.85,0.15,0.675,0.325]","","",""
"sailing-trial","436","1389518","0.0-11.0-391.0","","","","false","","","","","","","","","","null","","790.8000000119209","","0","1","null","null","arrowup","[0.85,0.15,0.675,0.325]","","",""
"sailing-trial","437","1393015","0.0-11.0-392.0","","","","false","","","","","","","","","","261.7000000476837","","129.80000001192093","","0","1","arrowleft","0","arrowleft","[0.85,0.15,0.675,0.325]","","",""
"sailing-trial","438","1395246","0.0-11.0-393.0","","","","false","","","","","","","","","","null","","488.39999997615814","","2","1","null","null","arrowup","[0.85,0.15,0.675,0.325]","","",""
"sailing-trial","439","1397739","0.0-11.0-394.0","","","","false","","","","","","","","","","190","","146.60000002384186","","0","0","arrowleft","0","arrowleft","[0.85,0.15,0.675,0.325]","","",""
"sailing-trial","440","1399371","0.0-11.0-395.0","","","","false","","","","","","","","","","null","","526.1000000238419","","1","0","null","null","arrowup","[0.85,0.15,0.675,0.325]","","",""
"sailing-trial","441","1403003","0.0-11.0-396.0","","","","false","","","","","","","","","","724.5999999642372","","293.80000001192093","","3","1","arrowright","1","arrowright","[0.85,0.15,0.675,0.325]","","",""
"sailing-trial","442","1405089","0.0-11.0-397.0","","","","false","","","","","","","","","","null","","509.10000002384186","","0","1","null","null","arrowup","[0.85,0.15,0.675,0.325]","","",""
"sailing-trial","443","1407678","0.0-11.0-398.0","","","","false","","","","","","","","","","421.60000002384186","","155.60000002384186","","3","0","arrowright","1","arrowright","[0.85,0.15,0.675,0.325]","","",""
"sailing-trial","444","1410009","0.0-11.0-399.0","","","","false","","","","","","","","","","null","","558.3999999761581","","2","1","null","null","arrowup","[0.85,0.15,0.675,0.325]","","",""
"instructions","445","1412864","0.0-12.0","","","","","","","","","","2854.100000023842","","","","","","","","","","","","","","","","[{""page_index"":0,""viewing_time"":2853.699999988079}]"
"survey-debrief","446","1459277","0.0-13.0","","","","","","","","","","46408.19999998808","","","","","","","","","","","","","","{""difficulty"":""5"",""fun"":""4"",""clarity"":""5"",""strategy"":"""",""feedback"":""""}","",""
