"trial_type","trial_index","time_elapsed","internal_node_id","value","metadata","success","timeout","failed_images","failed_audio","failed_video","browser_interaction","low_quality","rt","stimulus","response","button_pressed","island_rt","island_response","boat_rt","boat_response","boat","reward","island_key","island","boat_key","reward_probabilities","responses","num_errors","view_history"
"pavlovia","0","2","0.0-0.0","","","","","","","","","","","","","","","","","","","","","","","","","",""
"call-function","1","2","0.0-1.0","","{""task_version"":""sailing_part1_v1"",""task_condition"":""good"",""boats"":[""C"",""B"",""D"",""A""],""boats_demo"":[""E"",""H"",""G"",""F""],""islands"":[""B"",""A""],""subject_id"":""13791"",""age"":""8"",""gender"":""Male""}","","","","","","","","","","","","","","","","","","","","","","","",""
"preload","2","3554","0.0-2.0","","","true","false","[]","[]","[]","[{""event"":""fullscreenenter"",""trial"":3,""time"":17581}]","false","","","","","","","","","","","","","","","","",""
"fullscreen","3","18563","0.0-3.0","","","true","","","","","","","","","","","","","","","","","","","","","","",""
"audio-keyboard-response","4","21019","0.0-4.0-0.0","","","","","","","","","","2416","audio/beep_loop.wav"," ","","","","","","","","","","","","","",""
"audio-test","5","22861","0.0-4.0-1.0","","","","","","","","","","null","audio/turtle.mp3","","3","","","","","","","","","","","","",""
"audio-test","6","25222","0.0-4.0-2.0","","","","","","","","","","null","audio/shark.mp3","","2","","","","","","","","","","","","",""
"sailing-instructions","7","58695","0.0-5.0-0.0-0.0","","","","","","","","","","","","","","null","null","null","null","null","null","","","","","","",""
"sailing-trial","8","62065","0.0-5.0-0.0-1.0-0.0","","","","false","","","","","","","","","","2263.2999999970198","","null","","null","null","arrowleft","0","null","null","","",""
"sailing-trial","9","64944","0.0-5.0-0.0-1.0-1.0","","","","false","","","","","","","","","","1758.4000000059605","","null","","null","null","arrowright","1","null","null","","",""
"sailing-trial","10","68198","0.0-5.0-0.0-1.0-2.0","","","","false","","","","","","","","","","2145.7999999970198","","null","","null","null","arrowright","1","null","null","","",""
"sailing-instructions","11","114097","0.0-5.0-0.0-2.0","","","","","","","","","","","","","","null","null","null","null","0","null","","","","","","",""
"sailing-trial","12","125165","0.0-5.0-0.0-3.0-0.0","","","","false","","","","","","","","","","null","","6893.80000000447","","2","1","null","null","arrowleft","[1,1,1,1]","","",""
"sailing-trial","13","129813","0.0-5.0-0.0-3.0-1.0","","","","false","","","","","","","","","","null","","1968.2000000029802","","3","1","null","null","arrowright","[1,1,1,1]","","",""
"sailing-trial","14","135221","0.0-5.0-0.0-3.0-2.0","","","","false","","","","","","","","","","null","","1976.8999999985099","","3","0","null","null","arrowright","[0,0,0,0]","","",""
"sailing-instructions","15","143250","0.0-5.0-0.0-4.0","","","","","","","","","","","","","","null","null","null","null","null","null","","","","","","",""
"sailing-comprehension","16","185167","0.0-5.0-0.0-5.0","","","","","","","","","","17774.70000000298","","","","","","","","","","","","","","[""true"",""true"",""true"",""true""]","1",""
"sailing-instructions","17","213410","0.0-5.0-0.1-0.1","","","","","","","","","","","","","","null","null","null","null","null","null","","","","","","",""
"sailing-trial","18","216730","0.0-5.0-0.1-1.1-0.1","","","","false","","","","","","","","","","2213.89999999851","","null","","null","null","arrowleft","0","null","null","","",""
"sailing-trial","19","219385","0.0-5.0-0.1-1.1-1.1","","","","false","","","","","","","","","","1547.7000000029802","","null","","null","null","arrowright","1","null","null","","",""
"sailing-trial","20","221419","0.0-5.0-0.1-1.1-2.1","","","","false","","","","","","","","","","927","","null","","null","null","arrowleft","0","null","null","","",""
"sailing-instructions","21","263134","0.0-5.0-0.1-2.1","","","","","","","","","","","","","","null","null","null","null","0","null","","","","","","",""
"sailing-trial","22","267147","0.0-5.0-0.1-3.1-0.1","","","","false","","","","","","","","","","null","","1153.1000000014901","","2","1","null","null","arrowleft","[1,1,1,1]","","",""
"sailing-trial","23","270008","0.0-5.0-0.1-3.1-1.1","","","","false","","","","","","","","","","null","","570.2999999970198","","3","1","null","null","arrowright","[1,1,1,1]","","",""
"sailing-trial","24","274006","0.0-5.0-0.1-3.1-2.1","","","","false","","","","","","","","","","null","","470.20000000298023","","2","0","null","null","arrowleft","[0,0,0,0]","","",""
"sailing-instructions","25","281812","0.0-5.0-0.1-4.1","","","","","","","","","","","","","","null","null","null","null","null","null","","","","","","",""
"sailing-comprehension","26","309411","0.0-5.0-0.1-5.1","","","","","","","","","","14797.70000000298","","","","","","","","","","","","","","[""true"",""false"",""true"",""true""]","2",""
"sailing-instructions","27","371915","0.0-6.0-0.0-0.0","","","","","","","","","","","","","","null","null","null","null","null","null","","","","","","",""
"sailing-comprehension","28","392213","0.0-6.0-0.0-1.0","","","","","","","","","","18220","","","","","","","","","","","","","","[""true"",""false"",""true""]","0",""
"sailing-instructions","29","407069","0.0-7.0-0.0-0.0","","","","","","","","","","","","","","null","null","null","null","null","null","","","","","","",""
"sailing-trial","30","412109","0.0-7.0-0.0-1.0-0.0","","","","false","","","","","","","","","","null","","2025.3999999985099","","0","0","null","null","arrowup","[0.2,0.8,0.2,0.8]","","",""
"sailing-trial","31","417559","0.0-7.0-0.0-1.0-1.0","","","","false","","","","","","","","","","null","","2652","","1","1","null","null","arrowup","[0.2,0.8,0.2,0.8]","","",""
"sailing-trial","32","423335","0.0-7.0-0.0-1.0-2.0","","","","false","","","","","","","","","","null","","2853.5","","2","1","null","null","arrowup","[0.2,0.8,0.2,0.8]","","",""
"sailing-trial","33","426940","0.0-7.0-0.0-1.0-3.0","","","","false","","","","","","","","","","null","","1394.3000000044703","","3","1","null","null","arrowup","[0.2,0.8,0.2,0.8]","","",""
"sailing-comprehension","34","442976","0.0-7.0-0.0-2.0","","","","","","","","","","12950.39999999851","","","","","","","","","","","","","","[""true""]","1",""
"sailing-instructions","35","458057","0.0-7.0-0.1-0.1","","","","","","","","","","","","","","null","null","null","null","null","null","","","","","","",""
"sailing-trial","36","461145","0.0-7.0-0.1-1.1-0.1","","","","false","","","","","","","","","","null","","1147.3000000044703","","0","0","null","null","arrowup","[0.2,0.8,0.2,0.8]","","",""
"sailing-trial","37","463873","0.0-7.0-0.1-1.1-1.1","","","","false","","","","","","","","","","null","","877.5","","1","1","null","null","arrowup","[0.2,0.8,0.2,0.8]","","",""
"sailing-trial","38","467743","0.0-7.0-0.1-1.1-2.1","","","","false","","","","","","","","","","null","","1673.0999999940395","","2","0","null","null","arrowup","[0.2,0.8,0.2,0.8]","","",""
"sailing-trial","39","471897","0.0-7.0-0.1-1.1-3.1","","","","false","","","","","","","","","","null","","1142.6000000014901","","3","0","null","null","arrowup","[0.2,0.8,0.2,0.8]","","",""
"sailing-comprehension","40","476512","0.0-7.0-0.1-2.1","","","","","","","","","","3113.7999999970198","","","","","","","","","","","","","","[""false""]","0",""
"sailing-instructions","41","487230","0.0-8.0-0.0-0.0","","","","","","","","","","","","","","null","null","null","null","null","null","","","","","","",""
"sailing-comprehension","42","491364","0.0-8.0-0.0-1.0","","","","","","","","","","3363.39999999851","","","","","","","","","","","","","","[""true""]","0",""
"sailing-instructions","43","533844","0.0-9.0-0.0-0.0","","","","","","","","","","","","","","null","null","null","null","null","null","","","","","","",""
"sailing-trial","44","542355","0.0-9.0-0.0-1.0-0.0","","","","false","","","","","","","","","","2741.60000000149","","1896.8000000044703","","3","1","arrowright","1","arrowright","[0.2,0.8,0.2,0.8]","","",""
"sailing-trial","45","548319","0.0-9.0-0.0-1.0-1.0","","","","false","","","","","","","","","","1171.2000000029802","","1119.6999999955297","","1","1","arrowleft","0","arrowright","[0.2,0.8,0.2,0.8]","","",""
"sailing-trial","46","552886","0.0-9.0-0.0-1.0-2.0","","","","false","","","","","","","","","","null","","2283.7999999970198","","0","0","null","null","arrowup","[0.2,0.8,0.2,0.8]","","",""
"sailing-trial","47","560019","0.0-9.0-0.0-1.0-3.0","","","","false","","","","","","","","","","1961.6000000014901","","1183.7999999970198","","2","0","arrowright","1","arrowleft","[0.2,0.8,0.2,0.8]","","",""
"sailing-trial","48","564237","0.0-9.0-0.0-1.0-4.0","","","","false","","","","","","","","","","null","","1804.8000000044703","","3","1","null","null","arrowup","[0.2,0.8,0.2,0.8]","","",""
"sailing-trial","49","570915","0.0-9.0-0.0-1.0-5.0","","","","false","","","","","","","","","","1291.3000000044703","","1533.5","","0","1","arrowleft","0","arrowleft","[0.2,0.8,0.2,0.8]","","",""
"sailing-instructions","50","599267","0.0-10.0","","","","","","","","","","","","","","null","null","null","null","null","null","","","","","","",""
"sailing-trial","51","606214","0.0-11.0-0.0","","","","false","","","","","","","","","","1517.1999999955297","","2009.2000000029802","","0","1","arrowleft","0","arrowleft","[0.85,0.15,0.675,0.325]","","",""
"sailing-trial","52","610349","0.0-11.0-1.0","","","","false","","","","","","","","","","null","","1822.1000000014901","","1","0","null","null","arrowup","[0.85,0.15,0.675,0.325]","","",""
"sailing-trial","53","616643","0.0-11.0-2.0","","","","false","","","","","","","","","","1443.1000000014901","","1332.2999999970198","","2","1","arrowright","1","arrowleft","[0.85,0.15,0.675,0.325]","","",""
"sailing-trial","54","621268","0.0-11.0-3.0","","","","false","","","","","","","","","","null","","2165.39999999851","","3","1","null","null","arrowup","[0.85,0.15,0.675,0.325]","","",""
"sailing-trial","55","627462","0.0-11.0-4.0","","","","false","","","","","","","","","","1228.6000000014901","","1650.1999999955297","","1","0","arrowleft","0","arrowright","[0.85,0.15,0.675,0.325]","","",""
"sailing-trial","56","630987","0.0-11.0-5.0","","","","false","","","","","","","","","","null","","1084.5","","0","1","null","null","arrowup","[0.85,0.15,0.675,0.325]","","",""
"sailing-trial","57","637630","0.0-11.0-6.0","","","","false","","","","","","","","","","858.5999999940395","","2398.2999999970198","","0","1","arrowleft","0","arrowleft","[0.85,0.15,0.675,0.325]","","",""
"sailing-trial","58","641198","0.0-11.0-7.0","","","","false","","","","","","","","","","null","","1440.4000000059605","","2","1","null","null","arrowup","[0.85,0.15,0.675,0.325]","","",""
"sailing-trial","59","645662","0.0-11.0-8.0","","","","false","","","","","","","","","","747.7000000029802","","633.4000000059605","","3","0","arrowright","1","arrowright","[0.85,0.15,0.675,0.325]","","",""
"sailing-trial","60","649345","0.0-11.0-9.0","","","","false","","","","","","","","","","null","","1264.2999999970198","","2","0","null","null","arrowup","[0.85,0.15,0.675,0.325]","","",""
"sailing-trial","61","654748","0.0-11.0-10.0","","","","false","","","","","","","","","","1152.1000000014901","","1066.8000000044703","","2","0","arrowright","1","arrowleft","[0.85,0.15,0.675,0.325]","","",""
"sailing-trial","62","657988","0.0-11.0-11.0","","","","false","","","","","","","","","","null","","1094.9000000059605","","2","1","null","null","arrowup","[0.85,0.15,0.675,0.325]","","",""
"sailing-trial","63","662430","0.0-11.0-12.0","","","","false","","","","","","","","","","637.8999999985099","","704.8999999985099","","1","1","arrowleft","0","arrowright","[0.85,0.15,0.675,0.325]","","",""
"sailing-trial","64","665821","0.0-11.0-13.0","","","","false","","","","","","","","","","null","","1319.6999999955297","","0","0","null","null","arrowup","[0.85,0.15,0.675,0.325]","","",""
"sailing-trial","65","670310","0.0-11.0-14.0","","","","false","","","","","","","","","","932.8999999985099","","612.7000000029802","","2","1","arrowright","1","arrowleft","[0.85,0.15,0.675,0.325]","","",""
"sailing-trial","66","673492","0.0-11.0-15.0","","","","false","","","","","","","","","","null","","1055.5","","0","1","null","null","arrowup","[0.85,0.15,0.675,0.325]","","",""
"sailing-trial","67","678102","0.0-11.0-16.0","","","","false","","","","","","","","","","1104.2000000029802","","299","","3","1","arrowright","1","arrowright","[0.85,0.15,0.675,0.325]","","",""
"sailing-trial","68","681721","0.0-11.0-17.0","","","","false","","","","","","","","","","null","","1289.7999999970198","","3","0","null","null","arrowup","[0.85,0.15,0.675,0.325]","","",""
"sailing-trial","69","687268","0.0-11.0-18.0","","","","false","","","","","","","","","","1027","","507.30000000447035","","1","0","arrowleft","0","arrowright","[0.85,0.15,0.675,0.325]","","",""
"sailing-trial","70","691034","0.0-11.0-19.0","","","","false","","","","","","","","","","null","","1507.1999999955297","","1","0","null","null","arrowup","[0.85,0.15,0.675,0.325]","","",""
"sailing-trial","71","695565","0.0-11.0-20.0","","","","false","","","","","","","","","","804.3999999985099","","287.59999999403954","","0","1","arrowleft","0","arrowleft","[0.85,0.15,0.675,0.325]","","",""
"sailing-trial","72","698857","0.0-11.0-21.0","","","","false","","","","","","","","","","null","","991.6999999955297","","2","1","null","null","arrowup","[0.85,0.15,0.675,0.325]","","",""
"sailing-trial","73","704703","0.0-11.0-22.0","","","","false","","","","","","","","","","1870","","859.3999999985099","","3","0","arrowright","1","arrowright","[0.85,0.15,0.675,0.325]","","",""
"sailing-trial","74","708331","0.0-11.0-23.0","","","","false","","","","","","","","","","null","","1465","","3","1","null","null","arrowup","[0.85,0.15,0.675,0.325]","","",""
"sailing-trial","75","713361","0.0-11.0-24.0","","","","false","","","","","","","","","","1233.9000000059605","","500.6000000014901","","1","1","arrowleft","0","arrowright","[0.15,0.85,0.325,0.675]","","",""
"sailing-trial","76","716580","0.0-11.0-25.0","","","","false","","","","","","","","","","null","","1084.2000000029802","","3","1","null","null","arrowup","[0.15,0.85,0.325,0.675]","","",""
"sailing-trial","77","720964","0.0-11.0-26.0","","","","false","","","","","","","","","","992.6000000014901","","706.4000000059605","","0","0","arrowleft","0","arrowleft","[0.15,0.85,0.325,0.675]","","",""
"sailing-trial","78","724694","0.0-11.0-27.0","","","","false","","","","","","","","","","null","","1406","","0","0","null","null","arrowup","[0.15,0.85,0.325,0.675]","","",""
"sailing-trial","79","729013","0.0-11.0-28.0","","","","false","","","","","","","","","","861.8000000044703","","51.30000000447035","","3","0","arrowright","1","arrowright","[0.15,0.85,0.325,0.675]","","",""
"sailing-trial","80","733031","0.0-11.0-29.0","","","","false","","","","","","","","","","null","","1146.3000000044703","","2","0","null","null","arrowup","[0.15,0.85,0.325,0.675]","","",""
"sailing-trial","81","737094","0.0-11.0-30.0","","","","false","","","","","","","","","","706.6999999955297","","311.30000000447035","","2","0","arrowright","1","arrowleft","[0.15,0.85,0.325,0.675]","","",""
"sailing-trial","82","741128","0.0-11.0-31.0","","","","false","","","","","","","","","","null","","1028.1000000014901","","0","0","null","null","arrowup","[0.15,0.85,0.325,0.675]","","",""
"sailing-trial","83","745898","0.0-11.0-32.0","","","","false","","","","","","","","","","1218.3999999985099","","414","","1","1","arrowleft","0","arrowright","[0.15,0.85,0.325,0.675]","","",""
"sailing-trial","84","748819","0.0-11.0-33.0","","","","false","","","","","","","","","","null","","897.1000000014901","","0","1","null","null","arrowup","[0.15,0.85,0.325,0.675]","","",""
"sailing-trial","85","753939","0.0-11.0-34.0","","","","false","","","","","","","","","","741.7999999970198","","1571","","1","1","arrowleft","0","arrowright","[0.15,0.85,0.325,0.675]","","",""
"sailing-trial","86","757337","0.0-11.0-35.0","","","","false","","","","","","","","","","null","","1150.3000000044703","","3","1","null","null","arrowup","[0.15,0.85,0.325,0.675]","","",""
"sailing-trial","87","761335","0.0-11.0-36.0","","","","false","","","","","","","","","","598.3999999985099","","530","","2","1","arrowright","1","arrowleft","[0.15,0.85,0.325,0.675]","","",""
"sailing-trial","88","764502","0.0-11.0-37.0","","","","false","","","","","","","","","","null","","1094.5","","0","0","null","null","arrowup","[0.15,0.85,0.325,0.675]","","",""
"sailing-trial","89","770335","0.0-11.0-38.0","","","","false","","","","","","","","","","988.5","","2148.9000000059605","","0","0","arrowleft","0","arrowleft","[0.15,0.85,0.325,0.675]","","",""
"sailing-trial","90","773818","0.0-11.0-39.0","","","","false","","","","","","","","","","null","","1177.2000000029802","","3","1","null","null","arrowup","[0.15,0.85,0.325,0.675]","","",""
"sailing-trial","91","779438","0.0-11.0-40.0","","","","false","","","","","","","","","","1134.8999999985099","","1020.5","","3","0","arrowright","1","arrowright","[0.15,0.85,0.325,0.675]","","",""
"sailing-trial","92","782630","0.0-11.0-41.0","","","","false","","","","","","","","","","null","","1033.8999999985099","","2","0","null","null","arrowup","[0.15,0.85,0.325,0.675]","","",""
"sailing-trial","93","789123","0.0-11.0-42.0","","","","false","","","","","","","","","","1377.5","","1063.3999999985099","","0","0","arrowleft","0","arrowleft","[0.15,0.85,0.325,0.675]","","",""
"sailing-trial","94","792347","0.0-11.0-43.0","","","","false","","","","","","","","","","null","","976.6000000014901","","0","0","null","null","arrowup","[0.15,0.85,0.325,0.675]","","",""
"sailing-trial","95","798154","0.0-11.0-44.0","","","","false","","","","","","","","","","720.3999999985099","","1068.5","","3","0","arrowright","1","arrowright","[0.325,0.675,0.15,0.85]","","",""
"sailing-trial","96","801191","0.0-11.0-45.0","","","","false","","","","","","","","","","null","","1098.8999999985099","","1","0","null","null","arrowup","[0.325,0.675,0.15,0.85]","","",""
"sailing-trial","97","807496","0.0-11.0-46.0","","","","false","","","","","","","","","","862.5","","1408.2000000029802","","0","0","arrowleft","0","arrowleft","[0.325,0.675,0.15,0.85]","","",""
"sailing-trial","98","811195","0.0-11.0-47.0","","","","false","","","","","","","","","","null","","1159.2999999970198","","0","0","null","null","arrowup","[0.325,0.675,0.15,0.85]","","",""
"sailing-trial","99","815330","0.0-11.0-48.0","","","","false","","","","","","","","","","643.7000000029802","","515.5","","3","1","arrowright","1","arrowright","[0.325,0.675,0.15,0.85]","","",""
"sailing-trial","100","818572","0.0-11.0-49.0","","","","false","","","","","","","","","","null","","1097.2000000029802","","3","1","null","null","arrowup","[0.325,0.675,0.15,0.85]","","",""
"sailing-trial","101","822915","0.0-11.0-50.0","","","","false","","","","","","","","","","653.2999999970198","","55.600000001490116","","0","1","arrowleft","0","arrowleft","[0.325,0.675,0.15,0.85]","","",""
"sailing-trial","102","826580","0.0-11.0-51.0","","","","false","","","","","","","","","","null","","1355.5999999940395","","0","0","null","null","arrowup","[0.325,0.675,0.15,0.85]","","",""
"sailing-trial","103","831036","0.0-11.0-52.0","","","","false","","","","","","","","","","925.5","","285.1000000014901","","1","1","arrowleft","0","arrowright","[0.325,0.675,0.15,0.85]","","",""
"sailing-trial","104","834209","0.0-11.0-53.0","","","","false","","","","","","","","","","null","","1309.7999999970198","","2","1","null","null","arrowup","[0.325,0.675,0.15,0.85]","","",""
"sailing-trial","105","838167","0.0-11.0-54.0","","","","false","","","","","","","","","","502.5","","198.20000000298023","","3","1","arrowright","1","arrowright","[0.325,0.675,0.15,0.85]","","",""
"sailing-trial","106","841484","0.0-11.0-55.0","","","","false","","","","","","","","","","null","","1227","","0","0","null","null","arrowup","[0.325,0.675,0.15,0.85]","","",""
"sailing-trial","107","846250","0.0-11.0-56.0","","","","false","","","","","","","","","","697.8999999985099","","614.8000000044703","","2","0","arrowright","1","arrowleft","[0.325,0.675,0.15,0.85]","","",""
"sailing-trial","108","849763","0.0-11.0-57.0","","","","false","","","","","","","","","","null","","1310.4000000059605","","1","0","null","null","arrowup","[0.325,0.675,0.15,0.85]","","",""
"sailing-trial","109","853722","0.0-11.0-58.0","","","","false","","","","","","","","","","653.3999999985099","","319.70000000298023","","0","0","arrowleft","0","arrowleft","[0.325,0.675,0.15,0.85]","","",""
"sailing-trial","110","856972","0.0-11.0-59.0","","","","false","","","","","","","","","","null","","1086.8999999985099","","2","0","null","null","arrowup","[0.325,0.675,0.15,0.85]","","",""
"sailing-trial","111","863383","0.0-11.0-60.0","","","","false","","","","","","","","","","1698.8999999985099","","1496.8999999985099","","1","1","arrowleft","0","arrowright","[0.325,0.675,0.15,0.85]","","",""
"sailing-trial","112","866274","0.0-11.0-61.0","","","","false","","","","","","","","","","null","","1301.7999999970198","","1","0","null","null","arrowup","[0.325,0.675,0.15,0.85]","","",""
"sailing-trial","113","870359","0.0-11.0-62.0","","","","false","","","","","","","","","","775.5","","280","","2","1","arrowright","1","arrowleft","[0.675,0.325,0.85,0.15]","","",""
"sailing-trial","114","873906","0.0-11.0-63.0","","","","false","","","","","","","","","","null","","1150","","1","0","null","null","arrowup","[0.675,0.325,0.85,0.15]","","",""
"sailing-trial","115","878079","0.0-11.0-64.0","","","","false","","","","","","","","","","480.69999999552965","","275.6000000014901","","0","0","arrowleft","0","arrowleft","[0.675,0.325,0.85,0.15]","","",""
"sailing-trial","116","881006","0.0-11.0-65.0","","","","false","","","","","","","","","","null","","1080.4000000059605","","2","1","null","null","arrowup","[0.675,0.325,0.85,0.15]","","",""
"sailing-trial","117","885664","0.0-11.0-66.0","","","","false","","","","","","","","","","1014.2000000029802","","513","","3","0","arrowright","1","arrowright","[0.675,0.325,0.85,0.15]","","",""
"sailing-trial","118","888451","0.0-11.0-67.0","","","","false","","","","","","","","","","null","","621","","1","1","null","null","arrowup","[0.675,0.325,0.85,0.15]","","",""
"sailing-trial","119","892550","0.0-11.0-68.0","","","","false","","","","","","","","","","713.8999999985099","","485.5","","0","0","arrowleft","0","arrowleft","[0.675,0.325,0.85,0.15]","","",""
"sailing-trial","120","895317","0.0-11.0-69.0","","","","false","","","","","","","","","","null","","758.2000000029802","","3","1","null","null","arrowup","[0.675,0.325,0.85,0.15]","","",""
"sailing-trial","121","900725","0.0-11.0-70.0","","","","false","","","","","","","","","","1271.1000000014901","","1163.9000000059605","","2","1","arrowright","1","arrowleft","[0.675,0.325,0.85,0.15]","","",""
"sailing-trial","122","904013","0.0-11.0-71.0","","","","false","","","","","","","","","","null","","937.2000000029802","","0","1","null","null","arrowup","[0.675,0.325,0.85,0.15]","","",""
"sailing-trial","123","908656","0.0-11.0-72.0","","","","false","","","","","","","","","","623.0999999940395","","1237.0999999940395","","1","0","arrowleft","0","arrowright","[0.675,0.325,0.85,0.15]","","",""
"sailing-trial","124","911248","0.0-11.0-73.0","","","","false","","","","","","","","","","null","","1003.1000000014901","","1","0","null","null","arrowup","[0.675,0.325,0.85,0.15]","","",""
"sailing-trial","125","915610","0.0-11.0-74.0","","","","false","","","","","","","","","","639.5","","484.70000000298023","","2","1","arrowright","1","arrowleft","[0.675,0.325,0.85,0.15]","","",""
"sailing-trial","126","919921","0.0-11.0-75.0","","","","false","","","","","","","","","","null","","1305.1000000014901","","0","0","null","null","arrowup","[0.675,0.325,0.85,0.15]","","",""
"sailing-trial","127","925629","0.0-11.0-76.0","","","","false","","","","","","","","","","1200.5","","669.2999999970198","","3","0","arrowright","1","arrowright","[0.675,0.325,0.85,0.15]","","",""
"sailing-trial","128","929031","0.0-11.0-77.0","","","","false","","","","","","","","","","null","","1194.5","","2","1","null","null","arrowup","[0.675,0.325,0.85,0.15]","","",""
"sailing-trial","129","933984","0.0-11.0-78.0","","","","false","","","","","","","","","","543.7999999970198","","1295.2999999970198","","1","1","arrowleft","0","arrowright","[0.85,0.15,0.675,0.325]","","",""
"sailing-trial","130","937531","0.0-11.0-79.0","","","","false","","","","","","","","","","null","","1225.5999999940395","","1","0","null","null","arrowup","[0.85,0.15,0.675,0.325]","","",""
"sailing-trial","131","942796","0.0-11.0-80.0","","","","false","","","","","","","","","","1240","","953.6000000014901","","2","1","arrowright","1","arrowleft","[0.85,0.15,0.675,0.325]","","",""
"sailing-trial","132","946813","0.0-11.0-81.0","","","","false","","","","","","","","","","null","","993.5","","3","0","null","null","arrowup","[0.85,0.15,0.675,0.325]","","",""
"sailing-trial","133","951139","0.0-11.0-82.0","","","","false","","","","","","","","","","805","","491.79999999701977","","0","1","arrowleft","0","arrowleft","[0.85,0.15,0.675,0.325]","","",""
"sailing-trial","134","954190","0.0-11.0-83.0","","","","false","","","","","","","","","","null","","987.5","","1","0","null","null","arrowup","[0.85,0.15,0.675,0.325]","","",""
"sailing-trial","135","959523","0.0-11.0-84.0","","","","false","","","","","","","","","","727.5","","1194.2000000029802","","2","0","arrowright","1","arrowleft","[0.85,0.15,0.675,0.325]","","",""
"sailing-trial","136","962563","0.0-11.0-85.0","","","","false","","","","","","","","","","null","","866","","0","1","null","null","arrowup","[0.85,0.15,0.675,0.325]","","",""
"sailing-trial","137","968058","0.0-11.0-86.0","","","","false","","","","","","","","","","1368.4000000059605","","694","","1","0","arrowleft","0","arrowright","[0.85,0.15,0.675,0.325]","","",""
"sailing-trial","138","971447","0.0-11.0-87.0","","","","false","","","","","","","","","","null","","1353.1000000014901","","3","0","null","null","arrowup","[0.85,0.15,0.675,0.325]","","",""
"sailing-trial","139","975525","0.0-11.0-88.0","","","","false","","","","","","","","","","470.6000000014901","","353.69999999552965","","3","1","arrowright","1","arrowright","[0.85,0.15,0.675,0.325]","","",""
"sailing-trial","140","979163","0.0-11.0-89.0","","","","false","","","","","","","","","","null","","629.6000000014901","","1","0","null","null","arrowup","[0.85,0.15,0.675,0.325]","","",""
"sailing-trial","141","984693","0.0-11.0-90.0","","","","false","","","","","","","","","","1329.7000000029802","","884.8000000044703","","0","1","arrowleft","0","arrowleft","[0.85,0.15,0.675,0.325]","","",""
"sailing-trial","142","988097","0.0-11.0-91.0","","","","false","","","","","","","","","","null","","1192.7999999970198","","1","0","null","null","arrowup","[0.85,0.15,0.675,0.325]","","",""
"sailing-trial","143","992916","0.0-11.0-92.0","","","","false","","","","","","","","","","802.1000000014901","","148.69999999552965","","3","0","arrowright","1","arrowright","[0.85,0.15,0.675,0.325]","","",""
"sailing-trial","144","996047","0.0-11.0-93.0","","","","false","","","","","","","","","","null","","1118.1000000014901","","3","0","null","null","arrowup","[0.85,0.15,0.675,0.325]","","",""
"sailing-trial","145","1000307","0.0-11.0-94.0","","","","false","","","","","","","","","","576.3999999985099","","444","","0","0","arrowleft","0","arrowleft","[0.675,0.325,0.85,0.15]","","",""
"sailing-trial","146","1004935","0.0-11.0-95.0","","","","false","","","","","","","","","","null","","1618.0999999940395","","2","0","null","null","arrowup","[0.675,0.325,0.85,0.15]","","",""
"sailing-trial","147","1008989","0.0-11.0-96.0","","","","false","","","","","","","","","","586.3000000044703","","157.90000000596046","","3","0","arrowright","1","arrowright","[0.675,0.325,0.85,0.15]","","",""
"sailing-trial","148","1013863","0.0-11.0-97.0","","","","false","","","","","","","","","","null","","2421.10000000149","","2","1","null","null","arrowup","[0.675,0.325,0.85,0.15]","","",""
"sailing-trial","149","1018017","0.0-11.0-98.0","","","","false","","","","","","","","","","589","","465.8999999985099","","1","1","arrowleft","0","arrowright","[0.675,0.325,0.85,0.15]","","",""
"sailing-trial","150","1021096","0.0-11.0-99.0","","","","false","","","","","","","","","","null","","928.5999999940395","","2","1","null","null","arrowup","[0.675,0.325,0.85,0.15]","","",""
"sailing-trial","151","1025629","0.0-11.0-100.0","","","","false","","","","","","","","","","1003.2000000029802","","430.79999999701977","","2","1","arrowright","1","arrowleft","[0.675,0.325,0.85,0.15]","","",""
"sailing-trial","152","1028772","0.0-11.0-101.0","","","","false","","","","","","","","","","null","","933.3999999985099","","2","1","null","null","arrowup","[0.675,0.325,0.85,0.15]","","",""
"sailing-trial","153","1032724","0.0-11.0-102.0","","","","false","","","","","","","","","","573","","151.39999999850988","","0","1","arrowleft","0","arrowleft","[0.675,0.325,0.85,0.15]","","",""
"sailing-trial","154","1035919","0.0-11.0-103.0","","","","false","","","","","","","","","","null","","1085.5","","2","1","null","null","arrowup","[0.675,0.325,0.85,0.15]","","",""
"sailing-trial","155","1040461","0.0-11.0-104.0","","","","false","","","","","","","","","","630.3999999985099","","698.5","","3","0","arrowright","1","arrowright","[0.675,0.325,0.85,0.15]","","",""
"sailing-trial","156","1043672","0.0-11.0-105.0","","","","false","","","","","","","","","","null","","1069.5","","1","1","null","null","arrowup","[0.675,0.325,0.85,0.15]","","",""
"sailing-trial","157","1048644","0.0-11.0-106.0","","","","false","","","","","","","","","","1230.7999999970198","","528","","1","0","arrowleft","0","arrowright","[0.675,0.325,0.85,0.15]","","",""
"sailing-trial","158","1051556","0.0-11.0-107.0","","","","false","","","","","","","","","","null","","951.3999999985099","","3","0","null","null","arrowup","[0.675,0.325,0.85,0.15]","","",""
"sailing-trial","159","1055985","0.0-11.0-108.0","","","","false","","","","","","","","","","609.1999999955297","","475.5","","0","1","arrowleft","0","arrowleft","[0.675,0.325,0.85,0.15]","","",""
"sailing-trial","160","1058864","0.0-11.0-109.0","","","","false","","","","","","","","","","null","","884.1999999955297","","3","0","null","null","arrowup","[0.675,0.325,0.85,0.15]","","",""
"sailing-trial","161","1064140","0.0-11.0-110.0","","","","false","","","","","","","","","","705.1000000014901","","1493","","2","0","arrowright","1","arrowleft","[0.85,0.15,0.675,0.325]","","",""
"sailing-trial","162","1067198","0.0-11.0-111.0","","","","false","","","","","","","","","","null","","1049.1999999955297","","1","0","null","null","arrowup","[0.85,0.15,0.675,0.325]","","",""
"sailing-trial","163","1071125","0.0-11.0-112.0","","","","false","","","","","","","","","","707.1000000014901","","209.89999999850988","","0","1","arrowleft","0","arrowleft","[0.85,0.15,0.675,0.325]","","",""
"sailing-trial","164","1073903","0.0-11.0-113.0","","","","false","","","","","","","","","","null","","865.0999999940395","","0","0","null","null","arrowup","[0.85,0.15,0.675,0.325]","","",""
"sailing-trial","165","1079071","0.0-11.0-114.0","","","","false","","","","","","","","","","818.5","","876.5","","3","0","arrowright","1","arrowright","[0.85,0.15,0.675,0.325]","","",""
"sailing-trial","166","1083903","0.0-11.0-115.0","","","","false","","","","","","","","","","null","","2601.10000000149","","1","0","null","null","arrowup","[0.85,0.15,0.675,0.325]","","",""
"sailing-trial","167","1088560","0.0-11.0-116.0","","","","false","","","","","","","","","","718.0999999940395","","726.5","","0","1","arrowleft","0","arrowleft","[0.85,0.15,0.675,0.325]","","",""
"sailing-trial","168","1091178","0.0-11.0-117.0","","","","false","","","","","","","","","","null","","767.8999999985099","","3","0","null","null","arrowup","[0.85,0.15,0.675,0.325]","","",""
"sailing-trial","169","1095829","0.0-11.0-118.0","","","","false","","","","","","","","","","1018.5","","500.6000000014901","","1","0","arrowleft","0","arrowright","[0.85,0.15,0.675,0.325]","","",""
"sailing-trial","170","1098820","0.0-11.0-119.0","","","","false","","","","","","","","","","null","","1111.3000000044703","","3","0","null","null","arrowup","[0.85,0.15,0.675,0.325]","","",""
"sailing-trial","171","1103419","0.0-11.0-120.0","","","","false","","","","","","","","","","744.3000000044703","","854.9000000059605","","3","0","arrowright","1","arrowright","[0.85,0.15,0.675,0.325]","","",""
"sailing-trial","172","1108406","0.0-11.0-121.0","","","","false","","","","","","","","","","null","","2766.8000000044703","","0","1","null","null","arrowup","[0.85,0.15,0.675,0.325]","","",""
"sailing-trial","173","1112436","0.0-11.0-122.0","","","","false","","","","","","","","","","890.8999999985099","","55.19999999552965","","3","0","arrowright","1","arrowright","[0.85,0.15,0.675,0.325]","","",""
"sailing-trial","174","1115384","0.0-11.0-123.0","","","","false","","","","","","","","","","null","","891","","2","0","null","null","arrowup","[0.85,0.15,0.675,0.325]","","",""
"sailing-trial","175","1119289","0.0-11.0-124.0","","","","false","","","","","","","","","","514.5","","220.39999999850988","","0","1","arrowleft","0","arrowleft","[0.85,0.15,0.675,0.325]","","",""
"sailing-trial","176","1122573","0.0-11.0-125.0","","","","false","","","","","","","","","","null","","1103.8000000044703","","0","1","null","null","arrowup","[0.85,0.15,0.675,0.325]","","",""
"sailing-trial","177","1129819","0.0-11.0-126.0","","","","false","","","","","","","","","","2076.1999999955297","","1947.7000000029802","","3","1","arrowright","1","arrowright","[0.85,0.15,0.675,0.325]","","",""
"sailing-trial","178","1133349","0.0-11.0-127.0","","","","false","","","","","","","","","","null","","1776.3999999985099","","3","0","null","null","arrowup","[0.85,0.15,0.675,0.325]","","",""
"sailing-trial","179","1137483","0.0-11.0-128.0","","","","false","","","","","","","","","","660.7999999970198","","389.5","","0","1","arrowleft","0","arrowleft","[0.675,0.325,0.85,0.15]","","",""
"sailing-trial","180","1140892","0.0-11.0-129.0","","","","false","","","","","","","","","","null","","1182.3999999985099","","2","1","null","null","arrowup","[0.675,0.325,0.85,0.15]","","",""
"sailing-trial","181","1144795","0.0-11.0-130.0","","","","false","","","","","","","","","","751.5","","278.40000000596046","","3","0","arrowright","1","arrowright","[0.675,0.325,0.85,0.15]","","",""
"sailing-trial","182","1147777","0.0-11.0-131.0","","","","false","","","","","","","","","","null","","823.8000000044703","","2","1","null","null","arrowup","[0.675,0.325,0.85,0.15]","","",""
"sailing-trial","183","1155300","0.0-11.0-132.0","","","","false","","","","","","","","","","2704","","1380.2999999970198","","0","1","arrowleft","0","arrowleft","[0.675,0.325,0.85,0.15]","","",""
"sailing-trial","184","1158340","0.0-11.0-133.0","","","","false","","","","","","","","","","null","","1211.1999999955297","","1","0","null","null","arrowup","[0.675,0.325,0.85,0.15]","","",""
"sailing-trial","185","1162486","0.0-11.0-134.0","","","","false","","","","","","","","","","1082.7999999970198","","31.399999998509884","","2","1","arrowright","1","arrowleft","[0.675,0.325,0.85,0.15]","","",""
"sailing-trial","186","1165440","0.0-11.0-135.0","","","","false","","","","","","","","","","null","","959.5999999940395","","1","0","null","null","arrowup","[0.675,0.325,0.85,0.15]","","",""
"sailing-trial","187","1170195","0.0-11.0-136.0","","","","false","","","","","","","","","","2034.2000000029802","","93.60000000149012","","3","0","arrowright","1","arrowright","[0.675,0.325,0.85,0.15]","","",""
"sailing-trial","188","1172645","0.0-11.0-137.0","","","","false","","","","","","","","","","null","","751.6999999955297","","1","0","null","null","arrowup","[0.675,0.325,0.85,0.15]","","",""
"sailing-trial","189","1176801","0.0-11.0-138.0","","","","false","","","","","","","","","","631.7999999970198","","347","","0","1","arrowleft","0","arrowleft","[0.675,0.325,0.85,0.15]","","",""
"sailing-trial","190","1179758","0.0-11.0-139.0","","","","false","","","","","","","","","","null","","778.7999999970198","","2","1","null","null","arrowup","[0.675,0.325,0.85,0.15]","","",""
"sailing-trial","191","1184643","0.0-11.0-140.0","","","","false","","","","","","","","","","1123.7000000029802","","834.7999999970198","","2","1","arrowright","1","arrowleft","[0.675,0.325,0.85,0.15]","","",""
"sailing-trial","192","1187368","0.0-11.0-141.0","","","","false","","","","","","","","","","null","","554.6999999955297","","2","1","null","null","arrowup","[0.675,0.325,0.85,0.15]","","",""
"sailing-trial","193","1191382","0.0-11.0-142.0","","","","false","","","","","","","","","","718.1000000014901","","281.09999999403954","","1","0","arrowleft","0","arrowright","[0.675,0.325,0.85,0.15]","","",""
"sailing-trial","194","1194987","0.0-11.0-143.0","","","","false","","","","","","","","","","null","","1243.4000000059605","","0","1","null","null","arrowup","[0.675,0.325,0.85,0.15]","","",""
"sailing-trial","195","1199340","0.0-11.0-144.0","","","","false","","","","","","","","","","812.5","","376","","3","0","arrowright","1","arrowright","[0.675,0.325,0.85,0.15]","","",""
"sailing-trial","196","1202520","0.0-11.0-145.0","","","","false","","","","","","","","","","null","","1054.8999999985099","","2","1","null","null","arrowup","[0.675,0.325,0.85,0.15]","","",""
"sailing-trial","197","1206663","0.0-11.0-146.0","","","","false","","","","","","","","","","593","","491.79999999701977","","0","1","arrowleft","0","arrowleft","[0.675,0.325,0.85,0.15]","","",""
"sailing-trial","198","1209564","0.0-11.0-147.0","","","","false","","","","","","","","","","null","","802.6000000014901","","2","1","null","null","arrowup","[0.675,0.325,0.85,0.15]","","",""
"sailing-trial","199","1214318","0.0-11.0-148.0","","","","false","","","","","","","","","","639.7000000029802","","967.0999999940395","","3","1","arrowright","1","arrowright","[0.15,0.85,0.325,0.675]","","",""
"sailing-trial","200","1218199","0.0-11.0-149.0","","","","false","","","","","","","","","","null","","1828.6000000014901","","1","1","null","null","arrowup","[0.15,0.85,0.325,0.675]","","",""
"sailing-trial","201","1222672","0.0-11.0-150.0","","","","false","","","","","","","","","","898.1000000014901","","387.20000000298023","","1","1","arrowleft","0","arrowright","[0.15,0.85,0.325,0.675]","","",""
"sailing-trial","202","1225233","0.0-11.0-151.0","","","","false","","","","","","","","","","null","","668.3999999985099","","3","0","null","null","arrowup","[0.15,0.85,0.325,0.675]","","",""
"sailing-trial","203","1230139","0.0-11.0-152.0","","","","false","","","","","","","","","","951.1999999955297","","907.1999999955297","","0","1","arrowleft","0","arrowleft","[0.15,0.85,0.325,0.675]","","",""
"sailing-trial","204","1233961","0.0-11.0-153.0","","","","false","","","","","","","","","","null","","2040.2000000029802","","0","0","null","null","arrowup","[0.15,0.85,0.325,0.675]","","",""
"sailing-trial","205","1238706","0.0-11.0-154.0","","","","false","","","","","","","","","","1306.1000000014901","","19","","3","1","arrowright","1","arrowright","[0.15,0.85,0.325,0.675]","","",""
"sailing-trial","206","1241789","0.0-11.0-155.0","","","","false","","","","","","","","","","null","","1438.0999999940395","","0","0","null","null","arrowup","[0.15,0.85,0.325,0.675]","","",""
"sailing-trial","207","1245833","0.0-11.0-156.0","","","","false","","","","","","","","","","1113","","225.29999999701977","","2","0","arrowright","1","arrowleft","[0.15,0.85,0.325,0.675]","","",""
"sailing-trial","208","1248308","0.0-11.0-157.0","","","","false","","","","","","","","","","null","","828.1000000014901","","2","0","null","null","arrowup","[0.15,0.85,0.325,0.675]","","",""
"sailing-trial","209","1252357","0.0-11.0-158.0","","","","false","","","","","","","","","","478.5","","1262.8999999985099","","0","0","arrowleft","0","arrowleft","[0.15,0.85,0.325,0.675]","","",""
"sailing-trial","210","1255736","0.0-11.0-159.0","","","","false","","","","","","","","","","null","","1789.5","","0","0","null","null","arrowup","[0.15,0.85,0.325,0.675]","","",""
"sailing-trial","211","1259802","0.0-11.0-160.0","","","","false","","","","","","","","","","637","","258.79999999701977","","3","1","arrowright","1","arrowright","[0.15,0.85,0.325,0.675]","","",""
"sailing-trial","212","1263195","0.0-11.0-161.0","","","","false","","","","","","","","","","null","","1608.7999999970198","","2","0","null","null","arrowup","[0.15,0.85,0.325,0.675]","","",""
"sailing-trial","213","1268467","0.0-11.0-162.0","","","","false","","","","","","","","","","1162.2000000029802","","755","","1","1","arrowleft","0","arrowright","[0.15,0.85,0.325,0.675]","","",""
"sailing-trial","214","1271504","0.0-11.0-163.0","","","","false","","","","","","","","","","null","","1254.5","","3","0","null","null","arrowup","[0.15,0.85,0.325,0.675]","","",""
"sailing-trial","215","1276182","0.0-11.0-164.0","","","","false","","","","","","","","","","1010.5","","631.8999999985099","","1","1","arrowleft","0","arrowright","[0.15,0.85,0.325,0.675]","","",""
"sailing-trial","216","1280726","0.0-11.0-165.0","","","","false","","","","","","","","","","null","","2669.8000000044703","","0","0","null","null","arrowup","[0.15,0.85,0.325,0.675]","","",""
"sailing-trial","217","1286945","0.0-11.0-166.0","","","","false","","","","","","","","","","2229.6999999955297","","880.9000000059605","","2","1","arrowright","1","arrowleft","[0.15,0.85,0.325,0.675]","","",""
"sailing-trial","218","1289876","0.0-11.0-167.0","","","","false","","","","","","","","","","null","","625.7000000029802","","2","1","null","null","arrowup","[0.15,0.85,0.325,0.675]","","",""
"sailing-trial","219","1297109","0.0-11.0-168.0","","","","false","","","","","","","","","","3511.10000000149","","493.90000000596046","","1","1","arrowleft","0","arrowright","[0.15,0.85,0.325,0.675]","","",""
"sailing-trial","220","1301156","0.0-11.0-169.0","","","","false","","","","","","","","","","null","","2250.7999999970198","","0","0","null","null","arrowup","[0.15,0.85,0.325,0.675]","","",""
"sailing-trial","221","1305894","0.0-11.0-170.0","","","","false","","","","","","","","","","905.7999999970198","","317.8999999985099","","3","1","arrowright","1","arrowright","[0.325,0.675,0.15,0.85]","","",""
"sailing-trial","222","1309606","0.0-11.0-171.0","","","","false","","","","","","","","","","null","","1579.7000000029802","","3","1","null","null","arrowup","[0.325,0.675,0.15,0.85]","","",""
"sailing-trial","223","1313828","0.0-11.0-172.0","","","","false","","","","","","","","","","873.1000000014901","","73.80000000447035","","0","1","arrowleft","0","arrowleft","[0.325,0.675,0.15,0.85]","","",""
"sailing-trial","224","1317483","0.0-11.0-173.0","","","","false","","","","","","","","","","null","","1106.2000000029802","","0","1","null","null","arrowup","[0.325,0.675,0.15,0.85]","","",""
"sailing-trial","225","1321874","0.0-11.0-174.0","","","","false","","","","","","","","","","1261.2000000029802","","602.7999999970198","","2","0","arrowright","1","arrowleft","[0.325,0.675,0.15,0.85]","","",""
"sailing-trial","226","1324844","0.0-11.0-175.0","","","","false","","","","","","","","","","null","","1269.7000000029802","","0","0","null","null","arrowup","[0.325,0.675,0.15,0.85]","","",""
"sailing-trial","227","1330357","0.0-11.0-176.0","","","","false","","","","","","","","","","1090","","388.30000000447035","","1","0","arrowleft","0","arrowright","[0.325,0.675,0.15,0.85]","","",""
"sailing-trial","228","1333400","0.0-11.0-177.0","","","","false","","","","","","","","","","null","","1291.7000000029802","","2","0","null","null","arrowup","[0.325,0.675,0.15,0.85]","","",""
"sailing-trial","229","1336643","0.0-11.0-178.0","","","","false","","","","","","","","","","574.1999999955297","","642.6999999955297","","0","0","arrowleft","0","arrowleft","[0.325,0.675,0.15,0.85]","","",""
"sailing-trial","230","1340431","0.0-11.0-179.0","","","","false","","","","","","","","","","null","","1781.1000000014901","","3","1","null","null","arrowup","[0.325,0.675,0.15,0.85]","","",""
"sailing-trial","231","1344686","0.0-11.0-180.0","","","","false","","","","","","","","","","1116.2000000029802","","72.39999999850988","","2","0","arrowright","1","arrowleft","[0.325,0.675,0.15,0.85]","","",""
"sailing-trial","232","1348561","0.0-11.0-181.0","","","","false","","","","","","","","","","null","","1280","","3","1","null","null","arrowup","[0.325,0.675,0.15,0.85]","","",""
"sailing-trial","233","1353651","0.0-11.0-182.0","","","","false","","","","","","","","","","1086.5","","1033.7000000029802","","0","0","arrowleft","0","arrowleft","[0.325,0.675,0.15,0.85]","","",""
"sailing-trial","234","1357184","0.0-11.0-183.0","","","","false","","","","","","","","","","null","","1744.2000000029802","","0","0","null","null","arrowup","[0.325,0.675,0.15,0.85]","","",""
"sailing-trial","235","1362525","0.0-11.0-184.0","","","","false","","","","","","","","","","992.9000000059605","","1746.7999999970198","","2","0","arrowright","1","arrowleft","[0.325,0.675,0.15,0.85]","","",""
"sailing-trial","236","1366779","0.0-11.0-185.0","","","","false","","","","","","","","","","null","","1258.8000000044703","","0","1","null","null","arrowup","[0.325,0.675,0.15,0.85]","","",""
"sailing-trial","237","1371661","0.0-11.0-186.0","","","","false","","","","","","","","","","1415.5","","437.6000000014901","","3","1","arrowright","1","arrowright","[0.85,0.15,0.675,0.325]","","",""
"sailing-trial","238","1378154","0.0-11.0-187.0","","","","false","","","","","","","","","","null","","4264.89999999851","","3","1","null","null","arrowup","[0.85,0.15,0.675,0.325]","","",""
"sailing-trial","239","1384213","0.0-11.0-188.0","","","","false","","","","","","","","","","1555.1000000014901","","1147.7000000029802","","1","0","arrowleft","0","arrowright","[0.85,0.15,0.675,0.325]","","",""
"sailing-trial","240","1387487","0.0-11.0-189.0","","","","false","","","","","","","","","","null","","1034.1000000014901","","1","0","null","null","arrowup","[0.85,0.15,0.675,0.325]","","",""
"sailing-trial","241","1392270","0.0-11.0-190.0","","","","false","","","","","","","","","","789.1000000014901","","1140.4000000059605","","0","1","arrowleft","0","arrowleft","[0.85,0.15,0.675,0.325]","","",""
"sailing-trial","242","1396404","0.0-11.0-191.0","","","","false","","","","","","","","","","null","","1132.1000000014901","","1","1","null","null","arrowup","[0.85,0.15,0.675,0.325]","","",""
"sailing-trial","243","1401191","0.0-11.0-192.0","","","","false","","","","","","","","","","1004.3000000044703","","580.1000000014901","","2","0","arrowright","1","arrowleft","[0.85,0.15,0.675,0.325]","","",""
"sailing-trial","244","1404376","0.0-11.0-193.0","","","","false","","","","","","","","","","null","","1216","","1","0","null","null","arrowup","[0.85,0.15,0.675,0.325]","","",""
"sailing-trial","245","1409335","0.0-11.0-194.0","","","","false","","","","","","","","","","869.6000000014901","","707.5","","1","0","arrowleft","0","arrowright","[0.85,0.15,0.675,0.325]","","",""
"sailing-trial","246","1412507","0.0-11.0-195.0","","","","false","","","","","","","","","","null","","1038.3000000044703","","2","1","null","null","arrowup","[0.85,0.15,0.675,0.325]","","",""
"sailing-trial","247","1416266","0.0-11.0-196.0","","","","false","","","","","","","","","","371.79999999701977","","690.3000000044703","","0","0","arrowleft","0","arrowleft","[0.85,0.15,0.675,0.325]","","",""
"sailing-trial","248","1419340","0.0-11.0-197.0","","","","false","","","","","","","","","","null","","909.8999999985099","","2","1","null","null","arrowup","[0.85,0.15,0.675,0.325]","","",""
"sailing-trial","249","1423320","0.0-11.0-198.0","","","","false","","","","","","","","","","717.7999999970198","","381.8999999985099","","2","1","arrowright","1","arrowleft","[0.85,0.15,0.675,0.325]","","",""
"sailing-trial","250","1425708","0.0-11.0-199.0","","","","false","","","","","","","","","","null","","831.6999999955297","","2","0","null","null","arrowup","[0.85,0.15,0.675,0.325]","","",""
"sailing-trial","251","1430200","0.0-11.0-200.0","","","","false","","","","","","","","","","613.1000000014901","","1292.1999999955297","","1","0","arrowleft","0","arrowright","[0.85,0.15,0.675,0.325]","","",""
"sailing-trial","252","1434084","0.0-11.0-201.0","","","","false","","","","","","","","","","null","","2068.0999999940395","","0","0","null","null","arrowup","[0.85,0.15,0.675,0.325]","","",""
"sailing-trial","253","1441123","0.0-11.0-202.0","","","","false","","","","","","","","","","1493.7000000029802","","2326.7000000029802","","0","1","arrowleft","0","arrowleft","[0.85,0.15,0.675,0.325]","","",""
"sailing-trial","254","1444686","0.0-11.0-203.0","","","","false","","","","","","","","","","null","","1418.8999999985099","","0","1","null","null","arrowup","[0.85,0.15,0.675,0.325]","","",""
"sailing-trial","255","1448635","0.0-11.0-204.0","","","","false","","","","","","","","","","581.2000000029802","","84.39999999850988","","3","0","arrowright","1","arrowright","[0.85,0.15,0.675,0.325]","","",""
"sailing-trial","256","1451740","0.0-11.0-205.0","","","","false","","","","","","","","","","null","","878.2999999970198","","2","1","null","null","arrowup","[0.85,0.15,0.675,0.325]","","",""
"sailing-trial","257","1457446","0.0-11.0-206.0","","","","false","","","","","","","","","","586.8999999985099","","2543.4000000059605","","0","0","arrowleft","0","arrowleft","[0.675,0.325,0.85,0.15]","","",""
"sailing-trial","258","1460137","0.0-11.0-207.0","","","","false","","","","","","","","","","null","","1134.7999999970198","","3","0","null","null","arrowup","[0.675,0.325,0.85,0.15]","","",""
"sailing-trial","259","1466215","0.0-11.0-208.0","","","","false","","","","","","","","","","968.3000000044703","","1906.6999999955297","","0","1","arrowleft","0","arrowleft","[0.675,0.325,0.85,0.15]","","",""
"sailing-trial","260","1470253","0.0-11.0-209.0","","","","false","","","","","","","","","","null","","1087.1000000014901","","3","0","null","null","arrowup","[0.675,0.325,0.85,0.15]","","",""
"sailing-trial","261","1475002","0.0-11.0-210.0","","","","false","","","","","","","","","","1223.1999999955297","","42.70000000298023","","1","1","arrowleft","0","arrowright","[0.675,0.325,0.85,0.15]","","",""
"sailing-trial","262","1478669","0.0-11.0-211.0","","","","false","","","","","","","","","","null","","1619.7000000029802","","3","1","null","null","arrowup","[0.675,0.325,0.85,0.15]","","",""
"sailing-trial","263","1482983","0.0-11.0-212.0","","","","false","","","","","","","","","","558.6000000014901","","460.1000000014901","","0","1","arrowleft","0","arrowleft","[0.675,0.325,0.85,0.15]","","",""
"sailing-trial","264","1486173","0.0-11.0-213.0","","","","false","","","","","","","","","","null","","1150.6000000014901","","0","1","null","null","arrowup","[0.675,0.325,0.85,0.15]","","",""
"sailing-trial","265","1490488","0.0-11.0-214.0","","","","false","","","","","","","","","","1144.5","","186.89999999850988","","3","0","arrowright","1","arrowright","[0.675,0.325,0.85,0.15]","","",""
"sailing-trial","266","1493490","0.0-11.0-215.0","","","","false","","","","","","","","","","null","","1042.6000000014901","","2","1","null","null","arrowup","[0.675,0.325,0.85,0.15]","","",""
"sailing-trial","267","1496909","0.0-11.0-216.0","","","","false","","","","","","","","","","516.1000000014901","","149.29999999701977","","3","0","arrowright","1","arrowright","[0.675,0.325,0.85,0.15]","","",""
"sailing-trial","268","1499743","0.0-11.0-217.0","","","","false","","","","","","","","","","null","","736","","2","1","null","null","arrowup","[0.675,0.325,0.85,0.15]","","",""
"sailing-trial","269","1504050","0.0-11.0-218.0","","","","false","","","","","","","","","","358.90000000596046","","1057.6999999955297","","0","1","arrowleft","0","arrowleft","[0.675,0.325,0.85,0.15]","","",""
"sailing-trial","270","1507216","0.0-11.0-219.0","","","","false","","","","","","","","","","null","","1064.5999999940395","","0","1","null","null","arrowup","[0.675,0.325,0.85,0.15]","","",""
"sailing-trial","271","1512382","0.0-11.0-220.0","","","","false","","","","","","","","","","1578.2000000029802","","743.1000000014901","","0","0","arrowleft","0","arrowleft","[0.675,0.325,0.85,0.15]","","",""
"sailing-trial","272","1515215","0.0-11.0-221.0","","","","false","","","","","","","","","","null","","840","","3","0","null","null","arrowup","[0.675,0.325,0.85,0.15]","","",""
"sailing-trial","273","1518954","0.0-11.0-222.0","","","","false","","","","","","","","","","915.6999999955297","","781.6000000014901","","1","0","arrowleft","0","arrowright","[0.675,0.325,0.85,0.15]","","",""
"sailing-trial","274","1521429","0.0-11.0-223.0","","","","false","","","","","","","","","","null","","901","","0","0","null","null","arrowup","[0.675,0.325,0.85,0.15]","","",""
"sailing-trial","275","1524726","0.0-11.0-224.0","","","","false","","","","","","","","","","523","","423.5","","3","0","arrowright","1","arrowright","[0.85,0.15,0.675,0.325]","","",""
"sailing-trial","276","1527116","0.0-11.0-225.0","","","","false","","","","","","","","","","null","","777.6000000014901","","1","0","null","null","arrowup","[0.85,0.15,0.675,0.325]","","",""
"sailing-trial","277","1530985","0.0-11.0-226.0","","","","false","","","","","","","","","","554.5","","353","","0","1","arrowleft","0","arrowleft","[0.85,0.15,0.675,0.325]","","",""
"sailing-trial","278","1534090","0.0-11.0-227.0","","","","false","","","","","","","","","","null","","1253.7000000029802","","0","1","null","null","arrowup","[0.85,0.15,0.675,0.325]","","",""
"sailing-trial","279","1537919","0.0-11.0-228.0","","","","false","","","","","","","","","","614","","117","","3","1","arrowright","1","arrowright","[0.85,0.15,0.675,0.325]","","",""
"sailing-trial","280","1540954","0.0-11.0-229.0","","","","false","","","","","","","","","","null","","1115.9000000059605","","3","0","null","null","arrowup","[0.85,0.15,0.675,0.325]","","",""
"sailing-trial","281","1544490","0.0-11.0-230.0","","","","false","","","","","","","","","","642.0999999940395","","82.90000000596046","","0","1","arrowleft","0","arrowleft","[0.85,0.15,0.675,0.325]","","",""
"sailing-trial","282","1547057","0.0-11.0-231.0","","","","false","","","","","","","","","","null","","474.80000000447035","","2","1","null","null","arrowup","[0.85,0.15,0.675,0.325]","","",""
"sailing-trial","283","1552007","0.0-11.0-232.0","","","","false","","","","","","","","","","1289.7000000029802","","724.1999999955297","","2","1","arrowright","1","arrowleft","[0.85,0.15,0.675,0.325]","","",""
"sailing-trial","284","1555174","0.0-11.0-233.0","","","","false","","","","","","","","","","null","","1069.7000000029802","","2","1","null","null","arrowup","[0.85,0.15,0.675,0.325]","","",""
"sailing-trial","285","1559342","0.0-11.0-234.0","","","","false","","","","","","","","","","702.3999999985099","","478.8999999985099","","1","0","arrowleft","0","arrowright","[0.85,0.15,0.675,0.325]","","",""
"sailing-trial","286","1562396","0.0-11.0-235.0","","","","false","","","","","","","","","","null","","1294.3000000044703","","2","0","null","null","arrowup","[0.85,0.15,0.675,0.325]","","",""
"sailing-trial","287","1568042","0.0-11.0-236.0","","","","false","","","","","","","","","","566","","2180.3000000044703","","0","1","arrowleft","0","arrowleft","[0.85,0.15,0.675,0.325]","","",""
"sailing-trial","288","1571494","0.0-11.0-237.0","","","","false","","","","","","","","","","null","","1882.2999999970198","","2","0","null","null","arrowup","[0.85,0.15,0.675,0.325]","","",""
"sailing-trial","289","1576567","0.0-11.0-238.0","","","","false","","","","","","","","","","705.7999999970198","","1322.3000000044703","","2","1","arrowright","1","arrowleft","[0.85,0.15,0.675,0.325]","","",""
"sailing-trial","290","1579099","0.0-11.0-239.0","","","","false","","","","","","","","","","null","","875","","1","0","null","null","arrowup","[0.85,0.15,0.675,0.325]","","",""
"sailing-trial","291","1582706","0.0-11.0-240.0","","","","false","","","","","","","","","","640.1000000014901","","105.20000000298023","","1","1","arrowleft","0","arrowright","[0.85,0.15,0.675,0.325]","","",""
"sailing-trial","292","1586884","0.0-11.0-241.0","","","","false","","","","","","","","","","null","","2322.89999999851","","3","0","null","null","arrowup","[0.85,0.15,0.675,0.325]","","",""
"sailing-trial","293","1591680","0.0-11.0-242.0","","","","false","","","","","","","","","","537.8999999985099","","1292.8999999985099","","1","0","arrowleft","0","arrowright","[0.85,0.15,0.675,0.325]","","",""
"sailing-trial","294","1595631","0.0-11.0-243.0","","","","false","","","","","","","","","","null","","945.8999999985099","","1","0","null","null","arrowup","[0.85,0.15,0.675,0.325]","","",""
"sailing-trial","295","1600097","0.0-11.0-244.0","","","","false","","","","","","","","","","640.6000000014901","","627.1000000014901","","3","0","arrowright","1","arrowright","[0.85,0.15,0.675,0.325]","","",""
"sailing-trial","296","1602883","0.0-11.0-245.0","","","","false","","","","","","","","","","null","","539.8000000044703","","3","1","null","null","arrowup","[0.85,0.15,0.675,0.325]","","",""
"sailing-trial","297","1608193","0.0-11.0-246.0","","","","false","","","","","","","","","","850.5","","436.20000000298023","","1","0","arrowleft","0","arrowright","[0.675,0.325,0.85,0.15]","","",""
"sailing-trial","298","1611372","0.0-11.0-247.0","","","","false","","","","","","","","","","null","","1411.4000000059605","","1","0","null","null","arrowup","[0.675,0.325,0.85,0.15]","","",""
"sailing-trial","299","1616326","0.0-11.0-248.0","","","","false","","","","","","","","","","1758.7999999970198","","407.20000000298023","","0","0","arrowleft","0","arrowleft","[0.675,0.325,0.85,0.15]","","",""
"sailing-trial","300","1618670","0.0-11.0-249.0","","","","false","","","","","","","","","","null","","813.2999999970198","","1","0","null","null","arrowup","[0.675,0.325,0.85,0.15]","","",""
"sailing-trial","301","1622168","0.0-11.0-250.0","","","","false","","","","","","","","","","421.1000000014901","","786.3999999985099","","1","0","arrowleft","0","arrowright","[0.675,0.325,0.85,0.15]","","",""
"sailing-trial","302","1624411","0.0-11.0-251.0","","","","false","","","","","","","","","","null","","907","","3","0","null","null","arrowup","[0.675,0.325,0.85,0.15]","","",""
"sailing-trial","303","1629635","0.0-11.0-252.0","","","","false","","","","","","","","","","476.29999999701977","","712.6000000014901","","1","0","arrowleft","0","arrowright","[0.675,0.325,0.85,0.15]","","",""
"sailing-trial","304","1632606","0.0-11.0-253.0","","","","false","","","","","","","","","","null","","668.2999999970198","","1","1","null","null","arrowup","[0.675,0.325,0.85,0.15]","","",""
"sailing-trial","305","1636536","0.0-11.0-254.0","","","","false","","","","","","","","","","557.2999999970198","","262.6000000014901","","0","1","arrowleft","0","arrowleft","[0.675,0.325,0.85,0.15]","","",""
"sailing-trial","306","1639511","0.0-11.0-255.0","","","","false","","","","","","","","","","null","","1115.5","","1","0","null","null","arrowup","[0.675,0.325,0.85,0.15]","","",""
"sailing-trial","307","1643582","0.0-11.0-256.0","","","","false","","","","","","","","","","802.7999999970198","","227","","3","0","arrowright","1","arrowright","[0.675,0.325,0.85,0.15]","","",""
"sailing-trial","308","1645967","0.0-11.0-257.0","","","","false","","","","","","","","","","null","","803.4000000059605","","1","0","null","null","arrowup","[0.675,0.325,0.85,0.15]","","",""
"sailing-trial","309","1651174","0.0-11.0-258.0","","","","false","","","","","","","","","","836.5","","1266.8999999985099","","2","1","arrowright","1","arrowleft","[0.675,0.325,0.85,0.15]","","",""
"sailing-trial","310","1653988","0.0-11.0-259.0","","","","false","","","","","","","","","","null","","1029.1000000014901","","1","0","null","null","arrowup","[0.675,0.325,0.85,0.15]","","",""
"sailing-trial","311","1657930","0.0-11.0-260.0","","","","false","","","","","","","","","","530.5","","281","","0","1","arrowleft","0","arrowleft","[0.675,0.325,0.85,0.15]","","",""
"sailing-trial","312","1661312","0.0-11.0-261.0","","","","false","","","","","","","","","","null","","1204.3000000044703","","0","1","null","null","arrowup","[0.675,0.325,0.85,0.15]","","",""
"sailing-trial","313","1666023","0.0-11.0-262.0","","","","false","","","","","","","","","","1136.5","","410.6000000014901","","3","1","arrowright","1","arrowright","[0.85,0.15,0.675,0.325]","","",""
"sailing-trial","314","1669370","0.0-11.0-263.0","","","","false","","","","","","","","","","null","","1267.3999999985099","","2","1","null","null","arrowup","[0.85,0.15,0.675,0.325]","","",""
"sailing-trial","315","1674141","0.0-11.0-264.0","","","","false","","","","","","","","","","1001.8999999985099","","684.6000000014901","","1","0","arrowleft","0","arrowright","[0.85,0.15,0.675,0.325]","","",""
"sailing-trial","316","1677226","0.0-11.0-265.0","","","","false","","","","","","","","","","null","","686.5","","2","1","null","null","arrowup","[0.85,0.15,0.675,0.325]","","",""
"sailing-trial","317","1681896","0.0-11.0-266.0","","","","false","","","","","","","","","","564.1000000014901","","474.30000000447035","","1","1","arrowleft","0","arrowright","[0.85,0.15,0.675,0.325]","","",""
"sailing-trial","318","1685232","0.0-11.0-267.0","","","","false","","","","","","","","","","null","","1166.9000000059605","","0","1","null","null","arrowup","[0.85,0.15,0.675,0.325]","","",""
"sailing-trial","319","1690194","0.0-11.0-268.0","","","","false","","","","","","","","","","666.3999999985099","","1391.6000000014901","","3","0","arrowright","1","arrowright","[0.85,0.15,0.675,0.325]","","",""
"sailing-trial","320","1692873","0.0-11.0-269.0","","","","false","","","","","","","","","","null","","846.4000000059605","","0","1","null","null","arrowup","[0.85,0.15,0.675,0.325]","","",""
"sailing-trial","321","1697126","0.0-11.0-270.0","","","","false","","","","","","","","","","536.7999999970198","","527.1000000014901","","1","0","arrowleft","0","arrowright","[0.85,0.15,0.675,0.325]","","",""
"sailing-trial","322","1700193","0.0-11.0-271.0","","","","false","","","","","","","","","","null","","919.1999999955297","","0","1","null","null","arrowup","[0.85,0.15,0.675,0.325]","","",""
"sailing-trial","323","1704570","0.0-11.0-272.0","","","","false","","","","","","","","","","893.1000000014901","","127.30000000447035","","3","1","arrowright","1","arrowright","[0.85,0.15,0.675,0.325]","","",""
"sailing-trial","324","1707438","0.0-11.0-273.0","","","","false","","","","","","","","","","null","","601.6000000014901","","0","1","null","null","arrowup","[0.85,0.15,0.675,0.325]","","",""
"sailing-trial","325","1711683","0.0-11.0-274.0","","","","false","","","","","","","","","","956.8000000044703","","498.8999999985099","","0","1","arrowleft","0","arrowleft","[0.85,0.15,0.675,0.325]","","",""
"sailing-trial","326","1714431","0.0-11.0-275.0","","","","false","","","","","","","","","","null","","934.3999999985099","","2","0","null","null","arrowup","[0.85,0.15,0.675,0.325]","","",""
"sailing-trial","327","1718987","0.0-11.0-276.0","","","","false","","","","","","","","","","663.2999999970198","","769.5","","3","1","arrowright","1","arrowright","[0.85,0.15,0.675,0.325]","","",""
"sailing-trial","328","1721712","0.0-11.0-277.0","","","","false","","","","","","","","","","null","","666.1000000014901","","2","1","null","null","arrowup","[0.85,0.15,0.675,0.325]","","",""
"sailing-trial","329","1725373","0.0-11.0-278.0","","","","false","","","","","","","","","","400.79999999701977","","221.60000000149012","","0","1","arrowleft","0","arrowleft","[0.675,0.325,0.85,0.15]","","",""
"sailing-trial","330","1727475","0.0-11.0-279.0","","","","false","","","","","","","","","","null","","435","","3","0","null","null","arrowup","[0.675,0.325,0.85,0.15]","","",""
"sailing-trial","331","1731379","0.0-11.0-280.0","","","","false","","","","","","","","","","953.8999999985099","","281","","3","0","arrowright","1","arrowright","[0.675,0.325,0.85,0.15]","","",""
"sailing-trial","332","1734052","0.0-11.0-281.0","","","","false","","","","","","","","","","null","","593.2999999970198","","2","1","null","null","arrowup","[0.675,0.325,0.85,0.15]","","",""
"sailing-trial","333","1739891","0.0-11.0-282.0","","","","false","","","","","","","","","","537","","2166.8000000044703","","1","1","arrowleft","0","arrowright","[0.675,0.325,0.85,0.15]","","",""
"sailing-trial","334","1743015","0.0-11.0-283.0","","","","false","","","","","","","","","","null","","1560.1999999955297","","3","0","null","null","arrowup","[0.675,0.325,0.85,0.15]","","",""
"sailing-trial","335","1746845","0.0-11.0-284.0","","","","false","","","","","","","","","","459.70000000298023","","438","","0","1","arrowleft","0","arrowleft","[0.675,0.325,0.85,0.15]","","",""
"sailing-trial","336","1749454","0.0-11.0-285.0","","","","false","","","","","","","","","","null","","975.3000000044703","","1","0","null","null","arrowup","[0.675,0.325,0.85,0.15]","","",""
"sailing-trial","337","1753046","0.0-11.0-286.0","","","","false","","","","","","","","","","590.5","","418.70000000298023","","3","0","arrowright","1","arrowright","[0.675,0.325,0.85,0.15]","","",""
"sailing-trial","338","1755800","0.0-11.0-287.0","","","","false","","","","","","","","","","null","","1032.1999999955297","","0","0","null","null","arrowup","[0.675,0.325,0.85,0.15]","","",""
"sailing-trial","339","1760370","0.0-11.0-288.0","","","","false","","","","","","","","","","1029.7000000029802","","516.8999999985099","","2","1","arrowright","1","arrowleft","[0.675,0.325,0.85,0.15]","","",""
"sailing-trial","340","1762579","0.0-11.0-289.0","","","","false","","","","","","","","","","null","","530","","1","0","null","null","arrowup","[0.675,0.325,0.85,0.15]","","",""
"sailing-trial","341","1765861","0.0-11.0-290.0","","","","false","","","","","","","","","","522.8999999985099","","48.20000000298023","","0","0","arrowleft","0","arrowleft","[0.675,0.325,0.85,0.15]","","",""
"sailing-trial","342","1768305","0.0-11.0-291.0","","","","false","","","","","","","","","","null","","911.5","","3","0","null","null","arrowup","[0.675,0.325,0.85,0.15]","","",""
"sailing-trial","343","1773447","0.0-11.0-292.0","","","","false","","","","","","","","","","389.20000000298023","","1349.9000000059605","","2","0","arrowright","1","arrowleft","[0.675,0.325,0.85,0.15]","","",""
"sailing-trial","344","1777158","0.0-11.0-293.0","","","","false","","","","","","","","","","null","","1400.1000000014901","","0","0","null","null","arrowup","[0.675,0.325,0.85,0.15]","","",""
"sailing-trial","345","1782008","0.0-11.0-294.0","","","","false","","","","","","","","","","565.6000000014901","","1376.7999999970198","","1","1","arrowleft","0","arrowright","[0.675,0.325,0.85,0.15]","","",""
"sailing-trial","346","1784929","0.0-11.0-295.0","","","","false","","","","","","","","","","null","","817.5999999940395","","1","0","null","null","arrowup","[0.675,0.325,0.85,0.15]","","",""
"sailing-trial","347","1788796","0.0-11.0-296.0","","","","false","","","","","","","","","","420.20000000298023","","289.40000000596046","","0","1","arrowleft","0","arrowleft","[0.85,0.15,0.675,0.325]","","",""
"sailing-trial","348","1791386","0.0-11.0-297.0","","","","false","","","","","","","","","","null","","958","","1","0","null","null","arrowup","[0.85,0.15,0.675,0.325]","","",""
"sailing-trial","349","1795695","0.0-11.0-298.0","","","","false","","","","","","","","","","803.8999999985099","","749.1000000014901","","3","0","arrowright","1","arrowright","[0.85,0.15,0.675,0.325]","","",""
"sailing-trial","350","1798996","0.0-11.0-299.0","","","","false","","","","","","","","","","null","","1332.6999999955297","","3","0","null","null","arrowup","[0.85,0.15,0.675,0.325]","","",""
"sailing-trial","351","1803501","0.0-11.0-300.0","","","","false","","","","","","","","","","695.5","","399.40000000596046","","0","1","arrowleft","0","arrowleft","[0.85,0.15,0.675,0.325]","","",""
"sailing-trial","352","1806961","0.0-11.0-301.0","","","","false","","","","","","","","","","null","","1281.8000000044703","","1","1","null","null","arrowup","[0.85,0.15,0.675,0.325]","","",""
"sailing-trial","353","1810576","0.0-11.0-302.0","","","","false","","","","","","","","","","468.29999999701977","","60","","0","1","arrowleft","0","arrowleft","[0.85,0.15,0.675,0.325]","","",""
"sailing-trial","354","1813072","0.0-11.0-303.0","","","","false","","","","","","","","","","null","","557.1000000014901","","1","0","null","null","arrowup","[0.85,0.15,0.675,0.325]","","",""
"sailing-trial","355","1816558","0.0-11.0-304.0","","","","false","","","","","","","","","","354.30000000447035","","86.79999999701977","","3","1","arrowright","1","arrowright","[0.85,0.15,0.675,0.325]","","",""
"sailing-trial","356","1819359","0.0-11.0-305.0","","","","false","","","","","","","","","","null","","685.8999999985099","","2","1","null","null","arrowup","[0.85,0.15,0.675,0.325]","","",""
"sailing-trial","357","1822919","0.0-11.0-306.0","","","","false","","","","","","","","","","418.3999999985099","","89.10000000149012","","0","1","arrowleft","0","arrowleft","[0.85,0.15,0.675,0.325]","","",""
"sailing-trial","358","1825253","0.0-11.0-307.0","","","","false","","","","","","","","","","null","","633.1000000014901","","1","0","null","null","arrowup","[0.85,0.15,0.675,0.325]","","",""
"sailing-trial","359","1829550","0.0-11.0-308.0","","","","false","","","","","","","","","","582","","985.7999999970198","","3","0","arrowright","1","arrowright","[0.85,0.15,0.675,0.325]","","",""
"sailing-trial","360","1832056","0.0-11.0-309.0","","","","false","","","","","","","","","","null","","981.7000000029802","","1","0","null","null","arrowup","[0.85,0.15,0.675,0.325]","","",""
"sailing-trial","361","1837209","0.0-11.0-310.0","","","","false","","","","","","","","","","1623.5","","464.5","","2","1","arrowright","1","arrowleft","[0.85,0.15,0.675,0.325]","","",""
"sailing-trial","362","1839155","0.0-11.0-311.0","","","","false","","","","","","","","","","null","","384.5","","1","0","null","null","arrowup","[0.85,0.15,0.675,0.325]","","",""
"sailing-trial","363","1843016","0.0-11.0-312.0","","","","false","","","","","","","","","","419.5","","328.20000000298023","","0","1","arrowleft","0","arrowleft","[0.675,0.325,0.85,0.15]","","",""
"sailing-trial","364","1845681","0.0-11.0-313.0","","","","false","","","","","","","","","","null","","1044.1000000014901","","1","0","null","null","arrowup","[0.675,0.325,0.85,0.15]","","",""
"sailing-trial","365","1849213","0.0-11.0-314.0","","","","false","","","","","","","","","","624.5","","234.89999999850988","","3","0","arrowright","1","arrowright","[0.675,0.325,0.85,0.15]","","",""
"sailing-trial","366","1851549","0.0-11.0-315.0","","","","false","","","","","","","","","","null","","557.7000000029802","","3","0","null","null","arrowup","[0.675,0.325,0.85,0.15]","","",""
"sailing-trial","367","1855088","0.0-11.0-316.0","","","","false","","","","","","","","","","455.29999999701977","","543.7999999970198","","1","0","arrowleft","0","arrowright","[0.675,0.325,0.85,0.15]","","",""
"sailing-trial","368","1857715","0.0-11.0-317.0","","","","false","","","","","","","","","","null","","392","","3","1","null","null","arrowup","[0.675,0.325,0.85,0.15]","","",""
"sailing-trial","369","1862225","0.0-11.0-318.0","","","","false","","","","","","","","","","992","","422.3999999985099","","1","1","arrowleft","0","arrowright","[0.675,0.325,0.85,0.15]","","",""
"sailing-trial","370","1865010","0.0-11.0-319.0","","","","false","","","","","","","","","","null","","866.0999999940395","","1","1","null","null","arrowup","[0.675,0.325,0.85,0.15]","","",""
"sailing-trial","371","1868854","0.0-11.0-320.0","","","","false","","","","","","","","","","420.5","","366.80000000447035","","0","1","arrowleft","0","arrowleft","[0.675,0.325,0.85,0.15]","","",""
"sailing-trial","372","1871563","0.0-11.0-321.0","","","","false","","","","","","","","","","null","","686.5","","1","0","null","null","arrowup","[0.675,0.325,0.85,0.15]","","",""
"sailing-trial","373","1875224","0.0-11.0-322.0","","","","false","","","","","","","","","","444.70000000298023","","169.60000000149012","","3","1","arrowright","1","arrowright","[0.675,0.325,0.85,0.15]","","",""
"sailing-trial","374","1877644","0.0-11.0-323.0","","","","false","","","","","","","","","","null","","686.1000000014901","","1","0","null","null","arrowup","[0.675,0.325,0.85,0.15]","","",""
"sailing-trial","375","1881480","0.0-11.0-324.0","","","","false","","","","","","","","","","815.2999999970198","","748.5999999940395","","0","0","arrowleft","0","arrowleft","[0.675,0.325,0.85,0.15]","","",""
"sailing-trial","376","1884031","0.0-11.0-325.0","","","","false","","","","","","","","","","null","","1009.8999999985099","","2","0","null","null","arrowup","[0.675,0.325,0.85,0.15]","","",""
"sailing-trial","377","1887804","0.0-11.0-326.0","","","","false","","","","","","","","","","452.5","","1006.2999999970198","","1","0","arrowleft","0","arrowright","[0.675,0.325,0.85,0.15]","","",""
"sailing-trial","378","1890165","0.0-11.0-327.0","","","","false","","","","","","","","","","null","","1083.9000000059605","","3","0","null","null","arrowup","[0.675,0.325,0.85,0.15]","","",""
"sailing-trial","379","1895259","0.0-11.0-328.0","","","","false","","","","","","","","","","1262.7000000029802","","700.6000000014901","","0","1","arrowleft","0","arrowleft","[0.85,0.15,0.675,0.325]","","",""
"sailing-trial","380","1897883","0.0-11.0-329.0","","","","false","","","","","","","","","","null","","470.79999999701977","","0","1","null","null","arrowup","[0.85,0.15,0.675,0.325]","","",""
"sailing-trial","381","1901958","0.0-11.0-330.0","","","","false","","","","","","","","","","354.79999999701977","","579.2000000029802","","2","1","arrowright","1","arrowleft","[0.85,0.15,0.675,0.325]","","",""
"sailing-trial","382","1904667","0.0-11.0-331.0","","","","false","","","","","","","","","","null","","874.6000000014901","","3","1","null","null","arrowup","[0.85,0.15,0.675,0.325]","","",""
"sailing-trial","383","1910442","0.0-11.0-332.0","","","","false","","","","","","","","","","1003","","1745.5999999940395","","0","1","arrowleft","0","arrowleft","[0.85,0.15,0.675,0.325]","","",""
"sailing-trial","384","1912775","0.0-11.0-333.0","","","","false","","","","","","","","","","null","","298.69999999552965","","0","1","null","null","arrowup","[0.85,0.15,0.675,0.325]","","",""
"sailing-trial","385","1917770","0.0-11.0-334.0","","","","false","","","","","","","","","","380","","611","","1","0","arrowleft","0","arrowright","[0.85,0.15,0.675,0.325]","","",""
"sailing-trial","386","1920814","0.0-11.0-335.0","","","","false","","","","","","","","","","null","","932.7000000029802","","3","1","null","null","arrowup","[0.85,0.15,0.675,0.325]","","",""
"sailing-trial","387","1925466","0.0-11.0-336.0","","","","false","","","","","","","","","","997.7999999970198","","608.0999999940395","","2","1","arrowright","1","arrowleft","[0.85,0.15,0.675,0.325]","","",""
"sailing-trial","388","1928127","0.0-11.0-337.0","","","","false","","","","","","","","","","null","","601.3999999985099","","2","1","null","null","arrowup","[0.85,0.15,0.675,0.325]","","",""
"sailing-trial","389","1931968","0.0-11.0-338.0","","","","false","","","","","","","","","","406.59999999403954","","325.8999999985099","","0","1","arrowleft","0","arrowleft","[0.85,0.15,0.675,0.325]","","",""
"sailing-trial","390","1935173","0.0-11.0-339.0","","","","false","","","","","","","","","","null","","1126.2999999970198","","3","0","null","null","arrowup","[0.85,0.15,0.675,0.325]","","",""
"sailing-trial","391","1938820","0.0-11.0-340.0","","","","false","","","","","","","","","","815.3999999985099","","449.69999999552965","","1","0","arrowleft","0","arrowright","[0.85,0.15,0.675,0.325]","","",""
"sailing-trial","392","1941809","0.0-11.0-341.0","","","","false","","","","","","","","","","null","","1530.3000000044703","","2","0","null","null","arrowup","[0.85,0.15,0.675,0.325]","","",""
"sailing-trial","393","1945036","0.0-11.0-342.0","","","","false","","","","","","","","","","444.19999999552965","","265.80000000447035","","3","0","arrowright","1","arrowright","[0.85,0.15,0.675,0.325]","","",""
"sailing-trial","394","1949721","0.0-11.0-343.0","","","","false","","","","","","","","","","null","","1747.6000000014901","","3","0","null","null","arrowup","[0.85,0.15,0.675,0.325]","","",""
"sailing-trial","395","1953634","0.0-11.0-344.0","","","","false","","","","","","","","","","485.20000000298023","","887.1000000014901","","1","0","arrowleft","0","arrowright","[0.675,0.325,0.85,0.15]","","",""
"sailing-trial","396","1956371","0.0-11.0-345.0","","","","false","","","","","","","","","","null","","1125.5999999940395","","3","0","null","null","arrowup","[0.675,0.325,0.85,0.15]","","",""
"sailing-trial","397","1960087","0.0-11.0-346.0","","","","false","","","","","","","","","","395.79999999701977","","223.89999999850988","","0","1","arrowleft","0","arrowleft","[0.675,0.325,0.85,0.15]","","",""
"sailing-trial","398","1962474","0.0-11.0-347.0","","","","false","","","","","","","","","","null","","505.6000000014901","","3","0","null","null","arrowup","[0.675,0.325,0.85,0.15]","","",""
"sailing-trial","399","1967685","0.0-11.0-348.0","","","","false","","","","","","","","","","1530.2000000029802","","665.3999999985099","","2","1","arrowright","1","arrowleft","[0.675,0.325,0.85,0.15]","","",""
"sailing-trial","400","1970352","0.0-11.0-349.0","","","","false","","","","","","","","","","null","","584.7999999970198","","0","1","null","null","arrowup","[0.675,0.325,0.85,0.15]","","",""
"sailing-trial","401","1973758","0.0-11.0-350.0","","","","false","","","","","","","","","","406.29999999701977","","307","","1","0","arrowleft","0","arrowright","[0.675,0.325,0.85,0.15]","","",""
"sailing-trial","402","1978673","0.0-11.0-351.0","","","","false","","","","","","","","","","null","","3394.8000000044703","","2","0","null","null","arrowup","[0.675,0.325,0.85,0.15]","","",""
"sailing-trial","403","1982285","0.0-11.0-352.0","","","","false","","","","","","","","","","300.90000000596046","","210.30000000447035","","1","1","arrowleft","0","arrowright","[0.675,0.325,0.85,0.15]","","",""
"sailing-trial","404","1985689","0.0-11.0-353.0","","","","false","","","","","","","","","","null","","1126.3999999985099","","2","1","null","null","arrowup","[0.675,0.325,0.85,0.15]","","",""
"sailing-trial","405","1989560","0.0-11.0-354.0","","","","false","","","","","","","","","","441.20000000298023","","487.20000000298023","","0","1","arrowleft","0","arrowleft","[0.675,0.325,0.85,0.15]","","",""
"sailing-trial","406","1992376","0.0-11.0-355.0","","","","false","","","","","","","","","","null","","749.8999999985099","","1","1","null","null","arrowup","[0.675,0.325,0.85,0.15]","","",""
"sailing-trial","407","1996058","0.0-11.0-356.0","","","","false","","","","","","","","","","389.20000000298023","","423","","3","0","arrowright","1","arrowright","[0.675,0.325,0.85,0.15]","","",""
"sailing-trial","408","1997949","0.0-11.0-357.0","","","","false","","","","","","","","","","null","","469.70000000298023","","1","0","null","null","arrowup","[0.675,0.325,0.85,0.15]","","",""
"sailing-trial","409","2002343","0.0-11.0-358.0","","","","false","","","","","","","","","","1045.2999999970198","","346.1000000014901","","2","1","arrowright","1","arrowleft","[0.675,0.325,0.85,0.15]","","",""
"sailing-trial","410","2004724","0.0-11.0-359.0","","","","false","","","","","","","","","","null","","535.3999999985099","","3","0","null","null","arrowup","[0.675,0.325,0.85,0.15]","","",""
"sailing-trial","411","2007975","0.0-11.0-360.0","","","","false","","","","","","","","","","416.1000000014901","","324.3999999985099","","0","0","arrowleft","0","arrowleft","[0.675,0.325,0.85,0.15]","","",""
"sailing-trial","412","2011465","0.0-11.0-361.0","","","","false","","","","","","","","","","null","","1363.6000000014901","","0","1","null","null","arrowup","[0.675,0.325,0.85,0.15]","","",""
"sailing-trial","413","2014845","0.0-11.0-362.0","","","","false","","","","","","","","","","380.6000000014901","","517.6999999955297","","3","0","arrowright","1","arrowright","[0.325,0.675,0.15,0.85]","","",""
"sailing-trial","414","2018122","0.0-11.0-363.0","","","","false","","","","","","","","","","null","","1128.2999999970198","","3","1","null","null","arrowup","[0.325,0.675,0.15,0.85]","","",""
"sailing-trial","415","2021797","0.0-11.0-364.0","","","","false","","","","","","","","","","514.5","","88.89999999850988","","1","1","arrowleft","0","arrowright","[0.325,0.675,0.15,0.85]","","",""
"sailing-trial","416","2024851","0.0-11.0-365.0","","","","false","","","","","","","","","","null","","1013.3999999985099","","3","1","null","null","arrowup","[0.325,0.675,0.15,0.85]","","",""
"sailing-trial","417","2029793","0.0-11.0-366.0","","","","false","","","","","","","","","","937.8999999985099","","580.8999999985099","","2","1","arrowright","1","arrowleft","[0.325,0.675,0.15,0.85]","","",""
"sailing-trial","418","2032838","0.0-11.0-367.0","","","","false","","","","","","","","","","null","","942.6000000014901","","1","1","null","null","arrowup","[0.325,0.675,0.15,0.85]","","",""
"sailing-trial","419","2037291","0.0-11.0-368.0","","","","false","","","","","","","","","","738.6000000014901","","570.1000000014901","","1","1","arrowleft","0","arrowright","[0.325,0.675,0.15,0.85]","","",""
"sailing-trial","420","2039978","0.0-11.0-369.0","","","","false","","","","","","","","","","null","","908.0999999940395","","3","0","null","null","arrowup","[0.325,0.675,0.15,0.85]","","",""
"sailing-trial","421","2043302","0.0-11.0-370.0","","","","false","","","","","","","","","","470.20000000298023","","230.19999999552965","","0","0","arrowleft","0","arrowleft","[0.325,0.675,0.15,0.85]","","",""
"sailing-trial","422","2046019","0.0-11.0-371.0","","","","false","","","","","","","","","","null","","1034.6000000014901","","0","0","null","null","arrowup","[0.325,0.675,0.15,0.85]","","",""
"sailing-trial","423","2049283","0.0-11.0-372.0","","","","false","","","","","","","","","","552","","108.79999999701977","","1","0","arrowleft","0","arrowright","[0.325,0.675,0.15,0.85]","","",""
"sailing-trial","424","2052359","0.0-11.0-373.0","","","","false","","","","","","","","","","null","","876.6000000014901","","3","1","null","null","arrowup","[0.325,0.675,0.15,0.85]","","",""
"sailing-trial","425","2056337","0.0-11.0-374.0","","","","false","","","","","","","","","","571.4000000059605","","749.8999999985099","","2","0","arrowright","1","arrowleft","[0.325,0.675,0.15,0.85]","","",""
"sailing-trial","426","2060578","0.0-11.0-375.0","","","","false","","","","","","","","","","null","","1946.7999999970198","","0","0","null","null","arrowup","[0.325,0.675,0.15,0.85]","","",""
"sailing-trial","427","2065578","0.0-11.0-376.0","","","","false","","","","","","","","","","355.1000000014901","","1580","","1","1","arrowleft","0","arrowright","[0.325,0.675,0.15,0.85]","","",""
"sailing-trial","428","2069134","0.0-11.0-377.0","","","","false","","","","","","","","","","null","","1021.2999999970198","","2","0","null","null","arrowup","[0.325,0.675,0.15,0.85]","","",""
"sailing-trial","429","2074513","0.0-11.0-378.0","","","","false","","","","","","","","","","1177","","503.3999999985099","","0","1","arrowleft","0","arrowleft","[0.325,0.675,0.15,0.85]","","",""
"sailing-trial","430","2077593","0.0-11.0-379.0","","","","false","","","","","","","","","","null","","987.6000000014901","","1","1","null","null","arrowup","[0.325,0.675,0.15,0.85]","","",""
"sailing-trial","431","2082775","0.0-11.0-380.0","","","","false","","","","","","","","","","1349.3999999985099","","633.5999999940395","","2","1","arrowright","1","arrowleft","[0.85,0.15,0.675,0.325]","","",""
"sailing-trial","432","2086069","0.0-11.0-381.0","","","","false","","","","","","","","","","null","","1088.0999999940395","","0","1","null","null","arrowup","[0.85,0.15,0.675,0.325]","","",""
"sailing-trial","433","2091082","0.0-11.0-382.0","","","","false","","","","","","","","","","1351","","106.90000000596046","","3","0","arrowright","1","arrowright","[0.85,0.15,0.675,0.325]","","",""
"sailing-trial","434","2094344","0.0-11.0-383.0","","","","false","","","","","","","","","","null","","1066.6000000014901","","2","1","null","null","arrowup","[0.85,0.15,0.675,0.325]","","",""
"sailing-trial","435","2098917","0.0-11.0-384.0","","","","false","","","","","","","","","","80.5","","1368.6000000014901","","0","1","arrowleft","0","arrowleft","[0.85,0.15,0.675,0.325]","","",""
"sailing-trial","436","2101721","0.0-11.0-385.0","","","","false","","","","","","","","","","null","","496.20000000298023","","0","1","null","null","arrowup","[0.85,0.15,0.675,0.325]","","",""
"sailing-trial","437","2105924","0.0-11.0-386.0","","","","false","","","","","","","","","","974.6999999955297","","471.3999999985099","","3","0","arrowright","1","arrowright","[0.85,0.15,0.675,0.325]","","",""
"sailing-trial","438","2109148","0.0-11.0-387.0","","","","false","","","","","","","","","","null","","1410.1000000014901","","2","0","null","null","arrowup","[0.85,0.15,0.675,0.325]","","",""
"sailing-trial","439","2114115","0.0-11.0-388.0","","","","false","","","","","","","","","","1346.1000000014901","","871.1000000014901","","1","0","arrowleft","0","arrowright","[0.85,0.15,0.675,0.325]","","",""
"sailing-trial","440","2117453","0.0-11.0-389.0","","","","false","","","","","","","","","","null","","1540.1999999955297","","1","0","null","null","arrowup","[0.85,0.15,0.675,0.325]","","",""
"sailing-trial","441","2122926","0.0-11.0-390.0","","","","false","","","","","","","","","","1222.8000000044703","","784.1000000014901","","0","1","arrowleft","0","arrowleft","[0.85,0.15,0.675,0.325]","","",""
"sailing-trial","442","2126371","0.0-11.0-391.0","","","","false","","","","","","","","","","null","","1103.8000000044703","","0","1","null","null","arrowup","[0.85,0.15,0.675,0.325]","","",""
"sailing-trial","443","2130847","0.0-11.0-392.0","","","","false","","","","","","","","","","754.1000000014901","","398.3999999985099","","2","1","arrowright","1","arrowleft","[0.85,0.15,0.675,0.325]","","",""
"sailing-trial","444","2134179","0.0-11.0-393.0","","","","false","","","","","","","","","","null","","1042.7999999970198","","3","1","null","null","arrowup","[0.85,0.15,0.675,0.325]","","",""
"sailing-trial","445","2138220","0.0-11.0-394.0","","","","false","","","","","","","","","","721.2000000029802","","530.8999999985099","","1","0","arrowleft","0","arrowright","[0.85,0.15,0.675,0.325]","","",""
"sailing-trial","446","2141695","0.0-11.0-395.0","","","","false","","","","","","","","","","null","","1263.2999999970198","","0","1","null","null","arrowup","[0.85,0.15,0.675,0.325]","","",""
"sailing-trial","447","2145132","0.0-11.0-396.0","","","","false","","","","","","","","","","494.69999999552965","","330.90000000596046","","1","0","arrowleft","0","arrowright","[0.85,0.15,0.675,0.325]","","",""
"sailing-trial","448","2147733","0.0-11.0-397.0","","","","false","","","","","","","","","","null","","1027","","1","0","null","null","arrowup","[0.85,0.15,0.675,0.325]","","",""
"sailing-trial","449","2152252","0.0-11.0-398.0","","","","false","","","","","","","","","","1217.1000000014901","","69.30000000447035","","2","1","arrowright","1","arrowleft","[0.85,0.15,0.675,0.325]","","",""
"sailing-trial","450","2154804","0.0-11.0-399.0","","","","false","","","","","","","","","","null","","705.5","","3","0","null","null","arrowup","[0.85,0.15,0.675,0.325]","","",""
"instructions","451","2160036","0.0-12.0","","","","","","","","","","5235","","","","","","","","","","","","","","","","[{""page_index"":0,""viewing_time"":5234.69999999553}]"
"survey-debrief","452","2190644","0.0-13.0","","","","","","","","","","30615.19999999553","","","","","","","","","","","","","","{""difficulty"":""4"",""fun"":""4"",""clarity"":""5"",""strategy"":""yes"",""feedback"":""no""}","",""
