"trial_type","trial_index","time_elapsed","internal_node_id","value","metadata","success","timeout","failed_images","failed_audio","failed_video","browser_interaction","low_quality","rt","stimulus","response","button_pressed","island_rt","island_response","boat_rt","boat_response","boat","reward","island_key","island","boat_key","reward_probabilities","responses","num_errors","view_history"
"pavlovia","0","4","0.0-0.0","","","","","","","","","","","","","","","","","","","","","","","","","",""
"call-function","1","4","0.0-1.0","","{""task_version"":""sr_pilot_v2"",""task_condition"":""good"",""boats"":[""D"",""C"",""A"",""B""],""boats_demo"":[""E"",""F"",""H"",""G""],""islands"":[""A"",""B""],""subject_id"":""14056"",""age"":""11"",""gender"":""Male""}","","","","","","","","","","","","","","","","","","","","","","","",""
"preload","2","674","0.0-2.0","","","true","false","[]","[]","[]","[{""event"":""fullscreenenter"",""trial"":3,""time"":4340}]","false","","","","","","","","","","","","","","","","",""
"fullscreen","3","5274","0.0-3.0","","","true","","","","","","","","","","","","","","","","","","","","","","",""
"audio-keyboard-response","4","17737","0.0-4.0-0.0","","","","","","","","","","0","audio/beep_loop.wav"," ","","","","","","","","","","","","","",""
"audio-test","5","22654","0.0-4.0-1.0","","","","","","","","","","null","audio/turtle.mp3","","3","","","","","","","","","","","","",""
"audio-test","6","24988","0.0-4.0-2.0","","","","","","","","","","null","audio/shark.mp3","","2","","","","","","","","","","","","",""
"sailing-instructions","7","55721","0.0-5.0-0.0-0.0","","","","","","","","","","","","","","null","null","null","null","null","null","","","","","","",""
"sailing-trial","8","60104","0.0-5.0-0.0-1.0-0.0","","","","false","","","","","","","","","","3270.0000000000073","","null","","null","null","arrowleft","0","null","null","","",""
"sailing-trial","9","61735","0.0-5.0-0.0-1.0-1.0","","","","false","","","","","","","","","","523","","null","","null","null","arrowright","1","null","null","","",""
"sailing-trial","10","63868","0.0-5.0-0.0-1.0-2.0","","","","false","","","","","","","","","","1021","","null","","null","null","arrowright","1","null","null","","",""
"sailing-instructions","11","114847","0.0-5.0-0.0-2.0","","","","","","","","","","","","","","null","null","null","null","0","null","","","","","","",""
"sailing-trial","12","119367","0.0-5.0-0.0-3.0-0.0","","","","false","","","","","","","","","","null","","1477.0000000000146","","2","1","null","null","arrowleft","[1,1,1,1]","","",""
"sailing-trial","13","123634","0.0-5.0-0.0-3.0-1.0","","","","false","","","","","","","","","","null","","799","","3","1","null","null","arrowright","[1,1,1,1]","","",""
"sailing-trial","14","127218","0.0-5.0-0.0-3.0-2.0","","","","false","","","","","","","","","","null","","747","","2","0","null","null","arrowleft","[0,0,0,0]","","",""
"sailing-instructions","15","134307","0.0-5.0-0.0-4.0","","","","","","","","","","","","","","null","null","null","null","null","null","","","","","","",""
"sailing-comprehension","16","154423","0.0-5.0-0.0-5.0","","","","","","","","","","17097","","","","","","","","","","","","","","[""true"",""true"",""false"",""true""]","0",""
"sailing-instructions","17","214884","0.0-6.0-0.0-0.0","","","","","","","","","","","","","","null","null","null","null","null","null","","","","","","",""
"sailing-comprehension","18","226601","0.0-6.0-0.0-1.0","","","","","","","","","","10019","","","","","","","","","","","","","","[""true"",""false"",""true""]","0",""
"sailing-instructions","19","239873","0.0-7.0-0.0-0.0","","","","","","","","","","","","","","null","null","null","null","null","null","","","","","","",""
"sailing-trial","20","245916","0.0-7.0-0.0-1.0-0.0","","","","false","","","","","","","","","","null","","3032.000000000029","","0","0","null","null","arrowup","[0.2,0.8,0.2,0.8]","","",""
"sailing-trial","21","249529","0.0-7.0-0.0-1.0-1.0","","","","false","","","","","","","","","","null","","1825.999999999971","","1","0","null","null","arrowup","[0.2,0.8,0.2,0.8]","","",""
"sailing-trial","22","253110","0.0-7.0-0.0-1.0-2.0","","","","false","","","","","","","","","","null","","1619","","2","0","null","null","arrowup","[0.2,0.8,0.2,0.8]","","",""
"sailing-trial","23","256049","0.0-7.0-0.0-1.0-3.0","","","","false","","","","","","","","","","null","","699","","3","1","null","null","arrowup","[0.2,0.8,0.2,0.8]","","",""
"sailing-comprehension","24","262128","0.0-7.0-0.0-2.0","","","","","","","","","","4018.000000000029","","","","","","","","","","","","","","[""false""]","0",""
"sailing-instructions","25","274224","0.0-8.0-0.0-0.0","","","","","","","","","","","","","","null","null","null","null","null","null","","","","","","",""
"sailing-comprehension","26","281339","0.0-8.0-0.0-1.0","","","","","","","","","","4110","","","","","","","","","","","","","","[""false""]","1",""
"sailing-instructions","27","291617","0.0-8.0-0.1-0.1","","","","","","","","","","","","","","null","null","null","null","null","null","","","","","","",""
"sailing-comprehension","28","296906","0.0-8.0-0.1-1.1","","","","","","","","","","1917.0000000000582","","","","","","","","","","","","","","[""true""]","0",""
"sailing-instructions","29","323049","0.0-9.0-0.0-0.0","","","","","","","","","","","","","","null","null","null","null","null","null","","","","","","",""
"sailing-trial","30","329122","0.0-9.0-0.0-1.0-0.0","","","","false","","","","","","","","","","1434","","554","","0","0","arrowleft","0","arrowleft","[0.2,0.8,0.2,0.8]","","",""
"sailing-trial","31","334100","0.0-9.0-0.0-1.0-1.0","","","","false","","","","","","","","","","1419","","56","","1","0","arrowleft","0","arrowright","[0.2,0.8,0.2,0.8]","","",""
"sailing-trial","32","338146","0.0-9.0-0.0-1.0-2.0","","","","false","","","","","","","","","","null","","1362","","0","0","null","null","arrowup","[0.2,0.8,0.2,0.8]","","",""
"sailing-trial","33","342896","0.0-9.0-0.0-1.0-3.0","","","","false","","","","","","","","","","1269.0000000000582","","55","","2","0","arrowright","1","arrowleft","[0.2,0.8,0.2,0.8]","","",""
"sailing-trial","34","350614","0.0-9.0-0.0-1.0-4.0","","","","false","","","","","","","","","","null","","1879","","3","1","null","null","arrowup","[0.2,0.8,0.2,0.8]","","",""
"sailing-trial","35","360048","0.0-9.0-0.0-1.0-5.0","","","","false","","","","","","","","","","2838","","405","","1","1","arrowleft","0","arrowright","[0.2,0.8,0.2,0.8]","","",""
"sailing-instructions","36","386665","0.0-10.0","","","","","","","","","","","","","","null","null","null","null","null","null","","","","","","",""
"sailing-trial","37","393909","0.0-11.0-0.0","","","","false","","","","","","","","","","3240.999999999942","","412.9999999999418","","0","0","arrowleft","0","arrowleft","[0.675,0.325,0.85,0.15]","","",""
"sailing-trial","38","397981","0.0-11.0-1.0","","","","false","","","","","","","","","","null","","1590","","1","1","null","null","arrowup","[0.675,0.325,0.85,0.15]","","",""
"sailing-trial","39","402797","0.0-11.0-2.0","","","","false","","","","","","","","","","1004","","1","","2","1","arrowright","1","arrowleft","[0.675,0.325,0.85,0.15]","","",""
"sailing-trial","40","407047","0.0-11.0-3.0","","","","false","","","","","","","","","","null","","1625","","0","1","null","null","arrowup","[0.675,0.325,0.85,0.15]","","",""
"sailing-trial","41","415596","0.0-11.0-4.0","","","","false","","","","","","","","","","2837","","344","","3","1","arrowright","1","arrowright","[0.675,0.325,0.85,0.15]","","",""
"sailing-trial","42","420314","0.0-11.0-5.0","","","","false","","","","","","","","","","null","","1704","","1","0","null","null","arrowup","[0.675,0.325,0.85,0.15]","","",""
"sailing-trial","43","429831","0.0-11.0-6.0","","","","false","","","","","","","","","","3423","","1804.0000000000582","","1","0","arrowleft","0","arrowright","[0.675,0.325,0.85,0.15]","","",""
"sailing-trial","44","434782","0.0-11.0-7.0","","","","false","","","","","","","","","","null","","1929.9999999999418","","3","0","null","null","arrowup","[0.675,0.325,0.85,0.15]","","",""
"sailing-trial","45","440463","0.0-11.0-8.0","","","","false","","","","","","","","","","948.0000000000582","","432","","2","0","arrowright","1","arrowleft","[0.675,0.325,0.85,0.15]","","",""
"sailing-trial","46","448879","0.0-11.0-9.0","","","","false","","","","","","","","","","null","","1149","","2","1","null","null","arrowup","[0.675,0.325,0.85,0.15]","","",""
"sailing-trial","47","453147","0.0-11.0-10.0","","","","false","","","","","","","","","","1147.9999999999418","","292","","0","0","arrowleft","0","arrowleft","[0.675,0.325,0.85,0.15]","","",""
"sailing-trial","48","456529","0.0-11.0-11.0","","","","false","","","","","","","","","","null","","1237","","2","1","null","null","arrowup","[0.675,0.325,0.85,0.15]","","",""
"sailing-trial","49","460963","0.0-11.0-12.0","","","","false","","","","","","","","","","597","","286","","2","1","arrowright","1","arrowleft","[0.675,0.325,0.85,0.15]","","",""
"sailing-trial","50","464276","0.0-11.0-13.0","","","","false","","","","","","","","","","null","","1439","","0","0","null","null","arrowup","[0.675,0.325,0.85,0.15]","","",""
"sailing-trial","51","471061","0.0-11.0-14.0","","","","false","","","","","","","","","","1138","","133.0000000000582","","2","1","arrowright","1","arrowleft","[0.675,0.325,0.85,0.15]","","",""
"sailing-trial","52","474996","0.0-11.0-15.0","","","","false","","","","","","","","","","null","","1290","","1","1","null","null","arrowup","[0.675,0.325,0.85,0.15]","","",""
"sailing-trial","53","479845","0.0-11.0-16.0","","","","false","","","","","","","","","","606","","97","","2","1","arrowright","1","arrowleft","[0.675,0.325,0.85,0.15]","","",""
"sailing-trial","54","486245","0.0-11.0-17.0","","","","false","","","","","","","","","","null","","1432.0000000000582","","0","1","null","null","arrowup","[0.675,0.325,0.85,0.15]","","",""
"sailing-trial","55","493379","0.0-11.0-18.0","","","","false","","","","","","","","","","1347","","82","","2","1","arrowright","1","arrowleft","[0.675,0.325,0.85,0.15]","","",""
"sailing-trial","56","496844","0.0-11.0-19.0","","","","false","","","","","","","","","","null","","1192.9999999999418","","0","1","null","null","arrowup","[0.675,0.325,0.85,0.15]","","",""
"sailing-trial","57","501062","0.0-11.0-20.0","","","","false","","","","","","","","","","703","","43","","2","1","arrowright","1","arrowleft","[0.85,0.15,0.675,0.325]","","",""
"sailing-trial","58","504945","0.0-11.0-21.0","","","","false","","","","","","","","","","null","","1237","","3","1","null","null","arrowup","[0.85,0.15,0.675,0.325]","","",""
"sailing-trial","59","510112","0.0-11.0-22.0","","","","false","","","","","","","","","","785.0000000000582","","53","","2","0","arrowright","1","arrowleft","[0.85,0.15,0.675,0.325]","","",""
"sailing-trial","60","514229","0.0-11.0-23.0","","","","false","","","","","","","","","","null","","1098.9999999998836","","1","0","null","null","arrowup","[0.85,0.15,0.675,0.325]","","",""
"sailing-trial","61","519629","0.0-11.0-24.0","","","","false","","","","","","","","","","738.0000000000582","","356","","2","0","arrowright","1","arrowleft","[0.85,0.15,0.675,0.325]","","",""
"sailing-trial","62","523844","0.0-11.0-25.0","","","","false","","","","","","","","","","null","","1207.9999999999418","","0","0","null","null","arrowup","[0.85,0.15,0.675,0.325]","","",""
"sailing-trial","63","528563","0.0-11.0-26.0","","","","false","","","","","","","","","","256","","151","","3","0","arrowright","1","arrowright","[0.85,0.15,0.675,0.325]","","",""
"sailing-trial","64","532612","0.0-11.0-27.0","","","","false","","","","","","","","","","null","","1035.9999999998836","","1","0","null","null","arrowup","[0.85,0.15,0.675,0.325]","","",""
"sailing-trial","65","544695","0.0-11.0-28.0","","","","false","","","","","","","","","","3629","","55","","0","1","arrowleft","0","arrowleft","[0.85,0.15,0.675,0.325]","","",""
"sailing-trial","66","551544","0.0-11.0-29.0","","","","false","","","","","","","","","","null","","1186.0000000001164","","2","1","null","null","arrowup","[0.85,0.15,0.675,0.325]","","",""
"sailing-trial","67","555560","0.0-11.0-30.0","","","","false","","","","","","","","","","568","","34","","0","1","arrowleft","0","arrowleft","[0.85,0.15,0.675,0.325]","","",""
"sailing-trial","68","558645","0.0-11.0-31.0","","","","false","","","","","","","","","","null","","1166","","0","1","null","null","arrowup","[0.85,0.15,0.675,0.325]","","",""
"sailing-trial","69","562510","0.0-11.0-32.0","","","","false","","","","","","","","","","481","","82","","0","1","arrowleft","0","arrowleft","[0.85,0.15,0.675,0.325]","","",""
"sailing-trial","70","565993","0.0-11.0-33.0","","","","false","","","","","","","","","","null","","1165.9999999998836","","2","1","null","null","arrowup","[0.85,0.15,0.675,0.325]","","",""
"sailing-trial","71","570328","0.0-11.0-34.0","","","","false","","","","","","","","","","899","","34","","0","1","arrowleft","0","arrowleft","[0.85,0.15,0.675,0.325]","","",""
"sailing-trial","72","573851","0.0-11.0-35.0","","","","false","","","","","","","","","","null","","1291","","3","0","null","null","arrowup","[0.85,0.15,0.675,0.325]","","",""
"sailing-trial","73","578978","0.0-11.0-36.0","","","","false","","","","","","","","","","643","","169","","0","0","arrowleft","0","arrowleft","[0.325,0.675,0.15,0.85]","","",""
"sailing-trial","74","582228","0.0-11.0-37.0","","","","false","","","","","","","","","","null","","1253.0000000001164","","1","1","null","null","arrowup","[0.325,0.675,0.15,0.85]","","",""
"sailing-trial","75","587827","0.0-11.0-38.0","","","","false","","","","","","","","","","1052.0000000001164","","249","","2","0","arrowright","1","arrowleft","[0.325,0.675,0.15,0.85]","","",""
"sailing-trial","76","591944","0.0-11.0-39.0","","","","false","","","","","","","","","","null","","1103","","1","0","null","null","arrowup","[0.325,0.675,0.15,0.85]","","",""
"sailing-trial","77","596443","0.0-11.0-40.0","","","","false","","","","","","","","","","684","","34","","3","1","arrowright","1","arrowright","[0.325,0.675,0.15,0.85]","","",""
"sailing-trial","78","599410","0.0-11.0-41.0","","","","false","","","","","","","","","","null","","978","","3","1","null","null","arrowup","[0.325,0.675,0.15,0.85]","","",""
"sailing-trial","79","603577","0.0-11.0-42.0","","","","false","","","","","","","","","","552.0000000001164","","175","","3","1","arrowright","1","arrowright","[0.325,0.675,0.15,0.85]","","",""
"sailing-trial","80","608143","0.0-11.0-43.0","","","","false","","","","","","","","","","null","","1588","","1","0","null","null","arrowup","[0.325,0.675,0.15,0.85]","","",""
"sailing-trial","81","612727","0.0-11.0-44.0","","","","false","","","","","","","","","","946","","91","","3","1","arrowright","1","arrowright","[0.325,0.675,0.15,0.85]","","",""
"sailing-trial","82","615742","0.0-11.0-45.0","","","","false","","","","","","","","","","null","","1061","","2","0","null","null","arrowup","[0.325,0.675,0.15,0.85]","","",""
"sailing-trial","83","620010","0.0-11.0-46.0","","","","false","","","","","","","","","","715","","128","","3","1","arrowright","1","arrowright","[0.325,0.675,0.15,0.85]","","",""
"sailing-trial","84","623876","0.0-11.0-47.0","","","","false","","","","","","","","","","null","","1476","","3","1","null","null","arrowup","[0.325,0.675,0.15,0.85]","","",""
"sailing-trial","85","627943","0.0-11.0-48.0","","","","false","","","","","","","","","","548","","151","","3","1","arrowright","1","arrowright","[0.325,0.675,0.15,0.85]","","",""
"sailing-trial","86","631736","0.0-11.0-49.0","","","","false","","","","","","","","","","null","","1339","","1","0","null","null","arrowup","[0.325,0.675,0.15,0.85]","","",""
"sailing-trial","87","635943","0.0-11.0-50.0","","","","false","","","","","","","","","","671","","109","","3","1","arrowright","1","arrowright","[0.325,0.675,0.15,0.85]","","",""
"sailing-trial","88","639220","0.0-11.0-51.0","","","","false","","","","","","","","","","null","","1083","","2","0","null","null","arrowup","[0.325,0.675,0.15,0.85]","","",""
"sailing-trial","89","644543","0.0-11.0-52.0","","","","false","","","","","","","","","","834","","197","","3","0","arrowright","1","arrowright","[0.675,0.325,0.85,0.15]","","",""
"sailing-trial","90","647647","0.0-11.0-53.0","","","","false","","","","","","","","","","null","","1584","","3","0","null","null","arrowup","[0.675,0.325,0.85,0.15]","","",""
"sailing-trial","91","653059","0.0-11.0-54.0","","","","false","","","","","","","","","","1218","","840","","0","1","arrowleft","0","arrowleft","[0.675,0.325,0.85,0.15]","","",""
"sailing-trial","92","655926","0.0-11.0-55.0","","","","false","","","","","","","","","","null","","991","","0","1","null","null","arrowup","[0.675,0.325,0.85,0.15]","","",""
"sailing-trial","93","659291","0.0-11.0-56.0","","","","false","","","","","","","","","","750.9999999998836","","96","","0","0","arrowleft","0","arrowleft","[0.675,0.325,0.85,0.15]","","",""
"sailing-trial","94","662592","0.0-11.0-57.0","","","","false","","","","","","","","","","null","","1273","","0","1","null","null","arrowup","[0.675,0.325,0.85,0.15]","","",""
"sailing-trial","95","666188","0.0-11.0-58.0","","","","false","","","","","","","","","","650","","2.0000000001164153","","0","0","arrowleft","0","arrowleft","[0.675,0.325,0.85,0.15]","","",""
"sailing-trial","96","668335","0.0-11.0-59.0","","","","false","","","","","","","","","","null","","1046.9999999998836","","3","0","null","null","arrowup","[0.675,0.325,0.85,0.15]","","",""
"sailing-trial","97","673542","0.0-11.0-60.0","","","","false","","","","","","","","","","776.0000000001164","","45","","2","1","arrowright","1","arrowleft","[0.675,0.325,0.85,0.15]","","",""
"sailing-trial","98","676288","0.0-11.0-61.0","","","","false","","","","","","","","","","null","","997","","1","0","null","null","arrowup","[0.675,0.325,0.85,0.15]","","",""
"sailing-trial","99","680841","0.0-11.0-62.0","","","","false","","","","","","","","","","512","","106","","2","1","arrowright","1","arrowleft","[0.675,0.325,0.85,0.15]","","",""
"sailing-trial","100","684996","0.0-11.0-63.0","","","","false","","","","","","","","","","null","","1214","","3","0","null","null","arrowup","[0.675,0.325,0.85,0.15]","","",""
"sailing-trial","101","689509","0.0-11.0-64.0","","","","false","","","","","","","","","","855","","35","","2","1","arrowright","1","arrowleft","[0.675,0.325,0.85,0.15]","","",""
"sailing-trial","102","693824","0.0-11.0-65.0","","","","false","","","","","","","","","","null","","2026.0000000001164","","2","1","null","null","arrowup","[0.675,0.325,0.85,0.15]","","",""
"sailing-trial","103","698475","0.0-11.0-66.0","","","","false","","","","","","","","","","826","","34","","2","1","arrowright","1","arrowleft","[0.675,0.325,0.85,0.15]","","",""
"sailing-trial","104","701386","0.0-11.0-67.0","","","","false","","","","","","","","","","null","","1417.9999999998836","","3","0","null","null","arrowup","[0.675,0.325,0.85,0.15]","","",""
"sailing-trial","105","705577","0.0-11.0-68.0","","","","false","","","","","","","","","","764","","239","","2","0","arrowright","1","arrowleft","[0.325,0.675,0.15,0.85]","","",""
"sailing-trial","106","708842","0.0-11.0-69.0","","","","false","","","","","","","","","","null","","1152.9999999998836","","1","1","null","null","arrowup","[0.325,0.675,0.15,0.85]","","",""
"sailing-trial","107","713792","0.0-11.0-70.0","","","","false","","","","","","","","","","740","","442.0000000001164","","1","1","arrowleft","0","arrowright","[0.325,0.675,0.15,0.85]","","",""
"sailing-trial","108","716808","0.0-11.0-71.0","","","","false","","","","","","","","","","null","","928","","2","1","null","null","arrowup","[0.325,0.675,0.15,0.85]","","",""
"sailing-trial","109","721825","0.0-11.0-72.0","","","","false","","","","","","","","","","674.9999999998836","","2","","1","1","arrowleft","0","arrowright","[0.325,0.675,0.15,0.85]","","",""
"sailing-trial","110","725458","0.0-11.0-73.0","","","","false","","","","","","","","","","null","","1537","","1","1","null","null","arrowup","[0.325,0.675,0.15,0.85]","","",""
"sailing-trial","111","730140","0.0-11.0-74.0","","","","false","","","","","","","","","","693","","50.999999999883585","","1","1","arrowleft","0","arrowright","[0.325,0.675,0.15,0.85]","","",""
"sailing-trial","112","733591","0.0-11.0-75.0","","","","false","","","","","","","","","","null","","1421","","2","0","null","null","arrowup","[0.325,0.675,0.15,0.85]","","",""
"sailing-trial","113","740291","0.0-11.0-76.0","","","","false","","","","","","","","","","3062.0000000001164","","55.999999999883585","","3","1","arrowright","1","arrowright","[0.325,0.675,0.15,0.85]","","",""
"sailing-trial","114","743317","0.0-11.0-77.0","","","","false","","","","","","","","","","null","","1918","","3","0","null","null","arrowup","[0.325,0.675,0.15,0.85]","","",""
"sailing-trial","115","749457","0.0-11.0-78.0","","","","false","","","","","","","","","","3206","","67","","0","0","arrowleft","0","arrowleft","[0.325,0.675,0.15,0.85]","","",""
"sailing-trial","116","752109","0.0-11.0-79.0","","","","false","","","","","","","","","","null","","1063.9999999998836","","2","0","null","null","arrowup","[0.325,0.675,0.15,0.85]","","",""
"sailing-trial","117","757673","0.0-11.0-80.0","","","","false","","","","","","","","","","2220","","45","","1","1","arrowleft","0","arrowright","[0.325,0.675,0.15,0.85]","","",""
"sailing-trial","118","760157","0.0-11.0-81.0","","","","false","","","","","","","","","","null","","965","","0","0","null","null","arrowup","[0.325,0.675,0.15,0.85]","","",""
"sailing-trial","119","764574","0.0-11.0-82.0","","","","false","","","","","","","","","","746","","280","","1","1","arrowleft","0","arrowright","[0.325,0.675,0.15,0.85]","","",""
"sailing-trial","120","767826","0.0-11.0-83.0","","","","false","","","","","","","","","","null","","1117","","0","1","null","null","arrowup","[0.325,0.675,0.15,0.85]","","",""
"sailing-trial","121","771465","0.0-11.0-84.0","","","","false","","","","","","","","","","620","","47.000000000116415","","1","1","arrowleft","0","arrowright","[0.325,0.675,0.15,0.85]","","",""
"sailing-trial","122","775057","0.0-11.0-85.0","","","","false","","","","","","","","","","null","","2075.9999999998836","","0","0","null","null","arrowup","[0.325,0.675,0.15,0.85]","","",""
"sailing-trial","123","779838","0.0-11.0-86.0","","","","false","","","","","","","","","","1371.9999999998836","","130.00000000011642","","1","1","arrowleft","0","arrowright","[0.15,0.85,0.325,0.675]","","",""
"sailing-trial","124","782388","0.0-11.0-87.0","","","","false","","","","","","","","","","null","","1109.0000000001164","","2","0","null","null","arrowup","[0.15,0.85,0.325,0.675]","","",""
"sailing-trial","125","786391","0.0-11.0-88.0","","","","false","","","","","","","","","","817","","168","","1","1","arrowleft","0","arrowright","[0.15,0.85,0.325,0.675]","","",""
"sailing-trial","126","790225","0.0-11.0-89.0","","","","false","","","","","","","","","","null","","1045","","3","1","null","null","arrowup","[0.15,0.85,0.325,0.675]","","",""
"sailing-trial","127","794378","0.0-11.0-90.0","","","","false","","","","","","","","","","531.0000000001164","","34","","1","1","arrowleft","0","arrowright","[0.15,0.85,0.325,0.675]","","",""
"sailing-trial","128","796944","0.0-11.0-91.0","","","","false","","","","","","","","","","null","","1027.9999999998836","","0","0","null","null","arrowup","[0.15,0.85,0.325,0.675]","","",""
"sailing-trial","129","801112","0.0-11.0-92.0","","","","false","","","","","","","","","","835","","34.999999999883585","","1","1","arrowleft","0","arrowright","[0.15,0.85,0.325,0.675]","","",""
"sailing-trial","130","804097","0.0-11.0-93.0","","","","false","","","","","","","","","","null","","952","","3","1","null","null","arrowup","[0.15,0.85,0.325,0.675]","","",""
"sailing-trial","131","808230","0.0-11.0-94.0","","","","false","","","","","","","","","","989.0000000001164","","131.00000000011642","","1","1","arrowleft","0","arrowright","[0.15,0.85,0.325,0.675]","","",""
"sailing-trial","132","810764","0.0-11.0-95.0","","","","false","","","","","","","","","","null","","953.0000000001164","","0","0","null","null","arrowup","[0.15,0.85,0.325,0.675]","","",""
"sailing-trial","133","814597","0.0-11.0-96.0","","","","false","","","","","","","","","","653","","81.00000000011642","","1","1","arrowleft","0","arrowright","[0.15,0.85,0.325,0.675]","","",""
"sailing-trial","134","817731","0.0-11.0-97.0","","","","false","","","","","","","","","","null","","1055","","2","1","null","null","arrowup","[0.15,0.85,0.325,0.675]","","",""
"sailing-trial","135","821513","0.0-11.0-98.0","","","","false","","","","","","","","","","600","","80.00000000011642","","1","1","arrowleft","0","arrowright","[0.15,0.85,0.325,0.675]","","",""
"sailing-trial","136","824681","0.0-11.0-99.0","","","","false","","","","","","","","","","null","","988.0000000001164","","3","1","null","null","arrowup","[0.15,0.85,0.325,0.675]","","",""
"sailing-trial","137","828897","0.0-11.0-100.0","","","","false","","","","","","","","","","716","","194","","1","1","arrowleft","0","arrowright","[0.15,0.85,0.325,0.675]","","",""
"sailing-trial","138","831549","0.0-11.0-101.0","","","","false","","","","","","","","","","null","","986","","2","0","null","null","arrowup","[0.15,0.85,0.325,0.675]","","",""
"sailing-trial","139","835581","0.0-11.0-102.0","","","","false","","","","","","","","","","692.9999999998836","","119","","1","1","arrowleft","0","arrowright","[0.325,0.675,0.15,0.85]","","",""
"sailing-trial","140","839431","0.0-11.0-103.0","","","","false","","","","","","","","","","null","","1894","","1","1","null","null","arrowup","[0.325,0.675,0.15,0.85]","","",""
"sailing-trial","141","843863","0.0-11.0-104.0","","","","false","","","","","","","","","","869.0000000001164","","237","","1","1","arrowleft","0","arrowright","[0.325,0.675,0.15,0.85]","","",""
"sailing-trial","142","847531","0.0-11.0-105.0","","","","false","","","","","","","","","","null","","2097","","0","0","null","null","arrowup","[0.325,0.675,0.15,0.85]","","",""
"sailing-trial","143","851332","0.0-11.0-106.0","","","","false","","","","","","","","","","524","","1","","1","1","arrowleft","0","arrowright","[0.325,0.675,0.15,0.85]","","",""
"sailing-trial","144","853872","0.0-11.0-107.0","","","","false","","","","","","","","","","null","","1126","","0","0","null","null","arrowup","[0.325,0.675,0.15,0.85]","","",""
"sailing-trial","145","857428","0.0-11.0-108.0","","","","false","","","","","","","","","","753.9999999998836","","141.00000000011642","","1","0","arrowleft","0","arrowright","[0.325,0.675,0.15,0.85]","","",""
"sailing-trial","146","860100","0.0-11.0-109.0","","","","false","","","","","","","","","","null","","1158","","2","0","null","null","arrowup","[0.325,0.675,0.15,0.85]","","",""
"sailing-trial","147","864247","0.0-11.0-110.0","","","","false","","","","","","","","","","581","","64.99999999988358","","3","1","arrowright","1","arrowright","[0.325,0.675,0.15,0.85]","","",""
"sailing-trial","148","866965","0.0-11.0-111.0","","","","false","","","","","","","","","","null","","1038","","0","1","null","null","arrowup","[0.325,0.675,0.15,0.85]","","",""
"sailing-trial","149","877580","0.0-11.0-112.0","","","","false","","","","","","","","","","595.0000000001164","","35","","3","1","arrowright","1","arrowright","[0.325,0.675,0.15,0.85]","","",""
"sailing-trial","150","880565","0.0-11.0-113.0","","","","false","","","","","","","","","","null","","1289.9999999998836","","3","1","null","null","arrowup","[0.325,0.675,0.15,0.85]","","",""
"sailing-trial","151","885930","0.0-11.0-114.0","","","","false","","","","","","","","","","879","","34","","3","1","arrowright","1","arrowright","[0.325,0.675,0.15,0.85]","","",""
"sailing-trial","152","892531","0.0-11.0-115.0","","","","false","","","","","","","","","","null","","4806.999999999884","","3","1","null","null","arrowup","[0.325,0.675,0.15,0.85]","","",""
"sailing-trial","153","897098","0.0-11.0-116.0","","","","false","","","","","","","","","","313","","166","","3","1","arrowright","1","arrowright","[0.325,0.675,0.15,0.85]","","",""
"sailing-trial","154","899659","0.0-11.0-117.0","","","","false","","","","","","","","","","null","","1279","","0","0","null","null","arrowup","[0.325,0.675,0.15,0.85]","","",""
"sailing-trial","155","906647","0.0-11.0-118.0","","","","false","","","","","","","","","","975","","48","","3","1","arrowright","1","arrowright","[0.325,0.675,0.15,0.85]","","",""
"sailing-trial","156","910481","0.0-11.0-119.0","","","","false","","","","","","","","","","null","","1446","","2","1","null","null","arrowup","[0.325,0.675,0.15,0.85]","","",""
"sailing-trial","157","914596","0.0-11.0-120.0","","","","false","","","","","","","","","","420.0000000001164","","10","","3","1","arrowright","1","arrowright","[0.325,0.675,0.15,0.85]","","",""
"sailing-trial","158","917414","0.0-11.0-121.0","","","","false","","","","","","","","","","null","","1103","","0","1","null","null","arrowup","[0.325,0.675,0.15,0.85]","","",""
"sailing-trial","159","921231","0.0-11.0-122.0","","","","false","","","","","","","","","","565.0000000001164","","259.0000000001164","","3","1","arrowright","1","arrowright","[0.15,0.85,0.325,0.675]","","",""
"sailing-trial","160","923930","0.0-11.0-123.0","","","","false","","","","","","","","","","null","","1020","","2","1","null","null","arrowup","[0.15,0.85,0.325,0.675]","","",""
"sailing-trial","161","927796","0.0-11.0-124.0","","","","false","","","","","","","","","","928","","86","","3","0","arrowright","1","arrowright","[0.15,0.85,0.325,0.675]","","",""
"sailing-trial","162","931264","0.0-11.0-125.0","","","","false","","","","","","","","","","null","","1365","","1","1","null","null","arrowup","[0.15,0.85,0.325,0.675]","","",""
"sailing-trial","163","935614","0.0-11.0-126.0","","","","false","","","","","","","","","","764","","34","","2","1","arrowright","1","arrowleft","[0.15,0.85,0.325,0.675]","","",""
"sailing-trial","164","938886","0.0-11.0-127.0","","","","false","","","","","","","","","","null","","1966.9999999998836","","2","0","null","null","arrowup","[0.15,0.85,0.325,0.675]","","",""
"sailing-trial","165","943597","0.0-11.0-128.0","","","","false","","","","","","","","","","1331","","83","","1","1","arrowleft","0","arrowright","[0.15,0.85,0.325,0.675]","","",""
"sailing-trial","166","946763","0.0-11.0-129.0","","","","false","","","","","","","","","","null","","1153","","1","1","null","null","arrowup","[0.15,0.85,0.325,0.675]","","",""
"sailing-trial","167","951047","0.0-11.0-130.0","","","","false","","","","","","","","","","731.9999999998836","","334.0000000001164","","1","1","arrowleft","0","arrowright","[0.15,0.85,0.325,0.675]","","",""
"sailing-trial","168","953313","0.0-11.0-131.0","","","","false","","","","","","","","","","null","","1165","","0","0","null","null","arrowup","[0.15,0.85,0.325,0.675]","","",""
"sailing-trial","169","957414","0.0-11.0-132.0","","","","false","","","","","","","","","","669","","148.00000000011642","","1","1","arrowleft","0","arrowright","[0.15,0.85,0.325,0.675]","","",""
"sailing-trial","170","960947","0.0-11.0-133.0","","","","false","","","","","","","","","","null","","1562","","3","1","null","null","arrowup","[0.15,0.85,0.325,0.675]","","",""
"sailing-trial","171","964475","0.0-11.0-134.0","","","","false","","","","","","","","","","547","","73","","1","0","arrowleft","0","arrowright","[0.15,0.85,0.325,0.675]","","",""
"sailing-trial","172","966927","0.0-11.0-135.0","","","","false","","","","","","","","","","null","","940","","2","0","null","null","arrowup","[0.15,0.85,0.325,0.675]","","",""
"sailing-trial","173","971363","0.0-11.0-136.0","","","","false","","","","","","","","","","667","","41","","3","1","arrowright","1","arrowright","[0.15,0.85,0.325,0.675]","","",""
"sailing-trial","174","973659","0.0-11.0-137.0","","","","false","","","","","","","","","","null","","871.0000000001164","","2","0","null","null","arrowup","[0.15,0.85,0.325,0.675]","","",""
"sailing-trial","175","977597","0.0-11.0-138.0","","","","false","","","","","","","","","","350","","136","","3","1","arrowright","1","arrowright","[0.15,0.85,0.325,0.675]","","",""
"sailing-trial","176","981013","0.0-11.0-139.0","","","","false","","","","","","","","","","null","","1417.0000000001164","","1","1","null","null","arrowup","[0.15,0.85,0.325,0.675]","","",""
"sailing-trial","177","984930","0.0-11.0-140.0","","","","false","","","","","","","","","","533.9999999998836","","163","","3","1","arrowright","1","arrowright","[0.85,0.15,0.675,0.325]","","",""
"sailing-trial","178","991793","0.0-11.0-141.0","","","","false","","","","","","","","","","null","","5397","","3","0","null","null","arrowup","[0.85,0.15,0.675,0.325]","","",""
"sailing-trial","179","1000211","0.0-11.0-142.0","","","","false","","","","","","","","","","4824","","168","","2","0","arrowright","1","arrowleft","[0.85,0.15,0.675,0.325]","","",""
"sailing-trial","180","1003644","0.0-11.0-143.0","","","","false","","","","","","","","","","null","","1989.0000000001164","","3","0","null","null","arrowup","[0.85,0.15,0.675,0.325]","","",""
"sailing-trial","181","1007328","0.0-11.0-144.0","","","","false","","","","","","","","","","601","","234.00000000011642","","1","0","arrowleft","0","arrowright","[0.85,0.15,0.675,0.325]","","",""
"sailing-trial","182","1009733","0.0-11.0-145.0","","","","false","","","","","","","","","","null","","905","","1","0","null","null","arrowup","[0.85,0.15,0.675,0.325]","","",""
"sailing-trial","183","1013563","0.0-11.0-146.0","","","","false","","","","","","","","","","466.9999999998836","","91","","0","1","arrowleft","0","arrowleft","[0.85,0.15,0.675,0.325]","","",""
"sailing-trial","184","1016429","0.0-11.0-147.0","","","","false","","","","","","","","","","null","","1156","","0","1","null","null","arrowup","[0.85,0.15,0.675,0.325]","","",""
"sailing-trial","185","1020989","0.0-11.0-148.0","","","","false","","","","","","","","","","874","","130","","0","0","arrowleft","0","arrowleft","[0.85,0.15,0.675,0.325]","","",""
"sailing-trial","186","1023996","0.0-11.0-149.0","","","","false","","","","","","","","","","null","","998","","3","1","null","null","arrowup","[0.85,0.15,0.675,0.325]","","",""
"sailing-trial","187","1028964","0.0-11.0-150.0","","","","false","","","","","","","","","","608.0000000002328","","49","","3","0","arrowright","1","arrowright","[0.85,0.15,0.675,0.325]","","",""
"sailing-trial","188","1033814","0.0-11.0-151.0","","","","false","","","","","","","","","","null","","1843.0000000001164","","1","0","null","null","arrowup","[0.85,0.15,0.675,0.325]","","",""
"sailing-trial","189","1041487","0.0-11.0-152.0","","","","false","","","","","","","","","","4713","","33.000000000116415","","1","0","arrowleft","0","arrowright","[0.85,0.15,0.675,0.325]","","",""
"sailing-trial","190","1044164","0.0-11.0-153.0","","","","false","","","","","","","","","","null","","1194","","1","0","null","null","arrowup","[0.85,0.15,0.675,0.325]","","",""
"sailing-trial","191","1048446","0.0-11.0-154.0","","","","false","","","","","","","","","","704","","113.99999999976717","","2","1","arrowright","1","arrowleft","[0.85,0.15,0.675,0.325]","","",""
"sailing-trial","192","1051346","0.0-11.0-155.0","","","","false","","","","","","","","","","null","","1141","","3","1","null","null","arrowup","[0.85,0.15,0.675,0.325]","","",""
"sailing-trial","193","1054801","0.0-11.0-156.0","","","","false","","","","","","","","","","586","","157","","2","0","arrowright","1","arrowleft","[0.85,0.15,0.675,0.325]","","",""
"sailing-trial","194","1057828","0.0-11.0-157.0","","","","false","","","","","","","","","","null","","992","","2","1","null","null","arrowup","[0.85,0.15,0.675,0.325]","","",""
"sailing-trial","195","1061356","0.0-11.0-158.0","","","","false","","","","","","","","","","492","","153","","3","0","arrowright","1","arrowright","[0.85,0.15,0.675,0.325]","","",""
"sailing-trial","196","1064696","0.0-11.0-159.0","","","","false","","","","","","","","","","null","","1174","","3","1","null","null","arrowup","[0.85,0.15,0.675,0.325]","","",""
"sailing-trial","197","1070396","0.0-11.0-160.0","","","","false","","","","","","","","","","624","","1558","","0","1","arrowleft","0","arrowleft","[0.85,0.15,0.675,0.325]","","",""
"sailing-trial","198","1073082","0.0-11.0-161.0","","","","false","","","","","","","","","","null","","1188.0000000002328","","3","0","null","null","arrowup","[0.85,0.15,0.675,0.325]","","",""
"sailing-trial","199","1077267","0.0-11.0-162.0","","","","false","","","","","","","","","","281.00000000023283","","360","","0","0","arrowleft","0","arrowleft","[0.675,0.325,0.85,0.15]","","",""
"sailing-trial","200","1079899","0.0-11.0-163.0","","","","false","","","","","","","","","","null","","1022.9999999997672","","3","0","null","null","arrowup","[0.675,0.325,0.85,0.15]","","",""
"sailing-trial","201","1084298","0.0-11.0-164.0","","","","false","","","","","","","","","","638","","836","","1","0","arrowleft","0","arrowright","[0.675,0.325,0.85,0.15]","","",""
"sailing-trial","202","1087661","0.0-11.0-165.0","","","","false","","","","","","","","","","null","","1083","","3","1","null","null","arrowup","[0.675,0.325,0.85,0.15]","","",""
"sailing-trial","203","1091994","0.0-11.0-166.0","","","","false","","","","","","","","","","614.0000000002328","","103","","3","0","arrowright","1","arrowright","[0.675,0.325,0.85,0.15]","","",""
"sailing-trial","204","1094507","0.0-11.0-167.0","","","","false","","","","","","","","","","null","","925","","0","0","null","null","arrowup","[0.675,0.325,0.85,0.15]","","",""
"sailing-trial","205","1100260","0.0-11.0-168.0","","","","false","","","","","","","","","","2434","","507","","3","0","arrowright","1","arrowright","[0.675,0.325,0.85,0.15]","","",""
"sailing-trial","206","1103196","0.0-11.0-169.0","","","","false","","","","","","","","","","null","","914","","0","1","null","null","arrowup","[0.675,0.325,0.85,0.15]","","",""
"sailing-trial","207","1109112","0.0-11.0-170.0","","","","false","","","","","","","","","","28","","1","","0","1","arrowleft","0","arrowleft","[0.675,0.325,0.85,0.15]","","",""
"sailing-trial","208","1112336","0.0-11.0-171.0","","","","false","","","","","","","","","","null","","1398","","2","1","null","null","arrowup","[0.675,0.325,0.85,0.15]","","",""
"sailing-trial","209","1116179","0.0-11.0-172.0","","","","false","","","","","","","","","","388","","212","","0","1","arrowleft","0","arrowleft","[0.675,0.325,0.85,0.15]","","",""
"sailing-trial","210","1118569","0.0-11.0-173.0","","","","false","","","","","","","","","","null","","1263","","0","0","null","null","arrowup","[0.675,0.325,0.85,0.15]","","",""
"sailing-trial","211","1121895","0.0-11.0-174.0","","","","false","","","","","","","","","","465","","91","","0","0","arrowleft","0","arrowleft","[0.675,0.325,0.85,0.15]","","",""
"sailing-trial","212","1124696","0.0-11.0-175.0","","","","false","","","","","","","","","","null","","1082","","2","1","null","null","arrowup","[0.675,0.325,0.85,0.15]","","",""
"sailing-trial","213","1128429","0.0-11.0-176.0","","","","false","","","","","","","","","","452","","34","","2","1","arrowright","1","arrowleft","[0.675,0.325,0.85,0.15]","","",""
"sailing-trial","214","1131178","0.0-11.0-177.0","","","","false","","","","","","","","","","null","","1052","","2","1","null","null","arrowup","[0.675,0.325,0.85,0.15]","","",""
"sailing-trial","215","1135262","0.0-11.0-178.0","","","","false","","","","","","","","","","606","","87.99999999976717","","2","1","arrowright","1","arrowleft","[0.85,0.15,0.675,0.325]","","",""
"sailing-trial","216","1141223","0.0-11.0-179.0","","","","false","","","","","","","","","","null","","3602","","3","0","null","null","arrowup","[0.85,0.15,0.675,0.325]","","",""
"sailing-trial","217","1147474","0.0-11.0-180.0","","","","false","","","","","","","","","","2270","","115","","2","0","arrowright","1","arrowleft","[0.85,0.15,0.675,0.325]","","",""
"sailing-trial","218","1150951","0.0-11.0-181.0","","","","false","","","","","","","","","","null","","1418.0000000002328","","0","0","null","null","arrowup","[0.85,0.15,0.675,0.325]","","",""
"sailing-trial","219","1155928","0.0-11.0-182.0","","","","false","","","","","","","","","","894","","174","","1","1","arrowleft","0","arrowright","[0.85,0.15,0.675,0.325]","","",""
"sailing-trial","220","1162496","0.0-11.0-183.0","","","","false","","","","","","","","","","null","","4697","","1","0","null","null","arrowup","[0.85,0.15,0.675,0.325]","","",""
"sailing-trial","221","1166989","0.0-11.0-184.0","","","","false","","","","","","","","","","1457","","6","","3","0","arrowright","1","arrowright","[0.85,0.15,0.675,0.325]","","",""
"sailing-trial","222","1170430","0.0-11.0-185.0","","","","false","","","","","","","","","","null","","1792.9999999997672","","1","0","null","null","arrowup","[0.85,0.15,0.675,0.325]","","",""
"sailing-trial","223","1174042","0.0-11.0-186.0","","","","false","","","","","","","","","","612","","151","","2","0","arrowright","1","arrowleft","[0.85,0.15,0.675,0.325]","","",""
"sailing-trial","224","1176880","0.0-11.0-187.0","","","","false","","","","","","","","","","null","","1368","","3","0","null","null","arrowup","[0.85,0.15,0.675,0.325]","","",""
"sailing-trial","225","1180268","0.0-11.0-188.0","","","","false","","","","","","","","","","568","","4","","1","0","arrowleft","0","arrowright","[0.85,0.15,0.675,0.325]","","",""
"sailing-trial","226","1183172","0.0-11.0-189.0","","","","false","","","","","","","","","","null","","1158.9999999997672","","1","0","null","null","arrowup","[0.85,0.15,0.675,0.325]","","",""
"sailing-trial","227","1186545","0.0-11.0-190.0","","","","false","","","","","","","","","","369.99999999976717","","63","","0","1","arrowleft","0","arrowleft","[0.85,0.15,0.675,0.325]","","",""
"sailing-trial","228","1189511","0.0-11.0-191.0","","","","false","","","","","","","","","","null","","1237","","3","0","null","null","arrowup","[0.85,0.15,0.675,0.325]","","",""
"sailing-trial","229","1193728","0.0-11.0-192.0","","","","false","","","","","","","","","","750","","48","","0","1","arrowleft","0","arrowleft","[0.85,0.15,0.675,0.325]","","",""
"sailing-trial","230","1198694","0.0-11.0-193.0","","","","false","","","","","","","","","","null","","3448","","1","0","null","null","arrowup","[0.85,0.15,0.675,0.325]","","",""
"sailing-trial","231","1204577","0.0-11.0-194.0","","","","false","","","","","","","","","","867","","34.00000000023283","","0","1","arrowleft","0","arrowleft","[0.85,0.15,0.675,0.325]","","",""
"sailing-trial","232","1208328","0.0-11.0-195.0","","","","false","","","","","","","","","","null","","2000","","0","1","null","null","arrowup","[0.85,0.15,0.675,0.325]","","",""
"sailing-trial","233","1219945","0.0-11.0-196.0","","","","false","","","","","","","","","","6921","","688","","0","1","arrowleft","0","arrowleft","[0.85,0.15,0.675,0.325]","","",""
"sailing-trial","234","1222504","0.0-11.0-197.0","","","","false","","","","","","","","","","null","","1381.0000000002328","","3","0","null","null","arrowup","[0.85,0.15,0.675,0.325]","","",""
"sailing-trial","235","1226595","0.0-11.0-198.0","","","","false","","","","","","","","","","650","","124","","0","1","arrowleft","0","arrowleft","[0.85,0.15,0.675,0.325]","","",""
"sailing-trial","236","1229578","0.0-11.0-199.0","","","","false","","","","","","","","","","null","","1016","","2","1","null","null","arrowup","[0.85,0.15,0.675,0.325]","","",""
"sailing-trial","237","1233478","0.0-11.0-200.0","","","","false","","","","","","","","","","104","","183","","0","1","arrowleft","0","arrowleft","[0.85,0.15,0.675,0.325]","","",""
"sailing-trial","238","1236137","0.0-11.0-201.0","","","","false","","","","","","","","","","null","","1106","","1","0","null","null","arrowup","[0.85,0.15,0.675,0.325]","","",""
"sailing-trial","239","1240286","0.0-11.0-202.0","","","","false","","","","","","","","","","672","","99","","0","0","arrowleft","0","arrowleft","[0.325,0.675,0.15,0.85]","","",""
"sailing-trial","240","1243528","0.0-11.0-203.0","","","","false","","","","","","","","","","null","","1767","","0","0","null","null","arrowup","[0.325,0.675,0.15,0.85]","","",""
"sailing-trial","241","1247429","0.0-11.0-204.0","","","","false","","","","","","","","","","603.9999999997672","","329","","2","1","arrowright","1","arrowleft","[0.325,0.675,0.15,0.85]","","",""
"sailing-trial","242","1251796","0.0-11.0-205.0","","","","false","","","","","","","","","","null","","3036","","3","0","null","null","arrowup","[0.325,0.675,0.15,0.85]","","",""
"sailing-trial","243","1255661","0.0-11.0-206.0","","","","false","","","","","","","","","","792.9999999997672","","284","","2","0","arrowright","1","arrowleft","[0.325,0.675,0.15,0.85]","","",""
"sailing-trial","244","1258036","0.0-11.0-207.0","","","","false","","","","","","","","","","null","","960","","1","0","null","null","arrowup","[0.325,0.675,0.15,0.85]","","",""
"sailing-trial","245","1262944","0.0-11.0-208.0","","","","false","","","","","","","","","","1253","","1","","1","1","arrowleft","0","arrowright","[0.325,0.675,0.15,0.85]","","",""
"sailing-trial","246","1265927","0.0-11.0-209.0","","","","false","","","","","","","","","","null","","948","","1","1","null","null","arrowup","[0.325,0.675,0.15,0.85]","","",""
"sailing-trial","247","1269861","0.0-11.0-210.0","","","","false","","","","","","","","","","565","","274","","1","1","arrowleft","0","arrowright","[0.325,0.675,0.15,0.85]","","",""
"sailing-trial","248","1272327","0.0-11.0-211.0","","","","false","","","","","","","","","","null","","1089","","2","0","null","null","arrowup","[0.325,0.675,0.15,0.85]","","",""
"sailing-trial","249","1276160","0.0-11.0-212.0","","","","false","","","","","","","","","","511.99999999976717","","67","","1","1","arrowleft","0","arrowright","[0.325,0.675,0.15,0.85]","","",""
"sailing-trial","250","1281177","0.0-11.0-213.0","","","","false","","","","","","","","","","null","","3218","","1","1","null","null","arrowup","[0.325,0.675,0.15,0.85]","","",""
"sailing-trial","251","1286127","0.0-11.0-214.0","","","","false","","","","","","","","","","1457.0000000002328","","126","","1","1","arrowleft","0","arrowright","[0.325,0.675,0.15,0.85]","","",""
"sailing-trial","252","1292243","0.0-11.0-215.0","","","","false","","","","","","","","","","null","","4104","","2","1","null","null","arrowup","[0.325,0.675,0.15,0.85]","","",""
"sailing-trial","253","1296177","0.0-11.0-216.0","","","","false","","","","","","","","","","742","","103","","1","1","arrowleft","0","arrowright","[0.325,0.675,0.15,0.85]","","",""
"sailing-trial","254","1298619","0.0-11.0-217.0","","","","false","","","","","","","","","","null","","988","","2","0","null","null","arrowup","[0.325,0.675,0.15,0.85]","","",""
"sailing-trial","255","1303760","0.0-11.0-218.0","","","","false","","","","","","","","","","1639","","35.99999999976717","","1","1","arrowleft","0","arrowright","[0.325,0.675,0.15,0.85]","","",""
"sailing-trial","256","1318763","0.0-11.0-219.0","","","","true","","","","","","","","","","null","","null","","null","null","null","null","null","[0.325,0.675,0.15,0.85]","","",""
"sailing-trial","257","1335844","0.0-11.0-220.0","","","","false","","","","","","","","","","8353.000000000233","","42","","1","1","arrowleft","0","arrowright","[0.325,0.675,0.15,0.85]","","",""
"sailing-trial","258","1339060","0.0-11.0-221.0","","","","false","","","","","","","","","","null","","1453","","3","1","null","null","arrowup","[0.325,0.675,0.15,0.85]","","",""
"sailing-trial","259","1343877","0.0-11.0-222.0","","","","false","","","","","","","","","","1067","","35","","1","0","arrowleft","0","arrowright","[0.325,0.675,0.15,0.85]","","",""
"sailing-trial","260","1347860","0.0-11.0-223.0","","","","false","","","","","","","","","","null","","2114.000000000233","","1","1","null","null","arrowup","[0.325,0.675,0.15,0.85]","","",""
"sailing-trial","261","1355230","0.0-11.0-224.0","","","","false","","","","","","","","","","3355","","635","","3","0","arrowright","1","arrowright","[0.15,0.85,0.325,0.675]","","",""
"sailing-trial","262","1357917","0.0-11.0-225.0","","","","false","","","","","","","","","","null","","1579","","3","0","null","null","arrowup","[0.15,0.85,0.325,0.675]","","",""
"sailing-trial","263","1361926","0.0-11.0-226.0","","","","false","","","","","","","","","","957","","185.99999999976717","","0","0","arrowleft","0","arrowleft","[0.15,0.85,0.325,0.675]","","",""
"sailing-trial","264","1364294","0.0-11.0-227.0","","","","false","","","","","","","","","","null","","911","","0","0","null","null","arrowup","[0.15,0.85,0.325,0.675]","","",""
"sailing-trial","265","1367547","0.0-11.0-228.0","","","","false","","","","","","","","","","694","","1","","2","0","arrowright","1","arrowleft","[0.15,0.85,0.325,0.675]","","",""
"sailing-trial","266","1370409","0.0-11.0-229.0","","","","false","","","","","","","","","","null","","939","","2","1","null","null","arrowup","[0.15,0.85,0.325,0.675]","","",""
"sailing-trial","267","1374893","0.0-11.0-230.0","","","","false","","","","","","","","","","706","","91","","1","1","arrowleft","0","arrowright","[0.15,0.85,0.325,0.675]","","",""
"sailing-trial","268","1377678","0.0-11.0-231.0","","","","false","","","","","","","","","","null","","1366","","2","0","null","null","arrowup","[0.15,0.85,0.325,0.675]","","",""
"sailing-trial","269","1381676","0.0-11.0-232.0","","","","false","","","","","","","","","","522","","127","","1","1","arrowleft","0","arrowright","[0.15,0.85,0.325,0.675]","","",""
"sailing-trial","270","1384310","0.0-11.0-233.0","","","","false","","","","","","","","","","null","","942","","3","1","null","null","arrowup","[0.15,0.85,0.325,0.675]","","",""
"sailing-trial","271","1388244","0.0-11.0-234.0","","","","false","","","","","","","","","","196","","319","","1","1","arrowleft","0","arrowright","[0.15,0.85,0.325,0.675]","","",""
"sailing-trial","272","1390960","0.0-11.0-235.0","","","","false","","","","","","","","","","null","","841","","1","1","null","null","arrowup","[0.15,0.85,0.325,0.675]","","",""
"sailing-trial","273","1395077","0.0-11.0-236.0","","","","false","","","","","","","","","","605","","77","","1","1","arrowleft","0","arrowright","[0.15,0.85,0.325,0.675]","","",""
"sailing-trial","274","1397498","0.0-11.0-237.0","","","","false","","","","","","","","","","null","","875","","2","0","null","null","arrowup","[0.15,0.85,0.325,0.675]","","",""
"sailing-trial","275","1401343","0.0-11.0-238.0","","","","false","","","","","","","","","","446.00000000023283","","40.00000000023283","","1","1","arrowleft","0","arrowright","[0.15,0.85,0.325,0.675]","","",""
"sailing-trial","276","1403411","0.0-11.0-239.0","","","","false","","","","","","","","","","null","","898.0000000002328","","2","0","null","null","arrowup","[0.15,0.85,0.325,0.675]","","",""
"sailing-trial","277","1407394","0.0-11.0-240.0","","","","false","","","","","","","","","","510","","146","","1","1","arrowleft","0","arrowright","[0.15,0.85,0.325,0.675]","","",""
"sailing-trial","278","1411111","0.0-11.0-241.0","","","","false","","","","","","","","","","null","","1780","","1","1","null","null","arrowup","[0.15,0.85,0.325,0.675]","","",""
"sailing-trial","279","1414927","0.0-11.0-242.0","","","","false","","","","","","","","","","462","","107.99999999976717","","1","1","arrowleft","0","arrowright","[0.325,0.675,0.15,0.85]","","",""
"sailing-trial","280","1417726","0.0-11.0-243.0","","","","false","","","","","","","","","","null","","1053","","3","1","null","null","arrowup","[0.325,0.675,0.15,0.85]","","",""
"sailing-trial","281","1422027","0.0-11.0-244.0","","","","false","","","","","","","","","","455","","126.00000000023283","","1","1","arrowleft","0","arrowright","[0.325,0.675,0.15,0.85]","","",""
"sailing-trial","282","1425505","0.0-11.0-245.0","","","","false","","","","","","","","","","null","","2263.000000000233","","2","0","null","null","arrowup","[0.325,0.675,0.15,0.85]","","",""
"sailing-trial","283","1429127","0.0-11.0-246.0","","","","false","","","","","","","","","","551","","98","","1","1","arrowleft","0","arrowright","[0.325,0.675,0.15,0.85]","","",""
"sailing-trial","284","1431481","0.0-11.0-247.0","","","","false","","","","","","","","","","null","","1145.9999999997672","","1","0","null","null","arrowup","[0.325,0.675,0.15,0.85]","","",""
"sailing-trial","285","1435092","0.0-11.0-248.0","","","","false","","","","","","","","","","511.00000000023283","","308.99999999976717","","1","0","arrowleft","0","arrowright","[0.325,0.675,0.15,0.85]","","",""
"sailing-trial","286","1437222","0.0-11.0-249.0","","","","false","","","","","","","","","","null","","898","","2","0","null","null","arrowup","[0.325,0.675,0.15,0.85]","","",""
"sailing-trial","287","1440559","0.0-11.0-250.0","","","","false","","","","","","","","","","353","","129","","3","0","arrowright","1","arrowright","[0.325,0.675,0.15,0.85]","","",""
"sailing-trial","288","1444043","0.0-11.0-251.0","","","","false","","","","","","","","","","null","","1495.9999999997672","","3","1","null","null","arrowup","[0.325,0.675,0.15,0.85]","","",""
"sailing-trial","289","1448809","0.0-11.0-252.0","","","","false","","","","","","","","","","1246","","136","","3","1","arrowright","1","arrowright","[0.325,0.675,0.15,0.85]","","",""
"sailing-trial","290","1451659","0.0-11.0-253.0","","","","false","","","","","","","","","","null","","1001.9999999997672","","1","1","null","null","arrowup","[0.325,0.675,0.15,0.85]","","",""
"sailing-trial","291","1455426","0.0-11.0-254.0","","","","false","","","","","","","","","","120","","250","","3","1","arrowright","1","arrowright","[0.325,0.675,0.15,0.85]","","",""
"sailing-trial","292","1458276","0.0-11.0-255.0","","","","false","","","","","","","","","","null","","1137","","0","1","null","null","arrowup","[0.325,0.675,0.15,0.85]","","",""
"sailing-trial","293","1462626","0.0-11.0-256.0","","","","false","","","","","","","","","","995","","90","","3","1","arrowright","1","arrowright","[0.325,0.675,0.15,0.85]","","",""
"sailing-trial","294","1465876","0.0-11.0-257.0","","","","false","","","","","","","","","","null","","1463.9999999997672","","3","1","null","null","arrowup","[0.325,0.675,0.15,0.85]","","",""
"sailing-trial","295","1471476","0.0-11.0-258.0","","","","false","","","","","","","","","","2085","","227","","3","1","arrowright","1","arrowright","[0.325,0.675,0.15,0.85]","","",""
"sailing-trial","296","1474192","0.0-11.0-259.0","","","","false","","","","","","","","","","null","","891.0000000002328","","0","1","null","null","arrowup","[0.325,0.675,0.15,0.85]","","",""
"sailing-trial","297","1478663","0.0-11.0-260.0","","","","false","","","","","","","","","","657.0000000002328","","602","","3","0","arrowright","1","arrowright","[0.15,0.85,0.325,0.675]","","",""
"sailing-trial","298","1481658","0.0-11.0-261.0","","","","false","","","","","","","","","","null","","1127.0000000002328","","0","1","null","null","arrowup","[0.15,0.85,0.325,0.675]","","",""
"sailing-trial","299","1486227","0.0-11.0-262.0","","","","false","","","","","","","","","","216","","35","","0","0","arrowleft","0","arrowleft","[0.15,0.85,0.325,0.675]","","",""
"sailing-trial","300","1489143","0.0-11.0-263.0","","","","false","","","","","","","","","","null","","1022","","2","1","null","null","arrowup","[0.15,0.85,0.325,0.675]","","",""
"sailing-trial","301","1494575","0.0-11.0-264.0","","","","false","","","","","","","","","","847","","88.00000000023283","","0","1","arrowleft","0","arrowleft","[0.15,0.85,0.325,0.675]","","",""
"sailing-trial","302","1497476","0.0-11.0-265.0","","","","false","","","","","","","","","","null","","1081.0000000002328","","0","1","null","null","arrowup","[0.15,0.85,0.325,0.675]","","",""
"sailing-trial","303","1501735","0.0-11.0-266.0","","","","false","","","","","","","","","","754","","808","","0","0","arrowleft","0","arrowleft","[0.15,0.85,0.325,0.675]","","",""
"sailing-trial","304","1504371","0.0-11.0-267.0","","","","false","","","","","","","","","","null","","1251","","0","0","null","null","arrowup","[0.15,0.85,0.325,0.675]","","",""
"sailing-trial","305","1508947","0.0-11.0-268.0","","","","false","","","","","","","","","","1664","","101","","1","0","arrowleft","0","arrowright","[0.15,0.85,0.325,0.675]","","",""
"sailing-trial","306","1511708","0.0-11.0-269.0","","","","false","","","","","","","","","","null","","912","","1","1","null","null","arrowup","[0.15,0.85,0.325,0.675]","","",""
"sailing-trial","307","1516174","0.0-11.0-270.0","","","","false","","","","","","","","","","750","","424","","2","1","arrowright","1","arrowleft","[0.15,0.85,0.325,0.675]","","",""
"sailing-trial","308","1519126","0.0-11.0-271.0","","","","false","","","","","","","","","","null","","939","","1","1","null","null","arrowup","[0.15,0.85,0.325,0.675]","","",""
"sailing-trial","309","1523275","0.0-11.0-272.0","","","","false","","","","","","","","","","668","","53","","2","1","arrowright","1","arrowleft","[0.15,0.85,0.325,0.675]","","",""
"sailing-trial","310","1525631","0.0-11.0-273.0","","","","false","","","","","","","","","","null","","1104","","2","0","null","null","arrowup","[0.15,0.85,0.325,0.675]","","",""
"sailing-trial","311","1529459","0.0-11.0-274.0","","","","false","","","","","","","","","","521","","95","","2","1","arrowright","1","arrowleft","[0.15,0.85,0.325,0.675]","","",""
"sailing-trial","312","1532079","0.0-11.0-275.0","","","","false","","","","","","","","","","null","","1168.0000000002328","","2","0","null","null","arrowup","[0.15,0.85,0.325,0.675]","","",""
"sailing-trial","313","1536142","0.0-11.0-276.0","","","","false","","","","","","","","","","566.0000000002328","","392","","1","1","arrowleft","0","arrowright","[0.325,0.675,0.15,0.85]","","",""
"sailing-trial","314","1538395","0.0-11.0-277.0","","","","false","","","","","","","","","","null","","812.0000000002328","","2","0","null","null","arrowup","[0.325,0.675,0.15,0.85]","","",""
"sailing-trial","315","1542342","0.0-11.0-278.0","","","","false","","","","","","","","","","644","","58.99999999976717","","1","1","arrowleft","0","arrowright","[0.325,0.675,0.15,0.85]","","",""
"sailing-trial","316","1544689","0.0-11.0-279.0","","","","false","","","","","","","","","","null","","875","","2","0","null","null","arrowup","[0.325,0.675,0.15,0.85]","","",""
"sailing-trial","317","1548559","0.0-11.0-280.0","","","","false","","","","","","","","","","574","","153","","1","1","arrowleft","0","arrowright","[0.325,0.675,0.15,0.85]","","",""
"sailing-trial","318","1551526","0.0-11.0-281.0","","","","false","","","","","","","","","","null","","948","","3","1","null","null","arrowup","[0.325,0.675,0.15,0.85]","","",""
"sailing-trial","319","1555190","0.0-11.0-282.0","","","","false","","","","","","","","","","506.00000000023283","","382.00000000023283","","1","0","arrowleft","0","arrowright","[0.325,0.675,0.15,0.85]","","",""
"sailing-trial","320","1557647","0.0-11.0-283.0","","","","false","","","","","","","","","","null","","900","","0","0","null","null","arrowup","[0.325,0.675,0.15,0.85]","","",""
"sailing-trial","321","1561809","0.0-11.0-284.0","","","","false","","","","","","","","","","581.9999999997672","","140","","3","1","arrowright","1","arrowright","[0.325,0.675,0.15,0.85]","","",""
"sailing-trial","322","1564047","0.0-11.0-285.0","","","","false","","","","","","","","","","null","","823","","2","0","null","null","arrowup","[0.325,0.675,0.15,0.85]","","",""
"sailing-trial","323","1567992","0.0-11.0-286.0","","","","false","","","","","","","","","","515","","178","","3","1","arrowright","1","arrowright","[0.325,0.675,0.15,0.85]","","",""
"sailing-trial","324","1570559","0.0-11.0-287.0","","","","false","","","","","","","","","","null","","864","","0","1","null","null","arrowup","[0.325,0.675,0.15,0.85]","","",""
"sailing-trial","325","1574442","0.0-11.0-288.0","","","","false","","","","","","","","","","585","","68","","3","1","arrowright","1","arrowright","[0.325,0.675,0.15,0.85]","","",""
"sailing-trial","326","1577074","0.0-11.0-289.0","","","","false","","","","","","","","","","null","","1125","","3","0","null","null","arrowup","[0.325,0.675,0.15,0.85]","","",""
"sailing-trial","327","1582964","0.0-11.0-290.0","","","","false","","","","","","","","","","2908","","173.99999999976717","","0","0","arrowleft","0","arrowleft","[0.325,0.675,0.15,0.85]","","",""
"sailing-trial","328","1585875","0.0-11.0-291.0","","","","false","","","","","","","","","","null","","941","","1","1","null","null","arrowup","[0.325,0.675,0.15,0.85]","","",""
"sailing-trial","329","1590108","0.0-11.0-292.0","","","","false","","","","","","","","","","938","","70.99999999976717","","1","1","arrowleft","0","arrowright","[0.325,0.675,0.15,0.85]","","",""
"sailing-trial","330","1592377","0.0-11.0-293.0","","","","false","","","","","","","","","","null","","777.9999999997672","","1","0","null","null","arrowup","[0.325,0.675,0.15,0.85]","","",""
"sailing-trial","331","1596259","0.0-11.0-294.0","","","","false","","","","","","","","","","659","","7.000000000232831","","1","1","arrowleft","0","arrowright","[0.15,0.85,0.325,0.675]","","",""
"sailing-trial","332","1598707","0.0-11.0-295.0","","","","false","","","","","","","","","","null","","884","","2","0","null","null","arrowup","[0.15,0.85,0.325,0.675]","","",""
"sailing-trial","333","1602609","0.0-11.0-296.0","","","","false","","","","","","","","","","520","","73","","1","1","arrowleft","0","arrowright","[0.15,0.85,0.325,0.675]","","",""
"sailing-trial","334","1605325","0.0-11.0-297.0","","","","false","","","","","","","","","","null","","947","","1","1","null","null","arrowup","[0.15,0.85,0.325,0.675]","","",""
"sailing-trial","335","1608841","0.0-11.0-298.0","","","","false","","","","","","","","","","735","","35","","1","0","arrowleft","0","arrowright","[0.15,0.85,0.325,0.675]","","",""
"sailing-trial","336","1611675","0.0-11.0-299.0","","","","false","","","","","","","","","","null","","985","","3","1","null","null","arrowup","[0.15,0.85,0.325,0.675]","","",""
"sailing-trial","337","1615475","0.0-11.0-300.0","","","","false","","","","","","","","","","376","","160","","3","1","arrowright","1","arrowright","[0.15,0.85,0.325,0.675]","","",""
"sailing-trial","338","1618475","0.0-11.0-301.0","","","","false","","","","","","","","","","null","","1146.9999999997672","","2","1","null","null","arrowup","[0.15,0.85,0.325,0.675]","","",""
"sailing-trial","339","1622108","0.0-11.0-302.0","","","","false","","","","","","","","","","295.99999999976717","","113","","3","1","arrowright","1","arrowright","[0.15,0.85,0.325,0.675]","","",""
"sailing-trial","340","1624653","0.0-11.0-303.0","","","","false","","","","","","","","","","null","","1163","","0","0","null","null","arrowup","[0.15,0.85,0.325,0.675]","","",""
"sailing-trial","341","1627857","0.0-11.0-304.0","","","","false","","","","","","","","","","618","","66","","3","0","arrowright","1","arrowright","[0.15,0.85,0.325,0.675]","","",""
"sailing-trial","342","1630758","0.0-11.0-305.0","","","","false","","","","","","","","","","null","","984","","1","1","null","null","arrowup","[0.15,0.85,0.325,0.675]","","",""
"sailing-trial","343","1634263","0.0-11.0-306.0","","","","false","","","","","","","","","","466.00000000023283","","222.00000000023283","","2","0","arrowright","1","arrowleft","[0.15,0.85,0.325,0.675]","","",""
"sailing-trial","344","1637164","0.0-11.0-307.0","","","","false","","","","","","","","","","null","","1468.9999999997672","","3","0","null","null","arrowup","[0.15,0.85,0.325,0.675]","","",""
"sailing-trial","345","1640924","0.0-11.0-308.0","","","","false","","","","","","","","","","569","","66.00000000023283","","1","1","arrowleft","0","arrowright","[0.15,0.85,0.325,0.675]","","",""
"sailing-trial","346","1643957","0.0-11.0-309.0","","","","false","","","","","","","","","","null","","997","","1","1","null","null","arrowup","[0.15,0.85,0.325,0.675]","","",""
"sailing-trial","347","1647624","0.0-11.0-310.0","","","","false","","","","","","","","","","560.9999999997672","","88","","1","1","arrowleft","0","arrowright","[0.325,0.675,0.15,0.85]","","",""
"sailing-trial","348","1649819","0.0-11.0-311.0","","","","false","","","","","","","","","","null","","865","","1","0","null","null","arrowup","[0.325,0.675,0.15,0.85]","","",""
"sailing-trial","349","1653173","0.0-11.0-312.0","","","","false","","","","","","","","","","570","","78","","0","0","arrowleft","0","arrowleft","[0.325,0.675,0.15,0.85]","","",""
"sailing-trial","350","1655974","0.0-11.0-313.0","","","","false","","","","","","","","","","null","","815","","3","1","null","null","arrowup","[0.325,0.675,0.15,0.85]","","",""
"sailing-trial","351","1659658","0.0-11.0-314.0","","","","false","","","","","","","","","","221","","47","","3","1","arrowright","1","arrowright","[0.325,0.675,0.15,0.85]","","",""
"sailing-trial","352","1662177","0.0-11.0-315.0","","","","false","","","","","","","","","","null","","1166.9999999997672","","0","0","null","null","arrowup","[0.325,0.675,0.15,0.85]","","",""
"sailing-trial","353","1666508","0.0-11.0-316.0","","","","false","","","","","","","","","","480.00000000023283","","512","","3","1","arrowright","1","arrowright","[0.325,0.675,0.15,0.85]","","",""
"sailing-trial","354","1669457","0.0-11.0-317.0","","","","false","","","","","","","","","","null","","938.0000000002328","","1","1","null","null","arrowup","[0.325,0.675,0.15,0.85]","","",""
"sailing-trial","355","1673140","0.0-11.0-318.0","","","","false","","","","","","","","","","209","","5","","3","1","arrowright","1","arrowright","[0.325,0.675,0.15,0.85]","","",""
"sailing-trial","356","1676241","0.0-11.0-319.0","","","","false","","","","","","","","","","null","","1065","","0","1","null","null","arrowup","[0.325,0.675,0.15,0.85]","","",""
"sailing-trial","357","1680090","0.0-11.0-320.0","","","","false","","","","","","","","","","381","","72","","3","1","arrowright","1","arrowright","[0.325,0.675,0.15,0.85]","","",""
"sailing-trial","358","1682872","0.0-11.0-321.0","","","","false","","","","","","","","","","null","","920","","2","0","null","null","arrowup","[0.325,0.675,0.15,0.85]","","",""
"sailing-trial","359","1686474","0.0-11.0-322.0","","","","false","","","","","","","","","","592","","33.99999999976717","","3","0","arrowright","1","arrowright","[0.325,0.675,0.15,0.85]","","",""
"sailing-trial","360","1689974","0.0-11.0-323.0","","","","false","","","","","","","","","","null","","1074","","3","1","null","null","arrowup","[0.325,0.675,0.15,0.85]","","",""
"sailing-trial","361","1694607","0.0-11.0-324.0","","","","false","","","","","","","","","","948","","401","","1","1","arrowleft","0","arrowright","[0.325,0.675,0.15,0.85]","","",""
"sailing-trial","362","1697407","0.0-11.0-325.0","","","","false","","","","","","","","","","null","","815","","1","1","null","null","arrowup","[0.325,0.675,0.15,0.85]","","",""
"sailing-trial","363","1701070","0.0-11.0-326.0","","","","false","","","","","","","","","","696.9999999997672","","120","","1","0","arrowleft","0","arrowright","[0.15,0.85,0.325,0.675]","","",""
"sailing-trial","364","1703527","0.0-11.0-327.0","","","","false","","","","","","","","","","null","","959","","0","0","null","null","arrowup","[0.15,0.85,0.325,0.675]","","",""
"sailing-trial","365","1707939","0.0-11.0-328.0","","","","false","","","","","","","","","","1147","","100.00000000023283","","3","0","arrowright","1","arrowright","[0.15,0.85,0.325,0.675]","","",""
"sailing-trial","366","1710382","0.0-11.0-329.0","","","","false","","","","","","","","","","null","","906","","3","0","null","null","arrowup","[0.15,0.85,0.325,0.675]","","",""
"sailing-trial","367","1715190","0.0-11.0-330.0","","","","false","","","","","","","","","","655","","540","","1","1","arrowleft","0","arrowright","[0.15,0.85,0.325,0.675]","","",""
"sailing-trial","368","1717857","0.0-11.0-331.0","","","","false","","","","","","","","","","null","","876","","3","1","null","null","arrowup","[0.15,0.85,0.325,0.675]","","",""
"sailing-trial","369","1721940","0.0-11.0-332.0","","","","false","","","","","","","","","","547","","215","","1","1","arrowleft","0","arrowright","[0.15,0.85,0.325,0.675]","","",""
"sailing-trial","370","1725947","0.0-11.0-333.0","","","","false","","","","[{""event"":""fullscreenenter"",""trial"":3,""time"":4340},{""event"":""fullscreenexit"",""trial"":371,""time"":1728885}]","false","","","","","null","","1908","","0","0","null","null","arrowup","[0.15,0.85,0.325,0.675]","","",""
"sailing-trial","371","1736258","0.0-11.0-334.0","","","","false","","","","","","","","","","940.9999999997672","","5081","","1","0","arrowleft","0","arrowright","[0.15,0.85,0.325,0.675]","","",""
"sailing-trial","372","1740590","0.0-11.0-335.0","","","","false","","","","","","","","","","null","","1319","","2","0","null","null","arrowup","[0.15,0.85,0.325,0.675]","","",""
"sailing-trial","373","1744628","0.0-11.0-336.0","","","","false","","","","","","","","","","721","","266.00000000023283","","0","0","arrowleft","0","arrowleft","[0.15,0.85,0.325,0.675]","","",""
"sailing-trial","374","1747156","0.0-11.0-337.0","","","","false","","","","","","","","","","null","","1166","","2","0","null","null","arrowup","[0.15,0.85,0.325,0.675]","","",""
"sailing-trial","375","1753322","0.0-11.0-338.0","","","","false","","","","","","","","","","2702","","665","","3","0","arrowright","1","arrowright","[0.15,0.85,0.325,0.675]","","",""
"sailing-trial","376","1755752","0.0-11.0-339.0","","","","false","","","","","","","","","","null","","896.9999999997672","","2","0","null","null","arrowup","[0.15,0.85,0.325,0.675]","","",""
"sailing-trial","377","1759033","0.0-11.0-340.0","","","","false","","","","","","","","","","615","","159","","2","0","arrowright","1","arrowleft","[0.15,0.85,0.325,0.675]","","",""
"sailing-trial","378","1761891","0.0-11.0-341.0","","","","false","","","","","","","","","","null","","980","","2","1","null","null","arrowup","[0.15,0.85,0.325,0.675]","","",""
"sailing-trial","379","1765307","0.0-11.0-342.0","","","","false","","","","","","","","","","446","","133","","2","0","arrowright","1","arrowleft","[0.325,0.675,0.15,0.85]","","",""
"sailing-trial","380","1768623","0.0-11.0-343.0","","","","false","","","","","","","","","","null","","908","","1","1","null","null","arrowup","[0.325,0.675,0.15,0.85]","","",""
"sailing-trial","381","1772827","0.0-11.0-344.0","","","","false","","","","","","","","","","1240","","98","","1","0","arrowleft","0","arrowright","[0.325,0.675,0.15,0.85]","","",""
"sailing-trial","382","1775690","0.0-11.0-345.0","","","","false","","","","","","","","","","null","","864","","0","1","null","null","arrowup","[0.325,0.675,0.15,0.85]","","",""
"sailing-trial","383","1779740","0.0-11.0-346.0","","","","false","","","","","","","","","","181","","543","","0","0","arrowleft","0","arrowleft","[0.325,0.675,0.15,0.85]","","",""
"sailing-trial","384","1783106","0.0-11.0-347.0","","","","false","","","","","","","","","","null","","1283","","3","1","null","null","arrowup","[0.325,0.675,0.15,0.85]","","",""
"sailing-trial","385","1788640","0.0-11.0-348.0","","","","false","","","","","","","","","","1844","","151","","0","1","arrowleft","0","arrowleft","[0.325,0.675,0.15,0.85]","","",""
"sailing-trial","386","1792763","0.0-11.0-349.0","","","","false","","","","","","","","","","null","","2868.999999999767","","0","0","null","null","arrowup","[0.325,0.675,0.15,0.85]","","",""
"sailing-trial","387","1797939","0.0-11.0-350.0","","","","false","","","","","","","","","","1816","","87","","3","1","arrowright","1","arrowright","[0.325,0.675,0.15,0.85]","","",""
"sailing-trial","388","1800956","0.0-11.0-351.0","","","","false","","","","","","","","","","null","","893.0000000002328","","0","1","null","null","arrowup","[0.325,0.675,0.15,0.85]","","",""
"sailing-trial","389","1805160","0.0-11.0-352.0","","","","false","","","","","","","","","","547","","860.0000000002328","","2","0","arrowright","1","arrowleft","[0.325,0.675,0.15,0.85]","","",""
"sailing-trial","390","1808122","0.0-11.0-353.0","","","","false","","","","","","","","","","null","","1004.9999999997672","","1","1","null","null","arrowup","[0.325,0.675,0.15,0.85]","","",""
"sailing-trial","391","1823125","0.0-11.0-354.0","","","","true","","","","","","","","","","null","","null","","null","null","null","null","null","[0.325,0.675,0.15,0.85]","","",""
"sailing-trial","392","1826156","0.0-11.0-355.0","","","","false","","","","","","","","","","null","","1315","","1","1","null","null","arrowup","[0.325,0.675,0.15,0.85]","","",""
"sailing-trial","393","1830390","0.0-11.0-356.0","","","","false","","","","","","","","","","856","","86.99999999976717","","3","1","arrowright","1","arrowright","[0.325,0.675,0.15,0.85]","","",""
"sailing-trial","394","1833074","0.0-11.0-357.0","","","","false","","","","","","","","","","null","","769","","1","1","null","null","arrowup","[0.325,0.675,0.15,0.85]","","",""
"sailing-trial","395","1837179","0.0-11.0-358.0","","","","false","","","","","","","","","","707.9999999997672","","378","","0","0","arrowleft","0","arrowleft","[0.325,0.675,0.15,0.85]","","",""
"sailing-trial","396","1840489","0.0-11.0-359.0","","","","false","","","","","","","","","","null","","1113.9999999997672","","0","1","null","null","arrowup","[0.325,0.675,0.15,0.85]","","",""
"sailing-trial","397","1844923","0.0-11.0-360.0","","","","false","","","","","","","","","","650","","328.00000000023283","","3","1","arrowright","1","arrowright","[0.325,0.675,0.15,0.85]","","",""
"sailing-trial","398","1847689","0.0-11.0-361.0","","","","false","","","","","","","","","","null","","936","","3","1","null","null","arrowup","[0.325,0.675,0.15,0.85]","","",""
"sailing-trial","399","1852073","0.0-11.0-362.0","","","","false","","","","","","","","","","484.99999999976717","","524.9999999997672","","3","1","arrowright","1","arrowright","[0.15,0.85,0.325,0.675]","","",""
"sailing-trial","400","1855006","0.0-11.0-363.0","","","","false","","","","","","","","","","null","","753","","2","1","null","null","arrowup","[0.15,0.85,0.325,0.675]","","",""
"sailing-trial","401","1860438","0.0-11.0-364.0","","","","false","","","","","","","","","","1281.9999999997672","","166","","3","1","arrowright","1","arrowright","[0.15,0.85,0.325,0.675]","","",""
"sailing-trial","402","1864104","0.0-11.0-365.0","","","","false","","","","","","","","","","null","","1736.9999999997672","","0","0","null","null","arrowup","[0.15,0.85,0.325,0.675]","","",""
"sailing-trial","403","1867706","0.0-11.0-366.0","","","","false","","","","","","","","","","524","","257.99999999976717","","3","0","arrowright","1","arrowright","[0.15,0.85,0.325,0.675]","","",""
"sailing-trial","404","1870446","0.0-11.0-367.0","","","","false","","","","","","","","","","null","","954.0000000002328","","0","0","null","null","arrowup","[0.15,0.85,0.325,0.675]","","",""
"sailing-trial","405","1874908","0.0-11.0-368.0","","","","false","","","","","","","","","","1654","","200","","2","0","arrowright","1","arrowleft","[0.15,0.85,0.325,0.675]","","",""
"sailing-trial","406","1877031","0.0-11.0-369.0","","","","false","","","","","","","","","","null","","743.0000000002328","","0","0","null","null","arrowup","[0.15,0.85,0.325,0.675]","","",""
"sailing-trial","407","1881289","0.0-11.0-370.0","","","","false","","","","","","","","","","506","","40","","1","1","arrowleft","0","arrowright","[0.15,0.85,0.325,0.675]","","",""
"sailing-trial","408","1884014","0.0-11.0-371.0","","","","false","","","","","","","","","","null","","1320","","0","0","null","null","arrowup","[0.15,0.85,0.325,0.675]","","",""
"sailing-trial","409","1888157","0.0-11.0-372.0","","","","false","","","","","","","","","","676","","112","","1","1","arrowleft","0","arrowright","[0.15,0.85,0.325,0.675]","","",""
"sailing-trial","410","1890718","0.0-11.0-373.0","","","","false","","","","","","","","","","null","","1166","","2","0","null","null","arrowup","[0.15,0.85,0.325,0.675]","","",""
"sailing-trial","411","1894772","0.0-11.0-374.0","","","","false","","","","","","","","","","571.9999999997672","","145","","1","1","arrowleft","0","arrowright","[0.15,0.85,0.325,0.675]","","",""
"sailing-trial","412","1897547","0.0-11.0-375.0","","","","false","","","","","","","","","","null","","796","","3","1","null","null","arrowup","[0.15,0.85,0.325,0.675]","","",""
"sailing-trial","413","1904250","0.0-11.0-376.0","","","","false","","","","","","","","","","1283","","427","","1","1","arrowleft","0","arrowright","[0.15,0.85,0.325,0.675]","","",""
"sailing-trial","414","1910456","0.0-11.0-377.0","","","","false","","","","","","","","","","null","","4176","","3","1","null","null","arrowup","[0.15,0.85,0.325,0.675]","","",""
"sailing-trial","415","1914671","0.0-11.0-378.0","","","","false","","","","","","","","","","775","","69","","1","1","arrowleft","0","arrowright","[0.15,0.85,0.325,0.675]","","",""
"sailing-trial","416","1917105","0.0-11.0-379.0","","","","false","","","","","","","","","","null","","868","","0","0","null","null","arrowup","[0.15,0.85,0.325,0.675]","","",""
"sailing-trial","417","1921144","0.0-11.0-380.0","","","","false","","","","","","","","","","924","","223","","1","0","arrowleft","0","arrowright","[0.675,0.325,0.85,0.15]","","",""
"sailing-trial","418","1923644","0.0-11.0-381.0","","","","false","","","","","","","","","","null","","1066.0000000002328","","1","0","null","null","arrowup","[0.675,0.325,0.85,0.15]","","",""
"sailing-trial","419","1927452","0.0-11.0-382.0","","","","false","","","","","","","","","","842","","204","","3","0","arrowright","1","arrowright","[0.675,0.325,0.85,0.15]","","",""
"sailing-trial","420","1930530","0.0-11.0-383.0","","","","false","","","","","","","","","","null","","1176","","1","0","null","null","arrowup","[0.675,0.325,0.85,0.15]","","",""
"sailing-trial","421","1934689","0.0-11.0-384.0","","","","false","","","","","","","","","","661","","225","","2","1","arrowright","1","arrowleft","[0.675,0.325,0.85,0.15]","","",""
"sailing-trial","422","1937265","0.0-11.0-385.0","","","","false","","","","","","","","","","null","","1191","","1","0","null","null","arrowup","[0.675,0.325,0.85,0.15]","","",""
"sailing-trial","423","1943122","0.0-11.0-386.0","","","","false","","","","","","","","","","1410.9999999997672","","460.00000000023283","","2","1","arrowright","1","arrowleft","[0.675,0.325,0.85,0.15]","","",""
"sailing-trial","424","1945445","0.0-11.0-387.0","","","","false","","","","","","","","","","null","","867.9999999997672","","0","0","null","null","arrowup","[0.675,0.325,0.85,0.15]","","",""
"sailing-trial","425","1950622","0.0-11.0-388.0","","","","false","","","","","","","","","","859","","344.99999999976717","","2","1","arrowright","1","arrowleft","[0.675,0.325,0.85,0.15]","","",""
"sailing-trial","426","1952902","0.0-11.0-389.0","","","","false","","","","","","","","","","null","","861","","2","0","null","null","arrowup","[0.675,0.325,0.85,0.15]","","",""
"sailing-trial","427","1957272","0.0-11.0-390.0","","","","false","","","","","","","","","","606","","455.00000000023283","","2","1","arrowright","1","arrowleft","[0.675,0.325,0.85,0.15]","","",""
"sailing-trial","428","1960372","0.0-11.0-391.0","","","","false","","","","","","","","","","null","","1123","","2","1","null","null","arrowup","[0.675,0.325,0.85,0.15]","","",""
"sailing-trial","429","1965505","0.0-11.0-392.0","","","","false","","","","","","","","","","1339","","307","","0","1","arrowleft","0","arrowleft","[0.675,0.325,0.85,0.15]","","",""
"sailing-trial","430","1968141","0.0-11.0-393.0","","","","false","","","","","","","","","","null","","1138","","3","0","null","null","arrowup","[0.675,0.325,0.85,0.15]","","",""
"sailing-trial","431","1973772","0.0-11.0-394.0","","","","false","","","","","","","","","","2101.999999999767","","146.00000000023283","","0","1","arrowleft","0","arrowleft","[0.675,0.325,0.85,0.15]","","",""
"sailing-trial","432","1977259","0.0-11.0-395.0","","","","false","","","","","","","","","","null","","1796","","0","0","null","null","arrowup","[0.675,0.325,0.85,0.15]","","",""
"sailing-trial","433","1981538","0.0-11.0-396.0","","","","false","","","","","","","","","","854","","34","","2","1","arrowright","1","arrowleft","[0.675,0.325,0.85,0.15]","","",""
"sailing-trial","434","1984755","0.0-11.0-397.0","","","","false","","","","","","","","","","null","","1216","","1","1","null","null","arrowup","[0.675,0.325,0.85,0.15]","","",""
"sailing-trial","435","1989063","0.0-11.0-398.0","","","","false","","","","","","","","","","1110","","186","","3","0","arrowright","1","arrowright","[0.675,0.325,0.85,0.15]","","",""
"sailing-trial","436","1991971","0.0-11.0-399.0","","","","false","","","","","","","","","","null","","1238","","3","0","null","null","arrowup","[0.675,0.325,0.85,0.15]","","",""
"instructions","437","1995306","0.0-12.0","","","","","","","","","","3335.000000000233","","","","","","","","","","","","","","","","[{""page_index"":0,""viewing_time"":3334}]"
"survey-debrief","438","2131324","0.0-13.0","","","","","","","","","","136015.99999999977","","","","","","","","","","","","","","{""difficulty"":""3"",""fun"":""4"",""clarity"":""4"",""strategy"":""I did not write anything down as: a) I didn't have time and b) I thought it was not allowed "",""feedback"":""I looked up for 5 seconds and looked back to the computer and saw a warning message. I don't like that someone who has to do this study would have to stay focused on a screen for 20-25 minutes without even a 5 second break.""}","",""
