"trial_type","trial_index","time_elapsed","internal_node_id","value","metadata","success","timeout","failed_images","failed_audio","failed_video","browser_interaction","low_quality","rt","stimulus","response","button_pressed","island_rt","island_response","boat_rt","boat_response","boat","reward","island_key","island","boat_key","reward_probabilities","responses","num_errors","view_history"
"pavlovia","0","1","0.0-0.0","","","","","","","","","","","","","","","","","","","","","","","","","",""
"call-function","1","2","0.0-1.0","","{""task_version"":""sailing_part1_v1"",""task_condition"":""good"",""boats"":[""C"",""A"",""D"",""B""],""boats_demo"":[""G"",""E"",""F"",""H""],""islands"":[""A"",""B""],""subject_id"":""14771"",""age"":""21"",""gender"":""Female""}","","","","","","","","","","","","","","","","","","","","","","","",""
"preload","2","2236","0.0-2.0","","","true","false","[]","[]","[]","[{""event"":""fullscreenenter"",""trial"":3,""time"":5851}]","false","","","","","","","","","","","","","","","","",""
"fullscreen","3","6853","0.0-3.0","","","true","","","","","","","","","","","","","","","","","","","","","","",""
"audio-keyboard-response","4","7740","0.0-4.0-0.0","","","","","","","","","","842.6666666666666","audio/beep_loop.wav"," ","","","","","","","","","","","","","",""
"audio-test","5","13641","0.0-4.0-1.0","","","","","","","","","","null","audio/turtle.mp3","","3","","","","","","","","","","","","",""
"audio-test","6","15689","0.0-4.0-2.0","","","","","","","","","","null","audio/shark.mp3","","2","","","","","","","","","","","","",""
"sailing-instructions","7","46949","0.0-5.0-0.0-0.0","","","","","","","","","","","","","","null","null","null","null","null","null","","","","","","",""
"sailing-trial","8","50336","0.0-5.0-0.0-1.0-0.0","","","","false","","","","","","","","","","2265.9000000953674","","null","","null","null","arrowleft","0","null","null","","",""
"sailing-trial","9","52304","0.0-5.0-0.0-1.0-1.0","","","","false","","","","","","","","","","845.2999999523163","","null","","null","null","arrowright","1","null","null","","",""
"sailing-trial","10","54729","0.0-5.0-0.0-1.0-2.0","","","","false","","","","","","","","","","1312.4000000953674","","null","","null","null","arrowleft","0","null","null","","",""
"sailing-instructions","11","124527","0.0-5.0-0.0-2.0","","","","","","","","","","","","","","null","null","null","null","0","null","","","","","","",""
"sailing-trial","12","129483","0.0-5.0-0.0-3.0-0.0","","","","false","","","","","","","","","","null","","1294.2000000476837","","2","1","null","null","arrowleft","[1,1,1,1]","","",""
"sailing-trial","13","132967","0.0-5.0-0.0-3.0-1.0","","","","false","","","","","","","","","","null","","889.5","","3","1","null","null","arrowright","[1,1,1,1]","","",""
"sailing-trial","14","135903","0.0-5.0-0.0-3.0-2.0","","","","false","","","","","","","","","","null","","647.4000000953674","","3","0","null","null","arrowright","[0,0,0,0]","","",""
"sailing-instructions","15","143542","0.0-5.0-0.0-4.0","","","","","","","","","","","","","","null","null","null","null","null","null","","","","","","",""
"sailing-comprehension","16","162201","0.0-5.0-0.0-5.0","","","","","","","","","","11467.200000047684","","","","","","","","","","","","","","[""true"",""true"",""true"",""true""]","1",""
"sailing-instructions","17","193898","0.0-5.0-0.1-0.1","","","","","","","","","","","","","","null","null","null","null","null","null","","","","","","",""
"sailing-trial","18","196156","0.0-5.0-0.1-1.1-0.1","","","","false","","","","","","","","","","1143.7000000476837","","null","","null","null","arrowleft","0","null","null","","",""
"sailing-trial","19","198297","0.0-5.0-0.1-1.1-1.1","","","","false","","","","","","","","","","1028.7999999523163","","null","","null","null","arrowright","1","null","null","","",""
"sailing-trial","20","201174","0.0-5.0-0.1-1.1-2.1","","","","false","","","","","","","","","","1767.2000000476837","","null","","null","null","arrowright","1","null","null","","",""
"sailing-instructions","21","280394","0.0-5.0-0.1-2.1","","","","","","","","","","","","","","null","null","null","null","0","null","","","","","","",""
"sailing-trial","22","287727","0.0-5.0-0.1-3.1-0.1","","","","false","","","","","","","","","","null","","879.7999999523163","","2","1","null","null","arrowleft","[1,1,1,1]","","",""
"sailing-trial","23","290443","0.0-5.0-0.1-3.1-1.1","","","","false","","","","","","","","","","null","","293.2999999523163","","3","1","null","null","arrowright","[1,1,1,1]","","",""
"sailing-trial","24","293549","0.0-5.0-0.1-3.1-2.1","","","","false","","","","","","","","","","null","","423.09999990463257","","3","0","null","null","arrowright","[0,0,0,0]","","",""
"sailing-instructions","25","302998","0.0-5.0-0.1-4.1","","","","","","","","","","","","","","null","null","null","null","null","null","","","","","","",""
"sailing-comprehension","26","371427","0.0-5.0-0.1-5.1","","","","","","","","","","67422.70000004768","","","","","","","","","","","","","","[""true"",""true"",""false"",""true""]","0",""
"sailing-instructions","27","485809","0.0-6.0-0.0-0.0","","","","","","","","","","","","","","null","null","null","null","null","null","","","","","","",""
"sailing-comprehension","28","493842","0.0-6.0-0.0-1.0","","","","","","","","","","7197.799999952316","","","","","","","","","","","","","","[""true"",""false"",""true""]","0",""
"sailing-instructions","29","509878","0.0-7.0-0.0-0.0","","","","","","","","","","","","","","null","null","null","null","null","null","","","","","","",""
"sailing-trial","30","522289","0.0-7.0-0.0-1.0-0.0","","","","false","","","","","","","","","","null","","10539.600000143051","","0","0","null","null","arrowup","[0.2,0.8,0.2,0.8]","","",""
"sailing-trial","31","526002","0.0-7.0-0.0-1.0-1.0","","","","false","","","","","","","","","","null","","1355","","1","1","null","null","arrowup","[0.2,0.8,0.2,0.8]","","",""
"sailing-trial","32","528555","0.0-7.0-0.0-1.0-2.0","","","","false","","","","","","","","","","null","","713.2000000476837","","2","1","null","null","arrowup","[0.2,0.8,0.2,0.8]","","",""
"sailing-trial","33","530785","0.0-7.0-0.0-1.0-3.0","","","","false","","","","","","","","","","null","","546.7000000476837","","3","1","null","null","arrowup","[0.2,0.8,0.2,0.8]","","",""
"sailing-comprehension","34","536385","0.0-7.0-0.0-2.0","","","","","","","","","","4279.200000047684","","","","","","","","","","","","","","[""true""]","1",""
"sailing-instructions","35","550342","0.0-7.0-0.1-0.1","","","","","","","","","","","","","","null","null","null","null","null","null","","","","","","",""
"sailing-trial","36","553415","0.0-7.0-0.1-1.1-0.1","","","","false","","","","","","","","","","null","","1367.4000000953674","","0","0","null","null","arrowup","[0.2,0.8,0.2,0.8]","","",""
"sailing-trial","37","556135","0.0-7.0-0.1-1.1-1.1","","","","false","","","","","","","","","","null","","953","","1","1","null","null","arrowup","[0.2,0.8,0.2,0.8]","","",""
"sailing-trial","38","557897","0.0-7.0-0.1-1.1-2.1","","","","false","","","","","","","","","","null","","397.2999999523163","","2","0","null","null","arrowup","[0.2,0.8,0.2,0.8]","","",""
"sailing-trial","39","560125","0.0-7.0-0.1-1.1-3.1","","","","false","","","","","","","","","","null","","479.09999990463257","","3","1","null","null","arrowup","[0.2,0.8,0.2,0.8]","","",""
"sailing-comprehension","40","562466","0.0-7.0-0.1-2.1","","","","","","","","","","1464.7000000476837","","","","","","","","","","","","","","[""false""]","0",""
"sailing-instructions","41","573246","0.0-8.0-0.0-0.0","","","","","","","","","","","","","","null","null","null","null","null","null","","","","","","",""
"sailing-comprehension","42","576438","0.0-8.0-0.0-1.0","","","","","","","","","","2333.7999999523163","","","","","","","","","","","","","","[""true""]","0",""
"sailing-instructions","43","600830","0.0-9.0-0.0-0.0","","","","","","","","","","","","","","null","null","null","null","null","null","","","","","","",""
"sailing-trial","44","617341","0.0-9.0-0.0-1.0-0.0","","","","true","","","","","","","","","","1501.2999999523163","","null","","null","null","arrowleft","0","null","[0.2,0.8,0.2,0.8]","","",""
"sailing-trial","45","622361","0.0-9.0-0.0-1.0-1.0","","","","false","","","","","","","","","","1396.0999999046326","","797.9000000953674","","0","0","arrowleft","0","arrowleft","[0.2,0.8,0.2,0.8]","","",""
"sailing-trial","46","625766","0.0-9.0-0.0-1.0-2.0","","","","false","","","","","","","","","","null","","1805.6000001430511","","0","0","null","null","arrowup","[0.2,0.8,0.2,0.8]","","",""
"sailing-trial","47","630389","0.0-9.0-0.0-1.0-3.0","","","","false","","","","","","","","","","974.0999999046326","","359.39999985694885","","3","1","arrowright","1","arrowright","[0.2,0.8,0.2,0.8]","","",""
"sailing-trial","48","635338","0.0-9.0-0.0-1.0-4.0","","","","false","","","","","","","","","","null","","2472.4000000953674","","3","1","null","null","arrowup","[0.2,0.8,0.2,0.8]","","",""
"sailing-trial","49","640129","0.0-9.0-0.0-1.0-5.0","","","","false","","","","","","","","","","1553.3000001907349","","86.79999995231628","","1","1","arrowleft","0","arrowright","[0.2,0.8,0.2,0.8]","","",""
"sailing-instructions","50","667100","0.0-10.0","","","","","","","","","","","","","","null","null","null","null","null","null","","","","","","",""
"sailing-trial","51","677222","0.0-11.0-0.0","","","","false","","","","","","","","","","5785.399999856949","","272.2000000476837","","2","0","arrowright","1","arrowleft","[0.325,0.675,0.15,0.85]","","",""
"sailing-trial","52","681338","0.0-11.0-1.0","","","","false","","","","","","","","","","null","","1941.4000000953674","","3","1","null","null","arrowup","[0.325,0.675,0.15,0.85]","","",""
"sailing-trial","53","687438","0.0-11.0-2.0","","","","false","","","","","","","","","","1121.5999999046326","","1459.7000000476837","","0","1","arrowleft","0","arrowleft","[0.325,0.675,0.15,0.85]","","",""
"sailing-trial","54","691878","0.0-11.0-3.0","","","","false","","","","","","","","","","null","","2013.7000000476837","","0","1","null","null","arrowup","[0.325,0.675,0.15,0.85]","","",""
"sailing-trial","55","697642","0.0-11.0-4.0","","","","false","","","","","","","","","","1795.2999999523163","","1025.6000001430511","","3","1","arrowright","1","arrowright","[0.325,0.675,0.15,0.85]","","",""
"sailing-trial","56","702910","0.0-11.0-5.0","","","","false","","","","","","","","","","null","","2235","","0","0","null","null","arrowup","[0.325,0.675,0.15,0.85]","","",""
"sailing-trial","57","707500","0.0-11.0-6.0","","","","false","","","","","","","","","","884.1999998092651","","269.90000009536743","","1","1","arrowleft","0","arrowright","[0.325,0.675,0.15,0.85]","","",""
"sailing-trial","58","712918","0.0-11.0-7.0","","","","false","","","","","","","","","","null","","2396.399999856949","","0","0","null","null","arrowup","[0.325,0.675,0.15,0.85]","","",""
"sailing-trial","59","718844","0.0-11.0-8.0","","","","false","","","","","","","","","","484.7000000476837","","429.2000000476837","","2","1","arrowright","1","arrowleft","[0.325,0.675,0.15,0.85]","","",""
"sailing-trial","60","722801","0.0-11.0-9.0","","","","false","","","","","","","","","","null","","1444.3999998569489","","3","1","null","null","arrowup","[0.325,0.675,0.15,0.85]","","",""
"sailing-trial","61","728830","0.0-11.0-10.0","","","","false","","","","","","","","","","1219.0999999046326","","1557.7000000476837","","1","1","arrowleft","0","arrowright","[0.325,0.675,0.15,0.85]","","",""
"sailing-trial","62","731518","0.0-11.0-11.0","","","","false","","","","","","","","","","null","","804.9000000953674","","0","0","null","null","arrowup","[0.325,0.675,0.15,0.85]","","",""
"sailing-trial","63","736133","0.0-11.0-12.0","","","","false","","","","","","","","","","474.40000009536743","","222.5","","2","0","arrowright","1","arrowleft","[0.325,0.675,0.15,0.85]","","",""
"sailing-trial","64","739241","0.0-11.0-13.0","","","","false","","","","","","","","","","null","","1143.2000000476837","","1","1","null","null","arrowup","[0.325,0.675,0.15,0.85]","","",""
"sailing-trial","65","745508","0.0-11.0-14.0","","","","false","","","","","","","","","","1996.7999999523163","","1232","","3","1","arrowright","1","arrowright","[0.325,0.675,0.15,0.85]","","",""
"sailing-trial","66","749258","0.0-11.0-15.0","","","","false","","","","","","","","","","null","","725.9000000953674","","2","0","null","null","arrowup","[0.325,0.675,0.15,0.85]","","",""
"sailing-trial","67","753975","0.0-11.0-16.0","","","","false","","","","","","","","","","513.5","","158.29999995231628","","0","0","arrowleft","0","arrowleft","[0.325,0.675,0.15,0.85]","","",""
"sailing-trial","68","757616","0.0-11.0-17.0","","","","false","","","","","","","","","","null","","620.4000000953674","","0","0","null","null","arrowup","[0.325,0.675,0.15,0.85]","","",""
"sailing-trial","69","762374","0.0-11.0-18.0","","","","false","","","","","","","","","","480.7999999523163","","238.70000004768372","","2","0","arrowright","1","arrowleft","[0.15,0.85,0.325,0.675]","","",""
"sailing-trial","70","765907","0.0-11.0-19.0","","","","false","","","","","","","","","","null","","569.6999998092651","","0","0","null","null","arrowup","[0.15,0.85,0.325,0.675]","","",""
"sailing-trial","71","769892","0.0-11.0-20.0","","","","false","","","","","","","","","","534.6000001430511","","400.40000009536743","","3","1","arrowright","1","arrowright","[0.15,0.85,0.325,0.675]","","",""
"sailing-trial","72","773590","0.0-11.0-21.0","","","","false","","","","","","","","","","null","","679.0999999046326","","3","0","null","null","arrowup","[0.15,0.85,0.325,0.675]","","",""
"sailing-trial","73","778693","0.0-11.0-22.0","","","","false","","","","","","","","","","780.6000001430511","","272.40000009536743","","3","0","arrowright","1","arrowright","[0.15,0.85,0.325,0.675]","","",""
"sailing-trial","74","782590","0.0-11.0-23.0","","","","false","","","","","","","","","","null","","873.9000000953674","","0","0","null","null","arrowup","[0.15,0.85,0.325,0.675]","","",""
"sailing-trial","75","786460","0.0-11.0-24.0","","","","false","","","","","","","","","","410.59999990463257","","261.59999990463257","","1","1","arrowleft","0","arrowright","[0.15,0.85,0.325,0.675]","","",""
"sailing-trial","76","789949","0.0-11.0-25.0","","","","false","","","","","","","","","","null","","457.80000019073486","","2","0","null","null","arrowup","[0.15,0.85,0.325,0.675]","","",""
"sailing-trial","77","794732","0.0-11.0-26.0","","","","false","","","","","","","","","","495.40000009536743","","244.79999995231628","","1","0","arrowleft","0","arrowright","[0.15,0.85,0.325,0.675]","","",""
"sailing-trial","78","797299","0.0-11.0-27.0","","","","false","","","","","","","","","","null","","661.9000000953674","","1","1","null","null","arrowup","[0.15,0.85,0.325,0.675]","","",""
"sailing-trial","79","802558","0.0-11.0-28.0","","","","false","","","","","","","","","","777.5","","1467.6000001430511","","1","1","arrowleft","0","arrowright","[0.15,0.85,0.325,0.675]","","",""
"sailing-trial","80","805201","0.0-11.0-29.0","","","","false","","","","","","","","","","null","","759.7000000476837","","1","1","null","null","arrowup","[0.15,0.85,0.325,0.675]","","",""
"sailing-trial","81","810816","0.0-11.0-30.0","","","","false","","","","","","","","","","1205.5999999046326","","361.10000014305115","","3","0","arrowright","1","arrowright","[0.15,0.85,0.325,0.675]","","",""
"sailing-trial","82","813925","0.0-11.0-31.0","","","","false","","","","","","","","","","null","","825.0999999046326","","1","1","null","null","arrowup","[0.15,0.85,0.325,0.675]","","",""
"sailing-trial","83","819138","0.0-11.0-32.0","","","","false","","","","","","","","","","826.7999999523163","","340","","2","0","arrowright","1","arrowleft","[0.15,0.85,0.325,0.675]","","",""
"sailing-trial","84","822591","0.0-11.0-33.0","","","","false","","","","","","","","","","null","","420.7000000476837","","0","0","null","null","arrowup","[0.15,0.85,0.325,0.675]","","",""
"sailing-trial","85","826792","0.0-11.0-34.0","","","","false","","","","","","","","","","561.5","","417.10000014305115","","1","1","arrowleft","0","arrowright","[0.15,0.85,0.325,0.675]","","",""
"sailing-trial","86","830447","0.0-11.0-35.0","","","","false","","","","","","","","","","null","","1012.4000000953674","","2","0","null","null","arrowup","[0.15,0.85,0.325,0.675]","","",""
"sailing-trial","87","836822","0.0-11.0-36.0","","","","false","","","","","","","","","","1277.3999998569489","","1110.7000000476837","","1","1","arrowleft","0","arrowright","[0.15,0.85,0.325,0.675]","","",""
"sailing-trial","88","840131","0.0-11.0-37.0","","","","false","","","","","","","","","","null","","1294.9000000953674","","1","1","null","null","arrowup","[0.15,0.85,0.325,0.675]","","",""
"sailing-trial","89","845770","0.0-11.0-38.0","","","","false","","","","","","","","","","717.7000000476837","","894.8000001907349","","1","0","arrowleft","0","arrowright","[0.85,0.15,0.675,0.325]","","",""
"sailing-trial","90","850538","0.0-11.0-39.0","","","","false","","","","","","","","","","null","","2220.7000000476837","","0","1","null","null","arrowup","[0.85,0.15,0.675,0.325]","","",""
"sailing-trial","91","855776","0.0-11.0-40.0","","","","false","","","","","","","","","","1134.4000000953674","","52.59999990463257","","1","0","arrowleft","0","arrowright","[0.85,0.15,0.675,0.325]","","",""
"sailing-trial","92","859422","0.0-11.0-41.0","","","","false","","","","","","","","","","null","","616.6000001430511","","3","0","null","null","arrowup","[0.85,0.15,0.675,0.325]","","",""
"sailing-trial","93","863399","0.0-11.0-42.0","","","","false","","","","","","","","","","558.2999999523163","","301","","0","1","arrowleft","0","arrowleft","[0.85,0.15,0.675,0.325]","","",""
"sailing-trial","94","866833","0.0-11.0-43.0","","","","false","","","","","","","","","","null","","1116.2999999523163","","2","1","null","null","arrowup","[0.85,0.15,0.675,0.325]","","",""
"sailing-trial","95","872148","0.0-11.0-44.0","","","","false","","","","","","","","","","1849.5","","200.39999985694885","","2","1","arrowright","1","arrowleft","[0.85,0.15,0.675,0.325]","","",""
"sailing-trial","96","875972","0.0-11.0-45.0","","","","false","","","","","","","","","","null","","1421.3999998569489","","0","1","null","null","arrowup","[0.85,0.15,0.675,0.325]","","",""
"sailing-trial","97","881372","0.0-11.0-46.0","","","","false","","","","","","","","","","716","","425.09999990463257","","0","1","arrowleft","0","arrowleft","[0.85,0.15,0.675,0.325]","","",""
"sailing-trial","98","884106","0.0-11.0-47.0","","","","false","","","","","","","","","","null","","709.9000000953674","","1","1","null","null","arrowup","[0.85,0.15,0.675,0.325]","","",""
"sailing-trial","99","889813","0.0-11.0-48.0","","","","false","","","","","","","","","","1301.7999999523163","","356.7000000476837","","3","0","arrowright","1","arrowright","[0.85,0.15,0.675,0.325]","","",""
"sailing-trial","100","893498","0.0-11.0-49.0","","","","false","","","","","","","","","","null","","659.2999999523163","","1","0","null","null","arrowup","[0.85,0.15,0.675,0.325]","","",""
"sailing-trial","101","898588","0.0-11.0-50.0","","","","false","","","","","","","","","","1147.3999998569489","","355.09999990463257","","1","1","arrowleft","0","arrowright","[0.85,0.15,0.675,0.325]","","",""
"sailing-trial","102","902555","0.0-11.0-51.0","","","","false","","","","","","","","","","null","","940.7000000476837","","2","0","null","null","arrowup","[0.85,0.15,0.675,0.325]","","",""
"sailing-trial","103","907479","0.0-11.0-52.0","","","","false","","","","","","","","","","591","","295","","3","0","arrowright","1","arrowright","[0.85,0.15,0.675,0.325]","","",""
"sailing-trial","104","911102","0.0-11.0-53.0","","","","false","","","","","","","","","","null","","720.3999998569489","","3","1","null","null","arrowup","[0.85,0.15,0.675,0.325]","","",""
"sailing-trial","105","915728","0.0-11.0-54.0","","","","false","","","","","","","","","","509.39999985694885","","81.5","","1","0","arrowleft","0","arrowright","[0.85,0.15,0.675,0.325]","","",""
"sailing-trial","106","919757","0.0-11.0-55.0","","","","false","","","","","","","","","","null","","1004.2000000476837","","1","0","null","null","arrowup","[0.85,0.15,0.675,0.325]","","",""
"sailing-trial","107","924092","0.0-11.0-56.0","","","","false","","","","","","","","","","845","","209.29999995231628","","0","1","arrowleft","0","arrowleft","[0.85,0.15,0.675,0.325]","","",""
"sailing-trial","108","927594","0.0-11.0-57.0","","","","false","","","","","","","","","","null","","483.89999985694885","","1","0","null","null","arrowup","[0.85,0.15,0.675,0.325]","","",""
"sailing-trial","109","932643","0.0-11.0-58.0","","","","false","","","","","","","","","","502.40000009536743","","505.09999990463257","","3","0","arrowright","1","arrowright","[0.675,0.325,0.85,0.15]","","",""
"sailing-trial","110","936386","0.0-11.0-59.0","","","","false","","","","","","","","","","null","","723","","3","0","null","null","arrowup","[0.675,0.325,0.85,0.15]","","",""
"sailing-trial","111","941668","0.0-11.0-60.0","","","","false","","","","","","","","","","867.3999998569489","","359.60000014305115","","0","0","arrowleft","0","arrowleft","[0.675,0.325,0.85,0.15]","","",""
"sailing-trial","112","944469","0.0-11.0-61.0","","","","false","","","","","","","","","","null","","578.5999999046326","","0","1","null","null","arrowup","[0.675,0.325,0.85,0.15]","","",""
"sailing-trial","113","949096","0.0-11.0-62.0","","","","false","","","","","","","","","","467.69999980926514","","110.59999990463257","","1","0","arrowleft","0","arrowright","[0.675,0.325,0.85,0.15]","","",""
"sailing-trial","114","951894","0.0-11.0-63.0","","","","false","","","","","","","","","","null","","808.2000000476837","","0","1","null","null","arrowup","[0.675,0.325,0.85,0.15]","","",""
"sailing-trial","115","956786","0.0-11.0-64.0","","","","false","","","","","","","","","","667.9000000953674","","185.5","","0","0","arrowleft","0","arrowleft","[0.675,0.325,0.85,0.15]","","",""
"sailing-trial","116","959885","0.0-11.0-65.0","","","","false","","","","","","","","","","null","","1118.7999999523163","","1","1","null","null","arrowup","[0.675,0.325,0.85,0.15]","","",""
"sailing-trial","117","963667","0.0-11.0-66.0","","","","false","","","","","","","","","","473.80000019073486","","72.60000014305115","","2","1","arrowright","1","arrowleft","[0.675,0.325,0.85,0.15]","","",""
"sailing-trial","118","966669","0.0-11.0-67.0","","","","false","","","","","","","","","","null","","1155.7000000476837","","2","1","null","null","arrowup","[0.675,0.325,0.85,0.15]","","",""
"sailing-trial","119","972667","0.0-11.0-68.0","","","","false","","","","","","","","","","2926.0999999046326","","32","","2","1","arrowright","1","arrowleft","[0.675,0.325,0.85,0.15]","","",""
"sailing-trial","120","975195","0.0-11.0-69.0","","","","false","","","","","","","","","","null","","717.3999998569489","","2","1","null","null","arrowup","[0.675,0.325,0.85,0.15]","","",""
"sailing-trial","121","978929","0.0-11.0-70.0","","","","false","","","","","","","","","","592.8999998569489","","172.69999980926514","","0","1","arrowleft","0","arrowleft","[0.675,0.325,0.85,0.15]","","",""
"sailing-trial","122","981430","0.0-11.0-71.0","","","","false","","","","","","","","","","null","","612.5","","2","1","null","null","arrowup","[0.675,0.325,0.85,0.15]","","",""
"sailing-trial","123","985393","0.0-11.0-72.0","","","","false","","","","","","","","","","750.9000000953674","","243","","2","1","arrowright","1","arrowleft","[0.675,0.325,0.85,0.15]","","",""
"sailing-trial","124","987994","0.0-11.0-73.0","","","","false","","","","","","","","","","null","","711.4000000953674","","3","1","null","null","arrowup","[0.675,0.325,0.85,0.15]","","",""
"sailing-trial","125","992917","0.0-11.0-74.0","","","","false","","","","","","","","","","632.5","","240.5","","0","0","arrowleft","0","arrowleft","[0.675,0.325,0.85,0.15]","","",""
"sailing-trial","126","995362","0.0-11.0-75.0","","","","false","","","","","","","","","","null","","646","","0","1","null","null","arrowup","[0.675,0.325,0.85,0.15]","","",""
"sailing-trial","127","1000373","0.0-11.0-76.0","","","","false","","","","","","","","","","476.10000014305115","","494.2999999523163","","2","0","arrowright","1","arrowleft","[0.675,0.325,0.85,0.15]","","",""
"sailing-trial","128","1003891","0.0-11.0-77.0","","","","false","","","","","","","","","","null","","710.2999999523163","","2","0","null","null","arrowup","[0.675,0.325,0.85,0.15]","","",""
"sailing-trial","129","1008875","0.0-11.0-78.0","","","","false","","","","","","","","","","727.5","","215.5","","3","0","arrowright","1","arrowright","[0.675,0.325,0.85,0.15]","","",""
"sailing-trial","130","1011896","0.0-11.0-79.0","","","","false","","","","","","","","","","null","","1083.0999999046326","","3","1","null","null","arrowup","[0.675,0.325,0.85,0.15]","","",""
"sailing-trial","131","1016686","0.0-11.0-80.0","","","","false","","","","","","","","","","494.39999985694885","","254.60000014305115","","1","0","arrowleft","0","arrowright","[0.675,0.325,0.85,0.15]","","",""
"sailing-trial","132","1020122","0.0-11.0-81.0","","","","false","","","","","","","","","","null","","403.2000000476837","","1","0","null","null","arrowup","[0.675,0.325,0.85,0.15]","","",""
"sailing-trial","133","1024159","0.0-11.0-82.0","","","","false","","","","","","","","","","390.2999999523163","","138.10000014305115","","0","1","arrowleft","0","arrowleft","[0.85,0.15,0.675,0.325]","","",""
"sailing-trial","134","1028058","0.0-11.0-83.0","","","","false","","","","","","","","","","null","","878.9000000953674","","3","0","null","null","arrowup","[0.85,0.15,0.675,0.325]","","",""
"sailing-trial","135","1034965","0.0-11.0-84.0","","","","false","","","","","","","","","","2400.199999809265","","1033.1000001430511","","2","1","arrowright","1","arrowleft","[0.85,0.15,0.675,0.325]","","",""
"sailing-trial","136","1038994","0.0-11.0-85.0","","","","false","","","","","","","","","","null","","1007.4000000953674","","1","0","null","null","arrowup","[0.85,0.15,0.675,0.325]","","",""
"sailing-trial","137","1043585","0.0-11.0-86.0","","","","false","","","","","","","","","","434.7999999523163","","125.59999990463257","","1","0","arrowleft","0","arrowright","[0.85,0.15,0.675,0.325]","","",""
"sailing-trial","138","1047727","0.0-11.0-87.0","","","","false","","","","","","","","","","null","","1112.7999999523163","","0","1","null","null","arrowup","[0.85,0.15,0.675,0.325]","","",""
"sailing-trial","139","1054314","0.0-11.0-88.0","","","","false","","","","","","","","","","918.2000000476837","","611.1999998092651","","0","1","arrowleft","0","arrowleft","[0.85,0.15,0.675,0.325]","","",""
"sailing-trial","140","1057017","0.0-11.0-89.0","","","","false","","","","","","","","","","null","","818.4000000953674","","3","1","null","null","arrowup","[0.85,0.15,0.675,0.325]","","",""
"sailing-trial","141","1061861","0.0-11.0-90.0","","","","false","","","","","","","","","","710.7000000476837","","90.70000004768372","","2","0","arrowright","1","arrowleft","[0.85,0.15,0.675,0.325]","","",""
"sailing-trial","142","1064842","0.0-11.0-91.0","","","","false","","","","","","","","","","null","","728.7000000476837","","2","1","null","null","arrowup","[0.85,0.15,0.675,0.325]","","",""
"sailing-trial","143","1069418","0.0-11.0-92.0","","","","false","","","","","","","","","","999.7000000476837","","241.09999990463257","","1","1","arrowleft","0","arrowright","[0.85,0.15,0.675,0.325]","","",""
"sailing-trial","144","1072726","0.0-11.0-93.0","","","","false","","","","","","","","","","null","","1003.7000000476837","","0","1","null","null","arrowup","[0.85,0.15,0.675,0.325]","","",""
"sailing-trial","145","1077398","0.0-11.0-94.0","","","","false","","","","","","","","","","613.3999998569489","","9.700000047683716","","3","0","arrowright","1","arrowright","[0.85,0.15,0.675,0.325]","","",""
"sailing-trial","146","1080256","0.0-11.0-95.0","","","","false","","","","","","","","","","null","","589.2000000476837","","2","1","null","null","arrowup","[0.85,0.15,0.675,0.325]","","",""
"sailing-trial","147","1084513","0.0-11.0-96.0","","","","false","","","","","","","","","","60.40000009536743","","155.79999995231628","","1","0","arrowleft","0","arrowright","[0.85,0.15,0.675,0.325]","","",""
"sailing-trial","148","1088197","0.0-11.0-97.0","","","","false","","","","","","","","","","null","","665.5","","1","0","null","null","arrowup","[0.85,0.15,0.675,0.325]","","",""
"sailing-trial","149","1093017","0.0-11.0-98.0","","","","false","","","","","","","","","","471.7000000476837","","300.5","","2","0","arrowright","1","arrowleft","[0.675,0.325,0.85,0.15]","","",""
"sailing-trial","150","1096359","0.0-11.0-99.0","","","","false","","","","","","","","","","null","","975.0999999046326","","3","0","null","null","arrowup","[0.675,0.325,0.85,0.15]","","",""
"sailing-trial","151","1101131","0.0-11.0-100.0","","","","false","","","","","","","","","","568.7999999523163","","170.20000004768372","","1","0","arrowleft","0","arrowright","[0.675,0.325,0.85,0.15]","","",""
"sailing-trial","152","1105121","0.0-11.0-101.0","","","","false","","","","","","","","","","null","","967.8000001907349","","1","0","null","null","arrowup","[0.675,0.325,0.85,0.15]","","",""
"sailing-trial","153","1109957","0.0-11.0-102.0","","","","false","","","","","","","","","","570.8999998569489","","212.09999990463257","","0","0","arrowleft","0","arrowleft","[0.675,0.325,0.85,0.15]","","",""
"sailing-trial","154","1112474","0.0-11.0-103.0","","","","false","","","","","","","","","","null","","586.5","","2","1","null","null","arrowup","[0.675,0.325,0.85,0.15]","","",""
"sailing-trial","155","1116033","0.0-11.0-104.0","","","","false","","","","","","","","","","507.39999985694885","","134.70000004768372","","2","1","arrowright","1","arrowleft","[0.675,0.325,0.85,0.15]","","",""
"sailing-trial","156","1118380","0.0-11.0-105.0","","","","false","","","","","","","","","","null","","548.8999998569489","","0","1","null","null","arrowup","[0.675,0.325,0.85,0.15]","","",""
"sailing-trial","157","1121943","0.0-11.0-106.0","","","","false","","","","","","","","","","518.0999999046326","","193.40000009536743","","2","1","arrowright","1","arrowleft","[0.675,0.325,0.85,0.15]","","",""
"sailing-trial","158","1124424","0.0-11.0-107.0","","","","false","","","","","","","","","","null","","681.2000000476837","","1","1","null","null","arrowup","[0.675,0.325,0.85,0.15]","","",""
"sailing-trial","159","1129030","0.0-11.0-108.0","","","","false","","","","","","","","","","468.2999999523163","","99.60000014305115","","1","0","arrowleft","0","arrowright","[0.675,0.325,0.85,0.15]","","",""
"sailing-trial","160","1132681","0.0-11.0-109.0","","","","false","","","","","","","","","","null","","631.2000000476837","","3","0","null","null","arrowup","[0.675,0.325,0.85,0.15]","","",""
"sailing-trial","161","1136635","0.0-11.0-110.0","","","","false","","","","","","","","","","469.7000000476837","","417.2999999523163","","2","1","arrowright","1","arrowleft","[0.675,0.325,0.85,0.15]","","",""
"sailing-trial","162","1141045","0.0-11.0-111.0","","","","false","","","","","","","","","","null","","1387.5","","0","0","null","null","arrowup","[0.675,0.325,0.85,0.15]","","",""
"sailing-trial","163","1144763","0.0-11.0-112.0","","","","false","","","","","","","","","","466.7000000476837","","379.2999999523163","","1","1","arrowleft","0","arrowright","[0.675,0.325,0.85,0.15]","","",""
"sailing-trial","164","1148084","0.0-11.0-113.0","","","","false","","","","","","","","","","null","","1456","","2","1","null","null","arrowup","[0.675,0.325,0.85,0.15]","","",""
"sailing-trial","165","1160936","0.0-11.0-114.0","","","","false","","","","","","","","","","8668.900000095367","","136.10000014305115","","0","0","arrowleft","0","arrowleft","[0.325,0.675,0.15,0.85]","","",""
"sailing-trial","166","1166112","0.0-11.0-115.0","","","","false","","","","","","","","","","null","","2156.2999999523163","","0","0","null","null","arrowup","[0.325,0.675,0.15,0.85]","","",""
"sailing-trial","167","1170787","0.0-11.0-116.0","","","","false","","","","","","","","","","561.0999999046326","","70","","2","0","arrowright","1","arrowleft","[0.325,0.675,0.15,0.85]","","",""
"sailing-trial","168","1174548","0.0-11.0-117.0","","","","false","","","","","","","","","","null","","732.4000000953674","","2","0","null","null","arrowup","[0.325,0.675,0.15,0.85]","","",""
"sailing-trial","169","1181629","0.0-11.0-118.0","","","","false","","","","","","","","","","2808.699999809265","","242.19999980926514","","0","0","arrowleft","0","arrowleft","[0.325,0.675,0.15,0.85]","","",""
"sailing-trial","170","1187289","0.0-11.0-119.0","","","","false","","","","","","","","","","null","","2717.9000000953674","","1","1","null","null","arrowup","[0.325,0.675,0.15,0.85]","","",""
"sailing-trial","171","1195970","0.0-11.0-120.0","","","","false","","","","","","","","","","2910.0999999046326","","2466.7999999523163","","1","1","arrowleft","0","arrowright","[0.325,0.675,0.15,0.85]","","",""
"sailing-trial","172","1201916","0.0-11.0-121.0","","","","false","","","","","","","","","","null","","2936.800000190735","","3","0","null","null","arrowup","[0.325,0.675,0.15,0.85]","","",""
"sailing-trial","173","1210287","0.0-11.0-122.0","","","","false","","","","","","","","","","2321.699999809265","","2008.2000000476837","","0","0","arrowleft","0","arrowleft","[0.325,0.675,0.15,0.85]","","",""
"sailing-trial","174","1219137","0.0-11.0-123.0","","","","false","","","","","","","","","","null","","7270.600000143051","","0","0","null","null","arrowup","[0.325,0.675,0.15,0.85]","","",""
"sailing-trial","175","1224497","0.0-11.0-124.0","","","","false","","","","","","","","","","701","","609.8999998569489","","2","0","arrowright","1","arrowleft","[0.325,0.675,0.15,0.85]","","",""
"sailing-trial","176","1227578","0.0-11.0-125.0","","","","false","","","","","","","","","","null","","903.5","","3","1","null","null","arrowup","[0.325,0.675,0.15,0.85]","","",""
"sailing-trial","177","1231236","0.0-11.0-126.0","","","","false","","","","","","","","","","533.7999999523163","","131.90000009536743","","0","1","arrowleft","0","arrowleft","[0.325,0.675,0.15,0.85]","","",""
"sailing-trial","178","1234278","0.0-11.0-127.0","","","","false","","","","","","","","","","null","","730.5999999046326","","2","0","null","null","arrowup","[0.325,0.675,0.15,0.85]","","",""
"sailing-trial","179","1239428","0.0-11.0-128.0","","","","false","","","","","","","","","","719.9000000953674","","287.09999990463257","","3","0","arrowright","1","arrowright","[0.325,0.675,0.15,0.85]","","",""
"sailing-trial","180","1242221","0.0-11.0-129.0","","","","false","","","","","","","","","","null","","853.0999999046326","","1","0","null","null","arrowup","[0.325,0.675,0.15,0.85]","","",""
"sailing-trial","181","1245913","0.0-11.0-130.0","","","","false","","","","","","","","","","578","","190.80000019073486","","1","1","arrowleft","0","arrowright","[0.325,0.675,0.15,0.85]","","",""
"sailing-trial","182","1249171","0.0-11.0-131.0","","","","false","","","","","","","","","","null","","1290.5999999046326","","3","1","null","null","arrowup","[0.325,0.675,0.15,0.85]","","",""
"sailing-trial","183","1253420","0.0-11.0-132.0","","","","false","","","","","","","","","","516.8000001907349","","171.70000004768372","","2","1","arrowright","1","arrowleft","[0.85,0.15,0.675,0.325]","","",""
"sailing-trial","184","1260102","0.0-11.0-133.0","","","","false","","","","","","","","","","null","","3659.7999999523163","","3","0","null","null","arrowup","[0.85,0.15,0.675,0.325]","","",""
"sailing-trial","185","1263868","0.0-11.0-134.0","","","","false","","","","","","","","","","584.5999999046326","","22","","0","1","arrowleft","0","arrowleft","[0.85,0.15,0.675,0.325]","","",""
"sailing-trial","186","1268262","0.0-11.0-135.0","","","","false","","","","","","","","","","null","","1375","","2","0","null","null","arrowup","[0.85,0.15,0.675,0.325]","","",""
"sailing-trial","187","1274230","0.0-11.0-136.0","","","","false","","","","","","","","","","505.60000014305115","","1420.8999998569489","","3","0","arrowright","1","arrowright","[0.85,0.15,0.675,0.325]","","",""
"sailing-trial","188","1278438","0.0-11.0-137.0","","","","false","","","","","","","","","","null","","1189.1999998092651","","2","0","null","null","arrowup","[0.85,0.15,0.675,0.325]","","",""
"sailing-trial","189","1282977","0.0-11.0-138.0","","","","false","","","","","","","","","","476.7999999523163","","19.5","","1","0","arrowleft","0","arrowright","[0.85,0.15,0.675,0.325]","","",""
"sailing-trial","190","1286988","0.0-11.0-139.0","","","","false","","","","","","","","","","null","","987.0999999046326","","3","0","null","null","arrowup","[0.85,0.15,0.675,0.325]","","",""
"sailing-trial","191","1291580","0.0-11.0-140.0","","","","false","","","","","","","","","","439.09999990463257","","107","","2","0","arrowright","1","arrowleft","[0.85,0.15,0.675,0.325]","","",""
"sailing-trial","192","1295694","0.0-11.0-141.0","","","","false","","","","","","","","","","null","","1411.0999999046326","","0","1","null","null","arrowup","[0.85,0.15,0.675,0.325]","","",""
"sailing-trial","193","1303867","0.0-11.0-142.0","","","","false","","","","","","","","","","3006.7000000476837","","1281.4000000953674","","1","1","arrowleft","0","arrowright","[0.85,0.15,0.675,0.325]","","",""
"sailing-trial","194","1308152","0.0-11.0-143.0","","","","false","","","","","","","","","","null","","1256.4000000953674","","2","0","null","null","arrowup","[0.85,0.15,0.675,0.325]","","",""
"sailing-trial","195","1315227","0.0-11.0-144.0","","","","false","","","","","","","","","","4058.7999999523163","","139","","2","1","arrowright","1","arrowleft","[0.85,0.15,0.675,0.325]","","",""
"sailing-trial","196","1321306","0.0-11.0-145.0","","","","false","","","","","","","","","","null","","3058.800000190735","","2","0","null","null","arrowup","[0.85,0.15,0.675,0.325]","","",""
"sailing-trial","197","1334708","0.0-11.0-146.0","","","","false","","","","","","","","","","3321.899999856949","","5219.899999856949","","0","1","arrowleft","0","arrowleft","[0.85,0.15,0.675,0.325]","","",""
"sailing-trial","198","1337671","0.0-11.0-147.0","","","","false","","","","","","","","","","null","","965.7999999523163","","1","0","null","null","arrowup","[0.85,0.15,0.675,0.325]","","",""
"sailing-trial","199","1342514","0.0-11.0-148.0","","","","false","","","","","","","","","","1427.2000000476837","","459.10000014305115","","2","0","arrowright","1","arrowleft","[0.675,0.325,0.85,0.15]","","",""
"sailing-trial","200","1347181","0.0-11.0-149.0","","","","false","","","","","","","","","","null","","1636","","0","0","null","null","arrowup","[0.675,0.325,0.85,0.15]","","",""
"sailing-trial","201","1352252","0.0-11.0-150.0","","","","false","","","","","","","","","","704.6999998092651","","315.7000000476837","","3","0","arrowright","1","arrowright","[0.675,0.325,0.85,0.15]","","",""
"sailing-trial","202","1356024","0.0-11.0-151.0","","","","false","","","","","","","","","","null","","743.7999999523163","","2","0","null","null","arrowup","[0.675,0.325,0.85,0.15]","","",""
"sailing-trial","203","1360659","0.0-11.0-152.0","","","","false","","","","","","","","","","516.3999998569489","","52.60000014305115","","1","0","arrowleft","0","arrowright","[0.675,0.325,0.85,0.15]","","",""
"sailing-trial","204","1364489","0.0-11.0-153.0","","","","false","","","","","","","","","","null","","1428.9000000953674","","2","1","null","null","arrowup","[0.675,0.325,0.85,0.15]","","",""
"sailing-trial","205","1372054","0.0-11.0-154.0","","","","false","","","","","","","","","","2075.9000000953674","","2329","","2","1","arrowright","1","arrowleft","[0.675,0.325,0.85,0.15]","","",""
"sailing-trial","206","1377335","0.0-11.0-155.0","","","","false","","","","","","","","","","null","","2559.2000000476837","","2","1","null","null","arrowup","[0.675,0.325,0.85,0.15]","","",""
"sailing-trial","207","1384695","0.0-11.0-156.0","","","","false","","","","","","","","","","2123.399999856949","","1101.1999998092651","","1","1","arrowleft","0","arrowright","[0.675,0.325,0.85,0.15]","","",""
"sailing-trial","208","1390661","0.0-11.0-157.0","","","","false","","","","","","","","","","null","","3759.7000000476837","","0","1","null","null","arrowup","[0.675,0.325,0.85,0.15]","","",""
"sailing-trial","209","1395701","0.0-11.0-158.0","","","","false","","","","","","","","","","980.7999999523163","","687","","2","1","arrowright","1","arrowleft","[0.675,0.325,0.85,0.15]","","",""
"sailing-trial","210","1400461","0.0-11.0-159.0","","","","false","","","","","","","","","","null","","2206.2999999523163","","0","1","null","null","arrowup","[0.675,0.325,0.85,0.15]","","",""
"sailing-trial","211","1404270","0.0-11.0-160.0","","","","false","","","","","","","","","","693.2999999523163","","83.10000014305115","","1","0","arrowleft","0","arrowright","[0.675,0.325,0.85,0.15]","","",""
"sailing-trial","212","1407428","0.0-11.0-161.0","","","","false","","","","","","","","","","null","","942.4000000953674","","2","1","null","null","arrowup","[0.675,0.325,0.85,0.15]","","",""
"sailing-trial","213","1412152","0.0-11.0-162.0","","","","false","","","","","","","","","","770.7999999523163","","662.5999999046326","","2","1","arrowright","1","arrowleft","[0.675,0.325,0.85,0.15]","","",""
"sailing-trial","214","1415217","0.0-11.0-163.0","","","","false","","","","","","","","","","null","","948.4000000953674","","2","1","null","null","arrowup","[0.675,0.325,0.85,0.15]","","",""
"sailing-trial","215","1421377","0.0-11.0-164.0","","","","false","","","","","","","","","","522.3999998569489","","1611.9000000953674","","1","0","arrowleft","0","arrowright","[0.85,0.15,0.675,0.325]","","",""
"sailing-trial","216","1430568","0.0-11.0-165.0","","","","false","","","","","","","","","","null","","6169.399999856949","","3","0","null","null","arrowup","[0.85,0.15,0.675,0.325]","","",""
"sailing-trial","217","1435529","0.0-11.0-166.0","","","","false","","","","","","","","","","570.2000000476837","","343.60000014305115","","3","0","arrowright","1","arrowright","[0.85,0.15,0.675,0.325]","","",""
"sailing-trial","218","1439417","0.0-11.0-167.0","","","","false","","","","","","","","","","null","","865","","1","0","null","null","arrowup","[0.85,0.15,0.675,0.325]","","",""
"sailing-trial","219","1444209","0.0-11.0-168.0","","","","false","","","","","","","","","","633.5","","116.90000009536743","","1","0","arrowleft","0","arrowright","[0.85,0.15,0.675,0.325]","","",""
"sailing-trial","220","1448125","0.0-11.0-169.0","","","","false","","","","","","","","","","null","","886.6000001430511","","3","0","null","null","arrowup","[0.85,0.15,0.675,0.325]","","",""
"sailing-trial","221","1451985","0.0-11.0-170.0","","","","false","","","","","","","","","","535.1999998092651","","57.799999952316284","","0","1","arrowleft","0","arrowleft","[0.85,0.15,0.675,0.325]","","",""
"sailing-trial","222","1457135","0.0-11.0-171.0","","","","false","","","","","","","","","","null","","3017.600000143051","","3","1","null","null","arrowup","[0.85,0.15,0.675,0.325]","","",""
"sailing-trial","223","1463984","0.0-11.0-172.0","","","","false","","","","","","","","","","757.4000000953674","","2900.7000000476837","","2","1","arrowright","1","arrowleft","[0.85,0.15,0.675,0.325]","","",""
"sailing-trial","224","1470210","0.0-11.0-173.0","","","","false","","","","","","","","","","null","","3293","","1","0","null","null","arrowup","[0.85,0.15,0.675,0.325]","","",""
"sailing-trial","225","1475902","0.0-11.0-174.0","","","","false","","","","","","","","","","1112.8000001907349","","539.2999999523163","","0","0","arrowleft","0","arrowleft","[0.85,0.15,0.675,0.325]","","",""
"sailing-trial","226","1479951","0.0-11.0-175.0","","","","false","","","","","","","","","","null","","1018.4000000953674","","1","0","null","null","arrowup","[0.85,0.15,0.675,0.325]","","",""
"sailing-trial","227","1485379","0.0-11.0-176.0","","","","false","","","","","","","","","","1046.7000000476837","","205.5","","1","1","arrowleft","0","arrowright","[0.85,0.15,0.675,0.325]","","",""
"sailing-trial","228","1488259","0.0-11.0-177.0","","","","false","","","","","","","","","","null","","770","","1","0","null","null","arrowup","[0.85,0.15,0.675,0.325]","","",""
"sailing-trial","229","1494160","0.0-11.0-178.0","","","","false","","","","","","","","","","1052.6000001430511","","1408.0999999046326","","2","1","arrowright","1","arrowleft","[0.85,0.15,0.675,0.325]","","",""
"sailing-trial","230","1498501","0.0-11.0-179.0","","","","false","","","","","","","","","","null","","1908.7999999523163","","0","1","null","null","arrowup","[0.85,0.15,0.675,0.325]","","",""
"sailing-trial","231","1503817","0.0-11.0-180.0","","","","false","","","","","","","","","","818.4000000953674","","724.1000001430511","","1","0","arrowleft","0","arrowright","[0.85,0.15,0.675,0.325]","","",""
"sailing-trial","232","1507236","0.0-11.0-181.0","","","","false","","","","","","","","","","null","","1179","","2","1","null","null","arrowup","[0.85,0.15,0.675,0.325]","","",""
"sailing-trial","233","1513745","0.0-11.0-182.0","","","","false","","","","","","","","","","761.7999999523163","","1691.6000001430511","","2","0","arrowright","1","arrowleft","[0.675,0.325,0.85,0.15]","","",""
"sailing-trial","234","1517715","0.0-11.0-183.0","","","","false","","","","","","","","","","null","","949.7999999523163","","2","0","null","null","arrowup","[0.675,0.325,0.85,0.15]","","",""
"sailing-trial","235","1522434","0.0-11.0-184.0","","","","false","","","","","","","","","","528.1000001430511","","267.59999990463257","","3","0","arrowright","1","arrowright","[0.675,0.325,0.85,0.15]","","",""
"sailing-trial","236","1526510","0.0-11.0-185.0","","","","false","","","","","","","","","","null","","1583.4000000953674","","3","0","null","null","arrowup","[0.675,0.325,0.85,0.15]","","",""
"sailing-trial","237","1531632","0.0-11.0-186.0","","","","false","","","","","","","","","","920.2000000476837","","157.29999995231628","","1","0","arrowleft","0","arrowright","[0.675,0.325,0.85,0.15]","","",""
"sailing-trial","238","1535309","0.0-11.0-187.0","","","","false","","","","","","","","","","null","","1337.8999998569489","","0","1","null","null","arrowup","[0.675,0.325,0.85,0.15]","","",""
"sailing-trial","239","1540368","0.0-11.0-188.0","","","","false","","","","","","","","","","1292.0999999046326","","51.799999952316284","","0","0","arrowleft","0","arrowleft","[0.675,0.325,0.85,0.15]","","",""
"sailing-trial","240","1543893","0.0-11.0-189.0","","","","false","","","","","","","","","","null","","1135.5999999046326","","0","1","null","null","arrowup","[0.675,0.325,0.85,0.15]","","",""
"sailing-trial","241","1551118","0.0-11.0-190.0","","","","false","","","","","","","","","","737.1000001430511","","2782.2999999523163","","2","1","arrowright","1","arrowleft","[0.675,0.325,0.85,0.15]","","",""
"sailing-trial","242","1555249","0.0-11.0-191.0","","","","false","","","","","","","","","","null","","1260.2999999523163","","2","1","null","null","arrowup","[0.675,0.325,0.85,0.15]","","",""
"sailing-trial","243","1560798","0.0-11.0-192.0","","","","false","","","","","","","","","","850.9000000953674","","658.1000001430511","","3","0","arrowright","1","arrowright","[0.675,0.325,0.85,0.15]","","",""
"sailing-trial","244","1563542","0.0-11.0-193.0","","","","false","","","","","","","","","","null","","879.8000001907349","","0","0","null","null","arrowup","[0.675,0.325,0.85,0.15]","","",""
"sailing-trial","245","1568017","0.0-11.0-194.0","","","","false","","","","","","","","","","876.0999999046326","","120.20000004768372","","1","0","arrowleft","0","arrowright","[0.675,0.325,0.85,0.15]","","",""
"sailing-trial","246","1572220","0.0-11.0-195.0","","","","false","","","","","","","","","","null","","1183.9000000953674","","0","0","null","null","arrowup","[0.675,0.325,0.85,0.15]","","",""
"sailing-trial","247","1576202","0.0-11.0-196.0","","","","false","","","","","","","","","","666.7999999523163","","60.299999952316284","","0","1","arrowleft","0","arrowleft","[0.675,0.325,0.85,0.15]","","",""
"sailing-trial","248","1581603","0.0-11.0-197.0","","","","false","","","","","","","","","","null","","2373.0999999046326","","2","0","null","null","arrowup","[0.675,0.325,0.85,0.15]","","",""
"sailing-trial","249","1588369","0.0-11.0-198.0","","","","false","","","","","","","","","","3438.0999999046326","","186.5","","0","1","arrowleft","0","arrowleft","[0.675,0.325,0.85,0.15]","","",""
"sailing-trial","250","1595868","0.0-11.0-199.0","","","","false","","","","","","","","","","null","","4469.599999904633","","3","0","null","null","arrowup","[0.675,0.325,0.85,0.15]","","",""
"sailing-trial","251","1600591","0.0-11.0-200.0","","","","false","","","","","","","","","","598.7000000476837","","79.20000004768372","","1","0","arrowleft","0","arrowright","[0.85,0.15,0.675,0.325]","","",""
"sailing-trial","252","1606132","0.0-11.0-201.0","","","","false","","","","","","","","","","null","","808.5","","0","1","null","null","arrowup","[0.85,0.15,0.675,0.325]","","",""
"sailing-trial","253","1609999","0.0-11.0-202.0","","","","false","","","","","","","","","","675.8999998569489","","250.5","","3","1","arrowright","1","arrowright","[0.85,0.15,0.675,0.325]","","",""
"sailing-trial","254","1612706","0.0-11.0-203.0","","","","false","","","","","","","","","","null","","858.3999998569489","","2","1","null","null","arrowup","[0.85,0.15,0.675,0.325]","","",""
"sailing-trial","255","1616301","0.0-11.0-204.0","","","","false","","","","","","","","","","563","","204.90000009536743","","2","1","arrowright","1","arrowleft","[0.85,0.15,0.675,0.325]","","",""
"sailing-trial","256","1620298","0.0-11.0-205.0","","","","false","","","","","","","","","","null","","1008.4000000953674","","3","0","null","null","arrowup","[0.85,0.15,0.675,0.325]","","",""
"sailing-trial","257","1624117","0.0-11.0-206.0","","","","false","","","","","","","","","","544.7999999523163","","154.30000019073486","","3","1","arrowright","1","arrowright","[0.85,0.15,0.675,0.325]","","",""
"sailing-trial","258","1625999","0.0-11.0-207.0","","","","false","","","","","","","","","","null","","486.7999999523163","","3","0","null","null","arrowup","[0.85,0.15,0.675,0.325]","","",""
"sailing-trial","259","1633042","0.0-11.0-208.0","","","","false","","","","","","","","","","3636.9000000953674","","260","","0","1","arrowleft","0","arrowleft","[0.85,0.15,0.675,0.325]","","",""
"sailing-trial","260","1637434","0.0-11.0-209.0","","","","false","","","","","","","","","","null","","1375.7999999523163","","1","0","null","null","arrowup","[0.85,0.15,0.675,0.325]","","",""
"sailing-trial","261","1645094","0.0-11.0-210.0","","","","false","","","","","","","","","","3960.800000190735","","366.40000009536743","","3","1","arrowright","1","arrowright","[0.85,0.15,0.675,0.325]","","",""
"sailing-trial","262","1648952","0.0-11.0-211.0","","","","false","","","","","","","","","","null","","1408.3999998569489","","0","1","null","null","arrowup","[0.85,0.15,0.675,0.325]","","",""
"sailing-trial","263","1653167","0.0-11.0-212.0","","","","false","","","","","","","","","","525.1000001430511","","329.60000014305115","","1","1","arrowleft","0","arrowright","[0.85,0.15,0.675,0.325]","","",""
"sailing-trial","264","1657747","0.0-11.0-213.0","","","","false","","","","","","","","","","null","","1550.3999998569489","","3","0","null","null","arrowup","[0.85,0.15,0.675,0.325]","","",""
"sailing-trial","265","1664049","0.0-11.0-214.0","","","","false","","","","","","","","","","980.6999998092651","","2436.7999999523163","","0","1","arrowleft","0","arrowleft","[0.85,0.15,0.675,0.325]","","",""
"sailing-trial","266","1667369","0.0-11.0-215.0","","","","false","","","","","","","","","","null","","1185.3999998569489","","0","1","null","null","arrowup","[0.85,0.15,0.675,0.325]","","",""
"sailing-trial","267","1673469","0.0-11.0-216.0","","","","false","","","","","","","","","","1627.7000000476837","","1257.5999999046326","","3","1","arrowright","1","arrowright","[0.85,0.15,0.675,0.325]","","",""
"sailing-trial","268","1678116","0.0-11.0-217.0","","","","false","","","","","","","","","","null","","1623.7999999523163","","3","0","null","null","arrowup","[0.85,0.15,0.675,0.325]","","",""
"sailing-trial","269","1692884","0.0-11.0-218.0","","","","false","","","","","","","","","","7543.599999904633","","3265.2999999523163","","0","1","arrowleft","0","arrowleft","[0.85,0.15,0.675,0.325]","","",""
"sailing-trial","270","1696691","0.0-11.0-219.0","","","","false","","","","","","","","","","null","","1224.7000000476837","","0","1","null","null","arrowup","[0.85,0.15,0.675,0.325]","","",""
"sailing-trial","271","1701066","0.0-11.0-220.0","","","","false","","","","","","","","","","533.7999999523163","","454.7000000476837","","3","0","arrowright","1","arrowright","[0.675,0.325,0.85,0.15]","","",""
"sailing-trial","272","1705523","0.0-11.0-221.0","","","","false","","","","","","","","","","null","","1432.7000000476837","","1","0","null","null","arrowup","[0.675,0.325,0.85,0.15]","","",""
"sailing-trial","273","1710224","0.0-11.0-222.0","","","","false","","","","","","","","","","587","","959.2000000476837","","1","1","arrowleft","0","arrowright","[0.675,0.325,0.85,0.15]","","",""
"sailing-trial","274","1714499","0.0-11.0-223.0","","","","false","","","","","","","","","","null","","1259.7999999523163","","2","0","null","null","arrowup","[0.675,0.325,0.85,0.15]","","",""
"sailing-trial","275","1719946","0.0-11.0-224.0","","","","false","","","","","","","","","","2179.5","","81.40000009536743","","2","1","arrowright","1","arrowleft","[0.675,0.325,0.85,0.15]","","",""
"sailing-trial","276","1724432","0.0-11.0-225.0","","","","false","","","","","","","","","","null","","1466.9000000953674","","3","0","null","null","arrowup","[0.675,0.325,0.85,0.15]","","",""
"sailing-trial","277","1732100","0.0-11.0-226.0","","","","false","","","","","","","","","","2018.5","","2195.100000143051","","1","1","arrowleft","0","arrowright","[0.675,0.325,0.85,0.15]","","",""
"sailing-trial","278","1734793","0.0-11.0-227.0","","","","false","","","","","","","","","","null","","692.7999999523163","","3","1","null","null","arrowup","[0.675,0.325,0.85,0.15]","","",""
"sailing-trial","279","1740151","0.0-11.0-228.0","","","","false","","","","","","","","","","596.7999999523163","","1898.8999998569489","","2","1","arrowright","1","arrowleft","[0.675,0.325,0.85,0.15]","","",""
"sailing-trial","280","1744798","0.0-11.0-229.0","","","","false","","","","","","","","","","null","","1920.0999999046326","","3","0","null","null","arrowup","[0.675,0.325,0.85,0.15]","","",""
"sailing-trial","281","1749734","0.0-11.0-230.0","","","","false","","","","","","","","","","1116.5","","920.0999999046326","","0","1","arrowleft","0","arrowleft","[0.675,0.325,0.85,0.15]","","",""
"sailing-trial","282","1755423","0.0-11.0-231.0","","","","false","","","","","","","","","","null","","2662.9000000953674","","1","0","null","null","arrowup","[0.675,0.325,0.85,0.15]","","",""
"sailing-trial","283","1759983","0.0-11.0-232.0","","","","false","","","","","","","","","","1209.8999998569489","","318.7999999523163","","2","1","arrowright","1","arrowleft","[0.675,0.325,0.85,0.15]","","",""
"sailing-trial","284","1762252","0.0-11.0-233.0","","","","false","","","","","","","","","","null","","451.7000000476837","","2","1","null","null","arrowup","[0.675,0.325,0.85,0.15]","","",""
"sailing-trial","285","1766519","0.0-11.0-234.0","","","","false","","","","","","","","","","567.6000001430511","","226","","2","1","arrowright","1","arrowleft","[0.675,0.325,0.85,0.15]","","",""
"sailing-trial","286","1769026","0.0-11.0-235.0","","","","false","","","","","","","","","","null","","697.7999999523163","","0","1","null","null","arrowup","[0.675,0.325,0.85,0.15]","","",""
"sailing-trial","287","1773707","0.0-11.0-236.0","","","","false","","","","","","","","","","607.1000001430511","","97.19999980926514","","0","0","arrowleft","0","arrowleft","[0.85,0.15,0.675,0.325]","","",""
"sailing-trial","288","1775757","0.0-11.0-237.0","","","","false","","","","","","","","","","null","","715.0999999046326","","2","0","null","null","arrowup","[0.85,0.15,0.675,0.325]","","",""
"sailing-trial","289","1779327","0.0-11.0-238.0","","","","false","","","","","","","","","","463.60000014305115","","246.80000019073486","","2","1","arrowright","1","arrowleft","[0.85,0.15,0.675,0.325]","","",""
"sailing-trial","290","1781741","0.0-11.0-239.0","","","","false","","","","","","","","","","null","","639.3999998569489","","1","1","null","null","arrowup","[0.85,0.15,0.675,0.325]","","",""
"sailing-trial","291","1785642","0.0-11.0-240.0","","","","false","","","","","","","","","","208.89999985694885","","814.6000001430511","","2","1","arrowright","1","arrowleft","[0.85,0.15,0.675,0.325]","","",""
"sailing-trial","292","1789575","0.0-11.0-241.0","","","","false","","","","","","","","","","null","","900.6999998092651","","1","0","null","null","arrowup","[0.85,0.15,0.675,0.325]","","",""
"sailing-trial","293","1793109","0.0-11.0-242.0","","","","false","","","","","","","","","","526.5","","147.10000014305115","","2","1","arrowright","1","arrowleft","[0.85,0.15,0.675,0.325]","","",""
"sailing-trial","294","1795532","0.0-11.0-243.0","","","","false","","","","","","","","","","null","","652.5","","2","1","null","null","arrowup","[0.85,0.15,0.675,0.325]","","",""
"sailing-trial","295","1799025","0.0-11.0-244.0","","","","false","","","","","","","","","","499.2000000476837","","140.29999995231628","","2","1","arrowright","1","arrowleft","[0.85,0.15,0.675,0.325]","","",""
"sailing-trial","296","1801690","0.0-11.0-245.0","","","","false","","","","","","","","","","null","","574.6000001430511","","0","1","null","null","arrowup","[0.85,0.15,0.675,0.325]","","",""
"sailing-trial","297","1805482","0.0-11.0-246.0","","","","false","","","","","","","","","","586.5","","236.29999995231628","","2","1","arrowright","1","arrowleft","[0.85,0.15,0.675,0.325]","","",""
"sailing-trial","298","1809464","0.0-11.0-247.0","","","","false","","","","","","","","","","null","","957.5","","1","0","null","null","arrowup","[0.85,0.15,0.675,0.325]","","",""
"sailing-trial","299","1816505","0.0-11.0-248.0","","","","false","","","","","","","","","","3717.9000000953674","","121.79999995231628","","2","1","arrowright","1","arrowleft","[0.85,0.15,0.675,0.325]","","",""
"sailing-trial","300","1820934","0.0-11.0-249.0","","","","false","","","","","","","","","","null","","2421.5","","3","1","null","null","arrowup","[0.85,0.15,0.675,0.325]","","",""
"sailing-trial","301","1826268","0.0-11.0-250.0","","","","false","","","","","","","","","","792.3999998569489","","340.5","","2","1","arrowright","1","arrowleft","[0.85,0.15,0.675,0.325]","","",""
"sailing-trial","302","1830510","0.0-11.0-251.0","","","","false","","","","","","","","","","null","","1203.5","","1","0","null","null","arrowup","[0.85,0.15,0.675,0.325]","","",""
"sailing-trial","303","1837457","0.0-11.0-252.0","","","","false","","","","","","","","","","642.5","","3356.2999999523163","","2","1","arrowright","1","arrowleft","[0.85,0.15,0.675,0.325]","","",""
"sailing-trial","304","1841598","0.0-11.0-253.0","","","","false","","","","","","","","","","null","","1152","","1","0","null","null","arrowup","[0.85,0.15,0.675,0.325]","","",""
"sailing-trial","305","1847107","0.0-11.0-254.0","","","","false","","","","","","","","","","714.3000001907349","","801.5999999046326","","2","0","arrowright","1","arrowleft","[0.85,0.15,0.675,0.325]","","",""
"sailing-trial","306","1850196","0.0-11.0-255.0","","","","false","","","","","","","","","","null","","886.1000001430511","","0","1","null","null","arrowup","[0.85,0.15,0.675,0.325]","","",""
"sailing-trial","307","1854483","0.0-11.0-256.0","","","","false","","","","","","","","","","588.7999999523163","","506.5","","1","1","arrowleft","0","arrowright","[0.675,0.325,0.85,0.15]","","",""
"sailing-trial","308","1858298","0.0-11.0-257.0","","","","false","","","","","","","","","","null","","796","","3","0","null","null","arrowup","[0.675,0.325,0.85,0.15]","","",""
"sailing-trial","309","1862443","0.0-11.0-258.0","","","","false","","","","","","","","","","526.7999999523163","","376","","2","1","arrowright","1","arrowleft","[0.675,0.325,0.85,0.15]","","",""
"sailing-trial","310","1866993","0.0-11.0-259.0","","","","false","","","","","","","","","","null","","2482.2000000476837","","0","1","null","null","arrowup","[0.675,0.325,0.85,0.15]","","",""
"sailing-trial","311","1871542","0.0-11.0-260.0","","","","false","","","","","","","","","","873.2999999523163","","449.90000009536743","","1","1","arrowleft","0","arrowright","[0.675,0.325,0.85,0.15]","","",""
"sailing-trial","312","1874792","0.0-11.0-261.0","","","","false","","","","","","","","","","null","","842.2999999523163","","0","1","null","null","arrowup","[0.675,0.325,0.85,0.15]","","",""
"sailing-trial","313","1878193","0.0-11.0-262.0","","","","false","","","","","","","","","","628.7000000476837","","426.19999980926514","","1","0","arrowleft","0","arrowright","[0.675,0.325,0.85,0.15]","","",""
"sailing-trial","314","1880847","0.0-11.0-263.0","","","","false","","","","","","","","","","null","","1150.5","","2","0","null","null","arrowup","[0.675,0.325,0.85,0.15]","","",""
"sailing-trial","315","1884997","0.0-11.0-264.0","","","","false","","","","","","","","","","1053.6000001430511","","162.20000004768372","","0","0","arrowleft","0","arrowleft","[0.675,0.325,0.85,0.15]","","",""
"sailing-trial","316","1887216","0.0-11.0-265.0","","","","false","","","","","","","","","","null","","953.5","","1","0","null","null","arrowup","[0.675,0.325,0.85,0.15]","","",""
"sailing-trial","317","1890492","0.0-11.0-266.0","","","","false","","","","","","","","","","285.2999999523163","","24.800000190734863","","2","1","arrowright","1","arrowleft","[0.675,0.325,0.85,0.15]","","",""
"sailing-trial","318","1893608","0.0-11.0-267.0","","","","false","","","","","","","","","","null","","1283.0999999046326","","2","1","null","null","arrowup","[0.675,0.325,0.85,0.15]","","",""
"sailing-trial","319","1898696","0.0-11.0-268.0","","","","false","","","","","","","","","","491.30000019073486","","558.2000000476837","","3","0","arrowright","1","arrowright","[0.675,0.325,0.85,0.15]","","",""
"sailing-trial","320","1901868","0.0-11.0-269.0","","","","false","","","","","","","","","","null","","872.8000001907349","","1","1","null","null","arrowup","[0.675,0.325,0.85,0.15]","","",""
"sailing-trial","321","1905475","0.0-11.0-270.0","","","","false","","","","","","","","","","671.9000000953674","","106.89999985694885","","0","1","arrowleft","0","arrowleft","[0.675,0.325,0.85,0.15]","","",""
"sailing-trial","322","1907825","0.0-11.0-271.0","","","","false","","","","","","","","","","null","","1056.7999999523163","","3","0","null","null","arrowup","[0.675,0.325,0.85,0.15]","","",""
"sailing-trial","323","1911648","0.0-11.0-272.0","","","","false","","","","","","","","","","503.7000000476837","","238.90000009536743","","1","0","arrowleft","0","arrowright","[0.85,0.15,0.675,0.325]","","",""
"sailing-trial","324","1914230","0.0-11.0-273.0","","","","false","","","","","","","","","","null","","800.7000000476837","","2","1","null","null","arrowup","[0.85,0.15,0.675,0.325]","","",""
"sailing-trial","325","1917683","0.0-11.0-274.0","","","","false","","","","","","","","","","437.5","","145.29999995231628","","2","0","arrowright","1","arrowleft","[0.85,0.15,0.675,0.325]","","",""
"sailing-trial","326","1919832","0.0-11.0-275.0","","","","false","","","","","","","","","","null","","812.5999999046326","","1","0","null","null","arrowup","[0.85,0.15,0.675,0.325]","","",""
"sailing-trial","327","1923239","0.0-11.0-276.0","","","","false","","","","","","","","","","375.80000019073486","","314.69999980926514","","1","0","arrowleft","0","arrowright","[0.85,0.15,0.675,0.325]","","",""
"sailing-trial","328","1925732","0.0-11.0-277.0","","","","false","","","","","","","","","","null","","688.0999999046326","","0","1","null","null","arrowup","[0.85,0.15,0.675,0.325]","","",""
"sailing-trial","329","1929310","0.0-11.0-278.0","","","","false","","","","","","","","","","225.39999985694885","","1071.4000000953674","","0","0","arrowleft","0","arrowleft","[0.85,0.15,0.675,0.325]","","",""
"sailing-trial","330","1931347","0.0-11.0-279.0","","","","false","","","","","","","","","","null","","778","","3","0","null","null","arrowup","[0.85,0.15,0.675,0.325]","","",""
"sailing-trial","331","1934271","0.0-11.0-280.0","","","","false","","","","","","","","","","395","","183.80000019073486","","3","0","arrowright","1","arrowright","[0.85,0.15,0.675,0.325]","","",""
"sailing-trial","332","1936363","0.0-11.0-281.0","","","","false","","","","","","","","","","null","","872.1000001430511","","2","0","null","null","arrowup","[0.85,0.15,0.675,0.325]","","",""
"sailing-trial","333","1940378","0.0-11.0-282.0","","","","false","","","","","","","","","","659.5","","414.60000014305115","","1","1","arrowleft","0","arrowright","[0.85,0.15,0.675,0.325]","","",""
"sailing-trial","334","1942791","0.0-11.0-283.0","","","","false","","","","","","","","","","null","","654.4000000953674","","2","1","null","null","arrowup","[0.85,0.15,0.675,0.325]","","",""
"sailing-trial","335","1946081","0.0-11.0-284.0","","","","false","","","","","","","","","","260.2000000476837","","159.89999985694885","","0","1","arrowleft","0","arrowleft","[0.85,0.15,0.675,0.325]","","",""
"sailing-trial","336","1948554","0.0-11.0-285.0","","","","false","","","","","","","","","","null","","592.0999999046326","","3","1","null","null","arrowup","[0.85,0.15,0.675,0.325]","","",""
"sailing-trial","337","1955678","0.0-11.0-286.0","","","","false","","","","","","","","","","680.8999998569489","","2726.9000000953674","","2","0","arrowright","1","arrowleft","[0.85,0.15,0.675,0.325]","","",""
"sailing-trial","338","1958324","0.0-11.0-287.0","","","","false","","","","","","","","","","null","","659.2999999523163","","1","0","null","null","arrowup","[0.85,0.15,0.675,0.325]","","",""
"sailing-trial","339","1962225","0.0-11.0-288.0","","","","false","","","","","","","","","","626","","812.5","","0","0","arrowleft","0","arrowleft","[0.325,0.675,0.15,0.85]","","",""
"sailing-trial","340","1965217","0.0-11.0-289.0","","","","false","","","","","","","","","","null","","1082.2999999523163","","0","1","null","null","arrowup","[0.325,0.675,0.15,0.85]","","",""
"sailing-trial","341","1971123","0.0-11.0-290.0","","","","false","","","","","","","","","","962.7999999523163","","174.29999995231628","","3","1","arrowright","1","arrowright","[0.325,0.675,0.15,0.85]","","",""
"sailing-trial","342","1975588","0.0-11.0-291.0","","","","false","","","","","","","","","","null","","1435.2000000476837","","2","0","null","null","arrowup","[0.325,0.675,0.15,0.85]","","",""
"sailing-trial","343","1981272","0.0-11.0-292.0","","","","false","","","","","","","","","","791.7999999523163","","1945.5","","1","1","arrowleft","0","arrowright","[0.325,0.675,0.15,0.85]","","",""
"sailing-trial","344","1984820","0.0-11.0-293.0","","","","false","","","","","","","","","","null","","1110.5999999046326","","3","1","null","null","arrowup","[0.325,0.675,0.15,0.85]","","",""
"sailing-trial","345","1989865","0.0-11.0-294.0","","","","false","","","","","","","","","","1379.0999999046326","","383.89999985694885","","1","1","arrowleft","0","arrowright","[0.325,0.675,0.15,0.85]","","",""
"sailing-trial","346","1993264","0.0-11.0-295.0","","","","false","","","","","","","","","","null","","747.8999998569489","","1","1","null","null","arrowup","[0.325,0.675,0.15,0.85]","","",""
"sailing-trial","347","1997830","0.0-11.0-296.0","","","","false","","","","","","","","","","699.5","","539.5999999046326","","1","1","arrowleft","0","arrowright","[0.325,0.675,0.15,0.85]","","",""
"sailing-trial","348","2001264","0.0-11.0-297.0","","","","false","","","","","","","","","","null","","1109.7000000476837","","3","1","null","null","arrowup","[0.325,0.675,0.15,0.85]","","",""
"sailing-trial","349","2005386","0.0-11.0-298.0","","","","false","","","","","","","","","","606.2999999523163","","564.2999999523163","","3","0","arrowright","1","arrowright","[0.325,0.675,0.15,0.85]","","",""
"sailing-trial","350","2009432","0.0-11.0-299.0","","","","false","","","","","","","","","","null","","2114.4000000953674","","1","1","null","null","arrowup","[0.325,0.675,0.15,0.85]","","",""
"sailing-trial","351","2013222","0.0-11.0-300.0","","","","false","","","","","","","","","","692.2000000476837","","172.20000004768372","","1","1","arrowleft","0","arrowright","[0.325,0.675,0.15,0.85]","","",""
"sailing-trial","352","2016440","0.0-11.0-301.0","","","","false","","","","","","","","","","null","","1132.7000000476837","","3","1","null","null","arrowup","[0.325,0.675,0.15,0.85]","","",""
"sailing-trial","353","2020455","0.0-11.0-302.0","","","","false","","","","","","","","","","741.2000000476837","","143.40000009536743","","2","1","arrowright","1","arrowleft","[0.325,0.675,0.15,0.85]","","",""
"sailing-trial","354","2023108","0.0-11.0-303.0","","","","false","","","","","","","","","","null","","817.5","","0","0","null","null","arrowup","[0.325,0.675,0.15,0.85]","","",""
"sailing-trial","355","2029090","0.0-11.0-304.0","","","","false","","","","","","","","","","913.7000000476837","","1023.0999999046326","","3","0","arrowright","1","arrowright","[0.85,0.15,0.675,0.325]","","",""
"sailing-trial","356","2031547","0.0-11.0-305.0","","","","false","","","","","","","","","","null","","1084.5","","3","0","null","null","arrowup","[0.85,0.15,0.675,0.325]","","",""
"sailing-trial","357","2034437","0.0-11.0-306.0","","","","false","","","","","","","","","","502.7999999523163","","112.70000004768372","","1","0","arrowleft","0","arrowright","[0.85,0.15,0.675,0.325]","","",""
"sailing-trial","358","2037254","0.0-11.0-307.0","","","","false","","","","","","","","","","null","","1226.8999998569489","","1","0","null","null","arrowup","[0.85,0.15,0.675,0.325]","","",""
"sailing-trial","359","2040589","0.0-11.0-308.0","","","","false","","","","","","","","","","335.89999985694885","","1","","2","1","arrowright","1","arrowleft","[0.85,0.15,0.675,0.325]","","",""
"sailing-trial","360","2043279","0.0-11.0-309.0","","","","false","","","","","","","","","","null","","905","","1","0","null","null","arrowup","[0.85,0.15,0.675,0.325]","","",""
"sailing-trial","361","2047534","0.0-11.0-310.0","","","","false","","","","","","","","","","787.6999998092651","","252.09999990463257","","2","0","arrowright","1","arrowleft","[0.85,0.15,0.675,0.325]","","",""
"sailing-trial","362","2050453","0.0-11.0-311.0","","","","false","","","","","","","","","","null","","898.8999998569489","","1","0","null","null","arrowup","[0.85,0.15,0.675,0.325]","","",""
"sailing-trial","363","2054239","0.0-11.0-312.0","","","","false","","","","","","","","","","701.3999998569489","","134.09999990463257","","3","1","arrowright","1","arrowright","[0.85,0.15,0.675,0.325]","","",""
"sailing-trial","364","2058323","0.0-11.0-313.0","","","","false","","","","","","","","","","null","","976.3999998569489","","2","1","null","null","arrowup","[0.85,0.15,0.675,0.325]","","",""
"sailing-trial","365","2061830","0.0-11.0-314.0","","","","false","","","","","","","","","","261","","175.5","","0","1","arrowleft","0","arrowleft","[0.85,0.15,0.675,0.325]","","",""
"sailing-trial","366","2064145","0.0-11.0-315.0","","","","false","","","","","","","","","","null","","952.7000000476837","","3","0","null","null","arrowup","[0.85,0.15,0.675,0.325]","","",""
"sailing-trial","367","2069105","0.0-11.0-316.0","","","","false","","","","","","","","","","434.40000009536743","","470.40000009536743","","3","0","arrowright","1","arrowright","[0.85,0.15,0.675,0.325]","","",""
"sailing-trial","368","2071964","0.0-11.0-317.0","","","","false","","","","","","","","","","null","","808.4000000953674","","3","1","null","null","arrowup","[0.85,0.15,0.675,0.325]","","",""
"sailing-trial","369","2075503","0.0-11.0-318.0","","","","false","","","","","","","","","","484.60000014305115","","153.89999985694885","","1","0","arrowleft","0","arrowright","[0.85,0.15,0.675,0.325]","","",""
"sailing-trial","370","2077755","0.0-11.0-319.0","","","","false","","","","","","","","","","null","","884.7000000476837","","2","0","null","null","arrowup","[0.85,0.15,0.675,0.325]","","",""
"sailing-trial","371","2081272","0.0-11.0-320.0","","","","false","","","","","","","","","","359.7000000476837","","220.69999980926514","","0","1","arrowleft","0","arrowleft","[0.85,0.15,0.675,0.325]","","",""
"sailing-trial","372","2083296","0.0-11.0-321.0","","","","false","","","","","","","","","","null","","747.7999999523163","","3","0","null","null","arrowup","[0.85,0.15,0.675,0.325]","","",""
"sailing-trial","373","2087146","0.0-11.0-322.0","","","","false","","","","","","","","","","544.2000000476837","","9","","1","0","arrowleft","0","arrowright","[0.85,0.15,0.675,0.325]","","",""
"sailing-trial","374","2089429","0.0-11.0-323.0","","","","false","","","","","","","","","","null","","776.3999998569489","","1","0","null","null","arrowup","[0.85,0.15,0.675,0.325]","","",""
"sailing-trial","375","2092815","0.0-11.0-324.0","","","","false","","","","","","","","","","503.7999999523163","","34","","2","1","arrowright","1","arrowleft","[0.85,0.15,0.675,0.325]","","",""
"sailing-trial","376","2095454","0.0-11.0-325.0","","","","false","","","","","","","","","","null","","658.5","","0","1","null","null","arrowup","[0.85,0.15,0.675,0.325]","","",""
"sailing-trial","377","2106945","0.0-11.0-326.0","","","","false","","","","","","","","","","3309","","4144.299999952316","","1","0","arrowleft","0","arrowright","[0.675,0.325,0.85,0.15]","","",""
"sailing-trial","378","2111962","0.0-11.0-327.0","","","","false","","","","","","","","","","null","","1992.9000000953674","","0","0","null","null","arrowup","[0.675,0.325,0.85,0.15]","","",""
"sailing-trial","379","2119999","0.0-11.0-328.0","","","","false","","","","","","","","","","2817.2000000476837","","1180","","0","0","arrowleft","0","arrowleft","[0.675,0.325,0.85,0.15]","","",""
"sailing-trial","380","2123800","0.0-11.0-329.0","","","","false","","","","","","","","","","null","","770.9000000953674","","1","0","null","null","arrowup","[0.675,0.325,0.85,0.15]","","",""
"sailing-trial","381","2130582","0.0-11.0-330.0","","","","false","","","","","","","","","","1214.6999998092651","","1535.6999998092651","","3","0","arrowright","1","arrowright","[0.675,0.325,0.85,0.15]","","",""
"sailing-trial","382","2134294","0.0-11.0-331.0","","","","false","","","","","","","","","","null","","685.5999999046326","","1","0","null","null","arrowup","[0.675,0.325,0.85,0.15]","","",""
"sailing-trial","383","2138573","0.0-11.0-332.0","","","","false","","","","","","","","","","675.8000001907349","","303.89999985694885","","0","1","arrowleft","0","arrowleft","[0.675,0.325,0.85,0.15]","","",""
"sailing-trial","384","2142396","0.0-11.0-333.0","","","","false","","","","","","","","","","null","","1307.7000000476837","","1","0","null","null","arrowup","[0.675,0.325,0.85,0.15]","","",""
"sailing-trial","385","2146524","0.0-11.0-334.0","","","","false","","","","","","","","","","432","","179","","3","0","arrowright","1","arrowright","[0.675,0.325,0.85,0.15]","","",""
"sailing-trial","386","2150069","0.0-11.0-335.0","","","","false","","","","","","","","","","null","","773.4000000953674","","3","0","null","null","arrowup","[0.675,0.325,0.85,0.15]","","",""
"sailing-trial","387","2154980","0.0-11.0-336.0","","","","false","","","","","","","","","","938.9000000953674","","0.5","","1","0","arrowleft","0","arrowright","[0.675,0.325,0.85,0.15]","","",""
"sailing-trial","388","2157997","0.0-11.0-337.0","","","","false","","","","","","","","","","null","","728.3999998569489","","2","1","null","null","arrowup","[0.675,0.325,0.85,0.15]","","",""
"sailing-trial","389","2161931","0.0-11.0-338.0","","","","false","","","","","","","","","","669.1999998092651","","200.40000009536743","","2","1","arrowright","1","arrowleft","[0.675,0.325,0.85,0.15]","","",""
"sailing-trial","390","2165482","0.0-11.0-339.0","","","","false","","","","","","","","","","null","","1631.9000000953674","","1","1","null","null","arrowup","[0.675,0.325,0.85,0.15]","","",""
"sailing-trial","391","2168872","0.0-11.0-340.0","","","","false","","","","","","","","","","513.8999998569489","","52.10000014305115","","0","1","arrowleft","0","arrowleft","[0.675,0.325,0.85,0.15]","","",""
"sailing-trial","392","2172190","0.0-11.0-341.0","","","","false","","","","","","","","","","null","","1247.8999998569489","","2","1","null","null","arrowup","[0.675,0.325,0.85,0.15]","","",""
"sailing-trial","393","2176086","0.0-11.0-342.0","","","","false","","","","","","","","","","730","","194","","1","0","arrowleft","0","arrowright","[0.675,0.325,0.85,0.15]","","",""
"sailing-trial","394","2178605","0.0-11.0-343.0","","","","false","","","","","","","","","","null","","555.0999999046326","","0","1","null","null","arrowup","[0.675,0.325,0.85,0.15]","","",""
"sailing-trial","395","2181836","0.0-11.0-344.0","","","","false","","","","","","","","","","31.800000190734863","","173.79999995231628","","2","1","arrowright","1","arrowleft","[0.675,0.325,0.85,0.15]","","",""
"sailing-trial","396","2185269","0.0-11.0-345.0","","","","false","","","","","","","","","","null","","1636.5","","2","1","null","null","arrowup","[0.675,0.325,0.85,0.15]","","",""
"sailing-trial","397","2188575","0.0-11.0-346.0","","","","false","","","","","","","","","","370.5","","50.40000009536743","","2","1","arrowright","1","arrowleft","[0.675,0.325,0.85,0.15]","","",""
"sailing-trial","398","2190988","0.0-11.0-347.0","","","","false","","","","","","","","","","null","","763.1000001430511","","2","1","null","null","arrowup","[0.675,0.325,0.85,0.15]","","",""
"sailing-trial","399","2194514","0.0-11.0-348.0","","","","false","","","","","","","","","","210.29999995231628","","472.7000000476837","","2","1","arrowright","1","arrowleft","[0.85,0.15,0.675,0.325]","","",""
"sailing-trial","400","2198229","0.0-11.0-349.0","","","","false","","","","","","","","","","null","","1895.1000001430511","","3","1","null","null","arrowup","[0.85,0.15,0.675,0.325]","","",""
"sailing-trial","401","2205537","0.0-11.0-350.0","","","","false","","","","","","","","","","3949.5999999046326","","106.09999990463257","","2","1","arrowright","1","arrowleft","[0.85,0.15,0.675,0.325]","","",""
"sailing-trial","402","2209096","0.0-11.0-351.0","","","","false","","","","","","","","","","null","","779.5999999046326","","1","0","null","null","arrowup","[0.85,0.15,0.675,0.325]","","",""
"sailing-trial","403","2213997","0.0-11.0-352.0","","","","false","","","","","","","","","","1027.2000000476837","","267.30000019073486","","1","0","arrowleft","0","arrowright","[0.85,0.15,0.675,0.325]","","",""
"sailing-trial","404","2216980","0.0-11.0-353.0","","","","false","","","","","","","","","","null","","879.9000000953674","","2","1","null","null","arrowup","[0.85,0.15,0.675,0.325]","","",""
"sailing-trial","405","2220689","0.0-11.0-354.0","","","","false","","","","","","","","","","532.4000000953674","","130.09999990463257","","0","1","arrowleft","0","arrowleft","[0.85,0.15,0.675,0.325]","","",""
"sailing-trial","406","2223672","0.0-11.0-355.0","","","","false","","","","","","","","","","null","","898.4000000953674","","0","1","null","null","arrowup","[0.85,0.15,0.675,0.325]","","",""
"sailing-trial","407","2228477","0.0-11.0-356.0","","","","false","","","","","","","","","","624.4000000953674","","1151.6000001430511","","3","0","arrowright","1","arrowright","[0.85,0.15,0.675,0.325]","","",""
"sailing-trial","408","2231255","0.0-11.0-357.0","","","","false","","","","","","","","","","null","","760.8000001907349","","0","1","null","null","arrowup","[0.85,0.15,0.675,0.325]","","",""
"sailing-trial","409","2235298","0.0-11.0-358.0","","","","false","","","","","","","","","","1094.7999999523163","","44.5","","0","1","arrowleft","0","arrowleft","[0.85,0.15,0.675,0.325]","","",""
"sailing-trial","410","2238639","0.0-11.0-359.0","","","","false","","","","","","","","","","null","","1739","","1","0","null","null","arrowup","[0.85,0.15,0.675,0.325]","","",""
"sailing-trial","411","2242854","0.0-11.0-360.0","","","","false","","","","","","","","","","895.7000000476837","","325.40000009536743","","3","1","arrowright","1","arrowright","[0.85,0.15,0.675,0.325]","","",""
"sailing-trial","412","2245814","0.0-11.0-361.0","","","","false","","","","","","","","","","null","","911.3999998569489","","1","0","null","null","arrowup","[0.85,0.15,0.675,0.325]","","",""
"sailing-trial","413","2249030","0.0-11.0-362.0","","","","false","","","","","","","","","","578","","19.90000009536743","","1","0","arrowleft","0","arrowright","[0.85,0.15,0.675,0.325]","","",""
"sailing-trial","414","2251093","0.0-11.0-363.0","","","","false","","","","","","","","","","null","","805.0999999046326","","1","0","null","null","arrowup","[0.85,0.15,0.675,0.325]","","",""
"sailing-trial","415","2253855","0.0-11.0-364.0","","","","false","","","","","","","","","","387.2999999523163","","47.60000014305115","","2","0","arrowright","1","arrowleft","[0.85,0.15,0.675,0.325]","","",""
"sailing-trial","416","2257405","0.0-11.0-365.0","","","","false","","","","","","","","","","null","","1576.6000001430511","","2","1","null","null","arrowup","[0.85,0.15,0.675,0.325]","","",""
"sailing-trial","417","2261689","0.0-11.0-366.0","","","","false","","","","","","","","","","594.7000000476837","","79","","0","0","arrowleft","0","arrowleft","[0.15,0.85,0.325,0.675]","","",""
"sailing-trial","418","2265252","0.0-11.0-367.0","","","","false","","","","","","","","","","null","","908.6000001430511","","2","0","null","null","arrowup","[0.15,0.85,0.325,0.675]","","",""
"sailing-trial","419","2269535","0.0-11.0-368.0","","","","false","","","","","","","","","","872.2999999523163","","131.70000004768372","","2","0","arrowright","1","arrowleft","[0.15,0.85,0.325,0.675]","","",""
"sailing-trial","420","2272915","0.0-11.0-369.0","","","","false","","","","","","","","","","null","","1093.8999998569489","","0","1","null","null","arrowup","[0.15,0.85,0.325,0.675]","","",""
"sailing-trial","421","2277353","0.0-11.0-370.0","","","","false","","","","","","","","","","691.9000000953674","","535.0999999046326","","1","0","arrowleft","0","arrowright","[0.15,0.85,0.325,0.675]","","",""
"sailing-trial","422","2280636","0.0-11.0-371.0","","","","false","","","","","","","","","","null","","745.3999998569489","","3","1","null","null","arrowup","[0.15,0.85,0.325,0.675]","","",""
"sailing-trial","423","2284337","0.0-11.0-372.0","","","","false","","","","","","","","","","648.9000000953674","","18.40000009536743","","2","1","arrowright","1","arrowleft","[0.15,0.85,0.325,0.675]","","",""
"sailing-trial","424","2286870","0.0-11.0-373.0","","","","false","","","","","","","","","","null","","1203.2000000476837","","0","0","null","null","arrowup","[0.15,0.85,0.325,0.675]","","",""
"sailing-trial","425","2295715","0.0-11.0-374.0","","","","false","","","","","","","","","","3336.399999856949","","2462.5999999046326","","1","1","arrowleft","0","arrowright","[0.15,0.85,0.325,0.675]","","",""
"sailing-trial","426","2305739","0.0-11.0-375.0","","","","false","","","","","","","","","","null","","8749.100000143051","","3","0","null","null","arrowup","[0.15,0.85,0.325,0.675]","","",""
"sailing-trial","427","2310420","0.0-11.0-376.0","","","","false","","","","","","","","","","487.2999999523163","","158.59999990463257","","2","0","arrowright","1","arrowleft","[0.15,0.85,0.325,0.675]","","",""
"sailing-trial","428","2314512","0.0-11.0-377.0","","","","false","","","","","","","","","","null","","1289.5999999046326","","0","0","null","null","arrowup","[0.15,0.85,0.325,0.675]","","",""
"sailing-trial","429","2321387","0.0-11.0-378.0","","","","false","","","","","","","","","","1011.5999999046326","","1818.9000000953674","","0","0","arrowleft","0","arrowleft","[0.15,0.85,0.325,0.675]","","",""
"sailing-trial","430","2324970","0.0-11.0-379.0","","","","false","","","","","","","","","","null","","1274.5","","3","1","null","null","arrowup","[0.15,0.85,0.325,0.675]","","",""
"sailing-trial","431","2329217","0.0-11.0-380.0","","","","false","","","","","","","","","","1439.5","","343.2000000476837","","2","0","arrowright","1","arrowleft","[0.15,0.85,0.325,0.675]","","",""
"sailing-trial","432","2331200","0.0-11.0-381.0","","","","false","","","","","","","","","","null","","522.2000000476837","","0","0","null","null","arrowup","[0.15,0.85,0.325,0.675]","","",""
"sailing-trial","433","2335228","0.0-11.0-382.0","","","","false","","","","","","","","","","510.2000000476837","","291.5","","3","1","arrowright","1","arrowright","[0.325,0.675,0.15,0.85]","","",""
"sailing-trial","434","2337547","0.0-11.0-383.0","","","","false","","","","","","","","","","null","","695.2000000476837","","1","0","null","null","arrowup","[0.325,0.675,0.15,0.85]","","",""
"sailing-trial","435","2344573","0.0-11.0-384.0","","","","false","","","","","","","","","","3628.5999999046326","","121.5","","0","1","arrowleft","0","arrowleft","[0.325,0.675,0.15,0.85]","","",""
"sailing-trial","436","2349107","0.0-11.0-385.0","","","","false","","","","","","","","","","null","","2255.2000000476837","","3","1","null","null","arrowup","[0.325,0.675,0.15,0.85]","","",""
"sailing-trial","437","2355492","0.0-11.0-386.0","","","","false","","","","","","","","","","642.6999998092651","","588","","3","1","arrowright","1","arrowright","[0.325,0.675,0.15,0.85]","","",""
"sailing-trial","438","2361509","0.0-11.0-387.0","","","","false","","","","","","","","","","null","","2990.5","","2","0","null","null","arrowup","[0.325,0.675,0.15,0.85]","","",""
"sailing-trial","439","2367672","0.0-11.0-388.0","","","","false","","","","","","","","","","1105.5999999046326","","1019.9000000953674","","2","0","arrowright","1","arrowleft","[0.325,0.675,0.15,0.85]","","",""
"sailing-trial","440","2371623","0.0-11.0-389.0","","","","false","","","","","","","","","","null","","1408.7999999523163","","3","1","null","null","arrowup","[0.325,0.675,0.15,0.85]","","",""
"sailing-trial","441","2375533","0.0-11.0-390.0","","","","false","","","","","","","","","","721.6000001430511","","303.5","","3","1","arrowright","1","arrowright","[0.325,0.675,0.15,0.85]","","",""
"sailing-trial","442","2380068","0.0-11.0-391.0","","","","false","","","","","","","","","","null","","3268.399999856949","","1","0","null","null","arrowup","[0.325,0.675,0.15,0.85]","","",""
"sailing-trial","443","2383962","0.0-11.0-392.0","","","","false","","","","","","","","","","552.3000001907349","","339.90000009536743","","0","1","arrowleft","0","arrowleft","[0.325,0.675,0.15,0.85]","","",""
"sailing-trial","444","2387038","0.0-11.0-393.0","","","","false","","","","","","","","","","null","","1144.0999999046326","","3","1","null","null","arrowup","[0.325,0.675,0.15,0.85]","","",""
"sailing-trial","445","2390155","0.0-11.0-394.0","","","","false","","","","","","","","","","261.2999999523163","","64.09999990463257","","3","1","arrowright","1","arrowright","[0.325,0.675,0.15,0.85]","","",""
"sailing-trial","446","2391771","0.0-11.0-395.0","","","","false","","","","","","","","","","null","","353.09999990463257","","2","0","null","null","arrowup","[0.325,0.675,0.15,0.85]","","",""
"sailing-trial","447","2395115","0.0-11.0-396.0","","","","false","","","","","","","","","","347.7000000476837","","220.59999990463257","","3","1","arrowright","1","arrowright","[0.325,0.675,0.15,0.85]","","",""
"sailing-trial","448","2397590","0.0-11.0-397.0","","","","false","","","","","","","","","","null","","666.1000001430511","","3","1","null","null","arrowup","[0.325,0.675,0.15,0.85]","","",""
"sailing-trial","449","2401081","0.0-11.0-398.0","","","","false","","","","","","","","","","451.90000009536743","","222.20000004768372","","3","1","arrowright","1","arrowright","[0.325,0.675,0.15,0.85]","","",""
"sailing-trial","450","2403381","0.0-11.0-399.0","","","","false","","","","","","","","","","null","","553.1000001430511","","0","1","null","null","arrowup","[0.325,0.675,0.15,0.85]","","",""
"instructions","451","2404598","0.0-12.0","","","","","","","","","","1214.8999998569489","","","","","","","","","","","","","","","","[{""page_index"":0,""viewing_time"":1213.8999998569489}]"
"survey-debrief","452","2429459","0.0-13.0","","","","","","","","","","24858.200000047684","","","","","","","","","","","","","","{""difficulty"":""5"",""fun"":""4"",""clarity"":""5"",""strategy"":""Yes I wrote down each color and put check marks next to how many time they had treasure."",""feedback"":""""}","",""
