"trial_type","trial_index","time_elapsed","internal_node_id","value","metadata","success","timeout","failed_images","failed_audio","failed_video","browser_interaction","low_quality","rt","stimulus","response","button_pressed","island_rt","island_response","boat_rt","boat_response","boat","reward","island_key","island","boat_key","reward_probabilities","responses","num_errors","view_history"
"pavlovia","0","17","0.0-0.0","","","","","","","","","","","","","","","","","","","","","","","","","",""
"call-function","1","19","0.0-1.0","","{""task_version"":""sailing_part1_v1"",""task_condition"":""good"",""boats"":[""C"",""D"",""B"",""A""],""boats_demo"":[""F"",""G"",""E"",""H""],""islands"":[""A"",""B""],""subject_id"":""13796"",""age"":""8"",""gender"":""Female""}","","","","","","","","","","","","","","","","","","","","","","","",""
"preload","2","1957","0.0-2.0","","","true","false","[]","[]","[]","[{""event"":""fullscreenenter"",""trial"":3,""time"":10863}]","false","","","","","","","","","","","","","","","","",""
"fullscreen","3","11822","0.0-3.0","","","true","","","","","","","","","","","","","","","","","","","","","","",""
"audio-keyboard-response","4","13921","0.0-4.0-0.0","","","","","","","","","","1920","audio/beep_loop.wav"," ","","","","","","","","","","","","","",""
"audio-test","5","33371","0.0-4.0-1.0","","","","","","","","","","null","audio/turtle.mp3","","3","","","","","","","","","","","","",""
"audio-test","6","40010","0.0-4.0-2.0","","","","","","","","","","null","audio/shark.mp3","","2","","","","","","","","","","","","",""
"sailing-instructions","7","76295","0.0-5.0-0.0-0.0","","","","","","","","","","","","","","null","null","null","null","null","null","","","","","","",""
"sailing-trial","8","87942","0.0-5.0-0.0-1.0-0.0","","","","false","","","","","","","","","","10504","","null","","null","null","arrowleft","0","null","null","","",""
"sailing-trial","9","91210","0.0-5.0-0.0-1.0-1.0","","","","false","","","","","","","","","","2140","","null","","null","null","arrowright","1","null","null","","",""
"sailing-trial","10","96108","0.0-5.0-0.0-1.0-2.0","","","","false","","","","","","","","","","3772","","null","","null","null","arrowright","1","null","null","","",""
"sailing-instructions","11","140563","0.0-5.0-0.0-2.0","","","","","","","","","","","","","","null","null","null","null","0","null","","","","","","",""
"sailing-trial","12","148043","0.0-5.0-0.0-3.0-0.0","","","","false","","","","","","","","","","null","","2770.7000000476837","","2","1","null","null","arrowleft","[1,1,1,1]","","",""
"sailing-trial","13","151877","0.0-5.0-0.0-3.0-1.0","","","","false","","","","","","","","","","null","","1153.0999999046326","","3","1","null","null","arrowright","[1,1,1,1]","","",""
"sailing-trial","14","156979","0.0-5.0-0.0-3.0-2.0","","","","false","","","","","","","","","","null","","2136.2999999523163","","2","0","null","null","arrowleft","[0,0,0,0]","","",""
"sailing-instructions","15","164443","0.0-5.0-0.0-4.0","","","","","","","","","","","","","","null","null","null","null","null","null","","","","","","",""
"sailing-comprehension","16","194433","0.0-5.0-0.0-5.0","","","","","","","","","","24476.5","","","","","","","","","","","","","","[""true"",""true"",""false"",""true""]","0",""
"sailing-instructions","17","259348","0.0-6.0-0.0-0.0","","","","","","","","","","","","","","null","null","null","null","null","null","","","","","","",""
"sailing-comprehension","18","283099","0.0-6.0-0.0-1.0","","","","","","","","","","21331.5","","","","","","","","","","","","","","[""true"",""false"",""true""]","0",""
"sailing-instructions","19","298659","0.0-7.0-0.0-0.0","","","","","","","","","","","","","","null","null","null","null","null","null","","","","","","",""
"sailing-trial","20","305762","0.0-7.0-0.0-1.0-0.0","","","","false","","","","","","","","","","null","","4060.100000143051","","0","0","null","null","arrowup","[0.2,0.8,0.2,0.8]","","",""
"sailing-trial","21","313176","0.0-7.0-0.0-1.0-1.0","","","","false","","","","","","","","","","null","","4463.099999904633","","1","1","null","null","arrowup","[0.2,0.8,0.2,0.8]","","",""
"sailing-trial","22","316891","0.0-7.0-0.0-1.0-2.0","","","","false","","","","","","","","","","null","","1635","","2","0","null","null","arrowup","[0.2,0.8,0.2,0.8]","","",""
"sailing-trial","23","320376","0.0-7.0-0.0-1.0-3.0","","","","false","","","","","","","","","","null","","969.6000001430511","","3","1","null","null","arrowup","[0.2,0.8,0.2,0.8]","","",""
"sailing-comprehension","24","336141","0.0-7.0-0.0-2.0","","","","","","","","","","8624.200000047684","","","","","","","","","","","","","","[""true""]","1",""
"sailing-instructions","25","349899","0.0-7.0-0.1-0.1","","","","","","","","","","","","","","null","null","null","null","null","null","","","","","","",""
"sailing-trial","26","354424","0.0-7.0-0.1-1.1-0.1","","","","false","","","","","","","","","","null","","2139","","0","1","null","null","arrowup","[0.2,0.8,0.2,0.8]","","",""
"sailing-trial","27","356882","0.0-7.0-0.1-1.1-1.1","","","","false","","","","","","","","","","null","","989","","1","0","null","null","arrowup","[0.2,0.8,0.2,0.8]","","",""
"sailing-trial","28","359625","0.0-7.0-0.1-1.1-2.1","","","","false","","","","","","","","","","null","","1202.7000000476837","","2","0","null","null","arrowup","[0.2,0.8,0.2,0.8]","","",""
"sailing-trial","29","361994","0.0-7.0-0.1-1.1-3.1","","","","false","","","","","","","","","","null","","836.3999998569489","","3","0","null","null","arrowup","[0.2,0.8,0.2,0.8]","","",""
"sailing-comprehension","30","371979","0.0-7.0-0.1-2.1","","","","","","","","","","6838.900000095367","","","","","","","","","","","","","","[""false""]","0",""
"sailing-instructions","31","384664","0.0-8.0-0.0-0.0","","","","","","","","","","","","","","null","null","null","null","null","null","","","","","","",""
"sailing-comprehension","32","391867","0.0-8.0-0.0-1.0","","","","","","","","","","5848.799999952316","","","","","","","","","","","","","","[""true""]","0",""
"sailing-instructions","33","423427","0.0-9.0-0.0-0.0","","","","","","","","","","","","","","null","null","null","null","null","null","","","","","","",""
"sailing-trial","34","431443","0.0-9.0-0.0-1.0-0.0","","","","false","","","","","","","","","","1865.7999999523163","","1416.5","","3","1","arrowright","1","arrowright","[0.2,0.8,0.2,0.8]","","",""
"sailing-trial","35","436692","0.0-9.0-0.0-1.0-1.0","","","","false","","","","","","","","","","1626.0999999046326","","106.10000014305115","","0","0","arrowleft","0","arrowleft","[0.2,0.8,0.2,0.8]","","",""
"sailing-trial","36","440593","0.0-9.0-0.0-1.0-2.0","","","","false","","","","","","","","","","null","","2048.7000000476837","","0","0","null","null","arrowup","[0.2,0.8,0.2,0.8]","","",""
"sailing-trial","37","445559","0.0-9.0-0.0-1.0-3.0","","","","false","","","","","","","","","","1845.6000001430511","","333.5","","2","0","arrowright","1","arrowleft","[0.2,0.8,0.2,0.8]","","",""
"sailing-trial","38","450227","0.0-9.0-0.0-1.0-4.0","","","","false","","","","","","","","","","null","","2076","","3","1","null","null","arrowup","[0.2,0.8,0.2,0.8]","","",""
"sailing-trial","39","454800","0.0-9.0-0.0-1.0-5.0","","","","false","","","","","","","","","","1193.2999999523163","","688.2999999523163","","0","0","arrowleft","0","arrowleft","[0.2,0.8,0.2,0.8]","","",""
"sailing-instructions","40","489349","0.0-10.0","","","","","","","","","","","","","","null","null","null","null","null","null","","","","","","",""
"sailing-trial","41","494309","0.0-11.0-0.0","","","","false","","","","","","","","","","1656.5999999046326","","251.79999995231628","","3","0","arrowright","1","arrowright","[0.85,0.15,0.675,0.325]","","",""
"sailing-trial","42","498983","0.0-11.0-1.0","","","","false","","","","","","","","","","null","","2168.199999809265","","0","1","null","null","arrowup","[0.85,0.15,0.675,0.325]","","",""
"sailing-trial","43","505729","0.0-11.0-2.0","","","","false","","","","","","","","","","1941.8000001907349","","1213.8999998569489","","1","0","arrowleft","0","arrowright","[0.85,0.15,0.675,0.325]","","",""
"sailing-trial","44","509226","0.0-11.0-3.0","","","","false","","","","","","","","","","null","","2043.9000000953674","","1","0","null","null","arrowup","[0.85,0.15,0.675,0.325]","","",""
"sailing-trial","45","513744","0.0-11.0-4.0","","","","false","","","","","","","","","","1519.2999999523163","","273.5","","3","0","arrowright","1","arrowright","[0.85,0.15,0.675,0.325]","","",""
"sailing-trial","46","518180","0.0-11.0-5.0","","","","false","","","","","","","","","","null","","1901.9000000953674","","0","1","null","null","arrowup","[0.85,0.15,0.675,0.325]","","",""
"sailing-trial","47","524462","0.0-11.0-6.0","","","","false","","","","","","","","","","2009.7999999523163","","1072.7999999523163","","0","1","arrowleft","0","arrowleft","[0.85,0.15,0.675,0.325]","","",""
"sailing-trial","48","527472","0.0-11.0-7.0","","","","false","","","","","","","","","","null","","1399.5","","3","0","null","null","arrowup","[0.85,0.15,0.675,0.325]","","",""
"sailing-trial","49","532630","0.0-11.0-8.0","","","","false","","","","","","","","","","1576.0999999046326","","388.7999999523163","","3","1","arrowright","1","arrowright","[0.85,0.15,0.675,0.325]","","",""
"sailing-trial","50","536279","0.0-11.0-9.0","","","","false","","","","","","","","","","null","","1703.6999998092651","","3","1","null","null","arrowup","[0.85,0.15,0.675,0.325]","","",""
"sailing-trial","51","540398","0.0-11.0-10.0","","","","false","","","","","","","","","","987.7999999523163","","92.09999990463257","","3","1","arrowright","1","arrowright","[0.85,0.15,0.675,0.325]","","",""
"sailing-trial","52","543399","0.0-11.0-11.0","","","","false","","","","","","","","","","null","","1543.2999999523163","","1","0","null","null","arrowup","[0.85,0.15,0.675,0.325]","","",""
"sailing-trial","53","547487","0.0-11.0-12.0","","","","false","","","","","","","","","","1317.7000000476837","","114.70000004768372","","3","0","arrowright","1","arrowright","[0.85,0.15,0.675,0.325]","","",""
"sailing-trial","54","551011","0.0-11.0-13.0","","","","false","","","","","","","","","","null","","1709.5","","0","1","null","null","arrowup","[0.85,0.15,0.675,0.325]","","",""
"sailing-trial","55","554595","0.0-11.0-14.0","","","","false","","","","","","","","","","537.1000001430511","","37.30000019073486","","0","1","arrowleft","0","arrowleft","[0.85,0.15,0.675,0.325]","","",""
"sailing-trial","56","557811","0.0-11.0-15.0","","","","false","","","","","","","","","","null","","1384.6999998092651","","2","1","null","null","arrowup","[0.85,0.15,0.675,0.325]","","",""
"sailing-trial","57","563746","0.0-11.0-16.0","","","","false","","","","","","","","","","2129.7999999523163","","920.5","","0","1","arrowleft","0","arrowleft","[0.85,0.15,0.675,0.325]","","",""
"sailing-trial","58","566979","0.0-11.0-17.0","","","","false","","","","","","","","","","null","","1410","","2","1","null","null","arrowup","[0.85,0.15,0.675,0.325]","","",""
"sailing-trial","59","570649","0.0-11.0-18.0","","","","false","","","","","","","","","","1113","","171.89999985694885","","3","0","arrowright","1","arrowright","[0.15,0.85,0.325,0.675]","","",""
"sailing-trial","60","573779","0.0-11.0-19.0","","","","false","","","","","","","","","","null","","1260.1999998092651","","2","1","null","null","arrowup","[0.15,0.85,0.325,0.675]","","",""
"sailing-trial","61","578608","0.0-11.0-20.0","","","","false","","","","","","","","","","2162","","610.2999999523163","","0","0","arrowleft","0","arrowleft","[0.15,0.85,0.325,0.675]","","",""
"sailing-trial","62","581649","0.0-11.0-21.0","","","","false","","","","","","","","","","null","","1695.4000000953674","","0","0","null","null","arrowup","[0.15,0.85,0.325,0.675]","","",""
"sailing-trial","63","585824","0.0-11.0-22.0","","","","false","","","","","","","","","","758.6000001430511","","499.2000000476837","","2","0","arrowright","1","arrowleft","[0.15,0.85,0.325,0.675]","","",""
"sailing-trial","64","589447","0.0-11.0-23.0","","","","false","","","","","","","","","","null","","2110.100000143051","","3","0","null","null","arrowup","[0.15,0.85,0.325,0.675]","","",""
"sailing-trial","65","593395","0.0-11.0-24.0","","","","false","","","","","","","","","","701.2000000476837","","657.2999999523163","","1","1","arrowleft","0","arrowright","[0.15,0.85,0.325,0.675]","","",""
"sailing-trial","66","596168","0.0-11.0-25.0","","","","false","","","","","","","","","","null","","1304.5","","0","0","null","null","arrowup","[0.15,0.85,0.325,0.675]","","",""
"sailing-trial","67","601071","0.0-11.0-26.0","","","","false","","","","","","","","","","852.7000000476837","","1359.4000000953674","","0","0","arrowleft","0","arrowleft","[0.15,0.85,0.325,0.675]","","",""
"sailing-trial","68","604813","0.0-11.0-27.0","","","","false","","","","","","","","","","null","","1240.4000000953674","","3","1","null","null","arrowup","[0.15,0.85,0.325,0.675]","","",""
"sailing-trial","69","609030","0.0-11.0-28.0","","","","false","","","","","","","","","","1031.5999999046326","","125.79999995231628","","3","1","arrowright","1","arrowright","[0.15,0.85,0.325,0.675]","","",""
"sailing-trial","70","611713","0.0-11.0-29.0","","","","false","","","","","","","","","","null","","1254.2000000476837","","2","0","null","null","arrowup","[0.15,0.85,0.325,0.675]","","",""
"sailing-trial","71","617578","0.0-11.0-30.0","","","","false","","","","","","","","","","1854.5999999046326","","968.7999999523163","","3","1","arrowright","1","arrowright","[0.15,0.85,0.325,0.675]","","",""
"sailing-trial","72","620878","0.0-11.0-31.0","","","","false","","","","","","","","","","null","","1514.2999999523163","","0","1","null","null","arrowup","[0.15,0.85,0.325,0.675]","","",""
"sailing-trial","73","625001","0.0-11.0-32.0","","","","false","","","","","","","","","","534","","935.2000000476837","","0","0","arrowleft","0","arrowleft","[0.15,0.85,0.325,0.675]","","",""
"sailing-trial","74","627616","0.0-11.0-33.0","","","","false","","","","","","","","","","null","","1253.3999998569489","","0","0","null","null","arrowup","[0.15,0.85,0.325,0.675]","","",""
"sailing-trial","75","632162","0.0-11.0-34.0","","","","false","","","","","","","","","","743.5","","714.7999999523163","","3","1","arrowright","1","arrowright","[0.325,0.675,0.15,0.85]","","",""
"sailing-trial","76","634598","0.0-11.0-35.0","","","","false","","","","","","","","","","null","","1115.1000001430511","","0","0","null","null","arrowup","[0.325,0.675,0.15,0.85]","","",""
"sailing-trial","77","639444","0.0-11.0-36.0","","","","false","","","","","","","","","","1159.7999999523163","","568.8999998569489","","3","1","arrowright","1","arrowright","[0.325,0.675,0.15,0.85]","","",""
"sailing-trial","78","642424","0.0-11.0-37.0","","","","false","","","","","","","","","","null","","1343.2999999523163","","2","0","null","null","arrowup","[0.325,0.675,0.15,0.85]","","",""
"sailing-trial","79","646711","0.0-11.0-38.0","","","","false","","","","","","","","","","856.1999998092651","","500.7000000476837","","3","1","arrowright","1","arrowright","[0.325,0.675,0.15,0.85]","","",""
"sailing-trial","80","648983","0.0-11.0-39.0","","","","false","","","","","","","","","","null","","1003.6000001430511","","0","0","null","null","arrowup","[0.325,0.675,0.15,0.85]","","",""
"sailing-trial","81","653428","0.0-11.0-40.0","","","","false","","","","","","","","","","1208","","526.7000000476837","","3","1","arrowright","1","arrowright","[0.325,0.675,0.15,0.85]","","",""
"sailing-trial","82","656277","0.0-11.0-41.0","","","","false","","","","","","","","","","null","","1120.3999998569489","","1","1","null","null","arrowup","[0.325,0.675,0.15,0.85]","","",""
"sailing-trial","83","661546","0.0-11.0-42.0","","","","false","","","","","","","","","","1559.6000001430511","","868.3999998569489","","1","1","arrowleft","0","arrowright","[0.325,0.675,0.15,0.85]","","",""
"sailing-trial","84","664161","0.0-11.0-43.0","","","","false","","","","","","","","","","null","","1258.5","","2","0","null","null","arrowup","[0.325,0.675,0.15,0.85]","","",""
"sailing-trial","85","668814","0.0-11.0-44.0","","","","false","","","","","","","","","","1197.0999999046326","","281.59999990463257","","3","1","arrowright","1","arrowright","[0.325,0.675,0.15,0.85]","","",""
"sailing-trial","86","672244","0.0-11.0-45.0","","","","false","","","","","","","","","","null","","1215.5","","1","1","null","null","arrowup","[0.325,0.675,0.15,0.85]","","",""
"sailing-trial","87","677129","0.0-11.0-46.0","","","","false","","","","","","","","","","1255.7000000476837","","266.40000009536743","","1","1","arrowleft","0","arrowright","[0.325,0.675,0.15,0.85]","","",""
"sailing-trial","88","680178","0.0-11.0-47.0","","","","false","","","","","","","","","","null","","1236.2999999523163","","3","1","null","null","arrowup","[0.325,0.675,0.15,0.85]","","",""
"sailing-trial","89","685625","0.0-11.0-48.0","","","","false","","","","","","","","","","1403.0999999046326","","1734.1999998092651","","0","0","arrowleft","0","arrowleft","[0.325,0.675,0.15,0.85]","","",""
"sailing-trial","90","689179","0.0-11.0-49.0","","","","false","","","","","","","","","","null","","1326.7000000476837","","1","1","null","null","arrowup","[0.325,0.675,0.15,0.85]","","",""
"sailing-trial","91","694245","0.0-11.0-50.0","","","","false","","","","","","","","","","1915.2000000476837","","323.7999999523163","","1","1","arrowleft","0","arrowright","[0.325,0.675,0.15,0.85]","","",""
"sailing-trial","92","697978","0.0-11.0-51.0","","","","false","","","","","","","","","","null","","1551.1000001430511","","2","1","null","null","arrowup","[0.325,0.675,0.15,0.85]","","",""
"sailing-trial","93","702152","0.0-11.0-52.0","","","","false","","","","","","","","","","946.8999998569489","","887.5999999046326","","2","0","arrowright","1","arrowleft","[0.15,0.85,0.325,0.675]","","",""
"sailing-trial","94","704624","0.0-11.0-53.0","","","","false","","","","","","","","","","null","","1359","","0","0","null","null","arrowup","[0.15,0.85,0.325,0.675]","","",""
"sailing-trial","95","710297","0.0-11.0-54.0","","","","false","","","","","","","","","","2344.699999809265","","407.2999999523163","","3","1","arrowright","1","arrowright","[0.15,0.85,0.325,0.675]","","",""
"sailing-trial","96","713262","0.0-11.0-55.0","","","","false","","","","","","","","","","null","","1035.7000000476837","","1","1","null","null","arrowup","[0.15,0.85,0.325,0.675]","","",""
"sailing-trial","97","717278","0.0-11.0-56.0","","","","false","","","","","","","","","","622.4000000953674","","481.19999980926514","","1","1","arrowleft","0","arrowright","[0.15,0.85,0.325,0.675]","","",""
"sailing-trial","98","720696","0.0-11.0-57.0","","","","false","","","","","","","","","","null","","878.5","","3","0","null","null","arrowup","[0.15,0.85,0.325,0.675]","","",""
"sailing-trial","99","725028","0.0-11.0-58.0","","","","false","","","","","","","","","","1028.7999999523163","","236.39999985694885","","1","1","arrowleft","0","arrowright","[0.15,0.85,0.325,0.675]","","",""
"sailing-trial","100","727778","0.0-11.0-59.0","","","","false","","","","","","","","","","null","","888.7000000476837","","3","1","null","null","arrowup","[0.15,0.85,0.325,0.675]","","",""
"sailing-trial","101","730842","0.0-11.0-60.0","","","","false","","","","","","","","","","185.20000004768372","","528.2999999523163","","3","0","arrowright","1","arrowright","[0.15,0.85,0.325,0.675]","","",""
"sailing-trial","102","733408","0.0-11.0-61.0","","","","false","","","","","","","","","","null","","1254.2000000476837","","0","0","null","null","arrowup","[0.15,0.85,0.325,0.675]","","",""
"sailing-trial","103","737912","0.0-11.0-62.0","","","","false","","","","","","","","","","1640.7000000476837","","99.5","","1","1","arrowleft","0","arrowright","[0.15,0.85,0.325,0.675]","","",""
"sailing-trial","104","740946","0.0-11.0-63.0","","","","false","","","","","","","","","","null","","1132.3999998569489","","1","1","null","null","arrowup","[0.15,0.85,0.325,0.675]","","",""
"sailing-trial","105","745994","0.0-11.0-64.0","","","","false","","","","","","","","","","1930.4000000953674","","267.7999999523163","","3","1","arrowright","1","arrowright","[0.15,0.85,0.325,0.675]","","",""
"sailing-trial","106","748930","0.0-11.0-65.0","","","","false","","","","","","","","","","null","","1121.6000001430511","","1","1","null","null","arrowup","[0.15,0.85,0.325,0.675]","","",""
"sailing-trial","107","752729","0.0-11.0-66.0","","","","false","","","","","","","","","","1010.2999999523163","","1.3000001907348633","","1","1","arrowleft","0","arrowright","[0.15,0.85,0.325,0.675]","","",""
"sailing-trial","108","755611","0.0-11.0-67.0","","","","false","","","","","","","","","","null","","1324.2999999523163","","3","1","null","null","arrowup","[0.15,0.85,0.325,0.675]","","",""
"sailing-trial","109","761428","0.0-11.0-68.0","","","","false","","","","","","","","","","1993.4000000953674","","935.9000000953674","","3","1","arrowright","1","arrowright","[0.15,0.85,0.325,0.675]","","",""
"sailing-trial","110","764078","0.0-11.0-69.0","","","","false","","","","","","","","","","null","","863.9000000953674","","3","1","null","null","arrowup","[0.15,0.85,0.325,0.675]","","",""
"sailing-trial","111","768178","0.0-11.0-70.0","","","","false","","","","","","","","","","518.8000001907349","","783.7999999523163","","3","1","arrowright","1","arrowright","[0.15,0.85,0.325,0.675]","","",""
"sailing-trial","112","770301","0.0-11.0-71.0","","","","false","","","","","","","","","","null","","913.7999999523163","","1","0","null","null","arrowup","[0.15,0.85,0.325,0.675]","","",""
"sailing-trial","113","775980","0.0-11.0-72.0","","","","false","","","","","","","","","","1583.5","","124.90000009536743","","3","1","arrowright","1","arrowright","[0.325,0.675,0.15,0.85]","","",""
"sailing-trial","114","778592","0.0-11.0-73.0","","","","false","","","","","","","","","","null","","1408.7999999523163","","0","0","null","null","arrowup","[0.325,0.675,0.15,0.85]","","",""
"sailing-trial","115","782596","0.0-11.0-74.0","","","","false","","","","","","","","","","1145.3000001907349","","8.799999952316284","","3","1","arrowright","1","arrowright","[0.325,0.675,0.15,0.85]","","",""
"sailing-trial","116","785912","0.0-11.0-75.0","","","","false","","","","","","","","","","null","","1344.6000001430511","","0","1","null","null","arrowup","[0.325,0.675,0.15,0.85]","","",""
"sailing-trial","117","790430","0.0-11.0-76.0","","","","false","","","","","","","","","","748","","612.5","","0","0","arrowleft","0","arrowleft","[0.325,0.675,0.15,0.85]","","",""
"sailing-trial","118","793424","0.0-11.0-77.0","","","","false","","","","","","","","","","null","","1413.5","","0","0","null","null","arrowup","[0.325,0.675,0.15,0.85]","","",""
"sailing-trial","119","799215","0.0-11.0-78.0","","","","false","","","","","","","","","","1951.0999999046326","","168.20000004768372","","3","1","arrowright","1","arrowright","[0.325,0.675,0.15,0.85]","","",""
"sailing-trial","120","802982","0.0-11.0-79.0","","","","false","","","","","","","","","","null","","2365.2999999523163","","2","0","null","null","arrowup","[0.325,0.675,0.15,0.85]","","",""
"sailing-trial","121","807361","0.0-11.0-80.0","","","","false","","","","","","","","","","989.2999999523163","","416.39999985694885","","3","1","arrowright","1","arrowright","[0.325,0.675,0.15,0.85]","","",""
"sailing-trial","122","809742","0.0-11.0-81.0","","","","false","","","","","","","","","","null","","1090.6999998092651","","1","0","null","null","arrowup","[0.325,0.675,0.15,0.85]","","",""
"sailing-trial","123","816063","0.0-11.0-82.0","","","","false","","","","","","","","","","1366.7999999523163","","658.0999999046326","","3","1","arrowright","1","arrowright","[0.325,0.675,0.15,0.85]","","",""
"sailing-trial","124","821128","0.0-11.0-83.0","","","","false","","","","","","","","","","null","","2940.9000000953674","","3","1","null","null","arrowup","[0.325,0.675,0.15,0.85]","","",""
"sailing-trial","125","824951","0.0-11.0-84.0","","","","false","","","","","","","","","","676.2999999523163","","1076.9000000953674","","3","0","arrowright","1","arrowright","[0.325,0.675,0.15,0.85]","","",""
"sailing-trial","126","827167","0.0-11.0-85.0","","","","false","","","","","","","","","","null","","1046.7000000476837","","1","0","null","null","arrowup","[0.325,0.675,0.15,0.85]","","",""
"sailing-trial","127","832811","0.0-11.0-86.0","","","","false","","","","","","","","","","2454.4000000953674","","91.5","","3","1","arrowright","1","arrowright","[0.325,0.675,0.15,0.85]","","",""
"sailing-trial","128","837599","0.0-11.0-87.0","","","","false","","","","","","","","","","null","","2703.9000000953674","","0","0","null","null","arrowup","[0.325,0.675,0.15,0.85]","","",""
"sailing-trial","129","842574","0.0-11.0-88.0","","","","false","","","","","","","","","","1954.3999998569489","","641.0999999046326","","0","0","arrowleft","0","arrowleft","[0.325,0.675,0.15,0.85]","","",""
"sailing-trial","130","845827","0.0-11.0-89.0","","","","false","","","","","","","","","","null","","1392.6999998092651","","1","1","null","null","arrowup","[0.325,0.675,0.15,0.85]","","",""
"sailing-trial","131","849596","0.0-11.0-90.0","","","","false","","","","","","","","","","833.0999999046326","","36.5","","1","1","arrowleft","0","arrowright","[0.15,0.85,0.325,0.675]","","",""
"sailing-trial","132","852328","0.0-11.0-91.0","","","","false","","","","","","","","","","null","","872.2999999523163","","1","1","null","null","arrowup","[0.15,0.85,0.325,0.675]","","",""
"sailing-trial","133","857244","0.0-11.0-92.0","","","","false","","","","","","","","","","939.9000000953674","","828","","3","1","arrowright","1","arrowright","[0.15,0.85,0.325,0.675]","","",""
"sailing-trial","134","861644","0.0-11.0-93.0","","","","false","","","","","","","","","","null","","1375.0999999046326","","0","0","null","null","arrowup","[0.15,0.85,0.325,0.675]","","",""
"sailing-trial","135","868745","0.0-11.0-94.0","","","","false","","","","","","","","","","3482.699999809265","","873.7999999523163","","1","1","arrowleft","0","arrowright","[0.15,0.85,0.325,0.675]","","",""
"sailing-trial","136","871716","0.0-11.0-95.0","","","","false","","","","","","","","","","null","","1153.6999998092651","","3","1","null","null","arrowup","[0.15,0.85,0.325,0.675]","","",""
"sailing-trial","137","877161","0.0-11.0-96.0","","","","false","","","","","","","","","","1763.2999999523163","","819.7000000476837","","3","1","arrowright","1","arrowright","[0.15,0.85,0.325,0.675]","","",""
"sailing-trial","138","879895","0.0-11.0-97.0","","","","false","","","","","","","","","","null","","1675.1000001430511","","3","0","null","null","arrowup","[0.15,0.85,0.325,0.675]","","",""
"sailing-trial","139","885378","0.0-11.0-98.0","","","","false","","","","","","","","","","2039.3999998569489","","632.8999998569489","","3","1","arrowright","1","arrowright","[0.15,0.85,0.325,0.675]","","",""
"sailing-trial","140","888095","0.0-11.0-99.0","","","","false","","","","","","","","","","null","","1154.3999998569489","","3","1","null","null","arrowup","[0.15,0.85,0.325,0.675]","","",""
"sailing-trial","141","893361","0.0-11.0-100.0","","","","false","","","","","","","","","","756.4000000953674","","748.3999998569489","","3","1","arrowright","1","arrowright","[0.15,0.85,0.325,0.675]","","",""
"sailing-trial","142","896744","0.0-11.0-101.0","","","","false","","","","","","","","","","null","","1450.6999998092651","","3","1","null","null","arrowup","[0.15,0.85,0.325,0.675]","","",""
"sailing-trial","143","899726","0.0-11.0-102.0","","","","false","","","","","","","","","","499.7000000476837","","244.29999995231628","","3","0","arrowright","1","arrowright","[0.15,0.85,0.325,0.675]","","",""
"sailing-trial","144","904648","0.0-11.0-103.0","","","","false","","","","","","","","","","null","","2053.100000143051","","2","0","null","null","arrowup","[0.15,0.85,0.325,0.675]","","",""
"sailing-trial","145","910611","0.0-11.0-104.0","","","","false","","","","","","","","","","2390.899999856949","","780.2999999523163","","3","1","arrowright","1","arrowright","[0.15,0.85,0.325,0.675]","","",""
"sailing-trial","146","913975","0.0-11.0-105.0","","","","false","","","","","","","","","","null","","1776.2000000476837","","0","0","null","null","arrowup","[0.15,0.85,0.325,0.675]","","",""
"sailing-trial","147","918130","0.0-11.0-106.0","","","","false","","","","","","","","","","1032.7999999523163","","254.5","","3","1","arrowright","1","arrowright","[0.15,0.85,0.325,0.675]","","",""
"sailing-trial","148","921759","0.0-11.0-107.0","","","","false","","","","","","","","","","null","","1707.0999999046326","","2","0","null","null","arrowup","[0.15,0.85,0.325,0.675]","","",""
"sailing-trial","149","927027","0.0-11.0-108.0","","","","false","","","","","","","","","","1796","","625.2000000476837","","3","1","arrowright","1","arrowright","[0.325,0.675,0.15,0.85]","","",""
"sailing-trial","150","930495","0.0-11.0-109.0","","","","false","","","","","","","","","","null","","1216.3999998569489","","1","1","null","null","arrowup","[0.325,0.675,0.15,0.85]","","",""
"sailing-trial","151","934175","0.0-11.0-110.0","","","","false","","","","","","","","","","586.7999999523163","","211.70000004768372","","1","0","arrowleft","0","arrowright","[0.325,0.675,0.15,0.85]","","",""
"sailing-trial","152","937447","0.0-11.0-111.0","","","","false","","","","","","","","","","null","","1205.9000000953674","","3","1","null","null","arrowup","[0.325,0.675,0.15,0.85]","","",""
"sailing-trial","153","941054","0.0-11.0-112.0","","","","false","","","","","","","","","","381.5","","533.5999999046326","","3","0","arrowright","1","arrowright","[0.325,0.675,0.15,0.85]","","",""
"sailing-trial","154","944428","0.0-11.0-113.0","","","","false","","","","","","","","","","null","","1598.2000000476837","","1","1","null","null","arrowup","[0.325,0.675,0.15,0.85]","","",""
"sailing-trial","155","949391","0.0-11.0-114.0","","","","false","","","","","","","","","","1680.4000000953674","","449.7999999523163","","1","1","arrowleft","0","arrowright","[0.325,0.675,0.15,0.85]","","",""
"sailing-trial","156","951950","0.0-11.0-115.0","","","","false","","","","","","","","","","null","","996.5","","1","0","null","null","arrowup","[0.325,0.675,0.15,0.85]","","",""
"sailing-trial","157","957495","0.0-11.0-116.0","","","","false","","","","","","","","","","1103.7999999523163","","1349.2000000476837","","3","1","arrowright","1","arrowright","[0.325,0.675,0.15,0.85]","","",""
"sailing-trial","158","960693","0.0-11.0-117.0","","","","false","","","","","","","","","","null","","1655.7000000476837","","2","0","null","null","arrowup","[0.325,0.675,0.15,0.85]","","",""
"sailing-trial","159","964830","0.0-11.0-118.0","","","","false","","","","","","","","","","538.7000000476837","","164.60000014305115","","3","1","arrowright","1","arrowright","[0.325,0.675,0.15,0.85]","","",""
"sailing-trial","160","967191","0.0-11.0-119.0","","","","false","","","","","","","","","","null","","662.0999999046326","","1","0","null","null","arrowup","[0.325,0.675,0.15,0.85]","","",""
"sailing-trial","161","971415","0.0-11.0-120.0","","","","false","","","","","","","","","","981.6000001430511","","184","","3","1","arrowright","1","arrowright","[0.325,0.675,0.15,0.85]","","",""
"sailing-trial","162","974845","0.0-11.0-121.0","","","","false","","","","","","","","","","null","","1429.0999999046326","","1","1","null","null","arrowup","[0.325,0.675,0.15,0.85]","","",""
"sailing-trial","163","979013","0.0-11.0-122.0","","","","false","","","","","","","","","","993.9000000953674","","333.30000019073486","","1","1","arrowleft","0","arrowright","[0.325,0.675,0.15,0.85]","","",""
"sailing-trial","164","981694","0.0-11.0-123.0","","","","false","","","","","","","","","","null","","1207.0999999046326","","0","0","null","null","arrowup","[0.325,0.675,0.15,0.85]","","",""
"sailing-trial","165","985245","0.0-11.0-124.0","","","","false","","","","","","","","","","725.5","","135.40000009536743","","3","1","arrowright","1","arrowright","[0.15,0.85,0.325,0.675]","","",""
"sailing-trial","166","988335","0.0-11.0-125.0","","","","false","","","","","","","","","","null","","1078.9000000953674","","1","0","null","null","arrowup","[0.15,0.85,0.325,0.675]","","",""
"sailing-trial","167","992478","0.0-11.0-126.0","","","","false","","","","","","","","","","663.1000001430511","","30.800000190734863","","3","1","arrowright","1","arrowright","[0.15,0.85,0.325,0.675]","","",""
"sailing-trial","168","995224","0.0-11.0-127.0","","","","false","","","","","","","","","","null","","1375.2999999523163","","0","0","null","null","arrowup","[0.15,0.85,0.325,0.675]","","",""
"sailing-trial","169","999512","0.0-11.0-128.0","","","","false","","","","","","","","","","743.7999999523163","","87.40000009536743","","3","1","arrowright","1","arrowright","[0.15,0.85,0.325,0.675]","","",""
"sailing-trial","170","1002687","0.0-11.0-129.0","","","","false","","","","","","","","","","null","","1747.3000001907349","","2","0","null","null","arrowup","[0.15,0.85,0.325,0.675]","","",""
"sailing-trial","171","1007961","0.0-11.0-130.0","","","","false","","","","","","","","","","773","","1556.1000001430511","","3","1","arrowright","1","arrowright","[0.15,0.85,0.325,0.675]","","",""
"sailing-trial","172","1012245","0.0-11.0-131.0","","","","false","","","","","","","","","","null","","2402.2000000476837","","3","1","null","null","arrowup","[0.15,0.85,0.325,0.675]","","",""
"sailing-trial","173","1015978","0.0-11.0-132.0","","","","false","","","","","","","","","","375.5","","702.0999999046326","","3","1","arrowright","1","arrowright","[0.15,0.85,0.325,0.675]","","",""
"sailing-trial","174","1018767","0.0-11.0-133.0","","","","false","","","","","","","","","","null","","1513","","3","0","null","null","arrowup","[0.15,0.85,0.325,0.675]","","",""
"sailing-trial","175","1022439","0.0-11.0-134.0","","","","false","","","","","","","","","","631.7999999523163","","515.7999999523163","","3","0","arrowright","1","arrowright","[0.15,0.85,0.325,0.675]","","",""
"sailing-trial","176","1025142","0.0-11.0-135.0","","","","false","","","","","","","","","","null","","1269.3999998569489","","2","0","null","null","arrowup","[0.15,0.85,0.325,0.675]","","",""
"sailing-trial","177","1028811","0.0-11.0-136.0","","","","false","","","","","","","","","","524.9000000953674","","75.70000004768372","","3","1","arrowright","1","arrowright","[0.15,0.85,0.325,0.675]","","",""
"sailing-trial","178","1031824","0.0-11.0-137.0","","","","false","","","","","","","","","","null","","1545.0999999046326","","2","0","null","null","arrowup","[0.15,0.85,0.325,0.675]","","",""
"sailing-trial","179","1034761","0.0-11.0-138.0","","","","false","","","","","","","","","","358.2999999523163","","69.5","","3","0","arrowright","1","arrowright","[0.15,0.85,0.325,0.675]","","",""
"sailing-trial","180","1037545","0.0-11.0-139.0","","","","false","","","","","","","","","","null","","1215.5999999046326","","1","1","null","null","arrowup","[0.15,0.85,0.325,0.675]","","",""
"sailing-trial","181","1041979","0.0-11.0-140.0","","","","false","","","","","","","","","","1274.3999998569489","","23.5","","1","1","arrowleft","0","arrowright","[0.325,0.675,0.15,0.85]","","",""
"sailing-trial","182","1045440","0.0-11.0-141.0","","","","false","","","","","","","","","","null","","1192.7000000476837","","2","0","null","null","arrowup","[0.325,0.675,0.15,0.85]","","",""
"sailing-trial","183","1050146","0.0-11.0-142.0","","","","false","","","","","","","","","","951.2000000476837","","726.7999999523163","","3","1","arrowright","1","arrowright","[0.325,0.675,0.15,0.85]","","",""
"sailing-trial","184","1052279","0.0-11.0-143.0","","","","false","","","","","","","","","","null","","776.5999999046326","","0","0","null","null","arrowup","[0.325,0.675,0.15,0.85]","","",""
"sailing-trial","185","1056545","0.0-11.0-144.0","","","","false","","","","","","","","","","711.9000000953674","","637.5","","3","1","arrowright","1","arrowright","[0.325,0.675,0.15,0.85]","","",""
"sailing-trial","186","1058960","0.0-11.0-145.0","","","","false","","","","","","","","","","null","","1057.5999999046326","","2","0","null","null","arrowup","[0.325,0.675,0.15,0.85]","","",""
"sailing-trial","187","1062729","0.0-11.0-146.0","","","","false","","","","","","","","","","581.2999999523163","","97.10000014305115","","3","1","arrowright","1","arrowright","[0.325,0.675,0.15,0.85]","","",""
"sailing-trial","188","1067045","0.0-11.0-147.0","","","","false","","","","","","","","","","null","","2162.5","","1","1","null","null","arrowup","[0.325,0.675,0.15,0.85]","","",""
"sailing-trial","189","1069840","0.0-11.0-148.0","","","","false","","","","","","","","","","409.40000009536743","","37.59999990463257","","1","0","arrowleft","0","arrowright","[0.325,0.675,0.15,0.85]","","",""
"sailing-trial","190","1073215","0.0-11.0-149.0","","","","false","","","","","","","","","","null","","2055.9000000953674","","0","0","null","null","arrowup","[0.325,0.675,0.15,0.85]","","",""
"sailing-trial","191","1077379","0.0-11.0-150.0","","","","false","","","","","","","","","","559.5","","512.1000001430511","","3","1","arrowright","1","arrowright","[0.325,0.675,0.15,0.85]","","",""
"sailing-trial","192","1080071","0.0-11.0-151.0","","","","false","","","","","","","","","","null","","1274.5","","0","0","null","null","arrowup","[0.325,0.675,0.15,0.85]","","",""
"sailing-trial","193","1084262","0.0-11.0-152.0","","","","false","","","","","","","","","","524","","765.2000000476837","","3","1","arrowright","1","arrowright","[0.325,0.675,0.15,0.85]","","",""
"sailing-trial","194","1087198","0.0-11.0-153.0","","","","false","","","","","","","","","","null","","1470","","2","0","null","null","arrowup","[0.325,0.675,0.15,0.85]","","",""
"sailing-trial","195","1091595","0.0-11.0-154.0","","","","false","","","","","","","","","","822.4000000953674","","606.2999999523163","","3","1","arrowright","1","arrowright","[0.325,0.675,0.15,0.85]","","",""
"sailing-trial","196","1094027","0.0-11.0-155.0","","","","false","","","","","","","","","","null","","375.7000000476837","","3","1","null","null","arrowup","[0.325,0.675,0.15,0.85]","","",""
"sailing-trial","197","1099345","0.0-11.0-156.0","","","","false","","","","","","","","","","599.6000001430511","","1349.6999998092651","","3","1","arrowright","1","arrowright","[0.15,0.85,0.325,0.675]","","",""
"sailing-trial","198","1102412","0.0-11.0-157.0","","","","false","","","","","","","","","","null","","1291.1000001430511","","2","1","null","null","arrowup","[0.15,0.85,0.325,0.675]","","",""
"sailing-trial","199","1106661","0.0-11.0-158.0","","","","false","","","","","","","","","","1343.0999999046326","","40.10000014305115","","2","1","arrowright","1","arrowleft","[0.15,0.85,0.325,0.675]","","",""
"sailing-trial","200","1109734","0.0-11.0-159.0","","","","false","","","","","","","","","","null","","1621.6999998092651","","2","0","null","null","arrowup","[0.15,0.85,0.325,0.675]","","",""
"sailing-trial","201","1113594","0.0-11.0-160.0","","","","false","","","","","","","","","","510.2000000476837","","788","","3","1","arrowright","1","arrowright","[0.15,0.85,0.325,0.675]","","",""
"sailing-trial","202","1117054","0.0-11.0-161.0","","","","false","","","","","","","","","","null","","2183.7999999523163","","3","0","null","null","arrowup","[0.15,0.85,0.325,0.675]","","",""
"sailing-trial","203","1121111","0.0-11.0-162.0","","","","false","","","","","","","","","","581.9000000953674","","589.7000000476837","","3","1","arrowright","1","arrowright","[0.15,0.85,0.325,0.675]","","",""
"sailing-trial","204","1123565","0.0-11.0-163.0","","","","false","","","","","","","","","","null","","1051","","0","0","null","null","arrowup","[0.15,0.85,0.325,0.675]","","",""
"sailing-trial","205","1126902","0.0-11.0-164.0","","","","false","","","","","","","","","","551.2000000476837","","425","","3","0","arrowright","1","arrowright","[0.15,0.85,0.325,0.675]","","",""
"sailing-trial","206","1130190","0.0-11.0-165.0","","","","false","","","","","","","","","","null","","1899.2000000476837","","0","0","null","null","arrowup","[0.15,0.85,0.325,0.675]","","",""
"sailing-trial","207","1136045","0.0-11.0-166.0","","","","false","","","","","","","","","","2488.7999999523163","","306.7000000476837","","3","1","arrowright","1","arrowright","[0.15,0.85,0.325,0.675]","","",""
"sailing-trial","208","1139196","0.0-11.0-167.0","","","","false","","","","","","","","","","null","","1246.7999999523163","","2","1","null","null","arrowup","[0.15,0.85,0.325,0.675]","","",""
"sailing-trial","209","1143335","0.0-11.0-168.0","","","","false","","","","","","","","","","1168.0999999046326","","361.5","","1","0","arrowleft","0","arrowright","[0.15,0.85,0.325,0.675]","","",""
"sailing-trial","210","1146191","0.0-11.0-169.0","","","","false","","","","","","","","","","null","","1285.4000000953674","","3","0","null","null","arrowup","[0.15,0.85,0.325,0.675]","","",""
"sailing-trial","211","1149327","0.0-11.0-170.0","","","","false","","","","","","","","","","679.9000000953674","","18.59999990463257","","2","0","arrowright","1","arrowleft","[0.15,0.85,0.325,0.675]","","",""
"sailing-trial","212","1152470","0.0-11.0-171.0","","","","false","","","","","","","","","","null","","1143.7000000476837","","0","0","null","null","arrowup","[0.15,0.85,0.325,0.675]","","",""
"sailing-trial","213","1155795","0.0-11.0-172.0","","","","false","","","","","","","","","","511.59999990463257","","32","","3","1","arrowright","1","arrowright","[0.15,0.85,0.325,0.675]","","",""
"sailing-trial","214","1158049","0.0-11.0-173.0","","","","false","","","","","","","","","","null","","1041.8999998569489","","2","0","null","null","arrowup","[0.15,0.85,0.325,0.675]","","",""
"sailing-trial","215","1161980","0.0-11.0-174.0","","","","false","","","","","","","","","","582.8999998569489","","399.09999990463257","","3","1","arrowright","1","arrowright","[0.15,0.85,0.325,0.675]","","",""
"sailing-trial","216","1166327","0.0-11.0-175.0","","","","false","","","","","","","","","","null","","2832.2000000476837","","0","0","null","null","arrowup","[0.15,0.85,0.325,0.675]","","",""
"sailing-trial","217","1170350","0.0-11.0-176.0","","","","false","","","","","","","","","","798.7999999523163","","753.5999999046326","","3","0","arrowright","1","arrowright","[0.675,0.325,0.85,0.15]","","",""
"sailing-trial","218","1174134","0.0-11.0-177.0","","","","false","","","","","","","","","","null","","2541.0999999046326","","3","0","null","null","arrowup","[0.675,0.325,0.85,0.15]","","",""
"sailing-trial","219","1178639","0.0-11.0-178.0","","","","false","","","","","","","","","","1600.2999999523163","","610","","2","0","arrowright","1","arrowleft","[0.675,0.325,0.85,0.15]","","",""
"sailing-trial","220","1181278","0.0-11.0-179.0","","","","false","","","","","","","","","","null","","1292.2000000476837","","2","0","null","null","arrowup","[0.675,0.325,0.85,0.15]","","",""
"sailing-trial","221","1184767","0.0-11.0-180.0","","","","false","","","","","","","","","","1070.4000000953674","","288","","1","0","arrowleft","0","arrowright","[0.675,0.325,0.85,0.15]","","",""
"sailing-trial","222","1187263","0.0-11.0-181.0","","","","false","","","","","","","","","","null","","982.0999999046326","","3","0","null","null","arrowup","[0.675,0.325,0.85,0.15]","","",""
"sailing-trial","223","1190464","0.0-11.0-182.0","","","","false","","","","","","","","","","676.9000000953674","","54.90000009536743","","3","0","arrowright","1","arrowright","[0.675,0.325,0.85,0.15]","","",""
"sailing-trial","224","1193763","0.0-11.0-183.0","","","","false","","","","","","","","","","null","","1236.3000001907349","","2","1","null","null","arrowup","[0.675,0.325,0.85,0.15]","","",""
"sailing-trial","225","1198812","0.0-11.0-184.0","","","","false","","","","","","","","","","1296.7999999523163","","604.5","","2","1","arrowright","1","arrowleft","[0.675,0.325,0.85,0.15]","","",""
"sailing-trial","226","1202311","0.0-11.0-185.0","","","","false","","","","","","","","","","null","","1511.5999999046326","","2","1","null","null","arrowup","[0.675,0.325,0.85,0.15]","","",""
"sailing-trial","227","1205861","0.0-11.0-186.0","","","","false","","","","","","","","","","276.2999999523163","","119.40000009536743","","1","1","arrowleft","0","arrowright","[0.675,0.325,0.85,0.15]","","",""
"sailing-trial","228","1210064","0.0-11.0-187.0","","","","false","","","","","","","","","","null","","2884.9000000953674","","3","0","null","null","arrowup","[0.675,0.325,0.85,0.15]","","",""
"sailing-trial","229","1213647","0.0-11.0-188.0","","","","false","","","","","","","","","","956.5","","309.2999999523163","","3","0","arrowright","1","arrowright","[0.675,0.325,0.85,0.15]","","",""
"sailing-trial","230","1215831","0.0-11.0-189.0","","","","false","","","","","","","","","","null","","1006.5","","3","0","null","null","arrowup","[0.675,0.325,0.85,0.15]","","",""
"sailing-trial","231","1221213","0.0-11.0-190.0","","","","false","","","","","","","","","","1351.2999999523163","","1080.2000000476837","","1","1","arrowleft","0","arrowright","[0.675,0.325,0.85,0.15]","","",""
"sailing-trial","232","1225065","0.0-11.0-191.0","","","","false","","","","","","","","","","null","","1790.2000000476837","","3","1","null","null","arrowup","[0.675,0.325,0.85,0.15]","","",""
"sailing-trial","233","1229398","0.0-11.0-192.0","","","","false","","","","","","","","","","1295.2000000476837","","695.5","","3","0","arrowright","1","arrowright","[0.85,0.15,0.675,0.325]","","",""
"sailing-trial","234","1231709","0.0-11.0-193.0","","","","false","","","","","","","","","","null","","926.7000000476837","","3","0","null","null","arrowup","[0.85,0.15,0.675,0.325]","","",""
"sailing-trial","235","1236329","0.0-11.0-194.0","","","","false","","","","","","","","","","702","","741.2000000476837","","3","1","arrowright","1","arrowright","[0.85,0.15,0.675,0.325]","","",""
"sailing-trial","236","1239070","0.0-11.0-195.0","","","","false","","","","","","","","","","null","","1250.2000000476837","","3","0","null","null","arrowup","[0.85,0.15,0.675,0.325]","","",""
"sailing-trial","237","1243261","0.0-11.0-196.0","","","","false","","","","","","","","","","644.5","","897.5","","3","1","arrowright","1","arrowright","[0.85,0.15,0.675,0.325]","","",""
"sailing-trial","238","1245559","0.0-11.0-197.0","","","","false","","","","","","","","","","null","","988.7000000476837","","2","0","null","null","arrowup","[0.85,0.15,0.675,0.325]","","",""
"sailing-trial","239","1249697","0.0-11.0-198.0","","","","false","","","","","","","","","","644.2000000476837","","758.5999999046326","","3","0","arrowright","1","arrowright","[0.85,0.15,0.675,0.325]","","",""
"sailing-trial","240","1252335","0.0-11.0-199.0","","","","false","","","","","","","","","","null","","1226.7000000476837","","3","0","null","null","arrowup","[0.85,0.15,0.675,0.325]","","",""
"sailing-trial","241","1255599","0.0-11.0-200.0","","","","false","","","","","","","","","","341.5","","723.9000000953674","","3","0","arrowright","1","arrowright","[0.85,0.15,0.675,0.325]","","",""
"sailing-trial","242","1259279","0.0-11.0-201.0","","","","false","","","","","","","","","","null","","1780.1000001430511","","1","0","null","null","arrowup","[0.85,0.15,0.675,0.325]","","",""
"sailing-trial","243","1264007","0.0-11.0-202.0","","","","false","","","","","","","","","","2068.5","","297.40000009536743","","3","0","arrowright","1","arrowright","[0.85,0.15,0.675,0.325]","","",""
"sailing-trial","244","1266880","0.0-11.0-203.0","","","","false","","","","","","","","","","null","","1007.9000000953674","","0","1","null","null","arrowup","[0.85,0.15,0.675,0.325]","","",""
"sailing-trial","245","1270714","0.0-11.0-204.0","","","","false","","","","","","","","","","691","","144.30000019073486","","0","1","arrowleft","0","arrowleft","[0.85,0.15,0.675,0.325]","","",""
"sailing-trial","246","1273713","0.0-11.0-205.0","","","","false","","","","","","","","","","null","","1161.7999999523163","","0","1","null","null","arrowup","[0.85,0.15,0.675,0.325]","","",""
"sailing-trial","247","1277327","0.0-11.0-206.0","","","","false","","","","","","","","","","153.79999995231628","","387.39999985694885","","0","1","arrowleft","0","arrowleft","[0.85,0.15,0.675,0.325]","","",""
"sailing-trial","248","1280895","0.0-11.0-207.0","","","","false","","","","","","","","","","null","","2427.2000000476837","","1","0","null","null","arrowup","[0.85,0.15,0.675,0.325]","","",""
"sailing-trial","249","1286958","0.0-11.0-208.0","","","","false","","","","","","","","","","3279.600000143051","","414.5","","1","0","arrowleft","0","arrowright","[0.85,0.15,0.675,0.325]","","",""
"sailing-trial","250","1289479","0.0-11.0-209.0","","","","false","","","","","","","","","","null","","1344.2000000476837","","2","0","null","null","arrowup","[0.85,0.15,0.675,0.325]","","",""
"sailing-trial","251","1293502","0.0-11.0-210.0","","","","false","","","","","","","","","","1100.3999998569489","","726.9000000953674","","3","0","arrowright","1","arrowright","[0.85,0.15,0.675,0.325]","","",""
"sailing-trial","252","1296377","0.0-11.0-211.0","","","","false","","","","","","","","","","null","","1301.7999999523163","","3","1","null","null","arrowup","[0.85,0.15,0.675,0.325]","","",""
"sailing-trial","253","1300828","0.0-11.0-212.0","","","","false","","","","","","","","","","1105.5","","386.5","","3","1","arrowright","1","arrowright","[0.15,0.85,0.325,0.675]","","",""
"sailing-trial","254","1302710","0.0-11.0-213.0","","","","false","","","","","","","","","","null","","766.5999999046326","","2","0","null","null","arrowup","[0.15,0.85,0.325,0.675]","","",""
"sailing-trial","255","1305960","0.0-11.0-214.0","","","","false","","","","","","","","","","509.7000000476837","","5.299999952316284","","3","1","arrowright","1","arrowright","[0.15,0.85,0.325,0.675]","","",""
"sailing-trial","256","1308744","0.0-11.0-215.0","","","","false","","","","","","","","","","null","","1056.7999999523163","","2","1","null","null","arrowup","[0.15,0.85,0.325,0.675]","","",""
"sailing-trial","257","1314646","0.0-11.0-216.0","","","","false","","","","","","","","","","1231.5999999046326","","1893.6000001430511","","2","1","arrowright","1","arrowleft","[0.15,0.85,0.325,0.675]","","",""
"sailing-trial","258","1317150","0.0-11.0-217.0","","","","false","","","","","","","","","","null","","1189.5","","2","0","null","null","arrowup","[0.15,0.85,0.325,0.675]","","",""
"sailing-trial","259","1321261","0.0-11.0-218.0","","","","false","","","","","","","","","","567.5","","511.10000014305115","","3","1","arrowright","1","arrowright","[0.15,0.85,0.325,0.675]","","",""
"sailing-trial","260","1325727","0.0-11.0-219.0","","","","false","","","","","","","","","","null","","2653","","1","1","null","null","arrowup","[0.15,0.85,0.325,0.675]","","",""
"sailing-trial","261","1333429","0.0-11.0-220.0","","","","false","","","","","","","","","","3187","","1847.5999999046326","","3","0","arrowright","1","arrowright","[0.15,0.85,0.325,0.675]","","",""
"sailing-trial","262","1336160","0.0-11.0-221.0","","","","false","","","","","","","","","","null","","917.2999999523163","","3","1","null","null","arrowup","[0.15,0.85,0.325,0.675]","","",""
"sailing-trial","263","1341013","0.0-11.0-222.0","","","","false","","","","","","","","","","1075.8999998569489","","693.7000000476837","","3","1","arrowright","1","arrowright","[0.15,0.85,0.325,0.675]","","",""
"sailing-trial","264","1345708","0.0-11.0-223.0","","","","false","","","","","","","","","","null","","3492.199999809265","","0","0","null","null","arrowup","[0.15,0.85,0.325,0.675]","","",""
"sailing-trial","265","1349517","0.0-11.0-224.0","","","","false","","","","","","","","","","775","","705.7000000476837","","3","0","arrowright","1","arrowright","[0.15,0.85,0.325,0.675]","","",""
"sailing-trial","266","1352990","0.0-11.0-225.0","","","","false","","","","","","","","","","null","","1118.5","","2","0","null","null","arrowup","[0.15,0.85,0.325,0.675]","","",""
"sailing-trial","267","1359711","0.0-11.0-226.0","","","","false","","","","","","","","","","2797","","1140.1000001430511","","2","1","arrowright","1","arrowleft","[0.15,0.85,0.325,0.675]","","",""
"sailing-trial","268","1362013","0.0-11.0-227.0","","","","false","","","","","","","","","","null","","955.5999999046326","","0","0","null","null","arrowup","[0.15,0.85,0.325,0.675]","","",""
"sailing-trial","269","1366734","0.0-11.0-228.0","","","","false","","","","","","","","","","1038.1000001430511","","930.7000000476837","","0","0","arrowleft","0","arrowleft","[0.675,0.325,0.85,0.15]","","",""
"sailing-trial","270","1369712","0.0-11.0-229.0","","","","false","","","","","","","","","","null","","1068.8999998569489","","0","1","null","null","arrowup","[0.675,0.325,0.85,0.15]","","",""
"sailing-trial","271","1373918","0.0-11.0-230.0","","","","false","","","","","","","","","","1826.2000000476837","","49.299999952316284","","3","0","arrowright","1","arrowright","[0.675,0.325,0.85,0.15]","","",""
"sailing-trial","272","1377077","0.0-11.0-231.0","","","","false","","","","","","","","","","null","","1339.2000000476837","","2","1","null","null","arrowup","[0.675,0.325,0.85,0.15]","","",""
"sailing-trial","273","1381060","0.0-11.0-232.0","","","","false","","","","","","","","","","917.2999999523163","","446.5","","2","1","arrowright","1","arrowleft","[0.675,0.325,0.85,0.15]","","",""
"sailing-trial","274","1383333","0.0-11.0-233.0","","","","false","","","","","","","","","","null","","1086.6999998092651","","3","0","null","null","arrowup","[0.675,0.325,0.85,0.15]","","",""
"sailing-trial","275","1388062","0.0-11.0-234.0","","","","false","","","","","","","","","","1704.1999998092651","","868","","3","0","arrowright","1","arrowright","[0.675,0.325,0.85,0.15]","","",""
"sailing-trial","276","1390502","0.0-11.0-235.0","","","","false","","","","","","","","","","null","","1206.8999998569489","","3","0","null","null","arrowup","[0.675,0.325,0.85,0.15]","","",""
"sailing-trial","277","1394544","0.0-11.0-236.0","","","","false","","","","","","","","","","740.7000000476837","","475.39999985694885","","1","1","arrowleft","0","arrowright","[0.675,0.325,0.85,0.15]","","",""
"sailing-trial","278","1397863","0.0-11.0-237.0","","","","false","","","","","","","","","","null","","906.5","","2","1","null","null","arrowup","[0.675,0.325,0.85,0.15]","","",""
"sailing-trial","279","1404112","0.0-11.0-238.0","","","","false","","","","","","","","","","2687.2000000476837","","944.6000001430511","","0","1","arrowleft","0","arrowleft","[0.675,0.325,0.85,0.15]","","",""
"sailing-trial","280","1406503","0.0-11.0-239.0","","","","false","","","","","","","","","","null","","1227.5","","3","0","null","null","arrowup","[0.675,0.325,0.85,0.15]","","",""
"sailing-trial","281","1409821","0.0-11.0-240.0","","","","false","","","","","","","","","","794.4000000953674","","385.7999999523163","","3","0","arrowright","1","arrowright","[0.675,0.325,0.85,0.15]","","",""
"sailing-trial","282","1414928","0.0-11.0-241.0","","","","false","","","","","","","","","","null","","3292.7000000476837","","1","1","null","null","arrowup","[0.675,0.325,0.85,0.15]","","",""
"sailing-trial","283","1420422","0.0-11.0-242.0","","","","false","","","","","","","","","","2922.5","","10.400000095367432","","1","0","arrowleft","0","arrowright","[0.675,0.325,0.85,0.15]","","",""
"sailing-trial","284","1424614","0.0-11.0-243.0","","","","false","","","","","","","","","","null","","2837.7000000476837","","0","0","null","null","arrowup","[0.675,0.325,0.85,0.15]","","",""
"sailing-trial","285","1427678","0.0-11.0-244.0","","","","false","","","","","","","","","","695.3999998569489","","18","","3","0","arrowright","1","arrowright","[0.675,0.325,0.85,0.15]","","",""
"sailing-trial","286","1430749","0.0-11.0-245.0","","","","false","","","","","","","","","","null","","1619.9000000953674","","1","0","null","null","arrowup","[0.675,0.325,0.85,0.15]","","",""
"sailing-trial","287","1435454","0.0-11.0-246.0","","","","false","","","","","","","","","","1575.4000000953674","","138.09999990463257","","3","0","arrowright","1","arrowright","[0.675,0.325,0.85,0.15]","","",""
"sailing-trial","288","1437894","0.0-11.0-247.0","","","","false","","","","","","","","","","null","","1103","","0","0","null","null","arrowup","[0.675,0.325,0.85,0.15]","","",""
"sailing-trial","289","1443758","0.0-11.0-248.0","","","","false","","","","","","","","","","2380.9000000953674","","490.39999985694885","","0","0","arrowleft","0","arrowleft","[0.675,0.325,0.85,0.15]","","",""
"sailing-trial","290","1446896","0.0-11.0-249.0","","","","false","","","","","","","","","","null","","1152","","0","1","null","null","arrowup","[0.675,0.325,0.85,0.15]","","",""
"sailing-trial","291","1454297","0.0-11.0-250.0","","","","false","","","","","","","","","","3643","","753.2999999523163","","0","1","arrowleft","0","arrowleft","[0.85,0.15,0.675,0.325]","","",""
"sailing-trial","292","1456910","0.0-11.0-251.0","","","","false","","","","","","","","","","null","","1186.6000001430511","","1","0","null","null","arrowup","[0.85,0.15,0.675,0.325]","","",""
"sailing-trial","293","1462112","0.0-11.0-252.0","","","","false","","","","","","","","","","2407.5","","16.600000143051147","","1","1","arrowleft","0","arrowright","[0.85,0.15,0.675,0.325]","","",""
"sailing-trial","294","1463966","0.0-11.0-253.0","","","","false","","","","","","","","","","null","","730.7999999523163","","0","0","null","null","arrowup","[0.85,0.15,0.675,0.325]","","",""
"sailing-trial","295","1468564","0.0-11.0-254.0","","","","false","","","","","","","","","","759.7000000476837","","1184.9000000953674","","0","1","arrowleft","0","arrowleft","[0.85,0.15,0.675,0.325]","","",""
"sailing-trial","296","1471705","0.0-11.0-255.0","","","","false","","","","","","","","","","null","","966.4000000953674","","2","0","null","null","arrowup","[0.85,0.15,0.675,0.325]","","",""
"sailing-trial","297","1477679","0.0-11.0-256.0","","","","false","","","","","","","","","","2467.899999856949","","590.6000001430511","","2","1","arrowright","1","arrowleft","[0.85,0.15,0.675,0.325]","","",""
"sailing-trial","298","1480501","0.0-11.0-257.0","","","","false","","","","","","","","","","null","","1491.7000000476837","","1","0","null","null","arrowup","[0.85,0.15,0.675,0.325]","","",""
"sailing-trial","299","1484990","0.0-11.0-258.0","","","","false","","","","","","","","","","1607.5","","514.1000001430511","","1","0","arrowleft","0","arrowright","[0.85,0.15,0.675,0.325]","","",""
"sailing-trial","300","1486974","0.0-11.0-259.0","","","","false","","","","","","","","","","null","","901.9000000953674","","3","0","null","null","arrowup","[0.85,0.15,0.675,0.325]","","",""
"sailing-trial","301","1492295","0.0-11.0-260.0","","","","false","","","","","","","","","","609","","887.8999998569489","","3","1","arrowright","1","arrowright","[0.85,0.15,0.675,0.325]","","",""
"sailing-trial","302","1494382","0.0-11.0-261.0","","","","false","","","","","","","","","","null","","884.2000000476837","","1","0","null","null","arrowup","[0.85,0.15,0.675,0.325]","","",""
"sailing-trial","303","1500215","0.0-11.0-262.0","","","","false","","","","","","","","","","2790.899999856949","","630.3000001907349","","1","0","arrowleft","0","arrowright","[0.85,0.15,0.675,0.325]","","",""
"sailing-trial","304","1502670","0.0-11.0-263.0","","","","false","","","","","","","","","","null","","1124.0999999046326","","3","0","null","null","arrowup","[0.85,0.15,0.675,0.325]","","",""
"sailing-trial","305","1505414","0.0-11.0-264.0","","","","false","","","","","","","","","","622.2000000476837","","1.3000001907348633","","3","0","arrowright","1","arrowright","[0.85,0.15,0.675,0.325]","","",""
"sailing-trial","306","1507886","0.0-11.0-265.0","","","","false","","","","","","","","","","null","","1037.7000000476837","","1","0","null","null","arrowup","[0.85,0.15,0.675,0.325]","","",""
"sailing-trial","307","1513713","0.0-11.0-266.0","","","","false","","","","","","","","","","2293.4000000953674","","911","","3","1","arrowright","1","arrowright","[0.85,0.15,0.675,0.325]","","",""
"sailing-trial","308","1517734","0.0-11.0-267.0","","","","false","","","","","","","","","","null","","2928.5","","2","0","null","null","arrowup","[0.85,0.15,0.675,0.325]","","",""
"sailing-trial","309","1525579","0.0-11.0-268.0","","","","false","","","","","","","","","","3022.7999999523163","","1895.9000000953674","","3","1","arrowright","1","arrowright","[0.85,0.15,0.675,0.325]","","",""
"sailing-trial","310","1529823","0.0-11.0-269.0","","","","false","","","","","","","","","","null","","2983.300000190735","","3","0","null","null","arrowup","[0.85,0.15,0.675,0.325]","","",""
"sailing-trial","311","1532950","0.0-11.0-270.0","","","","false","","","","","","","","","","718.3000001907349","","16.600000143051147","","3","0","arrowright","1","arrowright","[0.85,0.15,0.675,0.325]","","",""
"sailing-trial","312","1538927","0.0-11.0-271.0","","","","false","","","","","","","","","","null","","4077.7999999523163","","0","1","null","null","arrowup","[0.85,0.15,0.675,0.325]","","",""
"sailing-trial","313","1544744","0.0-11.0-272.0","","","","false","","","","","","","","","","2745.699999809265","","258.5","","3","1","arrowright","1","arrowright","[0.675,0.325,0.85,0.15]","","",""
"sailing-trial","314","1549245","0.0-11.0-273.0","","","","false","","","","","","","","","","null","","2561.2000000476837","","1","0","null","null","arrowup","[0.675,0.325,0.85,0.15]","","",""
"sailing-trial","315","1553492","0.0-11.0-274.0","","","","false","","","","","","","","","","1817.7999999523163","","113","","3","0","arrowright","1","arrowright","[0.675,0.325,0.85,0.15]","","",""
"sailing-trial","316","1555711","0.0-11.0-275.0","","","","false","","","","","","","","","","null","","926.7999999523163","","0","0","null","null","arrowup","[0.675,0.325,0.85,0.15]","","",""
"sailing-trial","317","1559376","0.0-11.0-276.0","","","","false","","","","","","","","","","508.7999999523163","","545.7000000476837","","0","1","arrowleft","0","arrowleft","[0.675,0.325,0.85,0.15]","","",""
"sailing-trial","318","1561453","0.0-11.0-277.0","","","","false","","","","","","","","","","null","","889.2000000476837","","0","0","null","null","arrowup","[0.675,0.325,0.85,0.15]","","",""
"sailing-trial","319","1565162","0.0-11.0-278.0","","","","false","","","","","","","","","","428.2999999523163","","675.2999999523163","","0","1","arrowleft","0","arrowleft","[0.675,0.325,0.85,0.15]","","",""
"sailing-trial","320","1568333","0.0-11.0-279.0","","","","false","","","","","","","","","","null","","1848.0999999046326","","1","0","null","null","arrowup","[0.675,0.325,0.85,0.15]","","",""
"sailing-trial","321","1572160","0.0-11.0-280.0","","","","false","","","","","","","","","","967.7000000476837","","325.90000009536743","","1","0","arrowleft","0","arrowright","[0.675,0.325,0.85,0.15]","","",""
"sailing-trial","322","1574597","0.0-11.0-281.0","","","","false","","","","","","","","","","null","","929.7999999523163","","1","0","null","null","arrowup","[0.675,0.325,0.85,0.15]","","",""
"sailing-trial","323","1578991","0.0-11.0-282.0","","","","false","","","","","","","","","","1606.1000001430511","","343","","1","0","arrowleft","0","arrowright","[0.675,0.325,0.85,0.15]","","",""
"sailing-trial","324","1581415","0.0-11.0-283.0","","","","false","","","","","","","","","","null","","972.2000000476837","","1","0","null","null","arrowup","[0.675,0.325,0.85,0.15]","","",""
"sailing-trial","325","1584999","0.0-11.0-284.0","","","","false","","","","","","","","","","757.5","","174.59999990463257","","3","0","arrowright","1","arrowright","[0.675,0.325,0.85,0.15]","","",""
"sailing-trial","326","1588127","0.0-11.0-285.0","","","","false","","","","","","","","","","null","","1252.2999999523163","","2","1","null","null","arrowup","[0.675,0.325,0.85,0.15]","","",""
"sailing-trial","327","1591827","0.0-11.0-286.0","","","","false","","","","","","","","","","234.5","","23.200000047683716","","2","1","arrowright","1","arrowleft","[0.675,0.325,0.85,0.15]","","",""
"sailing-trial","328","1594198","0.0-11.0-287.0","","","","false","","","","","","","","","","null","","1063.1999998092651","","1","0","null","null","arrowup","[0.675,0.325,0.85,0.15]","","",""
"sailing-trial","329","1597821","0.0-11.0-288.0","","","","false","","","","","","","","","","974.2999999523163","","279.2000000476837","","3","0","arrowright","1","arrowright","[0.675,0.325,0.85,0.15]","","",""
"sailing-trial","330","1601911","0.0-11.0-289.0","","","","false","","","","","","","","","","null","","1901.7000000476837","","0","1","null","null","arrowup","[0.675,0.325,0.85,0.15]","","",""
"sailing-trial","331","1606376","0.0-11.0-290.0","","","","false","","","","","","","","","","697.8999998569489","","877.0999999046326","","0","1","arrowleft","0","arrowleft","[0.85,0.15,0.675,0.325]","","",""
"sailing-trial","332","1611924","0.0-11.0-291.0","","","","false","","","","","","","","","","null","","4153.700000047684","","3","0","null","null","arrowup","[0.85,0.15,0.675,0.325]","","",""
"sailing-trial","333","1615037","0.0-11.0-292.0","","","","false","","","","","","","","","","607","","151.79999995231628","","3","0","arrowright","1","arrowright","[0.85,0.15,0.675,0.325]","","",""
"sailing-trial","334","1619030","0.0-11.0-293.0","","","","false","","","","","","","","","","null","","2220.899999856949","","0","1","null","null","arrowup","[0.85,0.15,0.675,0.325]","","",""
"sailing-trial","335","1622278","0.0-11.0-294.0","","","","false","","","","","","","","","","398.69999980926514","","12.100000143051147","","0","1","arrowleft","0","arrowleft","[0.85,0.15,0.675,0.325]","","",""
"sailing-trial","336","1625431","0.0-11.0-295.0","","","","false","","","","","","","","","","null","","1194.5","","0","1","null","null","arrowup","[0.85,0.15,0.675,0.325]","","",""
"sailing-trial","337","1629865","0.0-11.0-296.0","","","","false","","","","","","","","","","573","","1078","","0","1","arrowleft","0","arrowleft","[0.85,0.15,0.675,0.325]","","",""
"sailing-trial","338","1631893","0.0-11.0-297.0","","","","false","","","","","","","","","","null","","705.4000000953674","","3","0","null","null","arrowup","[0.85,0.15,0.675,0.325]","","",""
"sailing-trial","339","1636029","0.0-11.0-298.0","","","","false","","","","","","","","","","636.2999999523163","","1200.7000000476837","","3","0","arrowright","1","arrowright","[0.85,0.15,0.675,0.325]","","",""
"sailing-trial","340","1640496","0.0-11.0-299.0","","","","false","","","","","","","","","","null","","2404.600000143051","","1","1","null","null","arrowup","[0.85,0.15,0.675,0.325]","","",""
"sailing-trial","341","1643735","0.0-11.0-300.0","","","","false","","","","","","","","","","450.59999990463257","","552","","1","0","arrowleft","0","arrowright","[0.85,0.15,0.675,0.325]","","",""
"sailing-trial","342","1645950","0.0-11.0-301.0","","","","false","","","","","","","","","","null","","1013.2999999523163","","0","0","null","null","arrowup","[0.85,0.15,0.675,0.325]","","",""
"sailing-trial","343","1649894","0.0-11.0-302.0","","","","false","","","","","","","","","","365.7999999523163","","737.3999998569489","","0","1","arrowleft","0","arrowleft","[0.85,0.15,0.675,0.325]","","",""
"sailing-trial","344","1652534","0.0-11.0-303.0","","","","false","","","","","","","","","","null","","1308.2999999523163","","3","0","null","null","arrowup","[0.85,0.15,0.675,0.325]","","",""
"sailing-trial","345","1655310","0.0-11.0-304.0","","","","false","","","","","","","","","","407.89999985694885","","55.89999985694885","","3","0","arrowright","1","arrowright","[0.85,0.15,0.675,0.325]","","",""
"sailing-trial","346","1659546","0.0-11.0-305.0","","","","false","","","","","","","","","","null","","1348.5","","0","1","null","null","arrowup","[0.85,0.15,0.675,0.325]","","",""
"sailing-trial","347","1665129","0.0-11.0-306.0","","","","false","","","","","","","","","","2057.9000000953674","","149.90000009536743","","0","1","arrowleft","0","arrowleft","[0.85,0.15,0.675,0.325]","","",""
"sailing-trial","348","1669747","0.0-11.0-307.0","","","","false","","","","","","","","","","null","","2737.600000143051","","2","1","null","null","arrowup","[0.85,0.15,0.675,0.325]","","",""
"sailing-trial","349","1675011","0.0-11.0-308.0","","","","false","","","","","","","","","","1623.5","","558.7999999523163","","2","1","arrowright","1","arrowleft","[0.85,0.15,0.675,0.325]","","",""
"sailing-trial","350","1678460","0.0-11.0-309.0","","","","false","","","","","","","","","","null","","1655.3000001907349","","1","1","null","null","arrowup","[0.85,0.15,0.675,0.325]","","",""
"sailing-trial","351","1681645","0.0-11.0-310.0","","","","false","","","","","","","","","","412.90000009536743","","315.10000014305115","","1","0","arrowleft","0","arrowright","[0.85,0.15,0.675,0.325]","","",""
"sailing-trial","352","1684062","0.0-11.0-311.0","","","","false","","","","","","","","","","null","","1023.1999998092651","","3","0","null","null","arrowup","[0.85,0.15,0.675,0.325]","","",""
"sailing-trial","353","1687830","0.0-11.0-312.0","","","","false","","","","","","","","","","667.6000001430511","","872.5","","3","0","arrowright","1","arrowright","[0.85,0.15,0.675,0.325]","","",""
"sailing-trial","354","1691078","0.0-11.0-313.0","","","","false","","","","","","","","","","null","","2173","","3","0","null","null","arrowup","[0.85,0.15,0.675,0.325]","","",""
"sailing-trial","355","1694494","0.0-11.0-314.0","","","","false","","","","","","","","","","855.4000000953674","","473.7999999523163","","2","0","arrowright","1","arrowleft","[0.325,0.675,0.15,0.85]","","",""
"sailing-trial","356","1697544","0.0-11.0-315.0","","","","false","","","","","","","","","","null","","1734.0999999046326","","2","0","null","null","arrowup","[0.325,0.675,0.15,0.85]","","",""
"sailing-trial","357","1703372","0.0-11.0-316.0","","","","false","","","","","","","","","","3437.0999999046326","","16.200000047683716","","2","0","arrowright","1","arrowleft","[0.325,0.675,0.15,0.85]","","",""
"sailing-trial","358","1706747","0.0-11.0-317.0","","","","false","","","","","","","","","","null","","1542.2000000476837","","2","1","null","null","arrowup","[0.325,0.675,0.15,0.85]","","",""
"sailing-trial","359","1710206","0.0-11.0-318.0","","","","false","","","","","","","","","","687.5","","603.6999998092651","","2","0","arrowright","1","arrowleft","[0.325,0.675,0.15,0.85]","","",""
"sailing-trial","360","1715463","0.0-11.0-319.0","","","","false","","","","","","","","","","null","","2508.899999856949","","3","1","null","null","arrowup","[0.325,0.675,0.15,0.85]","","",""
"sailing-trial","361","1720878","0.0-11.0-320.0","","","","false","","","","","","","","","","1587.5","","857.9000000953674","","3","1","arrowright","1","arrowright","[0.325,0.675,0.15,0.85]","","",""
"sailing-trial","362","1725590","0.0-11.0-321.0","","","","false","","","","","","","","","","null","","3453.7999999523163","","2","0","null","null","arrowup","[0.325,0.675,0.15,0.85]","","",""
"sailing-trial","363","1730485","0.0-11.0-322.0","","","","false","","","","","","","","","","1471.5","","978.2000000476837","","2","0","arrowright","1","arrowleft","[0.325,0.675,0.15,0.85]","","",""
"sailing-trial","364","1735879","0.0-11.0-323.0","","","","false","","","","","","","","","","null","","3213.899999856949","","0","0","null","null","arrowup","[0.325,0.675,0.15,0.85]","","",""
"sailing-trial","365","1742561","0.0-11.0-324.0","","","","false","","","","","","","","","","2844.699999809265","","944.9000000953674","","3","1","arrowright","1","arrowright","[0.325,0.675,0.15,0.85]","","",""
"sailing-trial","366","1746703","0.0-11.0-325.0","","","","false","","","","","","","","","","null","","2385.800000190735","","1","0","null","null","arrowup","[0.325,0.675,0.15,0.85]","","",""
"sailing-trial","367","1754997","0.0-11.0-326.0","","","","false","","","","","","","","","","3781.7000000476837","","497.7999999523163","","1","0","arrowleft","0","arrowright","[0.325,0.675,0.15,0.85]","","",""
"sailing-trial","368","1762283","0.0-11.0-327.0","","","","false","","","","","","","","","","null","","5662.200000047684","","1","0","null","null","arrowup","[0.325,0.675,0.15,0.85]","","",""
"sailing-trial","369","1767413","0.0-11.0-328.0","","","","false","","","","","","","","","","2110.399999856949","","68.09999990463257","","1","1","arrowleft","0","arrowright","[0.325,0.675,0.15,0.85]","","",""
"sailing-trial","370","1770810","0.0-11.0-329.0","","","","false","","","","","","","","","","null","","1500","","1","1","null","null","arrowup","[0.325,0.675,0.15,0.85]","","",""
"sailing-trial","371","1777096","0.0-11.0-330.0","","","","false","","","","","","","","","","2983.5999999046326","","437.40000009536743","","3","1","arrowright","1","arrowright","[0.15,0.85,0.325,0.675]","","",""
"sailing-trial","372","1781161","0.0-11.0-331.0","","","","false","","","","","","","","","","null","","2018.7999999523163","","2","1","null","null","arrowup","[0.15,0.85,0.325,0.675]","","",""
"sailing-trial","373","1784810","0.0-11.0-332.0","","","","false","","","","","","","","","","78","","644.4000000953674","","2","1","arrowright","1","arrowleft","[0.15,0.85,0.325,0.675]","","",""
"sailing-trial","374","1788845","0.0-11.0-333.0","","","","false","","","","","","","","","","null","","2295.5","","3","1","null","null","arrowup","[0.15,0.85,0.325,0.675]","","",""
"sailing-trial","375","1791928","0.0-11.0-334.0","","","","false","","","","","","","","","","206.90000009536743","","10.400000095367432","","3","1","arrowright","1","arrowright","[0.15,0.85,0.325,0.675]","","",""
"sailing-trial","376","1795135","0.0-11.0-335.0","","","","false","","","","","","","","","","null","","2033.7000000476837","","2","0","null","null","arrowup","[0.15,0.85,0.325,0.675]","","",""
"sailing-trial","377","1801046","0.0-11.0-336.0","","","","false","","","","","","","","","","1309.2000000476837","","571","","2","0","arrowright","1","arrowleft","[0.15,0.85,0.325,0.675]","","",""
"sailing-trial","378","1804738","0.0-11.0-337.0","","","","false","","","","","","","","","","null","","2139.2999999523163","","2","0","null","null","arrowup","[0.15,0.85,0.325,0.675]","","",""
"sailing-trial","379","1812831","0.0-11.0-338.0","","","","false","","","","","","","","","","2468.0999999046326","","652.8000001907349","","3","1","arrowright","1","arrowright","[0.15,0.85,0.325,0.675]","","",""
"sailing-trial","380","1816133","0.0-11.0-339.0","","","","false","","","","","","","","","","null","","1699.3999998569489","","0","0","null","null","arrowup","[0.15,0.85,0.325,0.675]","","",""
"sailing-trial","381","1821575","0.0-11.0-340.0","","","","false","","","","","","","","","","1838.2999999523163","","774.7000000476837","","3","1","arrowright","1","arrowright","[0.15,0.85,0.325,0.675]","","",""
"sailing-trial","382","1824782","0.0-11.0-341.0","","","","false","","","","","","","","","","null","","1746.1000001430511","","2","0","null","null","arrowup","[0.15,0.85,0.325,0.675]","","",""
"sailing-trial","383","1830130","0.0-11.0-342.0","","","","false","","","","","","","","","","1570.2000000476837","","575.8999998569489","","3","1","arrowright","1","arrowright","[0.15,0.85,0.325,0.675]","","",""
"sailing-trial","384","1834561","0.0-11.0-343.0","","","","false","","","","","","","","","","null","","2399.7999999523163","","1","1","null","null","arrowup","[0.15,0.85,0.325,0.675]","","",""
"sailing-trial","385","1838782","0.0-11.0-344.0","","","","false","","","","","","","","","","970.0999999046326","","87.5","","1","1","arrowleft","0","arrowright","[0.15,0.85,0.325,0.675]","","",""
"sailing-trial","386","1841869","0.0-11.0-345.0","","","","false","","","","","","","","","","null","","1523.9000000953674","","0","0","null","null","arrowup","[0.15,0.85,0.325,0.675]","","",""
"sailing-trial","387","1845713","0.0-11.0-346.0","","","","false","","","","","","","","","","799.4000000953674","","34.700000047683716","","0","1","arrowleft","0","arrowleft","[0.85,0.15,0.675,0.325]","","",""
"sailing-trial","388","1849096","0.0-11.0-347.0","","","","false","","","","","","","","","","null","","1513.2000000476837","","3","1","null","null","arrowup","[0.85,0.15,0.675,0.325]","","",""
"sailing-trial","389","1853629","0.0-11.0-348.0","","","","false","","","","","","","","","","314.09999990463257","","1852.2000000476837","","3","0","arrowright","1","arrowright","[0.85,0.15,0.675,0.325]","","",""
"sailing-trial","390","1856949","0.0-11.0-349.0","","","","false","","","","","","","","","","null","","974.1000001430511","","3","0","null","null","arrowup","[0.85,0.15,0.675,0.325]","","",""
"sailing-trial","391","1862662","0.0-11.0-350.0","","","","false","","","","","","","","","","2029.5","","1132.2999999523163","","3","0","arrowright","1","arrowright","[0.85,0.15,0.675,0.325]","","",""
"sailing-trial","392","1869988","0.0-11.0-351.0","","","","false","","","","","","","","","","null","","5882.5","","1","0","null","null","arrowup","[0.85,0.15,0.675,0.325]","","",""
"sailing-trial","393","1874447","0.0-11.0-352.0","","","","false","","","","","","","","","","1445","","594","","1","0","arrowleft","0","arrowright","[0.85,0.15,0.675,0.325]","","",""
"sailing-trial","394","1880077","0.0-11.0-353.0","","","","false","","","","","","","","","","null","","4124","","1","0","null","null","arrowup","[0.85,0.15,0.675,0.325]","","",""
"sailing-trial","395","1885995","0.0-11.0-354.0","","","","false","","","","","","","","","","1619.7000000476837","","1202.7000000476837","","2","1","arrowright","1","arrowleft","[0.85,0.15,0.675,0.325]","","",""
"sailing-trial","396","1888885","0.0-11.0-355.0","","","","false","","","","","","","","","","null","","1454.8000001907349","","3","0","null","null","arrowup","[0.85,0.15,0.675,0.325]","","",""
"sailing-trial","397","1894595","0.0-11.0-356.0","","","","false","","","","","","","","","","1598.5999999046326","","81.39999985694885","","2","0","arrowright","1","arrowleft","[0.85,0.15,0.675,0.325]","","",""
"sailing-trial","398","1898598","0.0-11.0-357.0","","","","false","","","","","","","","","","null","","2551.2000000476837","","1","0","null","null","arrowup","[0.85,0.15,0.675,0.325]","","",""
"sailing-trial","399","1903762","0.0-11.0-358.0","","","","false","","","","","","","","","","2256.5","","58.60000014305115","","2","1","arrowright","1","arrowleft","[0.85,0.15,0.675,0.325]","","",""
"sailing-trial","400","1907061","0.0-11.0-359.0","","","","false","","","","","","","","","","null","","1447.7999999523163","","2","1","null","null","arrowup","[0.85,0.15,0.675,0.325]","","",""
"sailing-trial","401","1911358","0.0-11.0-360.0","","","","false","","","","","","","","","","1093.2000000476837","","800.7999999523163","","1","0","arrowleft","0","arrowright","[0.85,0.15,0.675,0.325]","","",""
"sailing-trial","402","1914527","0.0-11.0-361.0","","","","false","","","","","","","","","","null","","1151.5","","0","1","null","null","arrowup","[0.85,0.15,0.675,0.325]","","",""
"sailing-trial","403","1918762","0.0-11.0-362.0","","","","false","","","","","","","","","","250.09999990463257","","726.0999999046326","","0","1","arrowleft","0","arrowleft","[0.85,0.15,0.675,0.325]","","",""
"sailing-trial","404","1923514","0.0-11.0-363.0","","","","false","","","","","","","","","","null","","2207.5999999046326","","0","1","null","null","arrowup","[0.85,0.15,0.675,0.325]","","",""
"sailing-trial","405","1927146","0.0-11.0-364.0","","","","false","","","","","","","","","","782.7000000476837","","112.80000019073486","","0","1","arrowleft","0","arrowleft","[0.675,0.325,0.85,0.15]","","",""
"sailing-trial","406","1929545","0.0-11.0-365.0","","","","false","","","","","","","","","","null","","656.5","","2","1","null","null","arrowup","[0.675,0.325,0.85,0.15]","","",""
"sailing-trial","407","1933027","0.0-11.0-366.0","","","","false","","","","","","","","","","407.2999999523163","","327.09999990463257","","2","1","arrowright","1","arrowleft","[0.675,0.325,0.85,0.15]","","",""
"sailing-trial","408","1935494","0.0-11.0-367.0","","","","false","","","","","","","","","","null","","868.7000000476837","","3","1","null","null","arrowup","[0.675,0.325,0.85,0.15]","","",""
"sailing-trial","409","1938045","0.0-11.0-368.0","","","","false","","","","","","","","","","330.90000009536743","","58.5","","3","0","arrowright","1","arrowright","[0.675,0.325,0.85,0.15]","","",""
"sailing-trial","410","1939855","0.0-11.0-369.0","","","","false","","","","","","","","","","null","","260.09999990463257","","1","0","null","null","arrowup","[0.675,0.325,0.85,0.15]","","",""
"sailing-trial","411","1944511","0.0-11.0-370.0","","","","false","","","","","","","","","","1186.9000000953674","","819.2999999523163","","1","1","arrowleft","0","arrowright","[0.675,0.325,0.85,0.15]","","",""
"sailing-trial","412","1947979","0.0-11.0-371.0","","","","false","","","","","","","","","","null","","1713.8999998569489","","2","1","null","null","arrowup","[0.675,0.325,0.85,0.15]","","",""
"sailing-trial","413","1952096","0.0-11.0-372.0","","","","false","","","","","","","","","","567.7000000476837","","823.8999998569489","","2","1","arrowright","1","arrowleft","[0.675,0.325,0.85,0.15]","","",""
"sailing-trial","414","1954207","0.0-11.0-373.0","","","","false","","","","","","","","","","null","","777.3999998569489","","1","0","null","null","arrowup","[0.675,0.325,0.85,0.15]","","",""
"sailing-trial","415","1959365","0.0-11.0-374.0","","","","false","","","","","","","","","","1411.6000001430511","","382.40000009536743","","2","1","arrowright","1","arrowleft","[0.675,0.325,0.85,0.15]","","",""
"sailing-trial","416","1963395","0.0-11.0-375.0","","","","false","","","","","","","","","","null","","2182.399999856949","","1","1","null","null","arrowup","[0.675,0.325,0.85,0.15]","","",""
"sailing-trial","417","1968454","0.0-11.0-376.0","","","","false","","","","","","","","","","2234.100000143051","","515.0999999046326","","1","0","arrowleft","0","arrowright","[0.675,0.325,0.85,0.15]","","",""
"sailing-trial","418","1971827","0.0-11.0-377.0","","","","false","","","","","","","","","","null","","2052","","3","0","null","null","arrowup","[0.675,0.325,0.85,0.15]","","",""
"sailing-trial","419","1977744","0.0-11.0-378.0","","","","false","","","","","","","","","","2103.2000000476837","","1095.3000001907349","","2","1","arrowright","1","arrowleft","[0.675,0.325,0.85,0.15]","","",""
"sailing-trial","420","1980334","0.0-11.0-379.0","","","","false","","","","","","","","","","null","","969.8999998569489","","2","1","null","null","arrowup","[0.675,0.325,0.85,0.15]","","",""
"sailing-trial","421","1984644","0.0-11.0-380.0","","","","false","","","","","","","","","","966.0999999046326","","521.9000000953674","","2","1","arrowright","1","arrowleft","[0.675,0.325,0.85,0.15]","","",""
"sailing-trial","422","1988605","0.0-11.0-381.0","","","","false","","","","","","","","","","null","","1573.2000000476837","","1","0","null","null","arrowup","[0.675,0.325,0.85,0.15]","","",""
"sailing-trial","423","1993877","0.0-11.0-382.0","","","","false","","","","","","","","","","2047.5999999046326","","162.5","","2","0","arrowright","1","arrowleft","[0.675,0.325,0.85,0.15]","","",""
"sailing-trial","424","1998947","0.0-11.0-383.0","","","","false","","","","","","","","","","null","","1739","","2","1","null","null","arrowup","[0.675,0.325,0.85,0.15]","","",""
"sailing-trial","425","2005029","0.0-11.0-384.0","","","","false","","","","","","","","","","3447.800000190735","","358.7999999523163","","3","0","arrowright","1","arrowright","[0.85,0.15,0.675,0.325]","","",""
"sailing-trial","426","2011394","0.0-11.0-385.0","","","","false","","","","","","","","","","null","","4596.300000190735","","3","1","null","null","arrowup","[0.85,0.15,0.675,0.325]","","",""
"sailing-trial","427","2014596","0.0-11.0-386.0","","","","false","","","","","","","","","","103.20000004768372","","23.59999990463257","","3","1","arrowright","1","arrowright","[0.85,0.15,0.675,0.325]","","",""
"sailing-trial","428","2017144","0.0-11.0-387.0","","","","false","","","","","","","","","","null","","990.4000000953674","","0","1","null","null","arrowup","[0.85,0.15,0.675,0.325]","","",""
"sailing-trial","429","2021621","0.0-11.0-388.0","","","","false","","","","","","","","","","1010","","1311.2000000476837","","3","0","arrowright","1","arrowright","[0.85,0.15,0.675,0.325]","","",""
"sailing-trial","430","2024109","0.0-11.0-389.0","","","","false","","","","","","","","","","null","","966.5999999046326","","1","0","null","null","arrowup","[0.85,0.15,0.675,0.325]","","",""
"sailing-trial","431","2028470","0.0-11.0-390.0","","","","false","","","","","","","","","","891.5999999046326","","228.79999995231628","","3","0","arrowright","1","arrowright","[0.85,0.15,0.675,0.325]","","",""
"sailing-trial","432","2032195","0.0-11.0-391.0","","","","false","","","","","","","","","","null","","1446.2999999523163","","1","1","null","null","arrowup","[0.85,0.15,0.675,0.325]","","",""
"sailing-trial","433","2035196","0.0-11.0-392.0","","","","false","","","","","","","","","","552.9000000953674","","120.79999995231628","","1","0","arrowleft","0","arrowright","[0.85,0.15,0.675,0.325]","","",""
"sailing-trial","434","2038511","0.0-11.0-393.0","","","","false","","","","","","","","","","null","","1373.4000000953674","","3","1","null","null","arrowup","[0.85,0.15,0.675,0.325]","","",""
"sailing-trial","435","2042130","0.0-11.0-394.0","","","","false","","","","","","","","","","402","","280.7000000476837","","3","1","arrowright","1","arrowright","[0.85,0.15,0.675,0.325]","","",""
"sailing-trial","436","2045244","0.0-11.0-395.0","","","","false","","","","","","","","","","null","","1224.5999999046326","","2","1","null","null","arrowup","[0.85,0.15,0.675,0.325]","","",""
"sailing-trial","437","2048620","0.0-11.0-396.0","","","","false","","","","","","","","","","789.1000001430511","","201.59999990463257","","2","0","arrowright","1","arrowleft","[0.85,0.15,0.675,0.325]","","",""
"sailing-trial","438","2051620","0.0-11.0-397.0","","","","false","","","","","","","","","","null","","933.7000000476837","","0","0","null","null","arrowup","[0.85,0.15,0.675,0.325]","","",""
"sailing-trial","439","2056341","0.0-11.0-398.0","","","","false","","","","","","","","","","1653.0999999046326","","339.2999999523163","","3","0","arrowright","1","arrowright","[0.85,0.15,0.675,0.325]","","",""
"sailing-trial","440","2059276","0.0-11.0-399.0","","","","false","","","","","","","","","","null","","1347.0999999046326","","2","0","null","null","arrowup","[0.85,0.15,0.675,0.325]","","",""
"instructions","441","2065586","0.0-12.0","","","","","","","","","","6308.400000095367","","","","","","","","","","","","","","","","[{""page_index"":0,""viewing_time"":6307.599999904633}]"
"survey-debrief","442","2083635","0.0-13.0","","","","","","","","","","18041.10000014305","","","","","","","","","","","","","","{""difficulty"":""4"",""fun"":""5"",""clarity"":""5"",""strategy"":"""",""feedback"":""""}","",""
