"trial_type","trial_index","time_elapsed","internal_node_id","value","metadata","success","timeout","failed_images","failed_audio","failed_video","browser_interaction","low_quality","rt","stimulus","response","button_pressed","island_rt","island_response","boat_rt","boat_response","boat","reward","island_key","island","boat_key","reward_probabilities","responses","num_errors","view_history"
"pavlovia","0","3","0.0-0.0","","","","","","","","","","","","","","","","","","","","","","","","","",""
"call-function","1","4","0.0-1.0","","{""task_version"":""sailing_part1_v1"",""task_condition"":""good"",""boats"":[""A"",""B"",""D"",""C""],""boats_demo"":[""H"",""F"",""E"",""G""],""islands"":[""B"",""A""],""subject_id"":""14776"",""age"":""22"",""gender"":""Male""}","","","","","","","","","","","","","","","","","","","","","","","",""
"preload","2","2965","0.0-2.0","","","true","false","[]","[]","[]","[{""event"":""fullscreenenter"",""trial"":3,""time"":4901}]","false","","","","","","","","","","","","","","","","",""
"fullscreen","3","5903","0.0-3.0","","","true","","","","","","","","","","","","","","","","","","","","","","",""
"audio-keyboard-response","4","8315","0.0-4.0-0.0","","","","","","","","","","2408.0000000000005","audio/beep_loop.wav","audiovolumeup","","","","","","","","","","","","","",""
"audio-test","5","10893","0.0-4.0-1.0","","","","","","","","","","null","audio/turtle.mp3","","3","","","","","","","","","","","","",""
"audio-test","6","13418","0.0-4.0-2.0","","","","","","","","","","null","audio/shark.mp3","","2","","","","","","","","","","","","",""
"sailing-instructions","7","44594","0.0-5.0-0.0-0.0","","","","","","","","","","","","","","null","null","null","null","null","null","","","","","","",""
"sailing-trial","8","48466","0.0-5.0-0.0-1.0-0.0","","","","false","","","","","","","","","","2758.7000000476837","","null","","null","null","arrowleft","0","null","null","","",""
"sailing-trial","9","50916","0.0-5.0-0.0-1.0-1.0","","","","false","","","","","","","","","","1322.7999999523163","","null","","null","null","arrowright","1","null","null","","",""
"sailing-trial","10","55250","0.0-5.0-0.0-1.0-2.0","","","","false","","","","","","","","","","3232.899999856949","","null","","null","null","arrowleft","0","null","null","","",""
"sailing-instructions","11","96868","0.0-5.0-0.0-2.0","","","","","","","","","","","","","","null","null","null","null","0","null","","","","","","",""
"sailing-trial","12","103083","0.0-5.0-0.0-3.0-0.0","","","","false","","","","","","","","","","null","","2471.2999999523163","","2","1","null","null","arrowleft","[1,1,1,1]","","",""
"sailing-trial","13","107016","0.0-5.0-0.0-3.0-1.0","","","","false","","","","","","","","","","null","","1153.2000000476837","","3","1","null","null","arrowright","[1,1,1,1]","","",""
"sailing-trial","14","110814","0.0-5.0-0.0-3.0-2.0","","","","false","","","","","","","","","","null","","1050","","3","0","null","null","arrowright","[0,0,0,0]","","",""
"sailing-instructions","15","118580","0.0-5.0-0.0-4.0","","","","","","","","","","","","","","null","null","null","null","null","null","","","","","","",""
"sailing-comprehension","16","142059","0.0-5.0-0.0-5.0","","","","","","","","","","20376.400000095367","","","","","","","","","","","","","","[""true"",""true"",""false"",""true""]","0",""
"sailing-instructions","17","206893","0.0-6.0-0.0-0.0","","","","","","","","","","","","","","null","null","null","null","null","null","","","","","","",""
"sailing-comprehension","18","221463","0.0-6.0-0.0-1.0","","","","","","","","","","13211.700000047684","","","","","","","","","","","","","","[""true"",""false"",""true""]","0",""
"sailing-instructions","19","235338","0.0-7.0-0.0-0.0","","","","","","","","","","","","","","null","null","null","null","null","null","","","","","","",""
"sailing-trial","20","241363","0.0-7.0-0.0-1.0-0.0","","","","false","","","","","","","","","","null","","2797","","0","1","null","null","arrowup","[0.2,0.8,0.2,0.8]","","",""
"sailing-trial","21","244912","0.0-7.0-0.0-1.0-1.0","","","","false","","","","","","","","","","null","","1421.2000000476837","","1","1","null","null","arrowup","[0.2,0.8,0.2,0.8]","","",""
"sailing-trial","22","248461","0.0-7.0-0.0-1.0-2.0","","","","false","","","","","","","","","","null","","1604.7000000476837","","2","0","null","null","arrowup","[0.2,0.8,0.2,0.8]","","",""
"sailing-trial","23","251462","0.0-7.0-0.0-1.0-3.0","","","","false","","","","","","","","","","null","","1236.7000000476837","","3","0","null","null","arrowup","[0.2,0.8,0.2,0.8]","","",""
"sailing-comprehension","24","261028","0.0-7.0-0.0-2.0","","","","","","","","","","8260.700000047684","","","","","","","","","","","","","","[""false""]","0",""
"sailing-instructions","25","271258","0.0-8.0-0.0-0.0","","","","","","","","","","","","","","null","null","null","null","null","null","","","","","","",""
"sailing-comprehension","26","275475","0.0-8.0-0.0-1.0","","","","","","","","","","3296.7000000476837","","","","","","","","","","","","","","[""true""]","0",""
"sailing-instructions","27","312888","0.0-9.0-0.0-0.0","","","","","","","","","","","","","","null","null","null","null","null","null","","","","","","",""
"sailing-trial","28","318895","0.0-9.0-0.0-1.0-0.0","","","","false","","","","","","","","","","1589.9000000953674","","1177.2000000476837","","2","1","arrowright","1","arrowleft","[0.2,0.8,0.2,0.8]","","",""
"sailing-trial","29","323461","0.0-9.0-0.0-1.0-1.0","","","","false","","","","","","","","","","1117","","481.80000019073486","","3","0","arrowright","1","arrowright","[0.2,0.8,0.2,0.8]","","",""
"sailing-trial","30","326344","0.0-9.0-0.0-1.0-2.0","","","","false","","","","","","","","","","null","","1258.2000000476837","","0","0","null","null","arrowup","[0.2,0.8,0.2,0.8]","","",""
"sailing-trial","31","330760","0.0-9.0-0.0-1.0-3.0","","","","false","","","","","","","","","","1377.0999999046326","","594.7999999523163","","0","0","arrowleft","0","arrowleft","[0.2,0.8,0.2,0.8]","","",""
"sailing-trial","32","333677","0.0-9.0-0.0-1.0-4.0","","","","false","","","","","","","","","","null","","1130.2999999523163","","3","0","null","null","arrowup","[0.2,0.8,0.2,0.8]","","",""
"sailing-trial","33","337695","0.0-9.0-0.0-1.0-5.0","","","","false","","","","","","","","","","802.0999999046326","","305.7999999523163","","1","1","arrowleft","0","arrowright","[0.2,0.8,0.2,0.8]","","",""
"sailing-instructions","34","366021","0.0-10.0","","","","","","","","","","","","","","null","null","null","null","null","null","","","","","","",""
"sailing-trial","35","370675","0.0-11.0-0.0","","","","false","","","","","","","","","","1374.2000000476837","","590.6000001430511","","2","0","arrowright","1","arrowleft","[0.85,0.15,0.325,0.675]","","",""
"sailing-trial","36","373459","0.0-11.0-1.0","","","","false","","","","","","","","","","null","","1227.6000001430511","","1","0","null","null","arrowup","[0.85,0.15,0.325,0.675]","","",""
"sailing-trial","37","377424","0.0-11.0-2.0","","","","false","","","","","","","","","","768.3999998569489","","234.5","","3","1","arrowright","1","arrowright","[0.85,0.15,0.325,0.675]","","",""
"sailing-trial","38","380360","0.0-11.0-3.0","","","","false","","","","","","","","","","null","","1090.3999998569489","","2","1","null","null","arrowup","[0.85,0.15,0.325,0.675]","","",""
"sailing-trial","39","384569","0.0-11.0-4.0","","","","false","","","","","","","","","","950.1000001430511","","398.2000000476837","","3","1","arrowright","1","arrowright","[0.85,0.15,0.325,0.675]","","",""
"sailing-trial","40","387042","0.0-11.0-5.0","","","","false","","","","","","","","","","null","","975.7999999523163","","2","0","null","null","arrowup","[0.85,0.15,0.325,0.675]","","",""
"sailing-trial","41","391010","0.0-11.0-6.0","","","","false","","","","","","","","","","738.7000000476837","","209.79999995231628","","0","1","arrowleft","0","arrowleft","[0.85,0.15,0.325,0.675]","","",""
"sailing-trial","42","393960","0.0-11.0-7.0","","","","false","","","","","","","","","","null","","986.7999999523163","","0","1","null","null","arrowup","[0.85,0.15,0.325,0.675]","","",""
"sailing-trial","43","397119","0.0-11.0-8.0","","","","false","","","","","","","","","","649.7999999523163","","38.30000019073486","","1","0","arrowleft","0","arrowright","[0.85,0.15,0.325,0.675]","","",""
"sailing-trial","44","399893","0.0-11.0-9.0","","","","false","","","","","","","","","","null","","879.6000001430511","","0","1","null","null","arrowup","[0.85,0.15,0.325,0.675]","","",""
"sailing-trial","45","403126","0.0-11.0-10.0","","","","false","","","","","","","","","","646.7999999523163","","160.20000004768372","","2","0","arrowright","1","arrowleft","[0.85,0.15,0.325,0.675]","","",""
"sailing-trial","46","405548","0.0-11.0-11.0","","","","false","","","","","","","","","","null","","993.2999999523163","","1","0","null","null","arrowup","[0.85,0.15,0.325,0.675]","","",""
"sailing-trial","47","409371","0.0-11.0-12.0","","","","false","","","","","","","","","","843","","519.5","","0","0","arrowleft","0","arrowleft","[0.85,0.15,0.325,0.675]","","",""
"sailing-trial","48","411835","0.0-11.0-13.0","","","","false","","","","","","","","","","null","","982.1000001430511","","1","0","null","null","arrowup","[0.85,0.15,0.325,0.675]","","",""
"sailing-trial","49","415725","0.0-11.0-14.0","","","","false","","","","","","","","","","750","","244.5","","0","1","arrowleft","0","arrowleft","[0.85,0.15,0.325,0.675]","","",""
"sailing-trial","50","419359","0.0-11.0-15.0","","","","false","","","","","","","","","","null","","1576.2000000476837","","2","1","null","null","arrowup","[0.85,0.15,0.325,0.675]","","",""
"sailing-trial","51","423076","0.0-11.0-16.0","","","","false","","","","","","","","","","732.9000000953674","","111.20000004768372","","0","1","arrowleft","0","arrowleft","[0.85,0.15,0.325,0.675]","","",""
"sailing-trial","52","426060","0.0-11.0-17.0","","","","false","","","","","","","","","","null","","951.6000001430511","","1","1","null","null","arrowup","[0.85,0.15,0.325,0.675]","","",""
"sailing-trial","53","429835","0.0-11.0-18.0","","","","false","","","","","","","","","","732.5","","413.60000014305115","","0","0","arrowleft","0","arrowleft","[0.325,0.675,0.85,0.15]","","",""
"sailing-trial","54","432827","0.0-11.0-19.0","","","","false","","","","","","","","","","null","","1121.3000001907349","","2","1","null","null","arrowup","[0.325,0.675,0.85,0.15]","","",""
"sailing-trial","55","435992","0.0-11.0-20.0","","","","false","","","","","","","","","","666.4000000953674","","136.89999985694885","","3","0","arrowright","1","arrowright","[0.325,0.675,0.85,0.15]","","",""
"sailing-trial","56","438843","0.0-11.0-21.0","","","","false","","","","","","","","","","null","","908.9000000953674","","3","1","null","null","arrowup","[0.325,0.675,0.85,0.15]","","",""
"sailing-trial","57","442214","0.0-11.0-22.0","","","","false","","","","","","","","","","679.1999998092651","","250.79999995231628","","3","0","arrowright","1","arrowright","[0.325,0.675,0.85,0.15]","","",""
"sailing-trial","58","444447","0.0-11.0-23.0","","","","false","","","","","","","","","","null","","925.1000001430511","","3","0","null","null","arrowup","[0.325,0.675,0.85,0.15]","","",""
"sailing-trial","59","448178","0.0-11.0-24.0","","","","false","","","","","","","","","","829.2999999523163","","48.10000014305115","","2","1","arrowright","1","arrowleft","[0.325,0.675,0.85,0.15]","","",""
"sailing-trial","60","451261","0.0-11.0-25.0","","","","false","","","","","","","","","","null","","1067.2999999523163","","0","1","null","null","arrowup","[0.325,0.675,0.85,0.15]","","",""
"sailing-trial","61","454645","0.0-11.0-26.0","","","","false","","","","","","","","","","599.7999999523163","","263.7000000476837","","0","0","arrowleft","0","arrowleft","[0.325,0.675,0.85,0.15]","","",""
"sailing-trial","62","457021","0.0-11.0-27.0","","","","false","","","","","","","","","","null","","889.3000001907349","","2","0","null","null","arrowup","[0.325,0.675,0.85,0.15]","","",""
"sailing-trial","63","460304","0.0-11.0-28.0","","","","false","","","","","","","","","","691.3999998569489","","141.89999985694885","","0","0","arrowleft","0","arrowleft","[0.325,0.675,0.85,0.15]","","",""
"sailing-trial","64","463142","0.0-11.0-29.0","","","","false","","","","","","","","","","null","","1007.8999998569489","","2","1","null","null","arrowup","[0.325,0.675,0.85,0.15]","","",""
"sailing-trial","65","466992","0.0-11.0-30.0","","","","false","","","","","","","","","","970.5999999046326","","3.5999999046325684","","1","1","arrowleft","0","arrowright","[0.325,0.675,0.85,0.15]","","",""
"sailing-trial","66","469891","0.0-11.0-31.0","","","","false","","","","","","","","","","null","","959.2000000476837","","2","1","null","null","arrowup","[0.325,0.675,0.85,0.15]","","",""
"sailing-trial","67","474308","0.0-11.0-32.0","","","","false","","","","","","","","","","678.2000000476837","","663.3000001907349","","1","1","arrowleft","0","arrowright","[0.325,0.675,0.85,0.15]","","",""
"sailing-trial","68","476800","0.0-11.0-33.0","","","","false","","","","","","","","","","null","","1097.5999999046326","","3","0","null","null","arrowup","[0.325,0.675,0.85,0.15]","","",""
"sailing-trial","69","480892","0.0-11.0-34.0","","","","false","","","","","","","","","","936","","203.70000004768372","","1","1","arrowleft","0","arrowright","[0.675,0.325,0.15,0.85]","","",""
"sailing-trial","70","484192","0.0-11.0-35.0","","","","false","","","","","","","","","","null","","1235.9000000953674","","3","1","null","null","arrowup","[0.675,0.325,0.15,0.85]","","",""
"sailing-trial","71","487977","0.0-11.0-36.0","","","","false","","","","","","","","","","763.6000001430511","","436.40000009536743","","1","0","arrowleft","0","arrowright","[0.675,0.325,0.15,0.85]","","",""
"sailing-trial","72","490671","0.0-11.0-37.0","","","","false","","","","","","","","","","null","","1104.2000000476837","","1","0","null","null","arrowup","[0.675,0.325,0.15,0.85]","","",""
"sailing-trial","73","494908","0.0-11.0-38.0","","","","false","","","","","","","","","","618.6999998092651","","752.7000000476837","","2","1","arrowright","1","arrowleft","[0.675,0.325,0.15,0.85]","","",""
"sailing-trial","74","498041","0.0-11.0-39.0","","","","false","","","","","","","","","","null","","1042.4000000953674","","3","1","null","null","arrowup","[0.675,0.325,0.15,0.85]","","",""
"sailing-trial","75","501732","0.0-11.0-40.0","","","","false","","","","","","","","","","887.4000000953674","","379.5","","2","0","arrowright","1","arrowleft","[0.675,0.325,0.15,0.85]","","",""
"sailing-trial","76","504924","0.0-11.0-41.0","","","","false","","","","","","","","","","null","","1012","","1","1","null","null","arrowup","[0.675,0.325,0.15,0.85]","","",""
"sailing-trial","77","508740","0.0-11.0-42.0","","","","false","","","","","","","","","","892.3999998569489","","562.5","","2","0","arrowright","1","arrowleft","[0.675,0.325,0.15,0.85]","","",""
"sailing-trial","78","511410","0.0-11.0-43.0","","","","false","","","","","","","","","","null","","891.7000000476837","","3","1","null","null","arrowup","[0.675,0.325,0.15,0.85]","","",""
"sailing-trial","79","515457","0.0-11.0-44.0","","","","false","","","","","","","","","","816.9000000953674","","408.69999980926514","","3","1","arrowright","1","arrowright","[0.675,0.325,0.15,0.85]","","",""
"sailing-trial","80","518171","0.0-11.0-45.0","","","","false","","","","","","","","","","null","","954.5","","2","0","null","null","arrowup","[0.675,0.325,0.15,0.85]","","",""
"sailing-trial","81","521763","0.0-11.0-46.0","","","","false","","","","","","","","","","711.5","","314","","3","0","arrowright","1","arrowright","[0.675,0.325,0.15,0.85]","","",""
"sailing-trial","82","524674","0.0-11.0-47.0","","","","false","","","","","","","","","","null","","943.5","","3","1","null","null","arrowup","[0.675,0.325,0.15,0.85]","","",""
"sailing-trial","83","528558","0.0-11.0-48.0","","","","false","","","","","","","","","","779.9000000953674","","166.5","","3","1","arrowright","1","arrowright","[0.675,0.325,0.15,0.85]","","",""
"sailing-trial","84","531324","0.0-11.0-49.0","","","","false","","","","","","","","","","null","","902.0999999046326","","0","1","null","null","arrowup","[0.675,0.325,0.15,0.85]","","",""
"sailing-trial","85","534943","0.0-11.0-50.0","","","","false","","","","","","","","","","826.2000000476837","","301.7999999523163","","0","0","arrowleft","0","arrowleft","[0.675,0.325,0.15,0.85]","","",""
"sailing-trial","86","537757","0.0-11.0-51.0","","","","false","","","","","","","","","","null","","866.7000000476837","","1","1","null","null","arrowup","[0.675,0.325,0.15,0.85]","","",""
"sailing-trial","87","541824","0.0-11.0-52.0","","","","false","","","","","","","","","","544.2000000476837","","650.2999999523163","","1","1","arrowleft","0","arrowright","[0.675,0.325,0.15,0.85]","","",""
"sailing-trial","88","545056","0.0-11.0-53.0","","","","false","","","","","","","","","","null","","958","","3","1","null","null","arrowup","[0.675,0.325,0.15,0.85]","","",""
"sailing-trial","89","548773","0.0-11.0-54.0","","","","false","","","","","","","","","","675.6000001430511","","135.80000019073486","","3","1","arrowright","1","arrowright","[0.85,0.15,0.325,0.675]","","",""
"sailing-trial","90","551539","0.0-11.0-55.0","","","","false","","","","","","","","","","null","","902.7999999523163","","2","1","null","null","arrowup","[0.85,0.15,0.325,0.675]","","",""
"sailing-trial","91","555102","0.0-11.0-56.0","","","","false","","","","","","","","","","700.8000001907349","","439.2000000476837","","3","0","arrowright","1","arrowright","[0.85,0.15,0.325,0.675]","","",""
"sailing-trial","92","557956","0.0-11.0-57.0","","","","false","","","","","","","","","","null","","898.2000000476837","","2","1","null","null","arrowup","[0.85,0.15,0.325,0.675]","","",""
"sailing-trial","93","561623","0.0-11.0-58.0","","","","false","","","","","","","","","","595.0999999046326","","147.70000004768372","","2","1","arrowright","1","arrowleft","[0.85,0.15,0.325,0.675]","","",""
"sailing-trial","94","564606","0.0-11.0-59.0","","","","false","","","","","","","","","","null","","948.4000000953674","","2","1","null","null","arrowup","[0.85,0.15,0.325,0.675]","","",""
"sailing-trial","95","567838","0.0-11.0-60.0","","","","false","","","","","","","","","","686.9000000953674","","186.40000009536743","","2","0","arrowright","1","arrowleft","[0.85,0.15,0.325,0.675]","","",""
"sailing-trial","96","570523","0.0-11.0-61.0","","","","false","","","","","","","","","","null","","791.2000000476837","","3","1","null","null","arrowup","[0.85,0.15,0.325,0.675]","","",""
"sailing-trial","97","574489","0.0-11.0-62.0","","","","false","","","","","","","","","","605.8999998569489","","472.7999999523163","","3","1","arrowright","1","arrowright","[0.85,0.15,0.325,0.675]","","",""
"sailing-trial","98","578006","0.0-11.0-63.0","","","","false","","","","","","","","","","null","","1458.3000001907349","","3","1","null","null","arrowup","[0.85,0.15,0.325,0.675]","","",""
"sailing-trial","99","582406","0.0-11.0-64.0","","","","false","","","","","","","","","","1240.5","","343.30000019073486","","3","1","arrowright","1","arrowright","[0.85,0.15,0.325,0.675]","","",""
"sailing-trial","100","585639","0.0-11.0-65.0","","","","false","","","","","","","","","","null","","1381.5","","1","1","null","null","arrowup","[0.85,0.15,0.325,0.675]","","",""
"sailing-trial","101","589571","0.0-11.0-66.0","","","","false","","","","","","","","","","786.7999999523163","","237.39999985694885","","3","1","arrowright","1","arrowright","[0.85,0.15,0.325,0.675]","","",""
"sailing-trial","102","592306","0.0-11.0-67.0","","","","false","","","","","","","","","","null","","845.2999999523163","","3","1","null","null","arrowup","[0.85,0.15,0.325,0.675]","","",""
"sailing-trial","103","596322","0.0-11.0-68.0","","","","false","","","","","","","","","","940.2000000476837","","233.90000009536743","","3","1","arrowright","1","arrowright","[0.85,0.15,0.325,0.675]","","",""
"sailing-trial","104","599172","0.0-11.0-69.0","","","","false","","","","","","","","","","null","","923.2999999523163","","0","1","null","null","arrowup","[0.85,0.15,0.325,0.675]","","",""
"sailing-trial","105","602835","0.0-11.0-70.0","","","","false","","","","","","","","","","856.4000000953674","","277.69999980926514","","3","0","arrowright","1","arrowright","[0.85,0.15,0.325,0.675]","","",""
"sailing-trial","106","605637","0.0-11.0-71.0","","","","false","","","","","","","","","","null","","959.0999999046326","","0","1","null","null","arrowup","[0.85,0.15,0.325,0.675]","","",""
"sailing-trial","107","609354","0.0-11.0-72.0","","","","false","","","","","","","","","","802.0999999046326","","12","","0","1","arrowleft","0","arrowleft","[0.85,0.15,0.325,0.675]","","",""
"sailing-trial","108","611790","0.0-11.0-73.0","","","","false","","","","","","","","","","null","","864.6999998092651","","1","0","null","null","arrowup","[0.85,0.15,0.325,0.675]","","",""
"sailing-trial","109","615621","0.0-11.0-74.0","","","","false","","","","","","","","","","701.3000001907349","","284.7999999523163","","0","1","arrowleft","0","arrowleft","[0.85,0.15,0.325,0.675]","","",""
"sailing-trial","110","618604","0.0-11.0-75.0","","","","false","","","","","","","","","","null","","1093.1000001430511","","0","1","null","null","arrowup","[0.85,0.15,0.325,0.675]","","",""
"sailing-trial","111","622789","0.0-11.0-76.0","","","","false","","","","","","","","","","913.9000000953674","","533.5","","0","1","arrowleft","0","arrowleft","[0.675,0.325,0.15,0.85]","","",""
"sailing-trial","112","625356","0.0-11.0-77.0","","","","false","","","","","","","","","","null","","981.5","","0","0","null","null","arrowup","[0.675,0.325,0.15,0.85]","","",""
"sailing-trial","113","628518","0.0-11.0-78.0","","","","false","","","","","","","","","","723","","99.79999995231628","","0","0","arrowleft","0","arrowleft","[0.675,0.325,0.15,0.85]","","",""
"sailing-trial","114","631304","0.0-11.0-79.0","","","","false","","","","","","","","","","null","","869.7999999523163","","3","1","null","null","arrowup","[0.675,0.325,0.15,0.85]","","",""
"sailing-trial","115","635004","0.0-11.0-80.0","","","","false","","","","","","","","","","606.2000000476837","","217.90000009536743","","3","1","arrowright","1","arrowright","[0.675,0.325,0.15,0.85]","","",""
"sailing-trial","116","637821","0.0-11.0-81.0","","","","false","","","","","","","","","","null","","917","","1","1","null","null","arrowup","[0.675,0.325,0.15,0.85]","","",""
"sailing-trial","117","641420","0.0-11.0-82.0","","","","false","","","","","","","","","","697.7999999523163","","491.5","","3","0","arrowright","1","arrowright","[0.675,0.325,0.15,0.85]","","",""
"sailing-trial","118","644103","0.0-11.0-83.0","","","","false","","","","","","","","","","null","","830.2999999523163","","2","1","null","null","arrowup","[0.675,0.325,0.15,0.85]","","",""
"sailing-trial","119","648387","0.0-11.0-84.0","","","","false","","","","","","","","","","957.6000001430511","","460.59999990463257","","1","1","arrowleft","0","arrowright","[0.675,0.325,0.15,0.85]","","",""
"sailing-trial","120","650664","0.0-11.0-85.0","","","","false","","","","","","","","","","null","","849.6000001430511","","2","0","null","null","arrowup","[0.675,0.325,0.15,0.85]","","",""
"sailing-trial","121","654638","0.0-11.0-86.0","","","","false","","","","","","","","","","752.6000001430511","","389.30000019073486","","1","1","arrowleft","0","arrowright","[0.675,0.325,0.15,0.85]","","",""
"sailing-trial","122","657102","0.0-11.0-87.0","","","","false","","","","","","","","","","null","","1111.0999999046326","","2","0","null","null","arrowup","[0.675,0.325,0.15,0.85]","","",""
"sailing-trial","123","660800","0.0-11.0-88.0","","","","false","","","","","","","","","","783","","458.10000014305115","","1","0","arrowleft","0","arrowright","[0.675,0.325,0.15,0.85]","","",""
"sailing-trial","124","662985","0.0-11.0-89.0","","","","false","","","","","","","","","","null","","805.1000001430511","","1","0","null","null","arrowup","[0.675,0.325,0.15,0.85]","","",""
"sailing-trial","125","667087","0.0-11.0-90.0","","","","false","","","","","","","","","","740.0999999046326","","489.59999990463257","","0","1","arrowleft","0","arrowleft","[0.675,0.325,0.15,0.85]","","",""
"sailing-trial","126","670023","0.0-11.0-91.0","","","","false","","","","","","","","","","null","","815.2999999523163","","3","1","null","null","arrowup","[0.675,0.325,0.15,0.85]","","",""
"sailing-trial","127","673934","0.0-11.0-92.0","","","","false","","","","","","","","","","613.1999998092651","","864.7999999523163","","3","0","arrowright","1","arrowright","[0.675,0.325,0.15,0.85]","","",""
"sailing-trial","128","676855","0.0-11.0-93.0","","","","false","","","","","","","","","","null","","1051.3999998569489","","3","1","null","null","arrowup","[0.675,0.325,0.15,0.85]","","",""
"sailing-trial","129","680722","0.0-11.0-94.0","","","","false","","","","","","","","","","636.5999999046326","","363.2999999523163","","3","1","arrowright","1","arrowright","[0.675,0.325,0.15,0.85]","","",""
"sailing-trial","130","684087","0.0-11.0-95.0","","","","false","","","","","","","","","","null","","1337.9000000953674","","0","1","null","null","arrowup","[0.675,0.325,0.15,0.85]","","",""
"sailing-trial","131","688670","0.0-11.0-96.0","","","","false","","","","","","","","","","1420.5999999046326","","255.40000009536743","","3","1","arrowright","1","arrowright","[0.85,0.15,0.325,0.675]","","",""
"sailing-trial","132","690932","0.0-11.0-97.0","","","","false","","","","","","","","","","null","","856.5999999046326","","2","0","null","null","arrowup","[0.85,0.15,0.325,0.675]","","",""
"sailing-trial","133","694720","0.0-11.0-98.0","","","","false","","","","","","","","","","887","","16.700000047683716","","0","1","arrowleft","0","arrowleft","[0.85,0.15,0.325,0.675]","","",""
"sailing-trial","134","697536","0.0-11.0-99.0","","","","false","","","","","","","","","","null","","910.1000001430511","","1","1","null","null","arrowup","[0.85,0.15,0.325,0.675]","","",""
"sailing-trial","135","701587","0.0-11.0-100.0","","","","false","","","","","","","","","","842.2999999523163","","277.69999980926514","","0","1","arrowleft","0","arrowleft","[0.85,0.15,0.325,0.675]","","",""
"sailing-trial","136","704387","0.0-11.0-101.0","","","","false","","","","","","","","","","null","","935.1999998092651","","0","1","null","null","arrowup","[0.85,0.15,0.325,0.675]","","",""
"sailing-trial","137","708087","0.0-11.0-102.0","","","","false","","","","","","","","","","785.0999999046326","","65.20000004768372","","0","1","arrowleft","0","arrowleft","[0.85,0.15,0.325,0.675]","","",""
"sailing-trial","138","710378","0.0-11.0-103.0","","","","false","","","","","","","","","","null","","903.2999999523163","","1","0","null","null","arrowup","[0.85,0.15,0.325,0.675]","","",""
"sailing-trial","139","714452","0.0-11.0-104.0","","","","false","","","","","","","","","","802.4000000953674","","452.90000009536743","","0","1","arrowleft","0","arrowleft","[0.85,0.15,0.325,0.675]","","",""
"sailing-trial","140","717760","0.0-11.0-105.0","","","","false","","","","","","","","","","null","","1444.9000000953674","","3","1","null","null","arrowup","[0.85,0.15,0.325,0.675]","","",""
"sailing-trial","141","720870","0.0-11.0-106.0","","","","false","","","","","","","","","","700.7000000476837","","5.299999952316284","","0","0","arrowleft","0","arrowleft","[0.85,0.15,0.325,0.675]","","",""
"sailing-trial","142","723569","0.0-11.0-107.0","","","","false","","","","","","","","","","null","","814.2999999523163","","3","1","null","null","arrowup","[0.85,0.15,0.325,0.675]","","",""
"sailing-trial","143","727553","0.0-11.0-108.0","","","","false","","","","","","","","","","745.5999999046326","","361","","3","1","arrowright","1","arrowright","[0.85,0.15,0.325,0.675]","","",""
"sailing-trial","144","730652","0.0-11.0-109.0","","","","false","","","","","","","","","","null","","1119.8000001907349","","3","1","null","null","arrowup","[0.85,0.15,0.325,0.675]","","",""
"sailing-trial","145","734619","0.0-11.0-110.0","","","","false","","","","","","","","","","931","","140.19999980926514","","3","1","arrowright","1","arrowright","[0.85,0.15,0.325,0.675]","","",""
"sailing-trial","146","737159","0.0-11.0-111.0","","","","false","","","","","","","","","","null","","991.4000000953674","","3","0","null","null","arrowup","[0.85,0.15,0.325,0.675]","","",""
"sailing-trial","147","741953","0.0-11.0-112.0","","","","false","","","","","","","","","","1464.4000000953674","","526.5","","3","1","arrowright","1","arrowright","[0.675,0.325,0.15,0.85]","","",""
"sailing-trial","148","744199","0.0-11.0-113.0","","","","false","","","","","","","","","","null","","832.8000001907349","","1","0","null","null","arrowup","[0.675,0.325,0.15,0.85]","","",""
"sailing-trial","149","747799","0.0-11.0-114.0","","","","false","","","","","","","","","","862.5","","291","","3","0","arrowright","1","arrowright","[0.675,0.325,0.15,0.85]","","",""
"sailing-trial","150","750090","0.0-11.0-115.0","","","","false","","","","","","","","","","null","","968.5","","1","0","null","null","arrowup","[0.675,0.325,0.15,0.85]","","",""
"sailing-trial","151","753588","0.0-11.0-116.0","","","","false","","","","","","","","","","569.7000000476837","","93.89999985694885","","0","1","arrowleft","0","arrowleft","[0.675,0.325,0.15,0.85]","","",""
"sailing-trial","152","756368","0.0-11.0-117.0","","","","false","","","","","","","","","","null","","771.4000000953674","","0","1","null","null","arrowup","[0.675,0.325,0.15,0.85]","","",""
"sailing-trial","153","760069","0.0-11.0-118.0","","","","false","","","","","","","","","","636.0999999046326","","168.79999995231628","","0","1","arrowleft","0","arrowleft","[0.675,0.325,0.15,0.85]","","",""
"sailing-trial","154","763118","0.0-11.0-119.0","","","","false","","","","","","","","","","null","","902.8000001907349","","0","1","null","null","arrowup","[0.675,0.325,0.15,0.85]","","",""
"sailing-trial","155","766935","0.0-11.0-120.0","","","","false","","","","","","","","","","831.3999998569489","","159.19999980926514","","0","1","arrowleft","0","arrowleft","[0.675,0.325,0.15,0.85]","","",""
"sailing-trial","156","769772","0.0-11.0-121.0","","","","false","","","","","","","","","","null","","1117.5","","0","0","null","null","arrowup","[0.675,0.325,0.15,0.85]","","",""
"sailing-trial","157","773496","0.0-11.0-122.0","","","","false","","","","","","","","","","802.3000001907349","","594","","0","0","arrowleft","0","arrowleft","[0.675,0.325,0.15,0.85]","","",""
"sailing-trial","158","776551","0.0-11.0-123.0","","","","false","","","","","","","","","","null","","1162.2000000476837","","3","1","null","null","arrowup","[0.675,0.325,0.15,0.85]","","",""
"sailing-trial","159","780302","0.0-11.0-124.0","","","","false","","","","","","","","","","748.5999999046326","","82.39999985694885","","3","1","arrowright","1","arrowright","[0.675,0.325,0.15,0.85]","","",""
"sailing-trial","160","783069","0.0-11.0-125.0","","","","false","","","","","","","","","","null","","968","","2","1","null","null","arrowup","[0.675,0.325,0.15,0.85]","","",""
"sailing-trial","161","786312","0.0-11.0-126.0","","","","false","","","","","","","","","","858.4000000953674","","19.399999856948853","","2","0","arrowright","1","arrowleft","[0.675,0.325,0.15,0.85]","","",""
"sailing-trial","162","788497","0.0-11.0-127.0","","","","false","","","","","","","","","","null","","901.6000001430511","","2","0","null","null","arrowup","[0.675,0.325,0.15,0.85]","","",""
"sailing-trial","163","791941","0.0-11.0-128.0","","","","false","","","","","","","","","","898.4000000953674","","53.700000047683716","","3","0","arrowright","1","arrowright","[0.15,0.85,0.675,0.325]","","",""
"sailing-trial","164","794718","0.0-11.0-129.0","","","","false","","","","","","","","","","null","","838.7999999523163","","1","1","null","null","arrowup","[0.15,0.85,0.675,0.325]","","",""
"sailing-trial","165","798394","0.0-11.0-130.0","","","","false","","","","","","","","","","681.5","","519.1000001430511","","1","0","arrowleft","0","arrowright","[0.15,0.85,0.675,0.325]","","",""
"sailing-trial","166","800918","0.0-11.0-131.0","","","","false","","","","","","","","","","null","","711","","1","1","null","null","arrowup","[0.15,0.85,0.675,0.325]","","",""
"sailing-trial","167","804368","0.0-11.0-132.0","","","","false","","","","","","","","","","637.5999999046326","","15.700000047683716","","1","1","arrowleft","0","arrowright","[0.15,0.85,0.675,0.325]","","",""
"sailing-trial","168","806703","0.0-11.0-133.0","","","","false","","","","","","","","","","null","","871.8999998569489","","3","0","null","null","arrowup","[0.15,0.85,0.675,0.325]","","",""
"sailing-trial","169","810801","0.0-11.0-134.0","","","","false","","","","","","","","","","727.1999998092651","","554.4000000953674","","1","1","arrowleft","0","arrowright","[0.15,0.85,0.675,0.325]","","",""
"sailing-trial","170","814317","0.0-11.0-135.0","","","","false","","","","","","","","","","null","","1640.2000000476837","","3","1","null","null","arrowup","[0.15,0.85,0.675,0.325]","","",""
"sailing-trial","171","817938","0.0-11.0-136.0","","","","false","","","","","","","","","","825.1999998092651","","420.2999999523163","","1","0","arrowleft","0","arrowright","[0.15,0.85,0.675,0.325]","","",""
"sailing-trial","172","820232","0.0-11.0-137.0","","","","false","","","","","","","","","","null","","853.5","","0","0","null","null","arrowup","[0.15,0.85,0.675,0.325]","","",""
"sailing-trial","173","823323","0.0-11.0-138.0","","","","false","","","","","","","","","","686","","219.70000004768372","","3","0","arrowright","1","arrowright","[0.15,0.85,0.675,0.325]","","",""
"sailing-trial","174","825984","0.0-11.0-139.0","","","","false","","","","","","","","","","null","","815.2999999523163","","2","1","null","null","arrowup","[0.15,0.85,0.675,0.325]","","",""
"sailing-trial","175","829849","0.0-11.0-140.0","","","","false","","","","","","","","","","873.6000001430511","","17","","2","1","arrowright","1","arrowleft","[0.15,0.85,0.675,0.325]","","",""
"sailing-trial","176","831923","0.0-11.0-141.0","","","","false","","","","","","","","","","null","","734.7000000476837","","3","0","null","null","arrowup","[0.15,0.85,0.675,0.325]","","",""
"sailing-trial","177","835917","0.0-11.0-142.0","","","","false","","","","","","","","","","765.5999999046326","","395.7999999523163","","2","1","arrowright","1","arrowleft","[0.15,0.85,0.675,0.325]","","",""
"sailing-trial","178","838650","0.0-11.0-143.0","","","","false","","","","","","","","","","null","","887.2000000476837","","2","1","null","null","arrowup","[0.15,0.85,0.675,0.325]","","",""
"sailing-trial","179","842601","0.0-11.0-144.0","","","","false","","","","","","","","","","887.2999999523163","","195.09999990463257","","2","1","arrowright","1","arrowleft","[0.325,0.675,0.85,0.15]","","",""
"sailing-trial","180","845384","0.0-11.0-145.0","","","","false","","","","","","","","","","null","","956.7999999523163","","2","1","null","null","arrowup","[0.325,0.675,0.85,0.15]","","",""
"sailing-trial","181","849284","0.0-11.0-146.0","","","","false","","","","","","","","","","713.9000000953674","","403.2999999523163","","2","1","arrowright","1","arrowleft","[0.325,0.675,0.85,0.15]","","",""
"sailing-trial","182","852051","0.0-11.0-147.0","","","","false","","","","","","","","","","null","","891.5999999046326","","2","1","null","null","arrowup","[0.325,0.675,0.85,0.15]","","",""
"sailing-trial","183","856051","0.0-11.0-148.0","","","","false","","","","","","","","","","972.7999999523163","","209.29999995231628","","2","1","arrowright","1","arrowleft","[0.325,0.675,0.85,0.15]","","",""
"sailing-trial","184","858917","0.0-11.0-149.0","","","","false","","","","","","","","","","null","","961.1000001430511","","2","1","null","null","arrowup","[0.325,0.675,0.85,0.15]","","",""
"sailing-trial","185","862496","0.0-11.0-150.0","","","","false","","","","","","","","","","675.7999999523163","","422.7000000476837","","2","0","arrowright","1","arrowleft","[0.325,0.675,0.85,0.15]","","",""
"sailing-trial","186","864721","0.0-11.0-151.0","","","","false","","","","","","","","","","null","","797","","3","0","null","null","arrowup","[0.325,0.675,0.85,0.15]","","",""
"sailing-trial","187","867865","0.0-11.0-152.0","","","","false","","","","","","","","","","643.2000000476837","","156.90000009536743","","0","0","arrowleft","0","arrowleft","[0.325,0.675,0.85,0.15]","","",""
"sailing-trial","188","869974","0.0-11.0-153.0","","","","false","","","","","","","","","","null","","784.7999999523163","","3","0","null","null","arrowup","[0.325,0.675,0.85,0.15]","","",""
"sailing-trial","189","873819","0.0-11.0-154.0","","","","false","","","","","","","","","","614.9000000953674","","429.10000014305115","","1","1","arrowleft","0","arrowright","[0.325,0.675,0.85,0.15]","","",""
"sailing-trial","190","876653","0.0-11.0-155.0","","","","false","","","","","","","","","","null","","1551.6000001430511","","0","0","null","null","arrowup","[0.325,0.675,0.85,0.15]","","",""
"sailing-trial","191","879956","0.0-11.0-156.0","","","","false","","","","","","","","","","650.9000000953674","","221.5","","1","0","arrowleft","0","arrowright","[0.325,0.675,0.85,0.15]","","",""
"sailing-trial","192","882354","0.0-11.0-157.0","","","","false","","","","","","","","","","null","","986.7999999523163","","0","0","null","null","arrowup","[0.325,0.675,0.85,0.15]","","",""
"sailing-trial","193","886441","0.0-11.0-158.0","","","","false","","","","","","","","","","1599.1000001430511","","113.59999990463257","","2","0","arrowright","1","arrowleft","[0.325,0.675,0.85,0.15]","","",""
"sailing-trial","194","888641","0.0-11.0-159.0","","","","false","","","","","","","","","","null","","862.1999998092651","","0","0","null","null","arrowup","[0.325,0.675,0.85,0.15]","","",""
"sailing-trial","195","892244","0.0-11.0-160.0","","","","false","","","","","","","","","","926.1999998092651","","328.7000000476837","","3","0","arrowright","1","arrowright","[0.325,0.675,0.85,0.15]","","",""
"sailing-trial","196","894365","0.0-11.0-161.0","","","","false","","","","","","","","","","null","","812","","1","0","null","null","arrowup","[0.325,0.675,0.85,0.15]","","",""
"sailing-trial","197","898616","0.0-11.0-162.0","","","","false","","","","","","","","","","1322","","110.59999990463257","","1","1","arrowleft","0","arrowright","[0.325,0.675,0.85,0.15]","","",""
"sailing-trial","198","900843","0.0-11.0-163.0","","","","false","","","","","","","","","","null","","902.2999999523163","","3","0","null","null","arrowup","[0.325,0.675,0.85,0.15]","","",""
"sailing-trial","199","904499","0.0-11.0-164.0","","","","false","","","","","","","","","","773.4000000953674","","43.5","","1","1","arrowleft","0","arrowright","[0.325,0.675,0.85,0.15]","","",""
"sailing-trial","200","907149","0.0-11.0-165.0","","","","false","","","","","","","","","","null","","699.5999999046326","","2","1","null","null","arrowup","[0.325,0.675,0.85,0.15]","","",""
"sailing-trial","201","910706","0.0-11.0-166.0","","","","false","","","","","","","","","","802.7999999523163","","504.2000000476837","","1","0","arrowleft","0","arrowright","[0.325,0.675,0.85,0.15]","","",""
"sailing-trial","202","913268","0.0-11.0-167.0","","","","false","","","","","","","","","","null","","775","","1","1","null","null","arrowup","[0.325,0.675,0.85,0.15]","","",""
"sailing-trial","203","917249","0.0-11.0-168.0","","","","false","","","","","","","","","","1137","","27.5","","1","1","arrowleft","0","arrowright","[0.15,0.85,0.675,0.325]","","",""
"sailing-trial","204","920349","0.0-11.0-169.0","","","","false","","","","","","","","","","null","","1251.2000000476837","","2","1","null","null","arrowup","[0.15,0.85,0.675,0.325]","","",""
"sailing-trial","205","924299","0.0-11.0-170.0","","","","false","","","","","","","","","","774.1000001430511","","336.10000014305115","","2","1","arrowright","1","arrowleft","[0.15,0.85,0.675,0.325]","","",""
"sailing-trial","206","927366","0.0-11.0-171.0","","","","false","","","","","","","","","","null","","1269.8000001907349","","1","1","null","null","arrowup","[0.15,0.85,0.675,0.325]","","",""
"sailing-trial","207","931434","0.0-11.0-172.0","","","","false","","","","","","","","","","743.2999999523163","","496.09999990463257","","2","1","arrowright","1","arrowleft","[0.15,0.85,0.675,0.325]","","",""
"sailing-trial","208","933624","0.0-11.0-173.0","","","","false","","","","","","","","","","null","","827.5","","0","0","null","null","arrowup","[0.15,0.85,0.675,0.325]","","",""
"sailing-trial","209","937884","0.0-11.0-174.0","","","","false","","","","","","","","","","996.5999999046326","","453","","2","1","arrowright","1","arrowleft","[0.15,0.85,0.675,0.325]","","",""
"sailing-trial","210","940765","0.0-11.0-175.0","","","","false","","","","","","","","","","null","","833.7000000476837","","0","1","null","null","arrowup","[0.15,0.85,0.675,0.325]","","",""
"sailing-trial","211","943994","0.0-11.0-176.0","","","","false","","","","","","","","","","740.7000000476837","","74.90000009536743","","2","0","arrowright","1","arrowleft","[0.15,0.85,0.675,0.325]","","",""
"sailing-trial","212","946187","0.0-11.0-177.0","","","","false","","","","","","","","","","null","","854.5","","3","0","null","null","arrowup","[0.15,0.85,0.675,0.325]","","",""
"sailing-trial","213","949711","0.0-11.0-178.0","","","","false","","","","","","","","","","714.3999998569489","","453.90000009536743","","0","0","arrowleft","0","arrowleft","[0.15,0.85,0.675,0.325]","","",""
"sailing-trial","214","951966","0.0-11.0-179.0","","","","false","","","","","","","","","","null","","759.7000000476837","","2","0","null","null","arrowup","[0.15,0.85,0.675,0.325]","","",""
"sailing-trial","215","955949","0.0-11.0-180.0","","","","false","","","","","","","","","","948.9000000953674","","181.60000014305115","","1","1","arrowleft","0","arrowright","[0.15,0.85,0.675,0.325]","","",""
"sailing-trial","216","958481","0.0-11.0-181.0","","","","false","","","","","","","","","","null","","733.1000001430511","","1","1","null","null","arrowup","[0.15,0.85,0.675,0.325]","","",""
"sailing-trial","217","962934","0.0-11.0-182.0","","","","false","","","","","","","","","","837.2000000476837","","648.2000000476837","","1","1","arrowleft","0","arrowright","[0.15,0.85,0.675,0.325]","","",""
"sailing-trial","218","965173","0.0-11.0-183.0","","","","false","","","","","","","","","","null","","886.5","","3","0","null","null","arrowup","[0.15,0.85,0.675,0.325]","","",""
"sailing-trial","219","968871","0.0-11.0-184.0","","","","false","","","","","","","","","","806.2000000476837","","451.40000009536743","","1","0","arrowleft","0","arrowright","[0.15,0.85,0.675,0.325]","","",""
"sailing-trial","220","971764","0.0-11.0-185.0","","","","false","","","","","","","","","","null","","995.0999999046326","","2","1","null","null","arrowup","[0.15,0.85,0.675,0.325]","","",""
"sailing-trial","221","975421","0.0-11.0-186.0","","","","false","","","","","","","","","","869.5999999046326","","219.89999985694885","","2","0","arrowright","1","arrowleft","[0.675,0.325,0.15,0.85]","","",""
"sailing-trial","222","978148","0.0-11.0-187.0","","","","false","","","","","","","","","","null","","878.4000000953674","","3","1","null","null","arrowup","[0.675,0.325,0.15,0.85]","","",""
"sailing-trial","223","982131","0.0-11.0-188.0","","","","false","","","","","","","","","","1027.4000000953674","","540","","3","0","arrowright","1","arrowright","[0.675,0.325,0.15,0.85]","","",""
"sailing-trial","224","984814","0.0-11.0-189.0","","","","false","","","","","","","","","","null","","866.3999998569489","","0","1","null","null","arrowup","[0.675,0.325,0.15,0.85]","","",""
"sailing-trial","225","988132","0.0-11.0-190.0","","","","false","","","","","","","","","","561","","338.2000000476837","","0","0","arrowleft","0","arrowleft","[0.675,0.325,0.15,0.85]","","",""
"sailing-trial","226","990288","0.0-11.0-191.0","","","","false","","","","","","","","","","null","","836.3999998569489","","2","0","null","null","arrowup","[0.675,0.325,0.15,0.85]","","",""
"sailing-trial","227","994315","0.0-11.0-192.0","","","","false","","","","","","","","","","744.2999999523163","","344.7999999523163","","0","1","arrowleft","0","arrowleft","[0.675,0.325,0.15,0.85]","","",""
"sailing-trial","228","998313","0.0-11.0-193.0","","","","false","","","","","","","","","","null","","2105","","0","1","null","null","arrowup","[0.675,0.325,0.15,0.85]","","",""
"sailing-trial","229","1001915","0.0-11.0-194.0","","","","false","","","","","","","","","","817.2999999523163","","442.2999999523163","","0","0","arrowleft","0","arrowleft","[0.675,0.325,0.15,0.85]","","",""
"sailing-trial","230","1004059","0.0-11.0-195.0","","","","false","","","","","","","","","","null","","788.7000000476837","","2","0","null","null","arrowup","[0.675,0.325,0.15,0.85]","","",""
"sailing-trial","231","1007697","0.0-11.0-196.0","","","","false","","","","","","","","","","619.2999999523163","","162.30000019073486","","1","1","arrowleft","0","arrowright","[0.675,0.325,0.15,0.85]","","",""
"sailing-trial","232","1009656","0.0-11.0-197.0","","","","false","","","","","","","","","","null","","705.1999998092651","","3","0","null","null","arrowup","[0.675,0.325,0.15,0.85]","","",""
"sailing-trial","233","1013172","0.0-11.0-198.0","","","","false","","","","","","","","","","702.7999999523163","","425","","1","0","arrowleft","0","arrowright","[0.675,0.325,0.15,0.85]","","",""
"sailing-trial","234","1015208","0.0-11.0-199.0","","","","false","","","","","","","","","","null","","758.8000001907349","","1","0","null","null","arrowup","[0.675,0.325,0.15,0.85]","","",""
"sailing-trial","235","1018980","0.0-11.0-200.0","","","","false","","","","","","","","","","622.5999999046326","","359.7000000476837","","2","1","arrowright","1","arrowleft","[0.675,0.325,0.15,0.85]","","",""
"sailing-trial","236","1021356","0.0-11.0-201.0","","","","false","","","","","","","","","","null","","1025.5","","2","0","null","null","arrowup","[0.675,0.325,0.15,0.85]","","",""
"sailing-trial","237","1024980","0.0-11.0-202.0","","","","false","","","","","","","","","","724","","545.2000000476837","","2","0","arrowright","1","arrowleft","[0.675,0.325,0.15,0.85]","","",""
"sailing-trial","238","1027248","0.0-11.0-203.0","","","","false","","","","","","","","","","null","","937.7999999523163","","2","0","null","null","arrowup","[0.675,0.325,0.15,0.85]","","",""
"sailing-trial","239","1030997","0.0-11.0-204.0","","","","false","","","","","","","","","","619.1000001430511","","299.5","","3","1","arrowright","1","arrowright","[0.675,0.325,0.15,0.85]","","",""
"sailing-trial","240","1033663","0.0-11.0-205.0","","","","false","","","","","","","","","","null","","858","","0","1","null","null","arrowup","[0.675,0.325,0.15,0.85]","","",""
"sailing-trial","241","1037181","0.0-11.0-206.0","","","","false","","","","","","","","","","705.2000000476837","","17","","3","1","arrowright","1","arrowright","[0.675,0.325,0.15,0.85]","","",""
"sailing-trial","242","1039863","0.0-11.0-207.0","","","","false","","","","","","","","","","null","","738.1000001430511","","3","1","null","null","arrowup","[0.675,0.325,0.15,0.85]","","",""
"sailing-trial","243","1043730","0.0-11.0-208.0","","","","false","","","","","","","","","","824.2000000476837","","51.39999985694885","","3","1","arrowright","1","arrowright","[0.85,0.15,0.325,0.675]","","",""
"sailing-trial","244","1046610","0.0-11.0-209.0","","","","false","","","","","","","","","","null","","1546.1999998092651","","3","0","null","null","arrowup","[0.85,0.15,0.325,0.675]","","",""
"sailing-trial","245","1050488","0.0-11.0-210.0","","","","false","","","","","","","","","","801.2999999523163","","646.1000001430511","","1","0","arrowleft","0","arrowright","[0.85,0.15,0.325,0.675]","","",""
"sailing-trial","246","1053296","0.0-11.0-211.0","","","","false","","","","","","","","","","null","","988.2000000476837","","0","1","null","null","arrowup","[0.85,0.15,0.325,0.675]","","",""
"sailing-trial","247","1056798","0.0-11.0-212.0","","","","false","","","","","","","","","","653.8000001907349","","364.7000000476837","","0","0","arrowleft","0","arrowleft","[0.85,0.15,0.325,0.675]","","",""
"sailing-trial","248","1058993","0.0-11.0-213.0","","","","false","","","","","","","","","","null","","905.4000000953674","","2","0","null","null","arrowup","[0.85,0.15,0.325,0.675]","","",""
"sailing-trial","249","1063331","0.0-11.0-214.0","","","","false","","","","","","","","","","981.7999999523163","","503.7999999523163","","3","1","arrowright","1","arrowright","[0.85,0.15,0.325,0.675]","","",""
"sailing-trial","250","1065476","0.0-11.0-215.0","","","","false","","","","","","","","","","null","","852.1000001430511","","0","0","null","null","arrowup","[0.85,0.15,0.325,0.675]","","",""
"sailing-trial","251","1069429","0.0-11.0-216.0","","","","false","","","","","","","","","","655.0999999046326","","411.59999990463257","","3","1","arrowright","1","arrowright","[0.85,0.15,0.325,0.675]","","",""
"sailing-trial","252","1072337","0.0-11.0-217.0","","","","false","","","","","","","","","","null","","1337.9000000953674","","2","0","null","null","arrowup","[0.85,0.15,0.325,0.675]","","",""
"sailing-trial","253","1075696","0.0-11.0-218.0","","","","false","","","","","","","","","","527.2999999523163","","8.700000047683716","","3","1","arrowright","1","arrowright","[0.85,0.15,0.325,0.675]","","",""
"sailing-trial","254","1078412","0.0-11.0-219.0","","","","false","","","","","","","","","","null","","889.5","","0","1","null","null","arrowup","[0.85,0.15,0.325,0.675]","","",""
"sailing-trial","255","1082013","0.0-11.0-220.0","","","","false","","","","","","","","","","736.5","","11.200000047683716","","0","1","arrowleft","0","arrowleft","[0.85,0.15,0.325,0.675]","","",""
"sailing-trial","256","1084911","0.0-11.0-221.0","","","","false","","","","","","","","","","null","","951.5","","3","1","null","null","arrowup","[0.85,0.15,0.325,0.675]","","",""
"sailing-trial","257","1088895","0.0-11.0-222.0","","","","false","","","","","","","","","","816.9000000953674","","332.59999990463257","","0","1","arrowleft","0","arrowleft","[0.85,0.15,0.325,0.675]","","",""
"sailing-trial","258","1091134","0.0-11.0-223.0","","","","false","","","","","","","","","","null","","898.0999999046326","","0","0","null","null","arrowup","[0.85,0.15,0.325,0.675]","","",""
"sailing-trial","259","1094700","0.0-11.0-224.0","","","","false","","","","","","","","","","979.9000000953674","","224","","1","0","arrowleft","0","arrowright","[0.85,0.15,0.325,0.675]","","",""
"sailing-trial","260","1096704","0.0-11.0-225.0","","","","false","","","","","","","","","","null","","710","","3","0","null","null","arrowup","[0.85,0.15,0.325,0.675]","","",""
"sailing-trial","261","1099964","0.0-11.0-226.0","","","","false","","","","","","","","","","774","","141","","2","0","arrowright","1","arrowleft","[0.675,0.325,0.15,0.85]","","",""
"sailing-trial","262","1102528","0.0-11.0-227.0","","","","false","","","","","","","","","","null","","760.3000001907349","","1","1","null","null","arrowup","[0.675,0.325,0.15,0.85]","","",""
"sailing-trial","263","1106113","0.0-11.0-228.0","","","","false","","","","","","","","","","602.0999999046326","","721.2000000476837","","1","0","arrowleft","0","arrowright","[0.675,0.325,0.15,0.85]","","",""
"sailing-trial","264","1108406","0.0-11.0-229.0","","","","false","","","","","","","","","","null","","999.9000000953674","","1","0","null","null","arrowup","[0.675,0.325,0.15,0.85]","","",""
"sailing-trial","265","1111846","0.0-11.0-230.0","","","","false","","","","","","","","","","562.2000000476837","","39.299999952316284","","0","1","arrowleft","0","arrowleft","[0.675,0.325,0.15,0.85]","","",""
"sailing-trial","266","1114096","0.0-11.0-231.0","","","","false","","","","","","","","","","null","","914.8999998569489","","3","0","null","null","arrowup","[0.675,0.325,0.15,0.85]","","",""
"sailing-trial","267","1118476","0.0-11.0-232.0","","","","false","","","","","","","","","","611.2000000476837","","915.5","","0","1","arrowleft","0","arrowleft","[0.675,0.325,0.15,0.85]","","",""
"sailing-trial","268","1120533","0.0-11.0-233.0","","","","false","","","","","","","","","","null","","650.3000001907349","","3","0","null","null","arrowup","[0.675,0.325,0.15,0.85]","","",""
"sailing-trial","269","1124228","0.0-11.0-234.0","","","","false","","","","","","","","","","579.2000000476837","","241.59999990463257","","0","1","arrowleft","0","arrowleft","[0.675,0.325,0.15,0.85]","","",""
"sailing-trial","270","1126636","0.0-11.0-235.0","","","","false","","","","","","","","","","null","","789.7999999523163","","0","0","null","null","arrowup","[0.675,0.325,0.15,0.85]","","",""
"sailing-trial","271","1130048","0.0-11.0-236.0","","","","false","","","","","","","","","","955.2000000476837","","65.5","","2","0","arrowright","1","arrowleft","[0.675,0.325,0.15,0.85]","","",""
"sailing-trial","272","1132310","0.0-11.0-237.0","","","","false","","","","","","","","","","null","","889.8000001907349","","0","0","null","null","arrowup","[0.675,0.325,0.15,0.85]","","",""
"sailing-trial","273","1136277","0.0-11.0-238.0","","","","false","","","","","","","","","","627.6999998092651","","412.59999990463257","","3","1","arrowright","1","arrowright","[0.675,0.325,0.15,0.85]","","",""
"sailing-trial","274","1138326","0.0-11.0-239.0","","","","false","","","","","","","","","","null","","701.0999999046326","","1","0","null","null","arrowup","[0.675,0.325,0.15,0.85]","","",""
"sailing-trial","275","1142262","0.0-11.0-240.0","","","","false","","","","","","","","","","823.7999999523163","","179.5","","3","1","arrowright","1","arrowright","[0.675,0.325,0.15,0.85]","","",""
"sailing-trial","276","1145528","0.0-11.0-241.0","","","","false","","","","","","","","","","null","","856.8000001907349","","0","1","null","null","arrowup","[0.675,0.325,0.15,0.85]","","",""
"sailing-trial","277","1149478","0.0-11.0-242.0","","","","false","","","","","","","","","","678.5999999046326","","36.5","","3","1","arrowright","1","arrowright","[0.85,0.15,0.325,0.675]","","",""
"sailing-trial","278","1151932","0.0-11.0-243.0","","","","false","","","","","","","","","","null","","797.5999999046326","","1","0","null","null","arrowup","[0.85,0.15,0.325,0.675]","","",""
"sailing-trial","279","1155708","0.0-11.0-244.0","","","","false","","","","","","","","","","1014.3000001907349","","289.7000000476837","","3","0","arrowright","1","arrowright","[0.85,0.15,0.325,0.675]","","",""
"sailing-trial","280","1158895","0.0-11.0-245.0","","","","false","","","","","","","","","","null","","1286.1000001430511","","0","1","null","null","arrowup","[0.85,0.15,0.325,0.675]","","",""
"sailing-trial","281","1163230","0.0-11.0-246.0","","","","false","","","","","","","","","","1016.2000000476837","","334.89999985694885","","0","1","arrowleft","0","arrowleft","[0.85,0.15,0.325,0.675]","","",""
"sailing-trial","282","1165944","0.0-11.0-247.0","","","","false","","","","","","","","","","null","","802.0999999046326","","3","1","null","null","arrowup","[0.85,0.15,0.325,0.675]","","",""
"sailing-trial","283","1169977","0.0-11.0-248.0","","","","false","","","","","","","","","","633.8999998569489","","444.09999990463257","","0","1","arrowleft","0","arrowleft","[0.85,0.15,0.325,0.675]","","",""
"sailing-trial","284","1172275","0.0-11.0-249.0","","","","false","","","","","","","","","","null","","916.2000000476837","","0","0","null","null","arrowup","[0.85,0.15,0.325,0.675]","","",""
"sailing-trial","285","1177056","0.0-11.0-250.0","","","","false","","","","","","","","","","1772.5","","655.5","","3","0","arrowright","1","arrowright","[0.85,0.15,0.325,0.675]","","",""
"sailing-trial","286","1180026","0.0-11.0-251.0","","","","false","","","","","","","","","","null","","1172.7999999523163","","0","1","null","null","arrowup","[0.85,0.15,0.325,0.675]","","",""
"sailing-trial","287","1184244","0.0-11.0-252.0","","","","false","","","","","","","","","","983.2999999523163","","348.60000014305115","","0","1","arrowleft","0","arrowleft","[0.85,0.15,0.325,0.675]","","",""
"sailing-trial","288","1186977","0.0-11.0-253.0","","","","false","","","","","","","","","","null","","894.9000000953674","","0","1","null","null","arrowup","[0.85,0.15,0.325,0.675]","","",""
"sailing-trial","289","1190877","0.0-11.0-254.0","","","","false","","","","","","","","","","757.3000001907349","","320.2000000476837","","0","1","arrowleft","0","arrowleft","[0.85,0.15,0.325,0.675]","","",""
"sailing-trial","290","1194093","0.0-11.0-255.0","","","","false","","","","","","","","","","null","","1379.4000000953674","","0","1","null","null","arrowup","[0.85,0.15,0.325,0.675]","","",""
"sailing-trial","291","1200794","0.0-11.0-256.0","","","","false","","","","","","","","","","1135.1000001430511","","2693.5","","0","1","arrowleft","0","arrowleft","[0.85,0.15,0.325,0.675]","","",""
"sailing-trial","292","1203031","0.0-11.0-257.0","","","","false","","","","","","","","","","null","","834.4000000953674","","0","0","null","null","arrowup","[0.85,0.15,0.325,0.675]","","",""
"sailing-trial","293","1206943","0.0-11.0-258.0","","","","false","","","","","","","","","","656.2000000476837","","340.09999990463257","","0","1","arrowleft","0","arrowleft","[0.675,0.325,0.15,0.85]","","",""
"sailing-trial","294","1209201","0.0-11.0-259.0","","","","false","","","","","","","","","","null","","893.7000000476837","","1","0","null","null","arrowup","[0.675,0.325,0.15,0.85]","","",""
"sailing-trial","295","1213326","0.0-11.0-260.0","","","","false","","","","","","","","","","822.7000000476837","","414.5","","0","1","arrowleft","0","arrowleft","[0.675,0.325,0.15,0.85]","","",""
"sailing-trial","296","1215806","0.0-11.0-261.0","","","","false","","","","","","","","","","null","","1095.7999999523163","","2","0","null","null","arrowup","[0.675,0.325,0.15,0.85]","","",""
"sailing-trial","297","1219942","0.0-11.0-262.0","","","","false","","","","","","","","","","933.2000000476837","","325.5","","0","1","arrowleft","0","arrowleft","[0.675,0.325,0.15,0.85]","","",""
"sailing-trial","298","1222146","0.0-11.0-263.0","","","","false","","","","","","","","","","null","","891.7000000476837","","2","0","null","null","arrowup","[0.675,0.325,0.15,0.85]","","",""
"sailing-trial","299","1226694","0.0-11.0-264.0","","","","false","","","","","","","","","","1081.2999999523163","","637.8999998569489","","0","1","arrowleft","0","arrowleft","[0.675,0.325,0.15,0.85]","","",""
"sailing-trial","300","1229360","0.0-11.0-265.0","","","","false","","","","","","","","","","null","","844.8000001907349","","1","1","null","null","arrowup","[0.675,0.325,0.15,0.85]","","",""
"sailing-trial","301","1233275","0.0-11.0-266.0","","","","false","","","","","","","","","","636","","409.5","","0","1","arrowleft","0","arrowleft","[0.675,0.325,0.15,0.85]","","",""
"sailing-trial","302","1235387","0.0-11.0-267.0","","","","false","","","","","","","","","","null","","814.5999999046326","","2","0","null","null","arrowup","[0.675,0.325,0.15,0.85]","","",""
"sailing-trial","303","1238951","0.0-11.0-268.0","","","","false","","","","","","","","","","844.1999998092651","","295","","0","0","arrowleft","0","arrowleft","[0.675,0.325,0.15,0.85]","","",""
"sailing-trial","304","1241576","0.0-11.0-269.0","","","","false","","","","","","","","","","null","","788.5999999046326","","1","1","null","null","arrowup","[0.675,0.325,0.15,0.85]","","",""
"sailing-trial","305","1245458","0.0-11.0-270.0","","","","false","","","","","","","","","","703.2000000476837","","340.7999999523163","","1","1","arrowleft","0","arrowright","[0.675,0.325,0.15,0.85]","","",""
"sailing-trial","306","1247415","0.0-11.0-271.0","","","","false","","","","","","","","","","null","","682.3999998569489","","2","0","null","null","arrowup","[0.675,0.325,0.15,0.85]","","",""
"sailing-trial","307","1250414","0.0-11.0-272.0","","","","false","","","","","","","","","","634.5","","39.5","","1","0","arrowleft","0","arrowright","[0.675,0.325,0.15,0.85]","","",""
"sailing-trial","308","1252842","0.0-11.0-273.0","","","","false","","","","","","","","","","null","","696.5999999046326","","0","1","null","null","arrowup","[0.675,0.325,0.15,0.85]","","",""
"sailing-trial","309","1256394","0.0-11.0-274.0","","","","false","","","","","","","","","","592.6999998092651","","153.20000004768372","","0","1","arrowleft","0","arrowleft","[0.675,0.325,0.15,0.85]","","",""
"sailing-trial","310","1259058","0.0-11.0-275.0","","","","false","","","","","","","","","","null","","826.5","","1","1","null","null","arrowup","[0.675,0.325,0.15,0.85]","","",""
"sailing-trial","311","1262474","0.0-11.0-276.0","","","","false","","","","","","","","","","577.2000000476837","","36.80000019073486","","0","1","arrowleft","0","arrowleft","[0.675,0.325,0.15,0.85]","","",""
"sailing-trial","312","1264908","0.0-11.0-277.0","","","","false","","","","","","","","","","null","","620.0999999046326","","0","1","null","null","arrowup","[0.675,0.325,0.15,0.85]","","",""
"sailing-trial","313","1268693","0.0-11.0-278.0","","","","false","","","","","","","","","","742.5999999046326","","178.20000004768372","","0","1","arrowleft","0","arrowleft","[0.85,0.15,0.325,0.675]","","",""
"sailing-trial","314","1270717","0.0-11.0-279.0","","","","false","","","","","","","","","","null","","775.2999999523163","","1","0","null","null","arrowup","[0.85,0.15,0.325,0.675]","","",""
"sailing-trial","315","1274810","0.0-11.0-280.0","","","","false","","","","","","","","","","681","","546.2999999523163","","0","1","arrowleft","0","arrowleft","[0.85,0.15,0.325,0.675]","","",""
"sailing-trial","316","1277573","0.0-11.0-281.0","","","","false","","","","","","","","","","null","","929.5","","3","1","null","null","arrowup","[0.85,0.15,0.325,0.675]","","",""
"sailing-trial","317","1281241","0.0-11.0-282.0","","","","false","","","","","","","","","","647.4000000953674","","180.39999985694885","","3","1","arrowright","1","arrowright","[0.85,0.15,0.325,0.675]","","",""
"sailing-trial","318","1283530","0.0-11.0-283.0","","","","false","","","","","","","","","","null","","894.7999999523163","","0","0","null","null","arrowup","[0.85,0.15,0.325,0.675]","","",""
"sailing-trial","319","1287474","0.0-11.0-284.0","","","","false","","","","","","","","","","660.8999998569489","","415.2000000476837","","3","1","arrowright","1","arrowright","[0.85,0.15,0.325,0.675]","","",""
"sailing-trial","320","1289956","0.0-11.0-285.0","","","","false","","","","","","","","","","null","","1109.8000001907349","","2","0","null","null","arrowup","[0.85,0.15,0.325,0.675]","","",""
"sailing-trial","321","1293974","0.0-11.0-286.0","","","","false","","","","","","","","","","762.8999998569489","","372.39999985694885","","3","1","arrowright","1","arrowright","[0.85,0.15,0.325,0.675]","","",""
"sailing-trial","322","1296656","0.0-11.0-287.0","","","","false","","","","","","","","","","null","","882.5999999046326","","1","1","null","null","arrowup","[0.85,0.15,0.325,0.675]","","",""
"sailing-trial","323","1300757","0.0-11.0-288.0","","","","false","","","","","","","","","","668.0999999046326","","388.60000014305115","","3","1","arrowright","1","arrowright","[0.85,0.15,0.325,0.675]","","",""
"sailing-trial","324","1303044","0.0-11.0-289.0","","","","false","","","","","","","","","","null","","886.5999999046326","","3","0","null","null","arrowup","[0.85,0.15,0.325,0.675]","","",""
"sailing-trial","325","1306880","0.0-11.0-290.0","","","","false","","","","","","","","","","982","","532.7999999523163","","0","0","arrowleft","0","arrowleft","[0.85,0.15,0.325,0.675]","","",""
"sailing-trial","326","1309606","0.0-11.0-291.0","","","","false","","","","","","","","","","null","","735.3999998569489","","3","1","null","null","arrowup","[0.85,0.15,0.325,0.675]","","",""
"sailing-trial","327","1313307","0.0-11.0-292.0","","","","false","","","","","","","","","","472.7999999523163","","414.7000000476837","","3","1","arrowright","1","arrowright","[0.85,0.15,0.325,0.675]","","",""
"sailing-trial","328","1315640","0.0-11.0-293.0","","","","false","","","","","","","","","","null","","591.9000000953674","","3","1","null","null","arrowup","[0.85,0.15,0.325,0.675]","","",""
"sailing-trial","329","1319157","0.0-11.0-294.0","","","","false","","","","","","","","","","559.2000000476837","","157.5","","3","1","arrowright","1","arrowright","[0.85,0.15,0.325,0.675]","","",""
"sailing-trial","330","1321772","0.0-11.0-295.0","","","","false","","","","","","","","","","null","","804","","0","1","null","null","arrowup","[0.85,0.15,0.325,0.675]","","",""
"sailing-trial","331","1325458","0.0-11.0-296.0","","","","false","","","","","","","","","","641.3999998569489","","221.30000019073486","","3","1","arrowright","1","arrowright","[0.85,0.15,0.325,0.675]","","",""
"sailing-trial","332","1327703","0.0-11.0-297.0","","","","false","","","","","","","","","","null","","737.9000000953674","","1","0","null","null","arrowup","[0.85,0.15,0.325,0.675]","","",""
"sailing-trial","333","1331343","0.0-11.0-298.0","","","","false","","","","","","","","","","683.6000001430511","","141.29999995231628","","3","1","arrowright","1","arrowright","[0.675,0.325,0.15,0.85]","","",""
"sailing-trial","334","1333444","0.0-11.0-299.0","","","","false","","","","","","","","","","null","","800.5","","2","0","null","null","arrowup","[0.675,0.325,0.15,0.85]","","",""
"sailing-trial","335","1337558","0.0-11.0-300.0","","","","false","","","","","","","","","","900.4000000953674","","410.59999990463257","","3","1","arrowright","1","arrowright","[0.675,0.325,0.15,0.85]","","",""
"sailing-trial","336","1340224","0.0-11.0-301.0","","","","false","","","","","","","","","","null","","913.7000000476837","","1","1","null","null","arrowup","[0.675,0.325,0.15,0.85]","","",""
"sailing-trial","337","1344257","0.0-11.0-302.0","","","","false","","","","","","","","","","675.0999999046326","","629.5","","3","1","arrowright","1","arrowright","[0.675,0.325,0.15,0.85]","","",""
"sailing-trial","338","1346974","0.0-11.0-303.0","","","","false","","","","","","","","","","null","","771.4000000953674","","1","1","null","null","arrowup","[0.675,0.325,0.15,0.85]","","",""
"sailing-trial","339","1351174","0.0-11.0-304.0","","","","false","","","","","","","","","","1080.5","","154.69999980926514","","3","1","arrowright","1","arrowright","[0.675,0.325,0.15,0.85]","","",""
"sailing-trial","340","1353318","0.0-11.0-305.0","","","","false","","","","","","","","","","null","","810.4000000953674","","2","0","null","null","arrowup","[0.675,0.325,0.15,0.85]","","",""
"sailing-trial","341","1356765","0.0-11.0-306.0","","","","false","","","","","","","","","","810.3999998569489","","239.29999995231628","","3","0","arrowright","1","arrowright","[0.675,0.325,0.15,0.85]","","",""
"sailing-trial","342","1359033","0.0-11.0-307.0","","","","false","","","","","","","","","","null","","876.1000001430511","","1","0","null","null","arrowup","[0.675,0.325,0.15,0.85]","","",""
"sailing-trial","343","1362724","0.0-11.0-308.0","","","","false","","","","","","","","","","611.3000001907349","","40.299999952316284","","0","1","arrowleft","0","arrowleft","[0.675,0.325,0.15,0.85]","","",""
"sailing-trial","344","1364804","0.0-11.0-309.0","","","","false","","","","","","","","","","null","","742.7000000476837","","0","0","null","null","arrowup","[0.675,0.325,0.15,0.85]","","",""
"sailing-trial","345","1368206","0.0-11.0-310.0","","","","false","","","","","","","","","","557.8999998569489","","31.40000009536743","","0","1","arrowleft","0","arrowleft","[0.675,0.325,0.15,0.85]","","",""
"sailing-trial","346","1370389","0.0-11.0-311.0","","","","false","","","","","","","","","","null","","860.2999999523163","","1","0","null","null","arrowup","[0.675,0.325,0.15,0.85]","","",""
"sailing-trial","347","1374340","0.0-11.0-312.0","","","","false","","","","","","","","","","689.7999999523163","","384","","0","1","arrowleft","0","arrowleft","[0.675,0.325,0.15,0.85]","","",""
"sailing-trial","348","1376602","0.0-11.0-313.0","","","","false","","","","","","","","","","null","","786.7999999523163","","2","0","null","null","arrowup","[0.675,0.325,0.15,0.85]","","",""
"sailing-trial","349","1379364","0.0-11.0-314.0","","","","false","","","","","","","","","","526.5999999046326","","66.70000004768372","","0","0","arrowleft","0","arrowleft","[0.325,0.675,0.85,0.15]","","",""
"sailing-trial","350","1382105","0.0-11.0-315.0","","","","false","","","","","","","","","","null","","952.3000001907349","","1","1","null","null","arrowup","[0.325,0.675,0.85,0.15]","","",""
"sailing-trial","351","1386073","0.0-11.0-316.0","","","","false","","","","","","","","","","594.0999999046326","","571.7000000476837","","1","1","arrowleft","0","arrowright","[0.325,0.675,0.85,0.15]","","",""
"sailing-trial","352","1388287","0.0-11.0-317.0","","","","false","","","","","","","","","","null","","756.9000000953674","","3","0","null","null","arrowup","[0.325,0.675,0.85,0.15]","","",""
"sailing-trial","353","1392256","0.0-11.0-318.0","","","","false","","","","","","","","","","617.4000000953674","","543","","1","0","arrowleft","0","arrowright","[0.325,0.675,0.85,0.15]","","",""
"sailing-trial","354","1394806","0.0-11.0-319.0","","","","false","","","","","","","","","","null","","766.5","","2","1","null","null","arrowup","[0.325,0.675,0.85,0.15]","","",""
"sailing-trial","355","1398456","0.0-11.0-320.0","","","","false","","","","","","","","","","656.2999999523163","","64.10000014305115","","0","1","arrowleft","0","arrowleft","[0.325,0.675,0.85,0.15]","","",""
"sailing-trial","356","1401155","0.0-11.0-321.0","","","","false","","","","","","","","","","null","","959.8000001907349","","0","1","null","null","arrowup","[0.325,0.675,0.85,0.15]","","",""
"sailing-trial","357","1404696","0.0-11.0-322.0","","","","false","","","","","","","","","","506.19999980926514","","637.1999998092651","","0","0","arrowleft","0","arrowleft","[0.325,0.675,0.85,0.15]","","",""
"sailing-trial","358","1407439","0.0-11.0-323.0","","","","false","","","","","","","","","","null","","829","","2","1","null","null","arrowup","[0.325,0.675,0.85,0.15]","","",""
"sailing-trial","359","1411522","0.0-11.0-324.0","","","","false","","","","","","","","","","723.6000001430511","","469.69999980926514","","3","1","arrowright","1","arrowright","[0.325,0.675,0.85,0.15]","","",""
"sailing-trial","360","1414009","0.0-11.0-325.0","","","","false","","","","","","","","","","null","","950.5","","3","0","null","null","arrowup","[0.325,0.675,0.85,0.15]","","",""
"sailing-trial","361","1418361","0.0-11.0-326.0","","","","false","","","","","","","","","","762.5999999046326","","1224.7000000476837","","3","0","arrowright","1","arrowright","[0.325,0.675,0.85,0.15]","","",""
"sailing-trial","362","1421122","0.0-11.0-327.0","","","","false","","","","","","","","","","null","","921.9000000953674","","2","1","null","null","arrowup","[0.325,0.675,0.85,0.15]","","",""
"sailing-trial","363","1424756","0.0-11.0-328.0","","","","false","","","","","","","","","","560.6999998092651","","219.80000019073486","","3","1","arrowright","1","arrowright","[0.325,0.675,0.85,0.15]","","",""
"sailing-trial","364","1427307","0.0-11.0-329.0","","","","false","","","","","","","","","","null","","711.5999999046326","","1","1","null","null","arrowup","[0.325,0.675,0.85,0.15]","","",""
"sailing-trial","365","1431537","0.0-11.0-330.0","","","","false","","","","","","","","","","832.9000000953674","","488.19999980926514","","3","0","arrowright","1","arrowright","[0.15,0.85,0.675,0.325]","","",""
"sailing-trial","366","1433887","0.0-11.0-331.0","","","","false","","","","","","","","","","null","","1030.2000000476837","","3","0","null","null","arrowup","[0.15,0.85,0.675,0.325]","","",""
"sailing-trial","367","1437294","0.0-11.0-332.0","","","","false","","","","","","","","","","744.8000001907349","","265.40000009536743","","0","0","arrowleft","0","arrowleft","[0.15,0.85,0.675,0.325]","","",""
"sailing-trial","368","1439871","0.0-11.0-333.0","","","","false","","","","","","","","","","null","","760.5999999046326","","2","1","null","null","arrowup","[0.15,0.85,0.675,0.325]","","",""
"sailing-trial","369","1443373","0.0-11.0-334.0","","","","false","","","","","","","","","","620.5","","62","","2","1","arrowright","1","arrowleft","[0.15,0.85,0.675,0.325]","","",""
"sailing-trial","370","1445675","0.0-11.0-335.0","","","","false","","","","","","","","","","null","","988.2000000476837","","0","0","null","null","arrowup","[0.15,0.85,0.675,0.325]","","",""
"sailing-trial","371","1449266","0.0-11.0-336.0","","","","false","","","","","","","","","","824.5999999046326","","332.5","","2","0","arrowright","1","arrowleft","[0.15,0.85,0.675,0.325]","","",""
"sailing-trial","372","1451739","0.0-11.0-337.0","","","","false","","","","","","","","","","null","","686.0999999046326","","1","1","null","null","arrowup","[0.15,0.85,0.675,0.325]","","",""
"sailing-trial","373","1455010","0.0-11.0-338.0","","","","false","","","","","","","","","","659.1000001430511","","271.09999990463257","","1","0","arrowleft","0","arrowright","[0.15,0.85,0.675,0.325]","","",""
"sailing-trial","374","1457605","0.0-11.0-339.0","","","","false","","","","","","","","","","null","","793.9000000953674","","1","1","null","null","arrowup","[0.15,0.85,0.675,0.325]","","",""
"sailing-trial","375","1461705","0.0-11.0-340.0","","","","false","","","","","","","","","","703.7000000476837","","591.8000001907349","","1","1","arrowleft","0","arrowright","[0.15,0.85,0.675,0.325]","","",""
"sailing-trial","376","1464255","0.0-11.0-341.0","","","","false","","","","","","","","","","null","","810.9000000953674","","2","1","null","null","arrowup","[0.15,0.85,0.675,0.325]","","",""
"sailing-trial","377","1468170","0.0-11.0-342.0","","","","false","","","","","","","","","","750.2999999523163","","268.40000009536743","","1","1","arrowleft","0","arrowright","[0.15,0.85,0.675,0.325]","","",""
"sailing-trial","378","1470888","0.0-11.0-343.0","","","","false","","","","","","","","","","null","","889","","1","1","null","null","arrowup","[0.15,0.85,0.675,0.325]","","",""
"sailing-trial","379","1475254","0.0-11.0-344.0","","","","false","","","","","","","","","","1127.4000000953674","","372.39999985694885","","1","1","arrowleft","0","arrowright","[0.15,0.85,0.675,0.325]","","",""
"sailing-trial","380","1477937","0.0-11.0-345.0","","","","false","","","","","","","","","","null","","826.5","","1","1","null","null","arrowup","[0.15,0.85,0.675,0.325]","","",""
"sailing-trial","381","1480978","0.0-11.0-346.0","","","","false","","","","","","","","","","651.1999998092651","","87.70000004768372","","1","0","arrowleft","0","arrowright","[0.325,0.675,0.85,0.15]","","",""
"sailing-trial","382","1483787","0.0-11.0-347.0","","","","false","","","","","","","","","","null","","1535.7999999523163","","2","0","null","null","arrowup","[0.325,0.675,0.85,0.15]","","",""
"sailing-trial","383","1487438","0.0-11.0-348.0","","","","false","","","","","","","","","","533.5","","249.79999995231628","","1","1","arrowleft","0","arrowright","[0.325,0.675,0.85,0.15]","","",""
"sailing-trial","384","1489673","0.0-11.0-349.0","","","","false","","","","","","","","","","null","","938.2999999523163","","3","0","null","null","arrowup","[0.325,0.675,0.85,0.15]","","",""
"sailing-trial","385","1493687","0.0-11.0-350.0","","","","false","","","","","","","","","","665.5999999046326","","583.9000000953674","","1","1","arrowleft","0","arrowright","[0.325,0.675,0.85,0.15]","","",""
"sailing-trial","386","1496002","0.0-11.0-351.0","","","","false","","","","","","","","","","null","","1007.1000001430511","","0","0","null","null","arrowup","[0.325,0.675,0.85,0.15]","","",""
"sailing-trial","387","1500005","0.0-11.0-352.0","","","","false","","","","","","","","","","917.9000000953674","","266.60000014305115","","1","1","arrowleft","0","arrowright","[0.325,0.675,0.85,0.15]","","",""
"sailing-trial","388","1502213","0.0-11.0-353.0","","","","false","","","","","","","","","","null","","882.2000000476837","","0","0","null","null","arrowup","[0.325,0.675,0.85,0.15]","","",""
"sailing-trial","389","1505820","0.0-11.0-354.0","","","","false","","","","","","","","","","721.5999999046326","","118.5","","1","1","arrowleft","0","arrowright","[0.325,0.675,0.85,0.15]","","",""
"sailing-trial","390","1508387","0.0-11.0-355.0","","","","false","","","","","","","","","","null","","772","","1","1","null","null","arrowup","[0.325,0.675,0.85,0.15]","","",""
"sailing-trial","391","1512521","0.0-11.0-356.0","","","","false","","","","","","","","","","785.6999998092651","","444.39999985694885","","1","1","arrowleft","0","arrowright","[0.325,0.675,0.85,0.15]","","",""
"sailing-trial","392","1514488","0.0-11.0-357.0","","","","false","","","","","","","","","","null","","631","","3","0","null","null","arrowup","[0.325,0.675,0.85,0.15]","","",""
"sailing-trial","393","1518553","0.0-11.0-358.0","","","","false","","","","","","","","","","771.7000000476837","","535.3000001907349","","2","1","arrowright","1","arrowleft","[0.325,0.675,0.85,0.15]","","",""
"sailing-trial","394","1521520","0.0-11.0-359.0","","","","false","","","","","","","","","","null","","1099","","2","1","null","null","arrowup","[0.325,0.675,0.85,0.15]","","",""
"sailing-trial","395","1524581","0.0-11.0-360.0","","","","false","","","","","","","","","","635.9000000953674","","118.70000004768372","","1","0","arrowleft","0","arrowright","[0.325,0.675,0.85,0.15]","","",""
"sailing-trial","396","1527220","0.0-11.0-361.0","","","","false","","","","","","","","","","null","","783.2999999523163","","1","1","null","null","arrowup","[0.325,0.675,0.85,0.15]","","",""
"sailing-trial","397","1531553","0.0-11.0-362.0","","","","false","","","","","","","","","","931.7000000476837","","577.7999999523163","","1","1","arrowleft","0","arrowright","[0.325,0.675,0.85,0.15]","","",""
"sailing-trial","398","1534151","0.0-11.0-363.0","","","","false","","","","","","","","","","null","","1367.1000001430511","","3","0","null","null","arrowup","[0.325,0.675,0.85,0.15]","","",""
"sailing-trial","399","1538219","0.0-11.0-364.0","","","","false","","","","","","","","","","1006.2000000476837","","202.90000009536743","","1","1","arrowleft","0","arrowright","[0.15,0.85,0.675,0.325]","","",""
"sailing-trial","400","1540013","0.0-11.0-365.0","","","","false","","","","","","","","","","null","","603.1999998092651","","0","0","null","null","arrowup","[0.15,0.85,0.675,0.325]","","",""
"sailing-trial","401","1543555","0.0-11.0-366.0","","","","false","","","","","","","","","","562.8999998569489","","156.30000019073486","","1","1","arrowleft","0","arrowright","[0.15,0.85,0.675,0.325]","","",""
"sailing-trial","402","1545770","0.0-11.0-367.0","","","","false","","","","","","","","","","null","","907.7000000476837","","3","0","null","null","arrowup","[0.15,0.85,0.675,0.325]","","",""
"sailing-trial","403","1549697","0.0-11.0-368.0","","","","false","","","","","","","","","","870.0999999046326","","966.2000000476837","","3","0","arrowright","1","arrowright","[0.15,0.85,0.675,0.325]","","",""
"sailing-trial","404","1551924","0.0-11.0-369.0","","","","false","","","","","","","","","","null","","965.7000000476837","","0","0","null","null","arrowup","[0.15,0.85,0.675,0.325]","","",""
"sailing-trial","405","1556020","0.0-11.0-370.0","","","","false","","","","","","","","","","637.9000000953674","","531.2000000476837","","1","1","arrowleft","0","arrowright","[0.15,0.85,0.675,0.325]","","",""
"sailing-trial","406","1558536","0.0-11.0-371.0","","","","false","","","","","","","","","","null","","714.1000001430511","","1","1","null","null","arrowup","[0.15,0.85,0.675,0.325]","","",""
"sailing-trial","407","1561896","0.0-11.0-372.0","","","","false","","","","","","","","","","955.3999998569489","","61.30000019073486","","1","0","arrowleft","0","arrowright","[0.15,0.85,0.675,0.325]","","",""
"sailing-trial","408","1564569","0.0-11.0-373.0","","","","false","","","","","","","","","","null","","975.0999999046326","","2","1","null","null","arrowup","[0.15,0.85,0.675,0.325]","","",""
"sailing-trial","409","1570136","0.0-11.0-374.0","","","","false","","","","","","","","","","672.9000000953674","","2099.7000000476837","","2","1","arrowright","1","arrowleft","[0.15,0.85,0.675,0.325]","","",""
"sailing-trial","410","1572852","0.0-11.0-375.0","","","","false","","","","","","","","","","null","","861","","3","1","null","null","arrowup","[0.15,0.85,0.675,0.325]","","",""
"sailing-trial","411","1576887","0.0-11.0-376.0","","","","false","","","","","","","","","","714.1999998092651","","522.1000001430511","","1","1","arrowleft","0","arrowright","[0.15,0.85,0.675,0.325]","","",""
"sailing-trial","412","1580285","0.0-11.0-377.0","","","","false","","","","","","","","","","null","","1469","","1","1","null","null","arrowup","[0.15,0.85,0.675,0.325]","","",""
"sailing-trial","413","1584236","0.0-11.0-378.0","","","","false","","","","","","","","","","882.5","","278.7999999523163","","1","1","arrowleft","0","arrowright","[0.15,0.85,0.675,0.325]","","",""
"sailing-trial","414","1586428","0.0-11.0-379.0","","","","false","","","","","","","","","","null","","819.2999999523163","","0","0","null","null","arrowup","[0.15,0.85,0.675,0.325]","","",""
"sailing-trial","415","1590185","0.0-11.0-380.0","","","","false","","","","","","","","","","693.2000000476837","","374.5","","1","1","arrowleft","0","arrowright","[0.15,0.85,0.675,0.325]","","",""
"sailing-trial","416","1592763","0.0-11.0-381.0","","","","false","","","","","","","","","","null","","1030.6999998092651","","0","0","null","null","arrowup","[0.15,0.85,0.675,0.325]","","",""
"sailing-trial","417","1596417","0.0-11.0-382.0","","","","false","","","","","","","","","","1156.9000000953674","","122","","1","0","arrowleft","0","arrowright","[0.85,0.15,0.325,0.675]","","",""
"sailing-trial","418","1598526","0.0-11.0-383.0","","","","false","","","","","","","","","","null","","788.2999999523163","","1","0","null","null","arrowup","[0.85,0.15,0.325,0.675]","","",""
"sailing-trial","419","1602139","0.0-11.0-384.0","","","","false","","","","","","","","","","638.7999999523163","","607.2000000476837","","2","0","arrowright","1","arrowleft","[0.85,0.15,0.325,0.675]","","",""
"sailing-trial","420","1604809","0.0-11.0-385.0","","","","false","","","","","","","","","","null","","929.9000000953674","","0","1","null","null","arrowup","[0.85,0.15,0.325,0.675]","","",""
"sailing-trial","421","1608419","0.0-11.0-386.0","","","","false","","","","","","","","","","752.2000000476837","","36.5","","3","1","arrowright","1","arrowright","[0.85,0.15,0.325,0.675]","","",""
"sailing-trial","422","1610477","0.0-11.0-387.0","","","","false","","","","","","","","","","null","","725.2999999523163","","1","0","null","null","arrowup","[0.85,0.15,0.325,0.675]","","",""
"sailing-trial","423","1614475","0.0-11.0-388.0","","","","false","","","","","","","","","","1132.1000001430511","","612","","3","0","arrowright","1","arrowright","[0.85,0.15,0.325,0.675]","","",""
"sailing-trial","424","1616631","0.0-11.0-389.0","","","","false","","","","","","","","","","null","","845.9000000953674","","2","0","null","null","arrowup","[0.85,0.15,0.325,0.675]","","",""
"sailing-trial","425","1619852","0.0-11.0-390.0","","","","false","","","","","","","","","","555.5","","257.7000000476837","","0","0","arrowleft","0","arrowleft","[0.85,0.15,0.325,0.675]","","",""
"sailing-trial","426","1621772","0.0-11.0-391.0","","","","false","","","","","","","","","","null","","677.7999999523163","","1","0","null","null","arrowup","[0.85,0.15,0.325,0.675]","","",""
"sailing-trial","427","1625413","0.0-11.0-392.0","","","","false","","","","","","","","","","742.0999999046326","","124.79999995231628","","1","0","arrowleft","0","arrowright","[0.85,0.15,0.325,0.675]","","",""
"sailing-trial","428","1628503","0.0-11.0-393.0","","","","false","","","","","","","","","","null","","1484.2000000476837","","2","0","null","null","arrowup","[0.85,0.15,0.325,0.675]","","",""
"sailing-trial","429","1632420","0.0-11.0-394.0","","","","false","","","","","","","","","","645.7999999523163","","398.40000009536743","","3","1","arrowright","1","arrowright","[0.85,0.15,0.325,0.675]","","",""
"sailing-trial","430","1635218","0.0-11.0-395.0","","","","false","","","","","","","","","","null","","892.7000000476837","","3","1","null","null","arrowup","[0.85,0.15,0.325,0.675]","","",""
"sailing-trial","431","1639251","0.0-11.0-396.0","","","","false","","","","","","","","","","940.3000001907349","","233.90000009536743","","3","1","arrowright","1","arrowright","[0.85,0.15,0.325,0.675]","","",""
"sailing-trial","432","1642184","0.0-11.0-397.0","","","","false","","","","","","","","","","null","","907.1999998092651","","3","1","null","null","arrowup","[0.85,0.15,0.325,0.675]","","",""
"sailing-trial","433","1647651","0.0-11.0-398.0","","","","false","","","","","","","","","","969.2000000476837","","452.7000000476837","","3","1","arrowright","1","arrowright","[0.85,0.15,0.325,0.675]","","",""
"sailing-trial","434","1649909","0.0-11.0-399.0","","","","false","","","","","","","","","","null","","906.2000000476837","","0","0","null","null","arrowup","[0.85,0.15,0.325,0.675]","","",""
"instructions","435","1657197","0.0-12.0","","","","","","","","","","7286.299999952316","","","","","","","","","","","","","","","","[{""page_index"":0,""viewing_time"":7285.099999904633}]"
"survey-debrief","436","1676681","0.0-13.0","","","","","","","","","","19480.699999809265","","","","","","","","","","","","","","{""difficulty"":""4"",""fun"":""3"",""clarity"":""5"",""strategy"":""No"",""feedback"":""No""}","",""
