"trial_type","trial_index","time_elapsed","internal_node_id","value","metadata","success","timeout","failed_images","failed_audio","failed_video","browser_interaction","low_quality","rt","stimulus","response","button_pressed","island_rt","island_response","boat_rt","boat_response","boat","reward","island_key","island","boat_key","reward_probabilities","responses","num_errors"
"pavlovia","0","3","0.0-0.0","","","","","","","","","","","","","","","","","","","","","","","","",""
"call-function","1","3","0.0-1.0","","{""task_version"":""sailing_part1_v1"",""task_condition"":""good"",""boats"":[""B"",""D"",""A"",""C""],""boats_demo"":[""H"",""G"",""F"",""E""],""islands"":[""A"",""B""],""subject_id"":""14785"",""age"":""13"",""gender"":""Male""}","","","","","","","","","","","","","","","","","","","","","","",""
"preload","2","8037","0.0-2.0","","","true","false","[]","[]","[]","[{""event"":""fullscreenenter"",""trial"":3,""time"":12861}]","false","","","","","","","","","","","","","","","",""
"fullscreen","3","13843","0.0-3.0","","","true","","","","","","","","","","","","","","","","","","","","","",""
"audio-keyboard-response","4","16251","0.0-4.0-0.0","","","","","","","","","","2400.0000000000005","audio/beep_loop.wav"," ","","","","","","","","","","","","",""
"audio-test","5","20464","0.0-4.0-1.0","","","","","","","","","","null","audio/turtle.mp3","","3","","","","","","","","","","","",""
"audio-test","6","22713","0.0-4.0-2.0","","","","","","","","","","null","audio/shark.mp3","","2","","","","","","","","","","","",""
"sailing-instructions","7","61886","0.0-5.0-0.0-0.0","","","","","","","","","","","","","","null","null","null","null","null","null","","","","","",""
"sailing-trial","8","74168","0.0-5.0-0.0-1.0-0.0","","","","false","","","","","","","","","","11171.600000023842","","null","","null","null","arrowleft","0","null","null","",""
"sailing-trial","9","79920","0.0-5.0-0.0-1.0-1.0","","","","false","","","","","","","","","","4637.700000047684","","null","","null","null","arrowright","1","null","null","",""
"sailing-trial","10","85138","0.0-5.0-0.0-1.0-2.0","","","","false","","","","","","","","","","4106.100000023842","","null","","null","null","arrowright","1","null","null","",""
"sailing-instructions","11","133083","0.0-5.0-0.0-2.0","","","","","","","","","","","","","","null","null","null","null","0","null","","","","","",""
"sailing-trial","12","157198","0.0-5.0-0.0-3.0-0.0","","","","false","","","","","","","","","","null","","16759.600000023842","","2","1","null","null","arrowleft","[1,1,1,1]","",""
"sailing-trial","13","168187","0.0-5.0-0.0-3.0-1.0","","","","false","","","","","","","","","","null","","5525.600000023842","","3","1","null","null","arrowright","[1,1,1,1]","",""
"sailing-trial","14","175858","0.0-5.0-0.0-3.0-2.0","","","","false","","","","","","","","","","null","","4164.199999928474","","2","0","null","null","arrowleft","[0,0,0,0]","",""
"sailing-instructions","15","184597","0.0-5.0-0.0-4.0","","","","","","","","","","","","","","null","null","null","null","null","null","","","","","",""
"sailing-comprehension","16","215288","0.0-5.0-0.0-5.0","","","","","","","","","","23406.899999976158","","","","","","","","","","","","","","[""true"",""true"",""true"",""true""]","1"
"sailing-instructions","17","251121","0.0-5.0-0.1-0.1","","","","","","","","","","","","","","null","null","null","null","null","null","","","","","",""
"sailing-trial","18","255435","0.0-5.0-0.1-1.1-0.1","","","","false","","","","","","","","","","3198.899999976158","","null","","null","null","arrowleft","0","null","null","",""
"sailing-trial","19","258988","0.0-5.0-0.1-1.1-1.1","","","","false","","","","","","","","","","2437.600000023842","","null","","null","null","arrowright","1","null","null","",""
"sailing-trial","20","262587","0.0-5.0-0.1-1.1-2.1","","","","false","","","","","","","","","","2464","","null","","null","null","arrowleft","0","null","null","",""
"sailing-instructions","21","310840","0.0-5.0-0.1-2.1","","","","","","","","","","","","","","null","null","null","null","0","null","","","","","",""
"sailing-trial","22","331516","0.0-5.0-0.1-3.1-0.1","","","","false","","","","","","","","","","null","","15275.600000023842","","2","1","null","null","arrowleft","[1,1,1,1]","",""
"sailing-trial","23","344970","0.0-5.0-0.1-3.1-1.1","","","","false","","","","","","","","","","null","","7524.200000047684","","3","1","null","null","arrowright","[1,1,1,1]","",""
"sailing-trial","24","348297","0.0-5.0-0.1-3.1-2.1","","","","false","","","","","","","","","","null","","1517.6999999284744","","3","0","null","null","arrowright","[0,0,0,0]","",""
"sailing-instructions","25","356747","0.0-5.0-0.1-4.1","","","","","","","","","","","","","","null","null","null","null","null","null","","","","","",""
"sailing-comprehension","26","372381","0.0-5.0-0.1-5.1","","","","","","","","","","13003","","","","","","","","","","","","","","[""true"",""true"",""false"",""true""]","0"
"sailing-instructions","27","448720","0.0-6.0-0.0-0.0","","","","","","","","","","","","","","null","null","null","null","null","null","","","","","",""
"sailing-comprehension","28","473949","0.0-6.0-0.0-1.0","","","","","","","","","","21926.899999976158","","","","","","","","","","","","","","[""true"",""false"",""true""]","0"
"sailing-instructions","29","489901","0.0-7.0-0.0-0.0","","","","","","","","","","","","","","null","null","null","null","null","null","","","","","",""
"sailing-trial","30","496674","0.0-7.0-0.0-1.0-0.0","","","","false","","","","","","","","","","null","","3722.2000000476837","","0","0","null","null","arrowup","[0.2,0.8,0.2,0.8]","",""
"sailing-trial","31","503558","0.0-7.0-0.0-1.0-1.0","","","","false","","","","","","","","","","null","","4433.5","","1","1","null","null","arrowup","[0.2,0.8,0.2,0.8]","",""
"sailing-trial","32","511062","0.0-7.0-0.0-1.0-2.0","","","","false","","","","","","","","","","null","","4413.100000023842","","2","1","null","null","arrowup","[0.2,0.8,0.2,0.8]","",""
"sailing-trial","33","518349","0.0-7.0-0.0-1.0-3.0","","","","false","","","","","","","","","","null","","3258.600000023842","","3","1","null","null","arrowup","[0.2,0.8,0.2,0.8]","",""
"sailing-comprehension","34","531020","0.0-7.0-0.0-2.0","","","","","","","","","","10097.799999952316","","","","","","","","","","","","","","[""false""]","0"
"sailing-instructions","35","544946","0.0-8.0-0.0-0.0","","","","","","","","","","","","","","null","null","null","null","null","null","","","","","",""
"sailing-comprehension","36","552803","0.0-8.0-0.0-1.0","","","","","","","","","","3585.2000000476837","","","","","","","","","","","","","","[""true""]","0"
"sailing-instructions","37","589778","0.0-9.0-0.0-0.0","","","","","","","","","","","","","","null","null","null","null","null","null","","","","","",""
"sailing-trial","38","599779","0.0-9.0-0.0-1.0-0.0","","","","false","","","","","","","","","","4443.299999952316","","1218.8999999761581","","3","0","arrowright","1","arrowright","[0.2,0.8,0.2,0.8]","",""
"sailing-trial","39","608166","0.0-9.0-0.0-1.0-1.0","","","","false","","","","","","","","","","390.10000002384186","","3911","","0","0","arrowleft","0","arrowleft","[0.2,0.8,0.2,0.8]","",""
"sailing-trial","40","613016","0.0-9.0-0.0-1.0-2.0","","","","false","","","","","","","","","","null","","2782.8000000715256","","0","0","null","null","arrowup","[0.2,0.8,0.2,0.8]","",""
"sailing-trial","41","619580","0.0-9.0-0.0-1.0-3.0","","","","false","","","","","","","","","","1325.1999999284744","","1958.6000000238419","","0","0","arrowleft","0","arrowleft","[0.2,0.8,0.2,0.8]","",""
"sailing-trial","42","623272","0.0-9.0-0.0-1.0-4.0","","","","false","","","","","","","","","","null","","1278.9000000953674","","3","1","null","null","arrowup","[0.2,0.8,0.2,0.8]","",""
"sailing-trial","43","628190","0.0-9.0-0.0-1.0-5.0","","","","false","","","","","","","","","","1293.7000000476837","","263.39999997615814","","3","1","arrowright","1","arrowright","[0.2,0.8,0.2,0.8]","",""
"sailing-instructions","44","661771","0.0-10.0","","","","","","","","","","","","","","null","null","null","null","null","null","","","","","",""
"sailing-trial","45","666705","0.0-11.0-0.0","","","","false","","","","","","","","","","1933.1000000238419","","29","","3","1","arrowright","1","arrowright","[0.675,0.325,0.15,0.85]","",""
"sailing-trial","46","671273","0.0-11.0-1.0","","","","false","","","","","","","","","","null","","2351.2999999523163","","1","1","null","null","arrowup","[0.675,0.325,0.15,0.85]","",""
"sailing-trial","47","675973","0.0-11.0-2.0","","","","false","","","","","","","","","","924.8000000715256","","861.8999999761581","","3","1","arrowright","1","arrowright","[0.675,0.325,0.15,0.85]","",""
"sailing-trial","48","679942","0.0-11.0-3.0","","","","false","","","","","","","","","","null","","950.1000000238419","","1","0","null","null","arrowup","[0.675,0.325,0.15,0.85]","",""
"sailing-trial","49","684544","0.0-11.0-4.0","","","","false","","","","","","","","","","716.1999999284744","","903.8999999761581","","3","1","arrowright","1","arrowright","[0.675,0.325,0.15,0.85]","",""
"sailing-trial","50","688862","0.0-11.0-5.0","","","","false","","","","","","","","","","null","","1299.7000000476837","","2","0","null","null","arrowup","[0.675,0.325,0.15,0.85]","",""
"sailing-trial","51","693947","0.0-11.0-6.0","","","","false","","","","","","","","","","802.8999999761581","","266.40000009536743","","3","0","arrowright","1","arrowright","[0.675,0.325,0.15,0.85]","",""
"sailing-trial","52","696866","0.0-11.0-7.0","","","","false","","","","","","","","","","null","","1003.5","","2","1","null","null","arrowup","[0.675,0.325,0.15,0.85]","",""
"sailing-trial","53","702113","0.0-11.0-8.0","","","","false","","","","","","","","","","633.5","","573.5","","1","0","arrowleft","0","arrowright","[0.675,0.325,0.15,0.85]","",""
"sailing-trial","54","705002","0.0-11.0-9.0","","","","false","","","","","","","","","","null","","1032","","1","1","null","null","arrowup","[0.675,0.325,0.15,0.85]","",""
"sailing-trial","55","710321","0.0-11.0-10.0","","","","false","","","","","","","","","","1176","","150.30000007152557","","0","0","arrowleft","0","arrowleft","[0.675,0.325,0.15,0.85]","",""
"sailing-trial","56","713322","0.0-11.0-11.0","","","","false","","","","","","","","","","null","","1078.5","","3","1","null","null","arrowup","[0.675,0.325,0.15,0.85]","",""
"sailing-trial","57","718257","0.0-11.0-12.0","","","","false","","","","","","","","","","1436.6000000238419","","618.3999999761581","","1","1","arrowleft","0","arrowright","[0.675,0.325,0.15,0.85]","",""
"sailing-trial","58","722328","0.0-11.0-13.0","","","","false","","","","","","","","","","null","","1059","","1","0","null","null","arrowup","[0.675,0.325,0.15,0.85]","",""
"sailing-trial","59","727410","0.0-11.0-14.0","","","","false","","","","","","","","","","1129.1000000238419","","822.3999999761581","","1","1","arrowleft","0","arrowright","[0.675,0.325,0.15,0.85]","",""
"sailing-trial","60","731295","0.0-11.0-15.0","","","","false","","","","","","","","","","null","","2002.5999999046326","","0","1","null","null","arrowup","[0.675,0.325,0.15,0.85]","",""
"sailing-trial","61","735696","0.0-11.0-16.0","","","","false","","","","","","","","","","1312","","267.6999999284744","","1","1","arrowleft","0","arrowright","[0.675,0.325,0.15,0.85]","",""
"sailing-trial","62","739799","0.0-11.0-17.0","","","","false","","","","","","","","","","null","","1083.1000000238419","","1","0","null","null","arrowup","[0.675,0.325,0.15,0.85]","",""
"sailing-trial","63","743467","0.0-11.0-18.0","","","","false","","","","","","","","","","1194.6000000238419","","264.10000002384186","","1","0","arrowleft","0","arrowright","[0.85,0.15,0.325,0.675]","",""
"sailing-trial","64","746835","0.0-11.0-19.0","","","","false","","","","","","","","","","null","","1174","","1","1","null","null","arrowup","[0.85,0.15,0.325,0.675]","",""
"sailing-trial","65","751402","0.0-11.0-20.0","","","","false","","","","","","","","","","1456.8999999761581","","332.3000000715256","","1","0","arrowleft","0","arrowright","[0.85,0.15,0.325,0.675]","",""
"sailing-trial","66","754105","0.0-11.0-21.0","","","","false","","","","","","","","","","null","","638.4000000953674","","3","1","null","null","arrowup","[0.85,0.15,0.325,0.675]","",""
"sailing-trial","67","759855","0.0-11.0-22.0","","","","false","","","","","","","","","","859.8999999761581","","1380.6000000238419","","0","1","arrowleft","0","arrowleft","[0.85,0.15,0.325,0.675]","",""
"sailing-trial","68","765293","0.0-11.0-23.0","","","","false","","","","","","","","","","null","","2432.899999976158","","2","0","null","null","arrowup","[0.85,0.15,0.325,0.675]","",""
"sailing-trial","69","770436","0.0-11.0-24.0","","","","false","","","","","","","","","","1089.8999999761581","","155.79999995231628","","3","0","arrowright","1","arrowright","[0.85,0.15,0.325,0.675]","",""
"sailing-trial","70","773012","0.0-11.0-25.0","","","","false","","","","","","","","","","null","","902.5","","2","0","null","null","arrowup","[0.85,0.15,0.325,0.675]","",""
"sailing-trial","71","778379","0.0-11.0-26.0","","","","false","","","","","","","","","","964.6000000238419","","1509.9000000953674","","2","1","arrowright","1","arrowleft","[0.85,0.15,0.325,0.675]","",""
"sailing-trial","72","781063","0.0-11.0-27.0","","","","false","","","","","","","","","","null","","923.2999999523163","","3","1","null","null","arrowup","[0.85,0.15,0.325,0.675]","",""
"sailing-trial","73","785099","0.0-11.0-28.0","","","","false","","","","","","","","","","966.3999999761581","","59.5","","2","1","arrowright","1","arrowleft","[0.85,0.15,0.325,0.675]","",""
"sailing-trial","74","787816","0.0-11.0-29.0","","","","false","","","","","","","","","","null","","773.5999999046326","","1","1","null","null","arrowup","[0.85,0.15,0.325,0.675]","",""
"sailing-trial","75","792186","0.0-11.0-30.0","","","","false","","","","","","","","","","668.2999999523163","","574.2999999523163","","0","1","arrowleft","0","arrowleft","[0.85,0.15,0.325,0.675]","",""
"sailing-trial","76","795053","0.0-11.0-31.0","","","","false","","","","","","","","","","null","","1028.2999999523163","","3","1","null","null","arrowup","[0.85,0.15,0.325,0.675]","",""
"sailing-trial","77","798653","0.0-11.0-32.0","","","","false","","","","","","","","","","643.7000000476837","","84.10000002384186","","0","1","arrowleft","0","arrowleft","[0.85,0.15,0.325,0.675]","",""
"sailing-trial","78","801137","0.0-11.0-33.0","","","","false","","","","","","","","","","null","","546.7000000476837","","0","0","null","null","arrowup","[0.85,0.15,0.325,0.675]","",""
"sailing-trial","79","805339","0.0-11.0-34.0","","","","false","","","","","","","","","","722.5","","215.10000002384186","","0","1","arrowleft","0","arrowleft","[0.675,0.325,0.15,0.85]","",""
"sailing-trial","80","807872","0.0-11.0-35.0","","","","false","","","","","","","","","","null","","1132.3999999761581","","1","0","null","null","arrowup","[0.675,0.325,0.15,0.85]","",""
"sailing-trial","81","813492","0.0-11.0-36.0","","","","false","","","","","","","","","","572.3999999761581","","1100.3999999761581","","0","1","arrowleft","0","arrowleft","[0.675,0.325,0.15,0.85]","",""
"sailing-trial","82","817427","0.0-11.0-37.0","","","","false","","","","","","","","","","null","","1802.1000000238419","","0","1","null","null","arrowup","[0.675,0.325,0.15,0.85]","",""
"sailing-trial","83","821796","0.0-11.0-38.0","","","","false","","","","","","","","","","1135.8999999761581","","323.10000002384186","","0","1","arrowleft","0","arrowleft","[0.675,0.325,0.15,0.85]","",""
"sailing-trial","84","825482","0.0-11.0-39.0","","","","false","","","","","","","","","","null","","684.8999999761581","","2","0","null","null","arrowup","[0.675,0.325,0.15,0.85]","",""
"sailing-trial","85","829380","0.0-11.0-40.0","","","","false","","","","","","","","","","737.0999999046326","","203.20000004768372","","0","1","arrowleft","0","arrowleft","[0.675,0.325,0.15,0.85]","",""
"sailing-trial","86","832203","0.0-11.0-41.0","","","","false","","","","","","","","","","null","","1076.6000000238419","","2","0","null","null","arrowup","[0.675,0.325,0.15,0.85]","",""
"sailing-trial","87","836024","0.0-11.0-42.0","","","","false","","","","","","","","","","616.2999999523163","","791.5","","0","0","arrowleft","0","arrowleft","[0.675,0.325,0.15,0.85]","",""
"sailing-trial","88","841071","0.0-11.0-43.0","","","","false","","","","","","","","","","null","","1265","","3","1","null","null","arrowup","[0.675,0.325,0.15,0.85]","",""
"sailing-trial","89","845905","0.0-11.0-44.0","","","","false","","","","","","","","","","1743.2999999523163","","52.59999990463257","","0","1","arrowleft","0","arrowleft","[0.675,0.325,0.15,0.85]","",""
"sailing-trial","90","850758","0.0-11.0-45.0","","","","false","","","","","","","","","","null","","1952","","0","1","null","null","arrowup","[0.675,0.325,0.15,0.85]","",""
"sailing-trial","91","855975","0.0-11.0-46.0","","","","false","","","","","","","","","","760.8999999761581","","478.8000000715256","","0","1","arrowleft","0","arrowleft","[0.675,0.325,0.15,0.85]","",""
"sailing-trial","92","859348","0.0-11.0-47.0","","","","false","","","","","","","","","","null","","943.3999999761581","","1","0","null","null","arrowup","[0.675,0.325,0.15,0.85]","",""
"sailing-trial","93","867179","0.0-11.0-48.0","","","","false","","","","","","","","","","1226.6999999284744","","1043","","0","1","arrowleft","0","arrowleft","[0.675,0.325,0.15,0.85]","",""
"sailing-trial","94","872266","0.0-11.0-49.0","","","","false","","","","","","","","","","null","","2091","","1","0","null","null","arrowup","[0.675,0.325,0.15,0.85]","",""
"sailing-trial","95","879617","0.0-11.0-50.0","","","","false","","","","","","","","","","1324.8999999761581","","2741.5","","0","1","arrowleft","0","arrowleft","[0.85,0.15,0.325,0.675]","",""
"sailing-trial","96","882712","0.0-11.0-51.0","","","","false","","","","","","","","","","null","","1225.8999999761581","","1","0","null","null","arrowup","[0.85,0.15,0.325,0.675]","",""
"sailing-trial","97","886904","0.0-11.0-52.0","","","","false","","","","","","","","","","766.7999999523163","","417.8000000715256","","2","1","arrowright","1","arrowleft","[0.85,0.15,0.325,0.675]","",""
"sailing-trial","98","890088","0.0-11.0-53.0","","","","false","","","","","","","","","","null","","1091","","3","1","null","null","arrowup","[0.85,0.15,0.325,0.675]","",""
"sailing-trial","99","894615","0.0-11.0-54.0","","","","false","","","","","","","","","","1530.6000000238419","","544","","2","0","arrowright","1","arrowleft","[0.85,0.15,0.325,0.675]","",""
"sailing-trial","100","897554","0.0-11.0-55.0","","","","false","","","","","","","","","","null","","1537.2999999523163","","2","0","null","null","arrowup","[0.85,0.15,0.325,0.675]","",""
"sailing-trial","101","902624","0.0-11.0-56.0","","","","false","","","","","","","","","","1742","","273.40000009536743","","0","1","arrowleft","0","arrowleft","[0.85,0.15,0.325,0.675]","",""
"sailing-trial","102","906493","0.0-11.0-57.0","","","","false","","","","","","","","","","null","","1180","","1","0","null","null","arrowup","[0.85,0.15,0.325,0.675]","",""
"sailing-trial","103","911790","0.0-11.0-58.0","","","","false","","","","","","","","","","932","","1102.7000000476837","","0","0","arrowleft","0","arrowleft","[0.85,0.15,0.325,0.675]","",""
"sailing-trial","104","916547","0.0-11.0-59.0","","","","false","","","","","","","","","","null","","769.7999999523163","","3","1","null","null","arrowup","[0.85,0.15,0.325,0.675]","",""
"sailing-trial","105","923883","0.0-11.0-60.0","","","","false","","","","","","","","","","2498.399999976158","","395.89999997615814","","0","1","arrowleft","0","arrowleft","[0.85,0.15,0.325,0.675]","",""
"sailing-trial","106","926934","0.0-11.0-61.0","","","","false","","","","","","","","","","null","","1145.1000000238419","","2","0","null","null","arrowup","[0.85,0.15,0.325,0.675]","",""
"sailing-trial","107","935020","0.0-11.0-62.0","","","","false","","","","","","","","","","1443.5","","2354","","0","1","arrowleft","0","arrowleft","[0.85,0.15,0.325,0.675]","",""
"sailing-trial","108","938922","0.0-11.0-63.0","","","","false","","","","","","","","","","null","","2024.3000000715256","","0","1","null","null","arrowup","[0.85,0.15,0.325,0.675]","",""
"sailing-trial","109","947975","0.0-11.0-64.0","","","","false","","","","","","","","","","1375.2999999523163","","1094.5","","0","1","arrowleft","0","arrowleft","[0.85,0.15,0.325,0.675]","",""
"sailing-trial","110","951877","0.0-11.0-65.0","","","","false","","","","","","","","","","null","","1071.1000000238419","","0","1","null","null","arrowup","[0.85,0.15,0.325,0.675]","",""
"sailing-trial","111","959363","0.0-11.0-66.0","","","","false","","","","","","","","","","2562.4000000953674","","132.29999995231628","","0","1","arrowleft","0","arrowleft","[0.85,0.15,0.325,0.675]","",""
"sailing-trial","112","967249","0.0-11.0-67.0","","","","false","","","","","","","","","","null","","4358.799999952316","","3","1","null","null","arrowup","[0.85,0.15,0.325,0.675]","",""
"sailing-trial","113","972856","0.0-11.0-68.0","","","","false","","","","","","","","","","1248.8999999761581","","723.8999999761581","","0","0","arrowleft","0","arrowleft","[0.85,0.15,0.325,0.675]","",""
"sailing-trial","114","976787","0.0-11.0-69.0","","","","false","","","","","","","","","","null","","731.7000000476837","","3","1","null","null","arrowup","[0.85,0.15,0.325,0.675]","",""
"sailing-trial","115","981377","0.0-11.0-70.0","","","","false","","","","","","","","","","1420","","59.10000002384186","","1","0","arrowleft","0","arrowright","[0.675,0.325,0.15,0.85]","",""
"sailing-trial","116","984473","0.0-11.0-71.0","","","","false","","","","","","","","","","null","","985.6000000238419","","0","1","null","null","arrowup","[0.675,0.325,0.15,0.85]","",""
"sailing-trial","117","990074","0.0-11.0-72.0","","","","false","","","","","","","","","","1296.5","","1473.1000000238419","","3","1","arrowright","1","arrowright","[0.675,0.325,0.15,0.85]","",""
"sailing-trial","118","1005079","0.0-11.0-73.0","","","","true","","","","","","","","","","null","","null","","null","null","null","null","null","[0.675,0.325,0.15,0.85]","",""
"sailing-trial","119","1009681","0.0-11.0-74.0","","","","false","","","","","","","","","","1123.1999999284744","","308.89999997615814","","3","1","arrowright","1","arrowright","[0.675,0.325,0.15,0.85]","",""
"sailing-trial","120","1013316","0.0-11.0-75.0","","","","false","","","","","","","","","","null","","1613.3999999761581","","0","1","null","null","arrowup","[0.675,0.325,0.15,0.85]","",""
"sailing-trial","121","1019301","0.0-11.0-76.0","","","","false","","","","","","","","","","890.2999999523163","","1821","","3","1","arrowright","1","arrowright","[0.675,0.325,0.15,0.85]","",""
"sailing-trial","122","1022119","0.0-11.0-77.0","","","","false","","","","","","","","","","null","","835.1999999284744","","0","1","null","null","arrowup","[0.675,0.325,0.15,0.85]","",""
"sailing-trial","123","1027121","0.0-11.0-78.0","","","","false","","","","","","","","","","756.8999999761581","","404.10000002384186","","3","1","arrowright","1","arrowright","[0.675,0.325,0.15,0.85]","",""
"sailing-trial","124","1030039","0.0-11.0-79.0","","","","false","","","","","","","","","","null","","779.8999999761581","","1","1","null","null","arrowup","[0.675,0.325,0.15,0.85]","",""
"sailing-trial","125","1035191","0.0-11.0-80.0","","","","false","","","","","","","","","","1957.5","","115.29999995231628","","3","1","arrowright","1","arrowright","[0.675,0.325,0.15,0.85]","",""
"sailing-trial","126","1037432","0.0-11.0-81.0","","","","false","","","","","","","","","","null","","590.2999999523163","","2","0","null","null","arrowup","[0.675,0.325,0.15,0.85]","",""
"sailing-trial","127","1042443","0.0-11.0-82.0","","","","false","","","","","","","","","","1093.1999999284744","","695.6000000238419","","3","1","arrowright","1","arrowright","[0.675,0.325,0.15,0.85]","",""
"sailing-trial","128","1046598","0.0-11.0-83.0","","","","false","","","","","","","","","","null","","1161.7000000476837","","0","0","null","null","arrowup","[0.675,0.325,0.15,0.85]","",""
"sailing-trial","129","1053164","0.0-11.0-84.0","","","","false","","","","","","","","","","1107.1000000238419","","2302.7000000476837","","3","1","arrowright","1","arrowright","[0.675,0.325,0.15,0.85]","",""
"sailing-trial","130","1057151","0.0-11.0-85.0","","","","false","","","","","","","","","","null","","1089.1000000238419","","3","1","null","null","arrowup","[0.675,0.325,0.15,0.85]","",""
"sailing-trial","131","1061501","0.0-11.0-86.0","","","","false","","","","","","","","","","783.5","","391.2999999523163","","3","1","arrowright","1","arrowright","[0.675,0.325,0.15,0.85]","",""
"sailing-trial","132","1065053","0.0-11.0-87.0","","","","false","","","","","","","","","","null","","1485.7999999523163","","3","1","null","null","arrowup","[0.675,0.325,0.15,0.85]","",""
"sailing-trial","133","1069421","0.0-11.0-88.0","","","","false","","","","","","","","","","1550.8999999761581","","366.10000002384186","","0","0","arrowleft","0","arrowleft","[0.325,0.675,0.85,0.15]","",""
"sailing-trial","134","1072238","0.0-11.0-89.0","","","","false","","","","","","","","","","null","","916.6000000238419","","1","1","null","null","arrowup","[0.325,0.675,0.85,0.15]","",""
"sailing-trial","135","1077442","0.0-11.0-90.0","","","","false","","","","","","","","","","710.6000000238419","","502.60000002384186","","1","0","arrowleft","0","arrowright","[0.325,0.675,0.85,0.15]","",""
"sailing-trial","136","1079724","0.0-11.0-91.0","","","","false","","","","","","","","","","null","","276.2999999523163","","1","1","null","null","arrowup","[0.325,0.675,0.85,0.15]","",""
"sailing-trial","137","1083672","0.0-11.0-92.0","","","","false","","","","","","","","","","757.1000000238419","","324.8000000715256","","3","0","arrowright","1","arrowright","[0.325,0.675,0.85,0.15]","",""
"sailing-trial","138","1087293","0.0-11.0-93.0","","","","false","","","","","","","","","","null","","1635.8000000715256","","2","1","null","null","arrowup","[0.325,0.675,0.85,0.15]","",""
"sailing-trial","139","1092429","0.0-11.0-94.0","","","","false","","","","","","","","","","1083.2999999523163","","616.8999999761581","","2","1","arrowright","1","arrowleft","[0.325,0.675,0.85,0.15]","",""
"sailing-trial","140","1096914","0.0-11.0-95.0","","","","false","","","","","","","","","","null","","1257","","2","1","null","null","arrowup","[0.325,0.675,0.85,0.15]","",""
"sailing-trial","141","1107567","0.0-11.0-96.0","","","","false","","","","","","","","","","897.1000000238419","","1045.1000000238419","","2","1","arrowright","1","arrowleft","[0.325,0.675,0.85,0.15]","",""
"sailing-trial","142","1112870","0.0-11.0-97.0","","","","false","","","","","","","","","","null","","2312.2999999523163","","3","0","null","null","arrowup","[0.325,0.675,0.85,0.15]","",""
"sailing-trial","143","1119638","0.0-11.0-98.0","","","","false","","","","","","","","","","1453.6000000238419","","1201.5","","2","1","arrowright","1","arrowleft","[0.325,0.675,0.85,0.15]","",""
"sailing-trial","144","1122408","0.0-11.0-99.0","","","","false","","","","","","","","","","null","","1027.6000000238419","","3","0","null","null","arrowup","[0.325,0.675,0.85,0.15]","",""
"sailing-trial","145","1126375","0.0-11.0-100.0","","","","false","","","","","","","","","","602.6000000238419","","758.3999999761581","","0","0","arrowleft","0","arrowleft","[0.325,0.675,0.85,0.15]","",""
"sailing-trial","146","1129227","0.0-11.0-101.0","","","","false","","","","","","","","","","null","","1176.2999999523163","","3","0","null","null","arrowup","[0.325,0.675,0.85,0.15]","",""
"sailing-trial","147","1132894","0.0-11.0-102.0","","","","false","","","","","","","","","","597.2999999523163","","239.5","","2","1","arrowright","1","arrowleft","[0.325,0.675,0.85,0.15]","",""
"sailing-trial","148","1136544","0.0-11.0-103.0","","","","false","","","","","","","","","","null","","1440.1999999284744","","2","1","null","null","arrowup","[0.325,0.675,0.85,0.15]","",""
"sailing-trial","149","1151549","0.0-11.0-104.0","","","","true","","","","","","","","","","null","","null","","null","null","null","null","null","[0.85,0.15,0.325,0.675]","",""
"sailing-trial","150","1155738","0.0-11.0-105.0","","","","false","","","","","","","","","","null","","1195.1999999284744","","3","0","null","null","arrowup","[0.85,0.15,0.325,0.675]","",""
"sailing-trial","151","1163522","0.0-11.0-106.0","","","","false","","","","","","","","","","1627.6999999284744","","1393.5","","3","1","arrowright","1","arrowright","[0.85,0.15,0.325,0.675]","",""
"sailing-trial","152","1167323","0.0-11.0-107.0","","","","false","","","","","","","","","","null","","810.8999999761581","","2","0","null","null","arrowup","[0.85,0.15,0.325,0.675]","",""
"sailing-trial","153","1174528","0.0-11.0-108.0","","","","false","","","","","","","","","","1076.3999999761581","","505.39999997615814","","2","1","arrowright","1","arrowleft","[0.85,0.15,0.325,0.675]","",""
"sailing-trial","154","1177130","0.0-11.0-109.0","","","","false","","","","","","","","","","null","","984.8000000715256","","3","0","null","null","arrowup","[0.85,0.15,0.325,0.675]","",""
"sailing-trial","155","1182129","0.0-11.0-110.0","","","","false","","","","","","","","","","1682.1000000238419","","637.6000000238419","","2","0","arrowright","1","arrowleft","[0.85,0.15,0.325,0.675]","",""
"sailing-trial","156","1187908","0.0-11.0-111.0","","","","false","","","","","","","","","","null","","3716.5","","0","0","null","null","arrowup","[0.85,0.15,0.325,0.675]","",""
"sailing-trial","157","1192482","0.0-11.0-112.0","","","","false","","","","","","","","","","1104.8999999761581","","226","","1","1","arrowleft","0","arrowright","[0.85,0.15,0.325,0.675]","",""
"sailing-trial","158","1198704","0.0-11.0-113.0","","","","false","","","","","","","","","","null","","4644.5","","3","0","null","null","arrowup","[0.85,0.15,0.325,0.675]","",""
"sailing-trial","159","1203571","0.0-11.0-114.0","","","","false","","","","","","","","","","1018","","466","","1","1","arrowleft","0","arrowright","[0.85,0.15,0.325,0.675]","",""
"sailing-trial","160","1207319","0.0-11.0-115.0","","","","false","","","","","","","","","","null","","1591.5","","1","0","null","null","arrowup","[0.85,0.15,0.325,0.675]","",""
"sailing-trial","161","1214807","0.0-11.0-116.0","","","","false","","","","","","","","","","2889.399999976158","","813","","1","0","arrowleft","0","arrowright","[0.85,0.15,0.325,0.675]","",""
"sailing-trial","162","1217960","0.0-11.0-117.0","","","","false","","","","","","","","","","null","","1077.2999999523163","","3","1","null","null","arrowup","[0.85,0.15,0.325,0.675]","",""
"sailing-trial","163","1222010","0.0-11.0-118.0","","","","false","","","","","","","","","","1311.8999999761581","","290.2000000476837","","1","0","arrowleft","0","arrowright","[0.85,0.15,0.325,0.675]","",""
"sailing-trial","164","1224829","0.0-11.0-119.0","","","","false","","","","","","","","","","null","","774.5999999046326","","2","1","null","null","arrowup","[0.85,0.15,0.325,0.675]","",""
"sailing-trial","165","1228495","0.0-11.0-120.0","","","","false","","","","","","","","","","1108.8000000715256","","516.8000000715256","","1","0","arrowleft","0","arrowright","[0.675,0.325,0.15,0.85]","",""
"sailing-trial","166","1233214","0.0-11.0-121.0","","","","false","","","","","","","","","","null","","1547.8999999761581","","3","1","null","null","arrowup","[0.675,0.325,0.15,0.85]","",""
"sailing-trial","167","1239150","0.0-11.0-122.0","","","","false","","","","","","","","","","1584.2000000476837","","1234.5","","3","1","arrowright","1","arrowright","[0.675,0.325,0.15,0.85]","",""
"sailing-trial","168","1244002","0.0-11.0-123.0","","","","false","","","","","","","","","","null","","2676.1999999284744","","0","1","null","null","arrowup","[0.675,0.325,0.15,0.85]","",""
"sailing-trial","169","1255524","0.0-11.0-124.0","","","","false","","","","","","","","","","4412.700000047684","","3465.7000000476837","","1","1","arrowleft","0","arrowright","[0.675,0.325,0.15,0.85]","",""
"sailing-trial","170","1259675","0.0-11.0-125.0","","","","false","","","","","","","","","","null","","1073.5","","3","1","null","null","arrowup","[0.675,0.325,0.15,0.85]","",""
"sailing-trial","171","1265511","0.0-11.0-126.0","","","","false","","","","","","","","","","1223.3000000715256","","610.2999999523163","","3","0","arrowright","1","arrowright","[0.675,0.325,0.15,0.85]","",""
"sailing-trial","172","1268229","0.0-11.0-127.0","","","","false","","","","","","","","","","null","","1048.1000000238419","","3","0","null","null","arrowup","[0.675,0.325,0.15,0.85]","",""
"sailing-trial","173","1281483","0.0-11.0-128.0","","","","false","","","","","","","","","","1291.3999999761581","","5288.200000047684","","3","1","arrowright","1","arrowright","[0.675,0.325,0.15,0.85]","",""
"sailing-trial","174","1285860","0.0-11.0-129.0","","","","false","","","","","","","","","","null","","1360.2000000476837","","1","0","null","null","arrowup","[0.675,0.325,0.15,0.85]","",""
"sailing-trial","175","1290602","0.0-11.0-130.0","","","","false","","","","","","","","","","1165.7000000476837","","146.70000004768372","","3","1","arrowright","1","arrowright","[0.675,0.325,0.15,0.85]","",""
"sailing-trial","176","1294402","0.0-11.0-131.0","","","","false","","","","","","","","","","null","","1805.1000000238419","","2","0","null","null","arrowup","[0.675,0.325,0.15,0.85]","",""
"sailing-trial","177","1309407","0.0-11.0-132.0","","","","true","","","","","","","","","","null","","null","","null","null","null","null","null","[0.675,0.325,0.15,0.85]","",""
"sailing-trial","178","1312552","0.0-11.0-133.0","","","","false","","","","","","","","","","null","","1312.8999999761581","","1","0","null","null","arrowup","[0.675,0.325,0.15,0.85]","",""
"sailing-trial","179","1317290","0.0-11.0-134.0","","","","false","","","","","","","","","","1131","","336.2999999523163","","2","0","arrowright","1","arrowleft","[0.675,0.325,0.15,0.85]","",""
"sailing-trial","180","1320296","0.0-11.0-135.0","","","","false","","","","","","","","","","null","","1030.6000000238419","","3","1","null","null","arrowup","[0.675,0.325,0.15,0.85]","",""
"sailing-trial","181","1338318","0.0-11.0-136.0","","","","true","","","","","","","","","","1676.6999999284744","","317.7999999523163","","0","1","arrowleft","0","arrowleft","[0.675,0.325,0.15,0.85]","",""
"sailing-trial","182","1342793","0.0-11.0-137.0","","","","false","","","","","","","","","","null","","2024.1999999284744","","0","0","null","null","arrowup","[0.675,0.325,0.15,0.85]","",""
"sailing-trial","183","1349226","0.0-11.0-138.0","","","","false","","","","","","","","","","1115.6999999284744","","1292","","0","0","arrowleft","0","arrowleft","[0.675,0.325,0.15,0.85]","",""
"sailing-trial","184","1353375","0.0-11.0-139.0","","","","false","","","","","","","","","","null","","1494.5","","1","1","null","null","arrowup","[0.675,0.325,0.15,0.85]","",""
"sailing-trial","185","1364046","0.0-11.0-140.0","","","","false","","","","","","","","","","1817.1000000238419","","4708.100000023842","","1","1","arrowleft","0","arrowright","[0.675,0.325,0.15,0.85]","",""
"sailing-trial","186","1367266","0.0-11.0-141.0","","","","false","","","","","","","","","","null","","1110.6000000238419","","1","1","null","null","arrowup","[0.675,0.325,0.15,0.85]","",""
"sailing-trial","187","1377918","0.0-11.0-142.0","","","","false","","","","","","","","","","1410.8999999761581","","71.60000002384186","","0","1","arrowleft","0","arrowleft","[0.85,0.15,0.325,0.675]","",""
"sailing-trial","188","1386388","0.0-11.0-143.0","","","","false","","","","","","","","","","null","","6282","","2","1","null","null","arrowup","[0.85,0.15,0.325,0.675]","",""
"sailing-trial","189","1402828","0.0-11.0-144.0","","","","false","","","","","","","","","","2202.7999999523163","","8674.300000071526","","0","1","arrowleft","0","arrowleft","[0.85,0.15,0.325,0.675]","",""
"sailing-trial","190","1410914","0.0-11.0-145.0","","","","false","","","","","","","","","","null","","5970.599999904633","","3","1","null","null","arrowup","[0.85,0.15,0.325,0.675]","",""
"sailing-trial","191","1417467","0.0-11.0-146.0","","","","false","","","","","","","","","","1308.7999999523163","","1103.2000000476837","","3","1","arrowright","1","arrowright","[0.85,0.15,0.325,0.675]","",""
"sailing-trial","192","1420478","0.0-11.0-147.0","","","","false","","","","","","","","","","null","","1265.6000000238419","","0","0","null","null","arrowup","[0.85,0.15,0.325,0.675]","",""
"sailing-trial","193","1425903","0.0-11.0-148.0","","","","false","","","","","","","","","","1249.7000000476837","","854.2999999523163","","3","1","arrowright","1","arrowright","[0.85,0.15,0.325,0.675]","",""
"sailing-trial","194","1433140","0.0-11.0-149.0","","","","false","","","","","","","","","","null","","2395.4000000953674","","0","1","null","null","arrowup","[0.85,0.15,0.325,0.675]","",""
"sailing-trial","195","1439291","0.0-11.0-150.0","","","","false","","","","","","","","","","1632.5","","527","","3","0","arrowright","1","arrowright","[0.85,0.15,0.325,0.675]","",""
"sailing-trial","196","1448511","0.0-11.0-151.0","","","","false","","","","","","","","","","null","","7231.5","","0","1","null","null","arrowup","[0.85,0.15,0.325,0.675]","",""
"sailing-trial","197","1454663","0.0-11.0-152.0","","","","false","","","","","","","","","","1291.6000000238419","","1326","","3","0","arrowright","1","arrowright","[0.85,0.15,0.325,0.675]","",""
"sailing-trial","198","1460266","0.0-11.0-153.0","","","","false","","","","","","","","","","null","","1273.5","","2","1","null","null","arrowup","[0.85,0.15,0.325,0.675]","",""
"sailing-trial","199","1473454","0.0-11.0-154.0","","","","false","","","","","","","","","","1327.8999999761581","","4790.299999952316","","3","1","arrowright","1","arrowright","[0.85,0.15,0.325,0.675]","",""
"sailing-trial","200","1477663","0.0-11.0-155.0","","","","false","","","","","","","","","","null","","1570.7999999523163","","2","0","null","null","arrowup","[0.85,0.15,0.325,0.675]","",""
"sailing-trial","201","1483558","0.0-11.0-156.0","","","","false","","","","","","","","","","2348.5","","442.10000002384186","","3","1","arrowright","1","arrowright","[0.85,0.15,0.325,0.675]","",""
"sailing-trial","202","1487743","0.0-11.0-157.0","","","","false","","","","","","","","","","null","","1875.3999999761581","","0","1","null","null","arrowup","[0.85,0.15,0.325,0.675]","",""
"sailing-trial","203","1493615","0.0-11.0-158.0","","","","false","","","","","","","","","","1545.8999999761581","","929","","3","0","arrowright","1","arrowright","[0.15,0.85,0.675,0.325]","",""
"sailing-trial","204","1496128","0.0-11.0-159.0","","","","false","","","","","","","","","","null","","1137.4000000953674","","0","0","null","null","arrowup","[0.15,0.85,0.675,0.325]","",""
"sailing-trial","205","1501247","0.0-11.0-160.0","","","","false","","","","","","","","","","1151.3000000715256","","446.40000009536743","","2","0","arrowright","1","arrowleft","[0.15,0.85,0.675,0.325]","",""
"sailing-trial","206","1506066","0.0-11.0-161.0","","","","false","","","","","","","","","","null","","1535.1000000238419","","2","1","null","null","arrowup","[0.15,0.85,0.675,0.325]","",""
"sailing-trial","207","1515184","0.0-11.0-162.0","","","","false","","","","","","","","","","3943.5","","1142","","2","0","arrowright","1","arrowleft","[0.15,0.85,0.675,0.325]","",""
"sailing-trial","208","1524589","0.0-11.0-163.0","","","","false","","","","","","","","","","null","","7746.299999952316","","3","0","null","null","arrowup","[0.15,0.85,0.675,0.325]","",""
"sailing-trial","209","1529333","0.0-11.0-164.0","","","","false","","","","","","","","","","863.7999999523163","","69","","3","0","arrowright","1","arrowright","[0.15,0.85,0.675,0.325]","",""
"sailing-trial","210","1533861","0.0-11.0-165.0","","","","false","","","","","","","","","","null","","1525.7999999523163","","0","0","null","null","arrowup","[0.15,0.85,0.675,0.325]","",""
"sailing-trial","211","1547281","0.0-11.0-166.0","","","","false","","","","","","","","","","1156.8000000715256","","6870.299999952316","","1","1","arrowleft","0","arrowright","[0.15,0.85,0.675,0.325]","",""
"sailing-trial","212","1550983","0.0-11.0-167.0","","","","false","","","","","","","","","","null","","1006.8000000715256","","1","1","null","null","arrowup","[0.15,0.85,0.675,0.325]","",""
"sailing-trial","213","1557019","0.0-11.0-168.0","","","","false","","","","","","","","","","1048.5999999046326","","942.3999999761581","","0","0","arrowleft","0","arrowleft","[0.15,0.85,0.675,0.325]","",""
"sailing-trial","214","1560971","0.0-11.0-169.0","","","","false","","","","","","","","","","null","","956.3999999761581","","0","0","null","null","arrowup","[0.15,0.85,0.675,0.325]","",""
"sailing-trial","215","1570613","0.0-11.0-170.0","","","","false","","","","","","","","","","5855","","715.6000000238419","","0","0","arrowleft","0","arrowleft","[0.15,0.85,0.675,0.325]","",""
"sailing-trial","216","1580961","0.0-11.0-171.0","","","","false","","","","","","","","","","null","","1569.9000000953674","","1","1","null","null","arrowup","[0.15,0.85,0.675,0.325]","",""
"sailing-trial","217","1592662","0.0-11.0-172.0","","","","false","","","","","","","","","","1265.5","","6423.5","","1","0","arrowleft","0","arrowright","[0.15,0.85,0.675,0.325]","",""
"sailing-trial","218","1601370","0.0-11.0-173.0","","","","false","","","","","","","","","","null","","6616","","1","1","null","null","arrowup","[0.15,0.85,0.675,0.325]","",""
"sailing-trial","219","1606725","0.0-11.0-174.0","","","","false","","","","","","","","","","1588.6999999284744","","625.9000000953674","","0","0","arrowleft","0","arrowleft","[0.15,0.85,0.675,0.325]","",""
"sailing-trial","220","1609871","0.0-11.0-175.0","","","","false","","","","","","","","","","null","","961.2000000476837","","1","1","null","null","arrowup","[0.15,0.85,0.675,0.325]","",""
"sailing-trial","221","1614431","0.0-11.0-176.0","","","","false","","","","","","","","","","1119.7999999523163","","581.8999999761581","","3","0","arrowright","1","arrowright","[0.15,0.85,0.675,0.325]","",""
"sailing-trial","222","1625710","0.0-11.0-177.0","","","","false","","","","","","","","","","null","","9003","","1","1","null","null","arrowup","[0.15,0.85,0.675,0.325]","",""
"sailing-trial","223","1645846","0.0-11.0-178.0","","","","true","","","","","","","","","","5132.599999904633","","null","","null","null","arrowright","1","null","[0.85,0.15,0.325,0.675]","",""
"sailing-trial","224","1649970","0.0-11.0-179.0","","","","false","","","","","","","","","","null","","1580.6000000238419","","0","1","null","null","arrowup","[0.85,0.15,0.325,0.675]","",""
"sailing-trial","225","1664973","0.0-11.0-180.0","","","","true","","","","","","","","","","null","","null","","null","null","null","null","null","[0.85,0.15,0.325,0.675]","",""
"sailing-trial","226","1668609","0.0-11.0-181.0","","","","false","","","","","","","","","","null","","1899.1000000238419","","3","0","null","null","arrowup","[0.85,0.15,0.325,0.675]","",""
"sailing-trial","227","1686866","0.0-11.0-182.0","","","","false","","","","","","","","","","5793","","1128.2999999523163","","0","1","arrowleft","0","arrowleft","[0.85,0.15,0.325,0.675]","",""
"sailing-trial","228","1701870","0.0-11.0-183.0","","","","true","","","","","","","","","","null","","null","","null","null","null","null","null","[0.85,0.15,0.325,0.675]","",""
"sailing-trial","229","1723755","0.0-11.0-184.0","","","","true","","","","","","","","","","4515.099999904633","","1346.2000000476837","","0","1","arrowleft","0","arrowleft","[0.85,0.15,0.325,0.675]","",""
"sailing-trial","230","1729799","0.0-11.0-185.0","","","","false","","","","","","","","","","null","","2974.600000023842","","0","1","null","null","arrowup","[0.85,0.15,0.325,0.675]","",""
"sailing-trial","231","1736017","0.0-11.0-186.0","","","","false","","","","","","","","","","1365.7000000476837","","1212.8000000715256","","0","1","arrowleft","0","arrowleft","[0.85,0.15,0.325,0.675]","",""
"sailing-trial","232","1741154","0.0-11.0-187.0","","","","false","","","","","","","","","","null","","2135.6999999284744","","2","0","null","null","arrowup","[0.85,0.15,0.325,0.675]","",""
"sailing-trial","233","1745705","0.0-11.0-188.0","","","","false","","","","","","","","","","1309.5","","193.10000002384186","","0","1","arrowleft","0","arrowleft","[0.85,0.15,0.325,0.675]","",""
"sailing-trial","234","1749290","0.0-11.0-189.0","","","","false","","","","","","","","","","null","","1342.6000000238419","","1","1","null","null","arrowup","[0.85,0.15,0.325,0.675]","",""
"sailing-trial","235","1754535","0.0-11.0-190.0","","","","false","","","","","","","","","","1160.6000000238419","","1466.7999999523163","","0","0","arrowleft","0","arrowleft","[0.85,0.15,0.325,0.675]","",""
"sailing-trial","236","1757793","0.0-11.0-191.0","","","","false","","","","","","","","","","null","","1186.1999999284744","","1","1","null","null","arrowup","[0.85,0.15,0.325,0.675]","",""
"sailing-trial","237","1763412","0.0-11.0-192.0","","","","false","","","","","","","","","","733","","808.2999999523163","","2","0","arrowright","1","arrowleft","[0.85,0.15,0.325,0.675]","",""
"sailing-trial","238","1767498","0.0-11.0-193.0","","","","false","","","","","","","","","","null","","1067.5999999046326","","1","0","null","null","arrowup","[0.85,0.15,0.325,0.675]","",""
"sailing-trial","239","1772831","0.0-11.0-194.0","","","","false","","","","","","","","","","1261.1000000238419","","975.1999999284744","","3","1","arrowright","1","arrowright","[0.85,0.15,0.325,0.675]","",""
"sailing-trial","240","1777485","0.0-11.0-195.0","","","","false","","","","","","","","","","null","","2377.2000000476837","","3","1","null","null","arrowup","[0.85,0.15,0.325,0.675]","",""
"sailing-trial","241","1786969","0.0-11.0-196.0","","","","false","","","","","","","","","","1627.7000000476837","","3818.7000000476837","","3","0","arrowright","1","arrowright","[0.325,0.675,0.85,0.15]","",""
"sailing-trial","242","1792822","0.0-11.0-197.0","","","","false","","","","","","","","","","null","","2684.7000000476837","","2","1","null","null","arrowup","[0.325,0.675,0.85,0.15]","",""
"sailing-trial","243","1813577","0.0-11.0-198.0","","","","true","","","","","","","","","","5751.600000023842","","null","","null","null","arrowright","1","null","[0.325,0.675,0.85,0.15]","",""
"sailing-trial","244","1818082","0.0-11.0-199.0","","","","false","","","","","","","","","","null","","1512","","2","0","null","null","arrowup","[0.325,0.675,0.85,0.15]","",""
"sailing-trial","245","1829370","0.0-11.0-200.0","","","","false","","","","","","","","","","6644.799999952316","","607.1000000238419","","3","0","arrowright","1","arrowright","[0.325,0.675,0.85,0.15]","",""
"sailing-trial","246","1842057","0.0-11.0-201.0","","","","false","","","","","","","","","","null","","9698.100000023842","","3","0","null","null","arrowup","[0.325,0.675,0.85,0.15]","",""
"sailing-trial","247","1849795","0.0-11.0-202.0","","","","false","","","","","","","","","","2858","","867.7000000476837","","3","0","arrowright","1","arrowright","[0.325,0.675,0.85,0.15]","",""
"sailing-trial","248","1853694","0.0-11.0-203.0","","","","false","","","","","","","","","","null","","904.3000000715256","","3","0","null","null","arrowup","[0.325,0.675,0.85,0.15]","",""
"sailing-trial","249","1862664","0.0-11.0-204.0","","","","false","","","","","","","","","","4248.299999952316","","719.5","","3","0","arrowright","1","arrowright","[0.325,0.675,0.85,0.15]","",""
"sailing-trial","250","1872168","0.0-11.0-205.0","","","","false","","","","","","","","","","null","","6499.899999976158","","2","0","null","null","arrowup","[0.325,0.675,0.85,0.15]","",""
"sailing-trial","251","1878820","0.0-11.0-206.0","","","","false","","","","","","","","","","1283.3000000715256","","1331.3000000715256","","3","0","arrowright","1","arrowright","[0.325,0.675,0.85,0.15]","",""
"sailing-trial","252","1891093","0.0-11.0-207.0","","","","false","","","","","","","","","","null","","9090.899999976158","","3","1","null","null","arrowup","[0.325,0.675,0.85,0.15]","",""
"sailing-trial","253","1897695","0.0-11.0-208.0","","","","false","","","","","","","","","","1825.4000000953674","","745.8999999761581","","3","0","arrowright","1","arrowright","[0.325,0.675,0.85,0.15]","",""
"sailing-trial","254","1905398","0.0-11.0-209.0","","","","false","","","","","","","","","","null","","6159.399999976158","","2","1","null","null","arrowup","[0.325,0.675,0.85,0.15]","",""
"sailing-trial","255","1923667","0.0-11.0-210.0","","","","true","","","","","","","","","","3266.2000000476837","","null","","null","null","arrowleft","0","null","[0.325,0.675,0.85,0.15]","",""
"sailing-trial","256","1929139","0.0-11.0-211.0","","","","false","","","","","","","","","","null","","2478.8000000715256","","3","0","null","null","arrowup","[0.325,0.675,0.85,0.15]","",""
"sailing-trial","257","1944144","0.0-11.0-212.0","","","","true","","","","[{""event"":""fullscreenenter"",""trial"":3,""time"":12861},{""event"":""blur"",""trial"":258,""time"":1957583},{""event"":""focus"",""trial"":258,""time"":1957587},{""event"":""fullscreenexit"",""trial"":258,""time"":1957598},{""event"":""blur"",""trial"":258,""time"":1993442},{""event"":""focus"",""trial"":258,""time"":1993457}]","false","","","","","null","","null","","null","null","null","null","null","[0.325,0.675,0.85,0.15]","",""
