"trial_type","trial_index","time_elapsed","internal_node_id","value","metadata","success","timeout","failed_images","failed_audio","failed_video","browser_interaction","low_quality","rt","stimulus","response","button_pressed","island_rt","island_response","boat_rt","boat_response","boat","reward","island_key","island","boat_key","reward_probabilities","responses","num_errors","view_history"
"pavlovia","0","14","0.0-0.0","","","","","","","","","","","","","","","","","","","","","","","","","",""
"call-function","1","17","0.0-1.0","","{""task_version"":""sr_pilot_v2"",""task_condition"":""good"",""boats"":[""A"",""C"",""B"",""D""],""boats_demo"":[""H"",""F"",""E"",""G""],""islands"":[""A"",""B""],""subject_id"":""13963"",""age"":""18"",""gender"":""Female""}","","","","","","","","","","","","","","","","","","","","","","","",""
"preload","2","2065","0.0-2.0","","","true","false","[]","[]","[]","[{""event"":""fullscreenenter"",""trial"":3,""time"":4307}]","false","","","","","","","","","","","","","","","","",""
"fullscreen","3","5271","0.0-3.0","","","true","","","","","","","","","","","","","","","","","","","","","","",""
"audio-keyboard-response","4","7310","0.0-4.0-0.0","","","","","","","","","","2026.6666666666663","audio/beep_loop.wav"," ","","","","","","","","","","","","","",""
"audio-test","5","8992","0.0-4.0-1.0","","","","","","","","","","null","audio/turtle.mp3","","3","","","","","","","","","","","","",""
"audio-test","6","11264","0.0-4.0-2.0","","","","","","","","","","null","audio/shark.mp3","","2","","","","","","","","","","","","",""
"sailing-instructions","7","43019","0.0-5.0-0.0-0.0","","","","","","","","","","","","","","null","null","null","null","null","null","","","","","","",""
"sailing-trial","8","46853","0.0-5.0-0.0-1.0-0.0","","","","false","","","","","","","","","","2702.399999999907","","null","","null","null","arrowleft","0","null","null","","",""
"sailing-trial","9","49106","0.0-5.0-0.0-1.0-1.0","","","","false","","","","","","","","","","1128.6999999999534","","null","","null","null","arrowright","1","null","null","","",""
"sailing-trial","10","51036","0.0-5.0-0.0-1.0-2.0","","","","false","","","","","","","","","","824.1999999999534","","null","","null","null","arrowleft","0","null","null","","",""
"sailing-instructions","11","92615","0.0-5.0-0.0-2.0","","","","","","","","","","","","","","null","null","null","null","0","null","","","","","","",""
"sailing-trial","12","96860","0.0-5.0-0.0-3.0-0.0","","","","false","","","","","","","","","","null","","1390.6000000000931","","2","1","null","null","arrowleft","[1,1,1,1]","","",""
"sailing-trial","13","100564","0.0-5.0-0.0-3.0-1.0","","","","false","","","","","","","","","","null","","1172.8000000000466","","3","1","null","null","arrowright","[1,1,1,1]","","",""
"sailing-trial","14","103049","0.0-5.0-0.0-3.0-2.0","","","","false","","","","","","","","","","null","","799.1999999999534","","2","0","null","null","arrowleft","[0,0,0,0]","","",""
"sailing-instructions","15","110536","0.0-5.0-0.0-4.0","","","","","","","","","","","","","","null","null","null","null","null","null","","","","","","",""
"sailing-comprehension","16","138399","0.0-5.0-0.0-5.0","","","","","","","","","","18264.899999999907","","","","","","","","","","","","","","[""true"",""true"",""false"",""true""]","0",""
"sailing-instructions","17","201600","0.0-6.0-0.0-0.0","","","","","","","","","","","","","","null","null","null","null","null","null","","","","","","",""
"sailing-comprehension","18","226799","0.0-6.0-0.0-1.0","","","","","","","","","","22412.59999999986","","","","","","","","","","","","","","[""true"",""false"",""true""]","0",""
"sailing-instructions","19","240641","0.0-7.0-0.0-0.0","","","","","","","","","","","","","","null","null","null","null","null","null","","","","","","",""
"sailing-trial","20","247332","0.0-7.0-0.0-1.0-0.0","","","","false","","","","","","","","","","null","","3672.100000000093","","0","0","null","null","arrowup","[0.2,0.8,0.2,0.8]","","",""
"sailing-trial","21","250614","0.0-7.0-0.0-1.0-1.0","","","","false","","","","","","","","","","null","","1039.5","","1","1","null","null","arrowup","[0.2,0.8,0.2,0.8]","","",""
"sailing-trial","22","253366","0.0-7.0-0.0-1.0-2.0","","","","false","","","","","","","","","","null","","826.1000000000931","","2","1","null","null","arrowup","[0.2,0.8,0.2,0.8]","","",""
"sailing-trial","23","255766","0.0-7.0-0.0-1.0-3.0","","","","false","","","","","","","","","","null","","564.9000000001397","","3","1","null","null","arrowup","[0.2,0.8,0.2,0.8]","","",""
"sailing-comprehension","24","271556","0.0-7.0-0.0-2.0","","","","","","","","","","14389.699999999953","","","","","","","","","","","","","","[""false""]","0",""
"sailing-instructions","25","282299","0.0-8.0-0.0-0.0","","","","","","","","","","","","","","null","null","null","null","null","null","","","","","","",""
"sailing-comprehension","26","287124","0.0-8.0-0.0-1.0","","","","","","","","","","3691.5999999998603","","","","","","","","","","","","","","[""true""]","0",""
"sailing-instructions","27","318297","0.0-9.0-0.0-0.0","","","","","","","","","","","","","","null","null","null","null","null","null","","","","","","",""
"sailing-trial","28","323550","0.0-9.0-0.0-1.0-0.0","","","","false","","","","","","","","","","1011","","215.30000000004657","","2","0","arrowright","1","arrowleft","[0.2,0.8,0.2,0.8]","","",""
"sailing-trial","29","327365","0.0-9.0-0.0-1.0-1.0","","","","false","","","","","","","","","","959.0999999998603","","73.5999999998603","","1","1","arrowleft","0","arrowright","[0.2,0.8,0.2,0.8]","","",""
"sailing-trial","30","330518","0.0-9.0-0.0-1.0-2.0","","","","false","","","","","","","","","","null","","1130.8000000000466","","0","1","null","null","arrowup","[0.2,0.8,0.2,0.8]","","",""
"sailing-trial","31","334971","0.0-9.0-0.0-1.0-3.0","","","","false","","","","","","","","","","851.0999999998603","","546.6999999999534","","3","1","arrowright","1","arrowright","[0.2,0.8,0.2,0.8]","","",""
"sailing-trial","32","338689","0.0-9.0-0.0-1.0-4.0","","","","false","","","","","","","","","","null","","983","","3","0","null","null","arrowup","[0.2,0.8,0.2,0.8]","","",""
"sailing-trial","33","343900","0.0-9.0-0.0-1.0-5.0","","","","false","","","","","","","","","","734.6000000000931","","582.7000000001863","","0","0","arrowleft","0","arrowleft","[0.2,0.8,0.2,0.8]","","",""
"sailing-instructions","34","372097","0.0-10.0","","","","","","","","","","","","","","null","null","null","null","null","null","","","","","","",""
"sailing-trial","35","376771","0.0-11.0-0.0","","","","false","","","","","","","","","","1016.1000000000931","","20.5","","3","0","arrowright","1","arrowright","[0.675,0.325,0.85,0.15]","","",""
"sailing-trial","36","379506","0.0-11.0-1.0","","","","false","","","","","","","","","","null","","956.6999999999534","","2","1","null","null","arrowup","[0.675,0.325,0.85,0.15]","","",""
"sailing-trial","37","384026","0.0-11.0-2.0","","","","false","","","","","","","","","","643.5","","436.5","","0","1","arrowleft","0","arrowleft","[0.675,0.325,0.85,0.15]","","",""
"sailing-trial","38","387881","0.0-11.0-3.0","","","","false","","","","","","","","","","null","","977.1000000000931","","0","0","null","null","arrowup","[0.675,0.325,0.85,0.15]","","",""
"sailing-trial","39","393466","0.0-11.0-4.0","","","","false","","","","","","","","","","1421.4000000001397","","223.30000000004657","","3","0","arrowright","1","arrowright","[0.675,0.325,0.85,0.15]","","",""
"sailing-trial","40","395863","0.0-11.0-5.0","","","","false","","","","","","","","","","null","","572.1000000000931","","0","1","null","null","arrowup","[0.675,0.325,0.85,0.15]","","",""
"sailing-trial","41","400314","0.0-11.0-6.0","","","","false","","","","","","","","","","1004.0999999998603","","376.39999999990687","","2","1","arrowright","1","arrowleft","[0.675,0.325,0.85,0.15]","","",""
"sailing-trial","42","403272","0.0-11.0-7.0","","","","false","","","","","","","","","","null","","826.6000000000931","","1","0","null","null","arrowup","[0.675,0.325,0.85,0.15]","","",""
"sailing-trial","43","406932","0.0-11.0-8.0","","","","false","","","","","","","","","","573.6000000000931","","313.80000000004657","","0","0","arrowleft","0","arrowleft","[0.675,0.325,0.85,0.15]","","",""
"sailing-trial","44","409652","0.0-11.0-9.0","","","","false","","","","","","","","","","null","","924.5999999998603","","1","1","null","null","arrowup","[0.675,0.325,0.85,0.15]","","",""
"sailing-trial","45","413740","0.0-11.0-10.0","","","","false","","","","","","","","","","632.1000000000931","","413.80000000004657","","1","1","arrowleft","0","arrowright","[0.675,0.325,0.85,0.15]","","",""
"sailing-trial","46","415881","0.0-11.0-11.0","","","","false","","","","","","","","","","null","","649.8000000000466","","1","0","null","null","arrowup","[0.675,0.325,0.85,0.15]","","",""
"sailing-trial","47","419524","0.0-11.0-12.0","","","","false","","","","","","","","","","559.6999999999534","","88.69999999995343","","2","1","arrowright","1","arrowleft","[0.675,0.325,0.85,0.15]","","",""
"sailing-trial","48","422325","0.0-11.0-13.0","","","","false","","","","","","","","","","null","","968","","2","1","null","null","arrowup","[0.675,0.325,0.85,0.15]","","",""
"sailing-trial","49","426345","0.0-11.0-14.0","","","","false","","","","","","","","","","684.5999999998603","","405.5","","0","1","arrowleft","0","arrowleft","[0.675,0.325,0.85,0.15]","","",""
"sailing-trial","50","428743","0.0-11.0-15.0","","","","false","","","","","","","","","","null","","594.4000000001397","","2","1","null","null","arrowup","[0.675,0.325,0.85,0.15]","","",""
"sailing-trial","51","433364","0.0-11.0-16.0","","","","false","","","","","","","","","","1189.5999999998603","","273.0999999998603","","2","1","arrowright","1","arrowleft","[0.675,0.325,0.85,0.15]","","",""
"sailing-trial","52","436316","0.0-11.0-17.0","","","","false","","","","","","","","","","null","","1401.1999999999534","","1","0","null","null","arrowup","[0.675,0.325,0.85,0.15]","","",""
"sailing-trial","53","440086","0.0-11.0-18.0","","","","false","","","","","","","","","","603.0999999998603","","344.69999999995343","","2","1","arrowright","1","arrowleft","[0.85,0.15,0.675,0.325]","","",""
"sailing-trial","54","442484","0.0-11.0-19.0","","","","false","","","","","","","","","","null","","676.3999999999069","","3","0","null","null","arrowup","[0.85,0.15,0.675,0.325]","","",""
"sailing-trial","55","446373","0.0-11.0-20.0","","","","false","","","","","","","","","","826.8000000000466","","155.39999999990687","","0","1","arrowleft","0","arrowleft","[0.85,0.15,0.675,0.325]","","",""
"sailing-trial","56","448822","0.0-11.0-21.0","","","","false","","","","","","","","","","null","","642.3999999999069","","0","1","null","null","arrowup","[0.85,0.15,0.675,0.325]","","",""
"sailing-trial","57","452572","0.0-11.0-22.0","","","","false","","","","","","","","","","568.5","","4.800000000046566","","0","1","arrowleft","0","arrowleft","[0.85,0.15,0.675,0.325]","","",""
"sailing-trial","58","455264","0.0-11.0-23.0","","","","false","","","","","","","","","","null","","948.8999999999069","","3","0","null","null","arrowup","[0.85,0.15,0.675,0.325]","","",""
"sailing-trial","59","459043","0.0-11.0-24.0","","","","false","","","","","","","","","","731.8000000000466","","157.89999999990687","","0","1","arrowleft","0","arrowleft","[0.85,0.15,0.675,0.325]","","",""
"sailing-trial","60","461711","0.0-11.0-25.0","","","","false","","","","","","","","","","null","","836.6000000000931","","0","1","null","null","arrowup","[0.85,0.15,0.675,0.325]","","",""
"sailing-trial","61","465212","0.0-11.0-26.0","","","","false","","","","","","","","","","575.7000000001863","","116.5999999998603","","0","0","arrowleft","0","arrowleft","[0.85,0.15,0.675,0.325]","","",""
"sailing-trial","62","467663","0.0-11.0-27.0","","","","false","","","","","","","","","","null","","879.5","","3","0","null","null","arrowup","[0.85,0.15,0.675,0.325]","","",""
"sailing-trial","63","472233","0.0-11.0-28.0","","","","false","","","","","","","","","","1339","","347.80000000004657","","2","1","arrowright","1","arrowleft","[0.85,0.15,0.675,0.325]","","",""
"sailing-trial","64","474805","0.0-11.0-29.0","","","","false","","","","","","","","","","null","","732.6999999999534","","0","1","null","null","arrowup","[0.85,0.15,0.675,0.325]","","",""
"sailing-trial","65","480656","0.0-11.0-30.0","","","","false","","","","","","","","","","2718.899999999907","","227.69999999995343","","2","1","arrowright","1","arrowleft","[0.85,0.15,0.675,0.325]","","",""
"sailing-trial","66","483301","0.0-11.0-31.0","","","","false","","","","","","","","","","null","","826.5","","2","1","null","null","arrowup","[0.85,0.15,0.675,0.325]","","",""
"sailing-trial","67","487548","0.0-11.0-32.0","","","","false","","","","","","","","","","1212.8000000000466","","174.5999999998603","","2","0","arrowright","1","arrowleft","[0.85,0.15,0.675,0.325]","","",""
"sailing-trial","68","490125","0.0-11.0-33.0","","","","false","","","","","","","","","","null","","674.1999999999534","","0","1","null","null","arrowup","[0.85,0.15,0.675,0.325]","","",""
"sailing-trial","69","494161","0.0-11.0-34.0","","","","false","","","","","","","","","","716.6000000000931","","365.9000000001397","","3","1","arrowright","1","arrowright","[0.85,0.15,0.675,0.325]","","",""
"sailing-trial","70","496712","0.0-11.0-35.0","","","","false","","","","","","","","","","null","","758.5","","2","1","null","null","arrowup","[0.85,0.15,0.675,0.325]","","",""
"sailing-trial","71","499978","0.0-11.0-36.0","","","","false","","","","","","","","","","590.1000000000931","","159.60000000009313","","3","0","arrowright","1","arrowright","[0.85,0.15,0.675,0.325]","","",""
"sailing-trial","72","502198","0.0-11.0-37.0","","","","false","","","","","","","","","","null","","851.1999999999534","","3","0","null","null","arrowup","[0.85,0.15,0.675,0.325]","","",""
"sailing-trial","73","506048","0.0-11.0-38.0","","","","false","","","","","","","","","","746.5999999998603","","55.0999999998603","","1","1","arrowleft","0","arrowright","[0.15,0.85,0.325,0.675]","","",""
"sailing-trial","74","508317","0.0-11.0-39.0","","","","false","","","","","","","","","","null","","467.9000000001397","","0","1","null","null","arrowup","[0.15,0.85,0.325,0.675]","","",""
"sailing-trial","75","511683","0.0-11.0-40.0","","","","false","","","","","","","","","","559.5","","8.5","","2","1","arrowright","1","arrowleft","[0.15,0.85,0.325,0.675]","","",""
"sailing-trial","76","514400","0.0-11.0-41.0","","","","false","","","","","","","","","","null","","886","","1","1","null","null","arrowup","[0.15,0.85,0.325,0.675]","","",""
"sailing-trial","77","517587","0.0-11.0-42.0","","","","false","","","","","","","","","","548.5","","110","","0","0","arrowleft","0","arrowleft","[0.15,0.85,0.325,0.675]","","",""
"sailing-trial","78","519701","0.0-11.0-43.0","","","","false","","","","","","","","","","null","","546.5","","0","0","null","null","arrowup","[0.15,0.85,0.325,0.675]","","",""
"sailing-trial","79","523322","0.0-11.0-44.0","","","","false","","","","","","","","","","613.6999999999534","","146","","1","1","arrowleft","0","arrowright","[0.15,0.85,0.325,0.675]","","",""
"sailing-trial","80","525577","0.0-11.0-45.0","","","","false","","","","","","","","","","null","","648.1999999999534","","2","0","null","null","arrowup","[0.15,0.85,0.325,0.675]","","",""
"sailing-trial","81","530194","0.0-11.0-46.0","","","","false","","","","","","","","","","676.5","","389.39999999990687","","2","0","arrowright","1","arrowleft","[0.15,0.85,0.325,0.675]","","",""
"sailing-trial","82","532426","0.0-11.0-47.0","","","","false","","","","","","","","","","null","","798.4000000001397","","2","0","null","null","arrowup","[0.15,0.85,0.325,0.675]","","",""
"sailing-trial","83","535867","0.0-11.0-48.0","","","","false","","","","","","","","","","583.8999999999069","","71.30000000004657","","3","0","arrowright","1","arrowright","[0.15,0.85,0.325,0.675]","","",""
"sailing-trial","84","538483","0.0-11.0-49.0","","","","false","","","","","","","","","","null","","933.5","","0","0","null","null","arrowup","[0.15,0.85,0.325,0.675]","","",""
"sailing-trial","85","542063","0.0-11.0-50.0","","","","false","","","","","","","","","","500.30000000004657","","93.29999999981374","","1","1","arrowleft","0","arrowright","[0.15,0.85,0.325,0.675]","","",""
"sailing-trial","86","544696","0.0-11.0-51.0","","","","false","","","","","","","","","","null","","847.6000000000931","","1","1","null","null","arrowup","[0.15,0.85,0.325,0.675]","","",""
"sailing-trial","87","550303","0.0-11.0-52.0","","","","false","","","","","","","","","","1294.3000000000466","","296.10000000009313","","1","0","arrowleft","0","arrowright","[0.15,0.85,0.325,0.675]","","",""
"sailing-trial","88","552904","0.0-11.0-53.0","","","","false","","","","","","","","","","null","","625.5","","3","1","null","null","arrowup","[0.15,0.85,0.325,0.675]","","",""
"sailing-trial","89","556837","0.0-11.0-54.0","","","","false","","","","","","","","","","554.8000000000466","","402.69999999995343","","3","1","arrowright","1","arrowright","[0.325,0.675,0.15,0.85]","","",""
"sailing-trial","90","559653","0.0-11.0-55.0","","","","false","","","","","","","","","","null","","925.3000000000466","","3","1","null","null","arrowup","[0.325,0.675,0.15,0.85]","","",""
"sailing-trial","91","563378","0.0-11.0-56.0","","","","false","","","","","","","","","","609.1999999999534","","123.80000000004657","","0","1","arrowleft","0","arrowleft","[0.325,0.675,0.15,0.85]","","",""
"sailing-trial","92","566111","0.0-11.0-57.0","","","","false","","","","","","","","","","null","","1007.6000000000931","","0","0","null","null","arrowup","[0.325,0.675,0.15,0.85]","","",""
"sailing-trial","93","569553","0.0-11.0-58.0","","","","false","","","","","","","","","","1012.5999999998603","","208.10000000009313","","2","0","arrowright","1","arrowleft","[0.325,0.675,0.15,0.85]","","",""
"sailing-trial","94","572260","0.0-11.0-59.0","","","","false","","","","","","","","","","null","","985.5","","2","0","null","null","arrowup","[0.325,0.675,0.15,0.85]","","",""
"sailing-trial","95","575912","0.0-11.0-60.0","","","","false","","","","","","","","","","612.6999999999534","","34.300000000046566","","3","1","arrowright","1","arrowright","[0.325,0.675,0.15,0.85]","","",""
"sailing-trial","96","578271","0.0-11.0-61.0","","","","false","","","","","","","","","","null","","894.0999999998603","","1","0","null","null","arrowup","[0.325,0.675,0.15,0.85]","","",""
"sailing-trial","97","581965","0.0-11.0-62.0","","","","false","","","","","","","","","","536.2000000001863","","103.60000000009313","","0","1","arrowleft","0","arrowleft","[0.325,0.675,0.15,0.85]","","",""
"sailing-trial","98","584392","0.0-11.0-63.0","","","","false","","","","","","","","","","null","","851.1000000000931","","2","0","null","null","arrowup","[0.325,0.675,0.15,0.85]","","",""
"sailing-trial","99","588169","0.0-11.0-64.0","","","","false","","","","","","","","","","587.3000000000466","","132.30000000004657","","3","1","arrowright","1","arrowright","[0.325,0.675,0.15,0.85]","","",""
"sailing-trial","100","591038","0.0-11.0-65.0","","","","false","","","","","","","","","","null","","795.7000000001863","","2","0","null","null","arrowup","[0.325,0.675,0.15,0.85]","","",""
"sailing-trial","101","594330","0.0-11.0-66.0","","","","false","","","","","","","","","","572.2999999998137","","336.69999999995343","","0","0","arrowleft","0","arrowleft","[0.325,0.675,0.15,0.85]","","",""
"sailing-trial","102","596474","0.0-11.0-67.0","","","","false","","","","","","","","","","null","","771.8999999999069","","2","0","null","null","arrowup","[0.325,0.675,0.15,0.85]","","",""
"sailing-trial","103","600772","0.0-11.0-68.0","","","","false","","","","","","","","","","943.1000000000931","","461.30000000004657","","1","1","arrowleft","0","arrowright","[0.325,0.675,0.15,0.85]","","",""
"sailing-trial","104","603429","0.0-11.0-69.0","","","","false","","","","","","","","","","null","","1001.1999999999534","","3","1","null","null","arrowup","[0.325,0.675,0.15,0.85]","","",""
"sailing-trial","105","607279","0.0-11.0-70.0","","","","false","","","","","","","","","","494","","384.30000000004657","","3","1","arrowright","1","arrowright","[0.325,0.675,0.15,0.85]","","",""
"sailing-trial","106","609563","0.0-11.0-71.0","","","","false","","","","","","","","","","null","","730.5","","0","0","null","null","arrowup","[0.325,0.675,0.15,0.85]","","",""
"sailing-trial","107","613563","0.0-11.0-72.0","","","","false","","","","","","","","","","571.9000000001397","","430.69999999995343","","1","1","arrowleft","0","arrowright","[0.325,0.675,0.15,0.85]","","",""
"sailing-trial","108","616098","0.0-11.0-73.0","","","","false","","","","","","","","","","null","","685","","1","1","null","null","arrowup","[0.325,0.675,0.15,0.85]","","",""
"sailing-trial","109","620065","0.0-11.0-74.0","","","","false","","","","","","","","","","584.2000000001863","","384.39999999990687","","3","1","arrowright","1","arrowright","[0.15,0.85,0.325,0.675]","","",""
"sailing-trial","110","623766","0.0-11.0-75.0","","","","false","","","","","","","","","","null","","845.3000000000466","","0","0","null","null","arrowup","[0.15,0.85,0.325,0.675]","","",""
"sailing-trial","111","628091","0.0-11.0-76.0","","","","false","","","","","","","","","","541.9000000001397","","301.89999999990687","","1","0","arrowleft","0","arrowright","[0.15,0.85,0.325,0.675]","","",""
"sailing-trial","112","630678","0.0-11.0-77.0","","","","false","","","","","","","","","","null","","814.3999999999069","","2","0","null","null","arrowup","[0.15,0.85,0.325,0.675]","","",""
"sailing-trial","113","635454","0.0-11.0-78.0","","","","false","","","","","","","","","","685.8999999999069","","54.199999999953434","","3","0","arrowright","1","arrowright","[0.15,0.85,0.325,0.675]","","",""
"sailing-trial","114","637714","0.0-11.0-79.0","","","","false","","","","","","","","","","null","","786.8999999999069","","3","0","null","null","arrowup","[0.15,0.85,0.325,0.675]","","",""
"sailing-trial","115","641646","0.0-11.0-80.0","","","","false","","","","","","","","","","1091.8999999999069","","292","","2","0","arrowright","1","arrowleft","[0.15,0.85,0.325,0.675]","","",""
"sailing-trial","116","644528","0.0-11.0-81.0","","","","false","","","","","","","","","","null","","1033.0999999998603","","3","1","null","null","arrowup","[0.15,0.85,0.325,0.675]","","",""
"sailing-trial","117","647854","0.0-11.0-82.0","","","","false","","","","","","","","","","611.3000000000466","","77.5","","0","0","arrowleft","0","arrowleft","[0.15,0.85,0.325,0.675]","","",""
"sailing-trial","118","650121","0.0-11.0-83.0","","","","false","","","","","","","","","","null","","792.7000000001863","","0","0","null","null","arrowup","[0.15,0.85,0.325,0.675]","","",""
"sailing-trial","119","654136","0.0-11.0-84.0","","","","false","","","","","","","","","","984.3000000000466","","342.30000000004657","","1","0","arrowleft","0","arrowright","[0.15,0.85,0.325,0.675]","","",""
"sailing-trial","120","656933","0.0-11.0-85.0","","","","false","","","","","","","","","","null","","803.5","","0","1","null","null","arrowup","[0.15,0.85,0.325,0.675]","","",""
"sailing-trial","121","661118","0.0-11.0-86.0","","","","false","","","","","","","","","","602.6000000000931","","600.6999999999534","","3","0","arrowright","1","arrowright","[0.15,0.85,0.325,0.675]","","",""
"sailing-trial","122","664052","0.0-11.0-87.0","","","","false","","","","","","","","","","null","","975.1999999999534","","1","1","null","null","arrowup","[0.15,0.85,0.325,0.675]","","",""
"sailing-trial","123","668005","0.0-11.0-88.0","","","","false","","","","","","","","","","843.3000000000466","","239.60000000009313","","2","1","arrowright","1","arrowleft","[0.15,0.85,0.325,0.675]","","",""
"sailing-trial","124","671772","0.0-11.0-89.0","","","","false","","","","","","","","","","null","","1122.0999999998603","","0","0","null","null","arrowup","[0.15,0.85,0.325,0.675]","","",""
"sailing-trial","125","677127","0.0-11.0-90.0","","","","false","","","","","","","","","","2068.5","","231.30000000004657","","1","1","arrowleft","0","arrowright","[0.15,0.85,0.325,0.675]","","",""
"sailing-trial","126","680958","0.0-11.0-91.0","","","","false","","","","","","","","","","null","","1043.6999999999534","","3","0","null","null","arrowup","[0.15,0.85,0.325,0.675]","","",""
"sailing-trial","127","684677","0.0-11.0-92.0","","","","false","","","","","","","","","","663","","170.19999999995343","","1","1","arrowleft","0","arrowright","[0.15,0.85,0.325,0.675]","","",""
"sailing-trial","128","687413","0.0-11.0-93.0","","","","false","","","","","","","","","","null","","885.4000000001397","","1","1","null","null","arrowup","[0.15,0.85,0.325,0.675]","","",""
"sailing-trial","129","691148","0.0-11.0-94.0","","","","false","","","","","","","","","","1087.8000000000466","","148.60000000009313","","2","0","arrowright","1","arrowleft","[0.15,0.85,0.325,0.675]","","",""
"sailing-trial","130","693702","0.0-11.0-95.0","","","","false","","","","","","","","","","null","","727.6999999999534","","3","1","null","null","arrowup","[0.15,0.85,0.325,0.675]","","",""
"sailing-trial","131","697800","0.0-11.0-96.0","","","","false","","","","","","","","","","568.2000000001863","","276.5","","3","1","arrowright","1","arrowright","[0.15,0.85,0.325,0.675]","","",""
"sailing-trial","132","700719","0.0-11.0-97.0","","","","false","","","","","","","","","","null","","958.7999999998137","","1","1","null","null","arrowup","[0.15,0.85,0.325,0.675]","","",""
"sailing-trial","133","704988","0.0-11.0-98.0","","","","false","","","","","","","","","","593.3000000000466","","448.5","","3","1","arrowright","1","arrowright","[0.325,0.675,0.15,0.85]","","",""
"sailing-trial","134","707459","0.0-11.0-99.0","","","","false","","","","","","","","","","null","","642","","1","1","null","null","arrowup","[0.325,0.675,0.15,0.85]","","",""
"sailing-trial","135","711879","0.0-11.0-100.0","","","","false","","","","","","","","","","924.1000000000931","","64.19999999995343","","2","0","arrowright","1","arrowleft","[0.325,0.675,0.15,0.85]","","",""
"sailing-trial","136","715544","0.0-11.0-101.0","","","","false","","","","","","","","","","null","","640.3000000000466","","2","0","null","null","arrowup","[0.325,0.675,0.15,0.85]","","",""
"sailing-trial","137","719227","0.0-11.0-102.0","","","","false","","","","","","","","","","459.39999999990687","","141.19999999995343","","1","1","arrowleft","0","arrowright","[0.325,0.675,0.15,0.85]","","",""
"sailing-trial","138","722112","0.0-11.0-103.0","","","","false","","","","","","","","","","null","","1053.2999999998137","","1","1","null","null","arrowup","[0.325,0.675,0.15,0.85]","","",""
"sailing-trial","139","725745","0.0-11.0-104.0","","","","false","","","","","","","","","","704.5","","391.79999999981374","","1","1","arrowleft","0","arrowright","[0.325,0.675,0.15,0.85]","","",""
"sailing-trial","140","728747","0.0-11.0-105.0","","","","false","","","","","","","","","","null","","1069.3000000000466","","0","1","null","null","arrowup","[0.325,0.675,0.15,0.85]","","",""
"sailing-trial","141","732116","0.0-11.0-106.0","","","","false","","","","","","","","","","519.1999999999534","","335.69999999995343","","0","0","arrowleft","0","arrowleft","[0.325,0.675,0.15,0.85]","","",""
"sailing-trial","142","734851","0.0-11.0-107.0","","","","false","","","","","","","","","","null","","891.3999999999069","","3","1","null","null","arrowup","[0.325,0.675,0.15,0.85]","","",""
"sailing-trial","143","738221","0.0-11.0-108.0","","","","false","","","","","","","","","","528","","28.700000000186265","","3","1","arrowright","1","arrowright","[0.325,0.675,0.15,0.85]","","",""
"sailing-trial","144","740838","0.0-11.0-109.0","","","","false","","","","","","","","","","null","","699.5","","2","1","null","null","arrowup","[0.325,0.675,0.15,0.85]","","",""
"sailing-trial","145","744624","0.0-11.0-110.0","","","","false","","","","","","","","","","840","","29.800000000046566","","1","1","arrowleft","0","arrowright","[0.325,0.675,0.15,0.85]","","",""
"sailing-trial","146","747130","0.0-11.0-111.0","","","","false","","","","","","","","","","null","","703.6000000000931","","0","0","null","null","arrowup","[0.325,0.675,0.15,0.85]","","",""
"sailing-trial","147","750664","0.0-11.0-112.0","","","","false","","","","","","","","","","674.1999999999534","","182","","1","0","arrowleft","0","arrowright","[0.325,0.675,0.15,0.85]","","",""
"sailing-trial","148","753307","0.0-11.0-113.0","","","","false","","","","","","","","","","null","","814.8999999999069","","0","1","null","null","arrowup","[0.325,0.675,0.15,0.85]","","",""
"sailing-trial","149","757288","0.0-11.0-114.0","","","","false","","","","","","","","","","561.6000000000931","","542.8000000000466","","0","0","arrowleft","0","arrowleft","[0.325,0.675,0.15,0.85]","","",""
"sailing-trial","150","759498","0.0-11.0-115.0","","","","false","","","","","","","","","","null","","733.3999999999069","","0","0","null","null","arrowup","[0.325,0.675,0.15,0.85]","","",""
"sailing-trial","151","763213","0.0-11.0-116.0","","","","false","","","","","","","","","","473.19999999995343","","389.39999999990687","","3","1","arrowright","1","arrowright","[0.15,0.85,0.325,0.675]","","",""
"sailing-trial","152","765564","0.0-11.0-117.0","","","","false","","","","","","","","","","null","","772.6000000000931","","0","0","null","null","arrowup","[0.15,0.85,0.325,0.675]","","",""
"sailing-trial","153","769939","0.0-11.0-118.0","","","","false","","","","","","","","","","722.3000000000466","","627.2999999998137","","2","0","arrowright","1","arrowleft","[0.15,0.85,0.325,0.675]","","",""
"sailing-trial","154","772317","0.0-11.0-119.0","","","","false","","","","","","","","","","null","","710.5","","0","0","null","null","arrowup","[0.15,0.85,0.325,0.675]","","",""
"sailing-trial","155","776787","0.0-11.0-120.0","","","","false","","","","","","","","","","541.3000000000466","","554.3999999999069","","3","1","arrowright","1","arrowright","[0.15,0.85,0.325,0.675]","","",""
"sailing-trial","156","779243","0.0-11.0-121.0","","","","false","","","","","","","","","","null","","929","","0","0","null","null","arrowup","[0.15,0.85,0.325,0.675]","","",""
"sailing-trial","157","783306","0.0-11.0-122.0","","","","false","","","","","","","","","","583.8999999999069","","395.60000000009313","","3","1","arrowright","1","arrowright","[0.15,0.85,0.325,0.675]","","",""
"sailing-trial","158","786428","0.0-11.0-123.0","","","","false","","","","","","","","","","null","","1196.1999999999534","","2","1","null","null","arrowup","[0.15,0.85,0.325,0.675]","","",""
"sailing-trial","159","789492","0.0-11.0-124.0","","","","false","","","","","","","","","","787.6999999999534","","83.5","","3","0","arrowright","1","arrowright","[0.15,0.85,0.325,0.675]","","",""
"sailing-trial","160","794431","0.0-11.0-125.0","","","","false","","","","","","","","","","null","","2958.7999999998137","","2","1","null","null","arrowup","[0.15,0.85,0.325,0.675]","","",""
"sailing-trial","161","798379","0.0-11.0-126.0","","","","false","","","","","","","","","","686.9000000001397","","254.70000000018626","","1","0","arrowleft","0","arrowright","[0.15,0.85,0.325,0.675]","","",""
"sailing-trial","162","800736","0.0-11.0-127.0","","","","false","","","","","","","","","","null","","702.3999999999069","","2","0","null","null","arrowup","[0.15,0.85,0.325,0.675]","","",""
"sailing-trial","163","805371","0.0-11.0-128.0","","","","false","","","","","","","","","","783.1999999999534","","647.2999999998137","","0","0","arrowleft","0","arrowleft","[0.15,0.85,0.325,0.675]","","",""
"sailing-trial","164","807675","0.0-11.0-129.0","","","","false","","","","","","","","","","null","","737.8000000000466","","2","0","null","null","arrowup","[0.15,0.85,0.325,0.675]","","",""
"sailing-trial","165","813052","0.0-11.0-130.0","","","","false","","","","","","","","","","2258.5","","108.19999999995343","","1","1","arrowleft","0","arrowright","[0.15,0.85,0.325,0.675]","","",""
"sailing-trial","166","815872","0.0-11.0-131.0","","","","false","","","","","","","","","","null","","845.6999999999534","","1","1","null","null","arrowup","[0.15,0.85,0.325,0.675]","","",""
"sailing-trial","167","819591","0.0-11.0-132.0","","","","false","","","","","","","","","","522.3000000000466","","309.9000000001397","","3","1","arrowright","1","arrowright","[0.325,0.675,0.15,0.85]","","",""
"sailing-trial","168","823256","0.0-11.0-133.0","","","","false","","","","","","","","","","null","","1784.6000000000931","","1","1","null","null","arrowup","[0.325,0.675,0.15,0.85]","","",""
"sailing-trial","169","826680","0.0-11.0-134.0","","","","false","","","","","","","","","","645.6000000000931","","93.39999999990687","","2","0","arrowright","1","arrowleft","[0.325,0.675,0.15,0.85]","","",""
"sailing-trial","170","829377","0.0-11.0-135.0","","","","false","","","","","","","","","","null","","775.5","","3","1","null","null","arrowup","[0.325,0.675,0.15,0.85]","","",""
"sailing-trial","171","833629","0.0-11.0-136.0","","","","false","","","","","","","","","","554.5","","589.8000000000466","","3","1","arrowright","1","arrowright","[0.325,0.675,0.15,0.85]","","",""
"sailing-trial","172","836664","0.0-11.0-137.0","","","","false","","","","","","","","","","null","","985.5999999998603","","3","1","null","null","arrowup","[0.325,0.675,0.15,0.85]","","",""
"sailing-trial","173","840816","0.0-11.0-138.0","","","","false","","","","","","","","","","729.6000000000931","","528.3999999999069","","1","1","arrowleft","0","arrowright","[0.325,0.675,0.15,0.85]","","",""
"sailing-trial","174","844006","0.0-11.0-139.0","","","","false","","","","","","","","","","null","","899.5","","0","0","null","null","arrowup","[0.325,0.675,0.15,0.85]","","",""
"sailing-trial","175","848186","0.0-11.0-140.0","","","","false","","","","","","","","","","829.6000000000931","","361.79999999981374","","1","1","arrowleft","0","arrowright","[0.325,0.675,0.15,0.85]","","",""
"sailing-trial","176","851770","0.0-11.0-141.0","","","","false","","","","","","","","","","null","","1465.3000000000466","","1","1","null","null","arrowup","[0.325,0.675,0.15,0.85]","","",""
"sailing-trial","177","856206","0.0-11.0-142.0","","","","false","","","","","","","","","","646.8000000000466","","601.6999999999534","","3","1","arrowright","1","arrowright","[0.325,0.675,0.15,0.85]","","",""
"sailing-trial","178","859527","0.0-11.0-143.0","","","","false","","","","","","","","","","null","","1127.6999999999534","","3","1","null","null","arrowup","[0.325,0.675,0.15,0.85]","","",""
"sailing-trial","179","864193","0.0-11.0-144.0","","","","false","","","","","","","","","","741.3999999999069","","569.1999999999534","","3","1","arrowright","1","arrowright","[0.325,0.675,0.15,0.85]","","",""
"sailing-trial","180","866953","0.0-11.0-145.0","","","","false","","","","","","","","","","null","","963.5999999998603","","0","0","null","null","arrowup","[0.325,0.675,0.15,0.85]","","",""
"sailing-trial","181","871366","0.0-11.0-146.0","","","","false","","","","","","","","","","603.1000000000931","","72.19999999995343","","3","1","arrowright","1","arrowright","[0.325,0.675,0.15,0.85]","","",""
"sailing-trial","182","874049","0.0-11.0-147.0","","","","false","","","","","","","","","","null","","699.3999999999069","","1","1","null","null","arrowup","[0.325,0.675,0.15,0.85]","","",""
"sailing-trial","183","878019","0.0-11.0-148.0","","","","false","","","","","","","","","","720.8000000000466","","334.89999999990687","","3","0","arrowright","1","arrowright","[0.675,0.325,0.85,0.15]","","",""
"sailing-trial","184","880648","0.0-11.0-149.0","","","","false","","","","","","","","","","null","","737.5","","0","1","null","null","arrowup","[0.675,0.325,0.85,0.15]","","",""
"sailing-trial","185","885906","0.0-11.0-150.0","","","","false","","","","","","","","","","614.1999999999534","","1992.1000000000931","","1","0","arrowleft","0","arrowright","[0.675,0.325,0.85,0.15]","","",""
"sailing-trial","186","888570","0.0-11.0-151.0","","","","false","","","","","","","","","","null","","755.2999999998137","","0","1","null","null","arrowup","[0.675,0.325,0.85,0.15]","","",""
"sailing-trial","187","892339","0.0-11.0-152.0","","","","false","","","","","","","","","","674.3999999999069","","184.19999999995343","","0","1","arrowleft","0","arrowleft","[0.675,0.325,0.85,0.15]","","",""
"sailing-trial","188","894631","0.0-11.0-153.0","","","","false","","","","","","","","","","null","","774.3999999999069","","3","0","null","null","arrowup","[0.675,0.325,0.85,0.15]","","",""
"sailing-trial","189","898740","0.0-11.0-154.0","","","","false","","","","","","","","","","685.5","","408.19999999995343","","0","1","arrowleft","0","arrowleft","[0.675,0.325,0.85,0.15]","","",""
"sailing-trial","190","901341","0.0-11.0-155.0","","","","false","","","","","","","","","","null","","710.1000000000931","","2","1","null","null","arrowup","[0.675,0.325,0.85,0.15]","","",""
"sailing-trial","191","904930","0.0-11.0-156.0","","","","false","","","","","","","","","","518.6999999999534","","217.30000000004657","","2","1","arrowright","1","arrowleft","[0.675,0.325,0.85,0.15]","","",""
"sailing-trial","192","907253","0.0-11.0-157.0","","","","false","","","","","","","","","","null","","678.1000000000931","","2","0","null","null","arrowup","[0.675,0.325,0.85,0.15]","","",""
"sailing-trial","193","911032","0.0-11.0-158.0","","","","false","","","","","","","","","","862","","353.9000000001397","","3","0","arrowright","1","arrowright","[0.675,0.325,0.85,0.15]","","",""
"sailing-trial","194","913400","0.0-11.0-159.0","","","","false","","","","","","","","","","null","","902.8999999999069","","3","0","null","null","arrowup","[0.675,0.325,0.85,0.15]","","",""
"sailing-trial","195","917582","0.0-11.0-160.0","","","","false","","","","","","","","","","741","","377.5","","2","1","arrowright","1","arrowleft","[0.675,0.325,0.85,0.15]","","",""
"sailing-trial","196","920335","0.0-11.0-161.0","","","","false","","","","","","","","","","null","","1335.5","","3","0","null","null","arrowup","[0.675,0.325,0.85,0.15]","","",""
"sailing-trial","197","924674","0.0-11.0-162.0","","","","false","","","","","","","","","","933.4000000001397","","384","","2","1","arrowright","1","arrowleft","[0.675,0.325,0.85,0.15]","","",""
"sailing-trial","198","927605","0.0-11.0-163.0","","","","false","","","","","","","","","","null","","914.1000000000931","","3","1","null","null","arrowup","[0.675,0.325,0.85,0.15]","","",""
"sailing-trial","199","931505","0.0-11.0-164.0","","","","false","","","","","","","","","","523.0999999998603","","464.89999999990687","","2","1","arrowright","1","arrowleft","[0.675,0.325,0.85,0.15]","","",""
"sailing-trial","200","933964","0.0-11.0-165.0","","","","false","","","","","","","","","","null","","774.5999999998603","","2","0","null","null","arrowup","[0.675,0.325,0.85,0.15]","","",""
"sailing-trial","201","937511","0.0-11.0-166.0","","","","false","","","","","","","","","","542.4000000001397","","241.5999999998603","","3","0","arrowright","1","arrowright","[0.675,0.325,0.85,0.15]","","",""
"sailing-trial","202","939991","0.0-11.0-167.0","","","","false","","","","","","","","","","null","","899.7999999998137","","2","0","null","null","arrowup","[0.675,0.325,0.85,0.15]","","",""
"sailing-trial","203","943365","0.0-11.0-168.0","","","","false","","","","","","","","","","517.5","","85.60000000009313","","1","0","arrowleft","0","arrowright","[0.675,0.325,0.85,0.15]","","",""
"sailing-trial","204","945660","0.0-11.0-169.0","","","","false","","","","","","","","","","null","","814.6999999999534","","1","0","null","null","arrowup","[0.675,0.325,0.85,0.15]","","",""
"sailing-trial","205","949970","0.0-11.0-170.0","","","","false","","","","","","","","","","756.6999999999534","","595.4000000001397","","0","1","arrowleft","0","arrowleft","[0.85,0.15,0.675,0.325]","","",""
"sailing-trial","206","952684","0.0-11.0-171.0","","","","false","","","","","","","","","","null","","855.4000000001397","","0","1","null","null","arrowup","[0.85,0.15,0.675,0.325]","","",""
"sailing-trial","207","956806","0.0-11.0-172.0","","","","false","","","","","","","","","","650","","446.19999999995343","","0","1","arrowleft","0","arrowleft","[0.85,0.15,0.675,0.325]","","",""
"sailing-trial","208","959838","0.0-11.0-173.0","","","","false","","","","","","","","","","null","","1083.0999999998603","","2","1","null","null","arrowup","[0.85,0.15,0.675,0.325]","","",""
"sailing-trial","209","964256","0.0-11.0-174.0","","","","false","","","","","","","","","","655.6999999999534","","720.2000000001863","","0","1","arrowleft","0","arrowleft","[0.85,0.15,0.675,0.325]","","",""
"sailing-trial","210","966873","0.0-11.0-175.0","","","","false","","","","","","","","","","null","","1206.0999999998603","","3","0","null","null","arrowup","[0.85,0.15,0.675,0.325]","","",""
"sailing-trial","211","970542","0.0-11.0-176.0","","","","false","","","","","","","","","","673.5999999998603","","27.699999999953434","","0","1","arrowleft","0","arrowleft","[0.85,0.15,0.675,0.325]","","",""
"sailing-trial","212","973513","0.0-11.0-177.0","","","","false","","","","","","","","","","null","","1198.3999999999069","","3","0","null","null","arrowup","[0.85,0.15,0.675,0.325]","","",""
"sailing-trial","213","977704","0.0-11.0-178.0","","","","false","","","","","","","","","","729.6000000000931","","715","","0","0","arrowleft","0","arrowleft","[0.85,0.15,0.675,0.325]","","",""
"sailing-trial","214","980562","0.0-11.0-179.0","","","","false","","","","","","","","","","null","","933.3999999999069","","2","1","null","null","arrowup","[0.85,0.15,0.675,0.325]","","",""
"sailing-trial","215","985564","0.0-11.0-180.0","","","","false","","","","","","","","","","1556.5","","324.9000000001397","","2","1","arrowright","1","arrowleft","[0.85,0.15,0.675,0.325]","","",""
"sailing-trial","216","988234","0.0-11.0-181.0","","","","false","","","","","","","","","","null","","1058.1999999999534","","2","0","null","null","arrowup","[0.85,0.15,0.675,0.325]","","",""
"sailing-trial","217","992351","0.0-11.0-182.0","","","","false","","","","","","","","","","823.5","","217.69999999995343","","3","1","arrowright","1","arrowright","[0.85,0.15,0.675,0.325]","","",""
"sailing-trial","218","994576","0.0-11.0-183.0","","","","false","","","","","","","","","","null","","734.6999999999534","","1","0","null","null","arrowup","[0.85,0.15,0.675,0.325]","","",""
"sailing-trial","219","998152","0.0-11.0-184.0","","","","false","","","","","","","","","","910.0999999998603","","187.5","","2","0","arrowright","1","arrowleft","[0.85,0.15,0.675,0.325]","","",""
"sailing-trial","220","1000283","0.0-11.0-185.0","","","","false","","","","","","","","","","null","","689.1000000000931","","1","0","null","null","arrowup","[0.85,0.15,0.675,0.325]","","",""
"sailing-trial","221","1004468","0.0-11.0-186.0","","","","false","","","","","","","","","","692.3000000000466","","589.4000000001397","","0","1","arrowleft","0","arrowleft","[0.85,0.15,0.675,0.325]","","",""
"sailing-trial","222","1006709","0.0-11.0-187.0","","","","false","","","","","","","","","","null","","755.8000000000466","","3","0","null","null","arrowup","[0.85,0.15,0.675,0.325]","","",""
"sailing-trial","223","1011053","0.0-11.0-188.0","","","","false","","","","","","","","","","1335.6999999999534","","540.5999999998603","","0","0","arrowleft","0","arrowleft","[0.675,0.325,0.85,0.15]","","",""
"sailing-trial","224","1013953","0.0-11.0-189.0","","","","false","","","","","","","","","","null","","855.1999999999534","","0","1","null","null","arrowup","[0.675,0.325,0.85,0.15]","","",""
"sailing-trial","225","1017641","0.0-11.0-190.0","","","","false","","","","","","","","","","1146.9000000001397","","94.79999999981374","","1","0","arrowleft","0","arrowright","[0.675,0.325,0.85,0.15]","","",""
"sailing-trial","226","1019853","0.0-11.0-191.0","","","","false","","","","","","","","","","null","","705.3000000000466","","3","0","null","null","arrowup","[0.675,0.325,0.85,0.15]","","",""
"sailing-trial","227","1024627","0.0-11.0-192.0","","","","false","","","","","","","","","","675.3999999999069","","920.5","","0","0","arrowleft","0","arrowleft","[0.675,0.325,0.85,0.15]","","",""
"sailing-trial","228","1027469","0.0-11.0-193.0","","","","false","","","","","","","","","","null","","694.8000000000466","","2","1","null","null","arrowup","[0.675,0.325,0.85,0.15]","","",""
"sailing-trial","229","1031144","0.0-11.0-194.0","","","","false","","","","","","","","","","934.1000000000931","","304","","2","0","arrowright","1","arrowleft","[0.675,0.325,0.85,0.15]","","",""
"sailing-trial","230","1034275","0.0-11.0-195.0","","","","false","","","","","","","","","","null","","1480.1000000000931","","1","0","null","null","arrowup","[0.675,0.325,0.85,0.15]","","",""
"sailing-trial","231","1037553","0.0-11.0-196.0","","","","false","","","","","","","","","","512.5","","301.5999999998603","","3","0","arrowright","1","arrowright","[0.675,0.325,0.85,0.15]","","",""
"sailing-trial","232","1040504","0.0-11.0-197.0","","","","false","","","","","","","","","","null","","1155","","0","1","null","null","arrowup","[0.675,0.325,0.85,0.15]","","",""
"sailing-trial","233","1044817","0.0-11.0-198.0","","","","false","","","","","","","","","","724.3000000000466","","648.4000000001397","","0","1","arrowleft","0","arrowleft","[0.675,0.325,0.85,0.15]","","",""
"sailing-trial","234","1047140","0.0-11.0-199.0","","","","false","","","","","","","","","","null","","986.0999999998603","","3","0","null","null","arrowup","[0.675,0.325,0.85,0.15]","","",""
"sailing-trial","235","1051183","0.0-11.0-200.0","","","","false","","","","","","","","","","997.5","","164.8000000002794","","0","1","arrowleft","0","arrowleft","[0.675,0.325,0.85,0.15]","","",""
"sailing-trial","236","1053794","0.0-11.0-201.0","","","","false","","","","","","","","","","null","","1109.5","","0","0","null","null","arrowup","[0.675,0.325,0.85,0.15]","","",""
"sailing-trial","237","1058104","0.0-11.0-202.0","","","","false","","","","","","","","","","1001.2000000001863","","150.8000000002794","","0","1","arrowleft","0","arrowleft","[0.675,0.325,0.85,0.15]","","",""
"sailing-trial","238","1061736","0.0-11.0-203.0","","","","false","","","","","","","","","","null","","963.3999999999069","","1","0","null","null","arrowup","[0.675,0.325,0.85,0.15]","","",""
"sailing-trial","239","1065900","0.0-11.0-204.0","","","","false","","","","","","","","","","925.3999999999069","","313.5","","0","1","arrowleft","0","arrowleft","[0.675,0.325,0.85,0.15]","","",""
"sailing-trial","240","1068682","0.0-11.0-205.0","","","","false","","","","","","","","","","null","","803","","2","1","null","null","arrowup","[0.675,0.325,0.85,0.15]","","",""
"sailing-trial","241","1072049","0.0-11.0-206.0","","","","false","","","","","","","","","","693.5","","239.3000000002794","","0","0","arrowleft","0","arrowleft","[0.675,0.325,0.85,0.15]","","",""
"sailing-trial","242","1074749","0.0-11.0-207.0","","","","false","","","","","","","","","","null","","744.5","","0","1","null","null","arrowup","[0.675,0.325,0.85,0.15]","","",""
"sailing-trial","243","1078283","0.0-11.0-208.0","","","","false","","","","","","","","","","530.5999999996275","","137.70000000018626","","2","1","arrowright","1","arrowleft","[0.675,0.325,0.85,0.15]","","",""
"sailing-trial","244","1081350","0.0-11.0-209.0","","","","false","","","","","","","","","","null","","856.5","","2","1","null","null","arrowup","[0.675,0.325,0.85,0.15]","","",""
"sailing-trial","245","1084580","0.0-11.0-210.0","","","","false","","","","","","","","","","712.2000000001863","","158.89999999990687","","3","0","arrowright","1","arrowright","[0.85,0.15,0.675,0.325]","","",""
"sailing-trial","246","1087330","0.0-11.0-211.0","","","","false","","","","","","","","","","null","","826.7999999998137","","0","1","null","null","arrowup","[0.85,0.15,0.675,0.325]","","",""
"sailing-trial","247","1091132","0.0-11.0-212.0","","","","false","","","","","","","","","","601.3999999999069","","284.6999999997206","","2","1","arrowright","1","arrowleft","[0.85,0.15,0.675,0.325]","","",""
"sailing-trial","248","1093369","0.0-11.0-213.0","","","","false","","","","","","","","","","null","","807.5","","1","0","null","null","arrowup","[0.85,0.15,0.675,0.325]","","",""
"sailing-trial","249","1097813","0.0-11.0-214.0","","","","false","","","","","","","","","","649.9000000003725","","803.9000000003725","","2","1","arrowright","1","arrowleft","[0.85,0.15,0.675,0.325]","","",""
"sailing-trial","250","1100715","0.0-11.0-215.0","","","","false","","","","","","","","","","null","","940.1999999997206","","3","1","null","null","arrowup","[0.85,0.15,0.675,0.325]","","",""
"sailing-trial","251","1104216","0.0-11.0-216.0","","","","false","","","","","","","","","","551.7999999998137","","33.1999999997206","","3","1","arrowright","1","arrowright","[0.85,0.15,0.675,0.325]","","",""
"sailing-trial","252","1107116","0.0-11.0-217.0","","","","false","","","","","","","","","","null","","993.7999999998137","","3","1","null","null","arrowup","[0.85,0.15,0.675,0.325]","","",""
"sailing-trial","253","1110300","0.0-11.0-218.0","","","","false","","","","","","","","","","547.7000000001863","","54.89999999990687","","1","0","arrowleft","0","arrowright","[0.85,0.15,0.675,0.325]","","",""
"sailing-trial","254","1112779","0.0-11.0-219.0","","","","false","","","","","","","","","","null","","665","","0","1","null","null","arrowup","[0.85,0.15,0.675,0.325]","","",""
"sailing-trial","255","1117014","0.0-11.0-220.0","","","","false","","","","","","","","","","582.8999999999069","","746.8000000002794","","0","1","arrowleft","0","arrowleft","[0.85,0.15,0.675,0.325]","","",""
"sailing-trial","256","1119313","0.0-11.0-221.0","","","","false","","","","","","","","","","null","","904","","1","0","null","null","arrowup","[0.85,0.15,0.675,0.325]","","",""
"sailing-trial","257","1122817","0.0-11.0-222.0","","","","false","","","","","","","","","","844.2000000001863","","320.6999999997206","","2","0","arrowright","1","arrowleft","[0.85,0.15,0.675,0.325]","","",""
"sailing-trial","258","1125579","0.0-11.0-223.0","","","","false","","","","","","","","","","null","","840.8000000002794","","0","1","null","null","arrowup","[0.85,0.15,0.675,0.325]","","",""
"sailing-trial","259","1129000","0.0-11.0-224.0","","","","false","","","","","","","","","","490.39999999990687","","373.6999999997206","","3","0","arrowright","1","arrowright","[0.85,0.15,0.675,0.325]","","",""
"sailing-trial","260","1131332","0.0-11.0-225.0","","","","false","","","","","","","","","","null","","841.1000000000931","","1","0","null","null","arrowup","[0.85,0.15,0.675,0.325]","","",""
"sailing-trial","261","1134833","0.0-11.0-226.0","","","","false","","","","","","","","","","540.7999999998137","","357.40000000037253","","0","0","arrowleft","0","arrowleft","[0.15,0.85,0.325,0.675]","","",""
"sailing-trial","262","1137646","0.0-11.0-227.0","","","","false","","","","","","","","","","null","","847.9000000003725","","3","1","null","null","arrowup","[0.15,0.85,0.325,0.675]","","",""
"sailing-trial","263","1141779","0.0-11.0-228.0","","","","false","","","","","","","","","","1326.6999999997206","","232.6999999997206","","3","0","arrowright","1","arrowright","[0.15,0.85,0.325,0.675]","","",""
"sailing-trial","264","1143895","0.0-11.0-229.0","","","","false","","","","","","","","","","null","","705.1000000000931","","3","0","null","null","arrowup","[0.15,0.85,0.325,0.675]","","",""
"sailing-trial","265","1147647","0.0-11.0-230.0","","","","false","","","","","","","","","","538.3000000002794","","263.70000000018626","","2","1","arrowright","1","arrowleft","[0.15,0.85,0.325,0.675]","","",""
"sailing-trial","266","1150278","0.0-11.0-231.0","","","","false","","","","","","","","","","null","","704.1999999997206","","1","1","null","null","arrowup","[0.15,0.85,0.325,0.675]","","",""
"sailing-trial","267","1154536","0.0-11.0-232.0","","","","false","","","","","","","","","","1222","","262.79999999981374","","2","0","arrowright","1","arrowleft","[0.15,0.85,0.325,0.675]","","",""
"sailing-trial","268","1157228","0.0-11.0-233.0","","","","false","","","","","","","","","","null","","863.7999999998137","","0","1","null","null","arrowup","[0.15,0.85,0.325,0.675]","","",""
"sailing-trial","269","1161378","0.0-11.0-234.0","","","","false","","","","","","","","","","593.3000000002794","","586.3999999999069","","0","1","arrowleft","0","arrowleft","[0.15,0.85,0.325,0.675]","","",""
"sailing-trial","270","1163914","0.0-11.0-235.0","","","","false","","","","","","","","","","null","","1007","","2","0","null","null","arrowup","[0.15,0.85,0.325,0.675]","","",""
"sailing-trial","271","1167533","0.0-11.0-236.0","","","","false","","","","","","","","","","601.3999999999069","","488.60000000009313","","0","0","arrowleft","0","arrowleft","[0.15,0.85,0.325,0.675]","","",""
"sailing-trial","272","1169669","0.0-11.0-237.0","","","","false","","","","","","","","","","null","","771.7999999998137","","2","0","null","null","arrowup","[0.15,0.85,0.325,0.675]","","",""
"sailing-trial","273","1173978","0.0-11.0-238.0","","","","false","","","","","","","","","","975","","379.70000000018626","","1","1","arrowleft","0","arrowright","[0.15,0.85,0.325,0.675]","","",""
"sailing-trial","274","1176512","0.0-11.0-239.0","","","","false","","","","","","","","","","null","","1085.3999999999069","","1","0","null","null","arrowup","[0.15,0.85,0.325,0.675]","","",""
"sailing-trial","275","1180225","0.0-11.0-240.0","","","","false","","","","","","","","","","827.8999999999069","","432.60000000009313","","0","0","arrowleft","0","arrowleft","[0.15,0.85,0.325,0.675]","","",""
"sailing-trial","276","1182279","0.0-11.0-241.0","","","","false","","","","","","","","","","null","","690","","2","0","null","null","arrowup","[0.15,0.85,0.325,0.675]","","",""
"sailing-trial","277","1186394","0.0-11.0-242.0","","","","false","","","","","","","","","","722.5","","481.5","","1","1","arrowleft","0","arrowright","[0.325,0.675,0.15,0.85]","","",""
"sailing-trial","278","1189325","0.0-11.0-243.0","","","","false","","","","","","","","","","null","","937.6000000000931","","0","1","null","null","arrowup","[0.325,0.675,0.15,0.85]","","",""
"sailing-trial","279","1193010","0.0-11.0-244.0","","","","false","","","","","","","","","","476.3000000002794","","315.79999999981374","","3","1","arrowright","1","arrowright","[0.325,0.675,0.15,0.85]","","",""
"sailing-trial","280","1195032","0.0-11.0-245.0","","","","false","","","","","","","","","","null","","691.7000000001863","","0","0","null","null","arrowup","[0.325,0.675,0.15,0.85]","","",""
"sailing-trial","281","1199260","0.0-11.0-246.0","","","","false","","","","","","","","","","614.4000000003725","","298","","3","1","arrowright","1","arrowright","[0.325,0.675,0.15,0.85]","","",""
"sailing-trial","282","1202226","0.0-11.0-247.0","","","","false","","","","","","","","","","null","","1062.5","","3","1","null","null","arrowup","[0.325,0.675,0.15,0.85]","","",""
"sailing-trial","283","1206293","0.0-11.0-248.0","","","","false","","","","","","","","","","722.8999999999069","","304.8000000002794","","3","1","arrowright","1","arrowright","[0.325,0.675,0.15,0.85]","","",""
"sailing-trial","284","1209044","0.0-11.0-249.0","","","","false","","","","","","","","","","null","","754.6000000000931","","1","1","null","null","arrowup","[0.325,0.675,0.15,0.85]","","",""
"sailing-trial","285","1212099","0.0-11.0-250.0","","","","false","","","","","","","","","","599","","90.20000000018626","","2","0","arrowright","1","arrowleft","[0.325,0.675,0.15,0.85]","","",""
"sailing-trial","286","1214075","0.0-11.0-251.0","","","","false","","","","","","","","","","null","","663","","2","0","null","null","arrowup","[0.325,0.675,0.15,0.85]","","",""
"sailing-trial","287","1217595","0.0-11.0-252.0","","","","false","","","","","","","","","","590.7000000001863","","20.799999999813735","","3","1","arrowright","1","arrowright","[0.325,0.675,0.15,0.85]","","",""
"sailing-trial","288","1220107","0.0-11.0-253.0","","","","false","","","","","","","","","","null","","968","","1","0","null","null","arrowup","[0.325,0.675,0.15,0.85]","","",""
"sailing-trial","289","1224446","0.0-11.0-254.0","","","","false","","","","","","","","","","683.2000000001863","","679.1000000000931","","0","1","arrowleft","0","arrowleft","[0.325,0.675,0.15,0.85]","","",""
"sailing-trial","290","1227176","0.0-11.0-255.0","","","","false","","","","","","","","","","null","","749.6000000000931","","3","1","null","null","arrowup","[0.325,0.675,0.15,0.85]","","",""
"sailing-trial","291","1231176","0.0-11.0-256.0","","","","false","","","","","","","","","","642.3999999999069","","417.39999999990687","","0","1","arrowleft","0","arrowleft","[0.325,0.675,0.15,0.85]","","",""
"sailing-trial","292","1233977","0.0-11.0-257.0","","","","false","","","","","","","","","","null","","878.6000000000931","","3","1","null","null","arrowup","[0.325,0.675,0.15,0.85]","","",""
"sailing-trial","293","1238425","0.0-11.0-258.0","","","","false","","","","","","","","","","679.5","","746.3999999999069","","0","1","arrowleft","0","arrowleft","[0.85,0.15,0.675,0.325]","","",""
"sailing-trial","294","1242111","0.0-11.0-259.0","","","","false","","","","","","","","","","null","","1711.8000000002794","","0","1","null","null","arrowup","[0.85,0.15,0.675,0.325]","","",""
"sailing-trial","295","1247740","0.0-11.0-260.0","","","","false","","","","","","","","","","827.3999999999069","","1428.9000000003725","","0","1","arrowleft","0","arrowleft","[0.85,0.15,0.675,0.325]","","",""
"sailing-trial","296","1250406","0.0-11.0-261.0","","","","false","","","","","","","","","","null","","927.2000000001863","","1","0","null","null","arrowup","[0.85,0.15,0.675,0.325]","","",""
"sailing-trial","297","1254559","0.0-11.0-262.0","","","","false","","","","","","","","","","545.2999999998137","","583","","0","1","arrowleft","0","arrowleft","[0.85,0.15,0.675,0.325]","","",""
"sailing-trial","298","1256912","0.0-11.0-263.0","","","","false","","","","","","","","","","null","","676.0999999996275","","3","0","null","null","arrowup","[0.85,0.15,0.675,0.325]","","",""
"sailing-trial","299","1260472","0.0-11.0-264.0","","","","false","","","","","","","","","","779","","182.59999999962747","","2","0","arrowright","1","arrowleft","[0.85,0.15,0.675,0.325]","","",""
"sailing-trial","300","1263026","0.0-11.0-265.0","","","","false","","","","","","","","","","null","","693.3000000002794","","0","1","null","null","arrowup","[0.85,0.15,0.675,0.325]","","",""
"sailing-trial","301","1266778","0.0-11.0-266.0","","","","false","","","","","","","","","","615.2000000001863","","334.29999999981374","","3","0","arrowright","1","arrowright","[0.85,0.15,0.675,0.325]","","",""
"sailing-trial","302","1269290","0.0-11.0-267.0","","","","false","","","","","","","","","","null","","665","","2","1","null","null","arrowup","[0.85,0.15,0.675,0.325]","","",""
"sailing-trial","303","1272505","0.0-11.0-268.0","","","","false","","","","","","","","","","486.60000000009313","","286.5","","2","0","arrowright","1","arrowleft","[0.85,0.15,0.675,0.325]","","",""
"sailing-trial","304","1274994","0.0-11.0-269.0","","","","false","","","","","","","","","","null","","650.3999999999069","","3","1","null","null","arrowup","[0.85,0.15,0.675,0.325]","","",""
"sailing-trial","305","1278660","0.0-11.0-270.0","","","","false","","","","","","","","","","447.89999999990687","","255.60000000009313","","0","1","arrowleft","0","arrowleft","[0.85,0.15,0.675,0.325]","","",""
"sailing-trial","306","1280753","0.0-11.0-271.0","","","","false","","","","","","","","","","null","","667.7999999998137","","2","0","null","null","arrowup","[0.85,0.15,0.675,0.325]","","",""
"sailing-trial","307","1286992","0.0-11.0-272.0","","","","false","","","","","","","","","","2636.100000000093","","338.1999999997206","","0","1","arrowleft","0","arrowleft","[0.85,0.15,0.675,0.325]","","",""
"sailing-trial","308","1289109","0.0-11.0-273.0","","","","false","","","","","","","","","","null","","586.3999999999069","","1","0","null","null","arrowup","[0.85,0.15,0.675,0.325]","","",""
"sailing-trial","309","1293058","0.0-11.0-274.0","","","","false","","","","","","","","","","580.6000000000931","","231.89999999990687","","0","1","arrowleft","0","arrowleft","[0.85,0.15,0.675,0.325]","","",""
"sailing-trial","310","1295674","0.0-11.0-275.0","","","","false","","","","","","","","","","null","","1210.1000000000931","","1","0","null","null","arrowup","[0.85,0.15,0.675,0.325]","","",""
"sailing-trial","311","1298982","0.0-11.0-276.0","","","","false","","","","","","","","","","495.6999999997206","","352.89999999990687","","2","0","arrowright","1","arrowleft","[0.675,0.325,0.85,0.15]","","",""
"sailing-trial","312","1300841","0.0-11.0-277.0","","","","false","","","","","","","","","","null","","651.3999999999069","","1","0","null","null","arrowup","[0.675,0.325,0.85,0.15]","","",""
"sailing-trial","313","1304212","0.0-11.0-278.0","","","","false","","","","","","","","","","441.39999999990687","","389.89999999990687","","3","0","arrowright","1","arrowright","[0.675,0.325,0.85,0.15]","","",""
"sailing-trial","314","1306395","0.0-11.0-279.0","","","","false","","","","","","","","","","null","","775","","3","0","null","null","arrowup","[0.675,0.325,0.85,0.15]","","",""
"sailing-trial","315","1309774","0.0-11.0-280.0","","","","false","","","","","","","","","","495.10000000009313","","136","","0","1","arrowleft","0","arrowleft","[0.675,0.325,0.85,0.15]","","",""
"sailing-trial","316","1312587","0.0-11.0-281.0","","","","false","","","","","","","","","","null","","789.1000000000931","","1","1","null","null","arrowup","[0.675,0.325,0.85,0.15]","","",""
"sailing-trial","317","1316556","0.0-11.0-282.0","","","","false","","","","","","","","","","642.9000000003725","","342","","0","1","arrowleft","0","arrowleft","[0.675,0.325,0.85,0.15]","","",""
"sailing-trial","318","1319171","0.0-11.0-283.0","","","","false","","","","","","","","","","null","","779.1000000000931","","2","1","null","null","arrowup","[0.675,0.325,0.85,0.15]","","",""
"sailing-trial","319","1322938","0.0-11.0-284.0","","","","false","","","","","","","","","","562.0999999996275","","222.29999999981374","","0","1","arrowleft","0","arrowleft","[0.675,0.325,0.85,0.15]","","",""
"sailing-trial","320","1325209","0.0-11.0-285.0","","","","false","","","","","","","","","","null","","869.3000000002794","","3","0","null","null","arrowup","[0.675,0.325,0.85,0.15]","","",""
"sailing-trial","321","1329838","0.0-11.0-286.0","","","","false","","","","","","","","","","769.5999999996275","","426.1999999997206","","0","1","arrowleft","0","arrowleft","[0.675,0.325,0.85,0.15]","","",""
"sailing-trial","322","1332473","0.0-11.0-287.0","","","","false","","","","","","","","","","null","","1247.2000000001863","","2","0","null","null","arrowup","[0.675,0.325,0.85,0.15]","","",""
"sailing-trial","323","1336322","0.0-11.0-288.0","","","","false","","","","","","","","","","516.1999999997206","","27.899999999906868","","0","1","arrowleft","0","arrowleft","[0.675,0.325,0.85,0.15]","","",""
"sailing-trial","324","1338406","0.0-11.0-289.0","","","","false","","","","","","","","","","null","","749.8999999999069","","1","0","null","null","arrowup","[0.675,0.325,0.85,0.15]","","",""
"sailing-trial","325","1342189","0.0-11.0-290.0","","","","false","","","","","","","","","","592.8999999999069","","347.6999999997206","","2","1","arrowright","1","arrowleft","[0.675,0.325,0.85,0.15]","","",""
"sailing-trial","326","1344355","0.0-11.0-291.0","","","","false","","","","","","","","","","null","","738.6000000000931","","3","0","null","null","arrowup","[0.675,0.325,0.85,0.15]","","",""
"sailing-trial","327","1347888","0.0-11.0-292.0","","","","false","","","","","","","","","","523.5","","61.299999999813735","","0","1","arrowleft","0","arrowleft","[0.675,0.325,0.85,0.15]","","",""
"sailing-trial","328","1351004","0.0-11.0-293.0","","","","false","","","","","","","","","","null","","1264.2999999998137","","0","1","null","null","arrowup","[0.675,0.325,0.85,0.15]","","",""
"sailing-trial","329","1354721","0.0-11.0-294.0","","","","false","","","","","","","","","","579.6000000000931","","197.60000000009313","","2","1","arrowright","1","arrowleft","[0.15,0.85,0.325,0.675]","","",""
"sailing-trial","330","1357273","0.0-11.0-295.0","","","","false","","","","","","","","","","null","","651.5","","1","1","null","null","arrowup","[0.15,0.85,0.325,0.675]","","",""
"sailing-trial","331","1360650","0.0-11.0-296.0","","","","false","","","","","","","","","","697.3999999999069","","249.60000000009313","","2","0","arrowright","1","arrowleft","[0.15,0.85,0.325,0.675]","","",""
"sailing-trial","332","1363069","0.0-11.0-297.0","","","","false","","","","","","","","","","null","","571.7000000001863","","1","1","null","null","arrowup","[0.15,0.85,0.325,0.675]","","",""
"sailing-trial","333","1366952","0.0-11.0-298.0","","","","false","","","","","","","","","","478.5","","556.7000000001863","","1","1","arrowleft","0","arrowright","[0.15,0.85,0.325,0.675]","","",""
"sailing-trial","334","1369667","0.0-11.0-299.0","","","","false","","","","","","","","","","null","","780","","2","1","null","null","arrowup","[0.15,0.85,0.325,0.675]","","",""
"sailing-trial","335","1373751","0.0-11.0-300.0","","","","false","","","","","","","","","","638.6000000000931","","581.1000000000931","","1","1","arrowleft","0","arrowright","[0.15,0.85,0.325,0.675]","","",""
"sailing-trial","336","1376046","0.0-11.0-301.0","","","","false","","","","","","","","","","null","","773.8999999999069","","2","0","null","null","arrowup","[0.15,0.85,0.325,0.675]","","",""
"sailing-trial","337","1380208","0.0-11.0-302.0","","","","false","","","","","","","","","","1255.3999999999069","","393.89999999990687","","0","0","arrowleft","0","arrowleft","[0.15,0.85,0.325,0.675]","","",""
"sailing-trial","338","1382835","0.0-11.0-303.0","","","","false","","","","","","","","","","null","","669.8000000002794","","3","1","null","null","arrowup","[0.15,0.85,0.325,0.675]","","",""
"sailing-trial","339","1387634","0.0-11.0-304.0","","","","false","","","","","","","","","","1773.6000000000931","","108.90000000037253","","1","1","arrowleft","0","arrowright","[0.15,0.85,0.325,0.675]","","",""
"sailing-trial","340","1390618","0.0-11.0-305.0","","","","false","","","","","","","","","","null","","1128.7999999998137","","1","1","null","null","arrowup","[0.15,0.85,0.325,0.675]","","",""
"sailing-trial","341","1393806","0.0-11.0-306.0","","","","false","","","","","","","","","","566.6000000000931","","215.1999999997206","","3","0","arrowright","1","arrowright","[0.15,0.85,0.325,0.675]","","",""
"sailing-trial","342","1396551","0.0-11.0-307.0","","","","false","","","","","","","","","","null","","895.3000000002794","","0","1","null","null","arrowup","[0.15,0.85,0.325,0.675]","","",""
"sailing-trial","343","1400132","0.0-11.0-308.0","","","","false","","","","","","","","","","549.1000000000931","","575.7000000001863","","2","0","arrowright","1","arrowleft","[0.15,0.85,0.325,0.675]","","",""
"sailing-trial","344","1402634","0.0-11.0-309.0","","","","false","","","","","","","","","","null","","994.2999999998137","","1","0","null","null","arrowup","[0.15,0.85,0.325,0.675]","","",""
"sailing-trial","345","1405985","0.0-11.0-310.0","","","","false","","","","","","","","","","447.5","","164.29999999981374","","1","1","arrowleft","0","arrowright","[0.15,0.85,0.325,0.675]","","",""
"sailing-trial","346","1408600","0.0-11.0-311.0","","","","false","","","","","","","","","","null","","820.8999999999069","","1","1","null","null","arrowup","[0.15,0.85,0.325,0.675]","","",""
"sailing-trial","347","1412385","0.0-11.0-312.0","","","","false","","","","","","","","","","614.3999999999069","","332.90000000037253","","1","1","arrowleft","0","arrowright","[0.675,0.325,0.85,0.15]","","",""
"sailing-trial","348","1414385","0.0-11.0-313.0","","","","false","","","","","","","","","","null","","710.6000000000931","","1","0","null","null","arrowup","[0.675,0.325,0.85,0.15]","","",""
"sailing-trial","349","1417949","0.0-11.0-314.0","","","","false","","","","","","","","","","551","","75.20000000018626","","0","1","arrowleft","0","arrowleft","[0.675,0.325,0.85,0.15]","","",""
"sailing-trial","350","1421151","0.0-11.0-315.0","","","","false","","","","","","","","","","null","","1347.3000000002794","","2","1","null","null","arrowup","[0.675,0.325,0.85,0.15]","","",""
"sailing-trial","351","1424439","0.0-11.0-316.0","","","","false","","","","","","","","","","634.5","","56.3000000002794","","0","0","arrowleft","0","arrowleft","[0.675,0.325,0.85,0.15]","","",""
"sailing-trial","352","1427317","0.0-11.0-317.0","","","","false","","","","","","","","","","null","","952.8999999999069","","3","1","null","null","arrowup","[0.675,0.325,0.85,0.15]","","",""
"sailing-trial","353","1431268","0.0-11.0-318.0","","","","false","","","","","","","","","","672.3000000002794","","285.79999999981374","","0","1","arrowleft","0","arrowleft","[0.675,0.325,0.85,0.15]","","",""
"sailing-trial","354","1434548","0.0-11.0-319.0","","","","false","","","","","","","","","","null","","1389.1999999997206","","2","1","null","null","arrowup","[0.675,0.325,0.85,0.15]","","",""
"sailing-trial","355","1437636","0.0-11.0-320.0","","","","false","","","","","","","","","","606.6000000000931","","4.899999999906868","","0","0","arrowleft","0","arrowleft","[0.675,0.325,0.85,0.15]","","",""
"sailing-trial","356","1441398","0.0-11.0-321.0","","","","false","","","","","","","","","","null","","1865.3999999999069","","2","1","null","null","arrowup","[0.675,0.325,0.85,0.15]","","",""
"sailing-trial","357","1445438","0.0-11.0-322.0","","","","false","","","","","","","","","","1271.7000000001863","","383.5","","1","0","arrowleft","0","arrowright","[0.675,0.325,0.85,0.15]","","",""
"sailing-trial","358","1448199","0.0-11.0-323.0","","","","false","","","","","","","","","","null","","839","","0","1","null","null","arrowup","[0.675,0.325,0.85,0.15]","","",""
"sailing-trial","359","1451850","0.0-11.0-324.0","","","","false","","","","","","","","","","668.1999999997206","","430.89999999990687","","0","0","arrowleft","0","arrowleft","[0.675,0.325,0.85,0.15]","","",""
"sailing-trial","360","1454089","0.0-11.0-325.0","","","","false","","","","","","","","","","null","","852.5","","3","0","null","null","arrowup","[0.675,0.325,0.85,0.15]","","",""
"sailing-trial","361","1458337","0.0-11.0-326.0","","","","false","","","","","","","","","","1284","","6.100000000093132","","1","0","arrowleft","0","arrowright","[0.675,0.325,0.85,0.15]","","",""
"sailing-trial","362","1461137","0.0-11.0-327.0","","","","false","","","","","","","","","","null","","1403.7000000001863","","3","0","null","null","arrowup","[0.675,0.325,0.85,0.15]","","",""
"sailing-trial","363","1465047","0.0-11.0-328.0","","","","false","","","","","","","","","","1000.2000000001863","","68","","2","1","arrowright","1","arrowleft","[0.85,0.15,0.675,0.325]","","",""
"sailing-trial","364","1468120","0.0-11.0-329.0","","","","false","","","","","","","","","","null","","1188.1999999997206","","3","0","null","null","arrowup","[0.85,0.15,0.675,0.325]","","",""
"sailing-trial","365","1471755","0.0-11.0-330.0","","","","false","","","","","","","","","","634.1999999997206","","500","","3","0","arrowright","1","arrowright","[0.85,0.15,0.675,0.325]","","",""
"sailing-trial","366","1474003","0.0-11.0-331.0","","","","false","","","","","","","","","","null","","763.7000000001863","","3","0","null","null","arrowup","[0.85,0.15,0.675,0.325]","","",""
"sailing-trial","367","1478616","0.0-11.0-332.0","","","","false","","","","","","","","","","1553.3999999999069","","136.5","","2","1","arrowright","1","arrowleft","[0.85,0.15,0.675,0.325]","","",""
"sailing-trial","368","1481713","0.0-11.0-333.0","","","","false","","","","","","","","","","null","","1110.8000000002794","","1","0","null","null","arrowup","[0.85,0.15,0.675,0.325]","","",""
"sailing-trial","369","1485765","0.0-11.0-334.0","","","","false","","","","","","","","","","862.5","","301.60000000009313","","0","1","arrowleft","0","arrowleft","[0.85,0.15,0.675,0.325]","","",""
"sailing-trial","370","1488713","0.0-11.0-335.0","","","","false","","","","","","","","","","null","","1109.5","","2","1","null","null","arrowup","[0.85,0.15,0.675,0.325]","","",""
"sailing-trial","371","1492438","0.0-11.0-336.0","","","","false","","","","","","","","","","705.8000000002794","","318.70000000018626","","0","0","arrowleft","0","arrowleft","[0.85,0.15,0.675,0.325]","","",""
"sailing-trial","372","1494770","0.0-11.0-337.0","","","","false","","","","","","","","","","null","","920.4000000003725","","3","0","null","null","arrowup","[0.85,0.15,0.675,0.325]","","",""
"sailing-trial","373","1498169","0.0-11.0-338.0","","","","false","","","","","","","","","","525.2999999998137","","305.3000000002794","","2","0","arrowright","1","arrowleft","[0.85,0.15,0.675,0.325]","","",""
"sailing-trial","374","1500916","0.0-11.0-339.0","","","","false","","","","","","","","","","null","","1121.1000000000931","","2","0","null","null","arrowup","[0.85,0.15,0.675,0.325]","","",""
"sailing-trial","375","1504012","0.0-11.0-340.0","","","","false","","","","","","","","","","528.7000000001863","","56.09999999962747","","3","0","arrowright","1","arrowright","[0.85,0.15,0.675,0.325]","","",""
"sailing-trial","376","1506465","0.0-11.0-341.0","","","","false","","","","","","","","","","null","","1171.8000000002794","","3","0","null","null","arrowup","[0.85,0.15,0.675,0.325]","","",""
"sailing-trial","377","1509512","0.0-11.0-342.0","","","","false","","","","","","","","","","545.2999999998137","","60.39999999990687","","1","0","arrowleft","0","arrowright","[0.85,0.15,0.675,0.325]","","",""
"sailing-trial","378","1512264","0.0-11.0-343.0","","","","false","","","","","","","","","","null","","776.7000000001863","","2","1","null","null","arrowup","[0.85,0.15,0.675,0.325]","","",""
"sailing-trial","379","1515319","0.0-11.0-344.0","","","","false","","","","","","","","","","510.29999999981374","","130.89999999990687","","2","0","arrowright","1","arrowleft","[0.85,0.15,0.675,0.325]","","",""
"sailing-trial","380","1517862","0.0-11.0-345.0","","","","false","","","","","","","","","","null","","663.2999999998137","","2","1","null","null","arrowup","[0.85,0.15,0.675,0.325]","","",""
"sailing-trial","381","1521896","0.0-11.0-346.0","","","","false","","","","","","","","","","569.2000000001863","","431.1999999997206","","0","1","arrowleft","0","arrowleft","[0.85,0.15,0.675,0.325]","","",""
"sailing-trial","382","1524662","0.0-11.0-347.0","","","","false","","","","","","","","","","null","","868.7999999998137","","2","1","null","null","arrowup","[0.85,0.15,0.675,0.325]","","",""
"sailing-trial","383","1528895","0.0-11.0-348.0","","","","false","","","","","","","","","","682.7000000001863","","643.6000000000931","","0","1","arrowleft","0","arrowleft","[0.675,0.325,0.85,0.15]","","",""
"sailing-trial","384","1531748","0.0-11.0-349.0","","","","false","","","","","","","","","","null","","1014","","0","1","null","null","arrowup","[0.675,0.325,0.85,0.15]","","",""
"sailing-trial","385","1537444","0.0-11.0-350.0","","","","false","","","","","","","","","","761.3000000002794","","2054.100000000093","","0","1","arrowleft","0","arrowleft","[0.675,0.325,0.85,0.15]","","",""
"sailing-trial","386","1540076","0.0-11.0-351.0","","","","false","","","","","","","","","","null","","804.3000000002794","","0","1","null","null","arrowup","[0.675,0.325,0.85,0.15]","","",""
"sailing-trial","387","1543994","0.0-11.0-352.0","","","","false","","","","","","","","","","620.3999999999069","","403.29999999981374","","0","1","arrowleft","0","arrowleft","[0.675,0.325,0.85,0.15]","","",""
"sailing-trial","388","1546109","0.0-11.0-353.0","","","","false","","","","","","","","","","null","","768.6000000000931","","1","0","null","null","arrowup","[0.675,0.325,0.85,0.15]","","",""
"sailing-trial","389","1549097","0.0-11.0-354.0","","","","false","","","","","","","","","","510.60000000009313","","71.5","","3","0","arrowright","1","arrowright","[0.675,0.325,0.85,0.15]","","",""
"sailing-trial","390","1551337","0.0-11.0-355.0","","","","false","","","","","","","","","","null","","583.8000000002794","","0","0","null","null","arrowup","[0.675,0.325,0.85,0.15]","","",""
"sailing-trial","391","1554984","0.0-11.0-356.0","","","","false","","","","","","","","","","531.2999999998137","","190.1999999997206","","0","1","arrowleft","0","arrowleft","[0.675,0.325,0.85,0.15]","","",""
"sailing-trial","392","1558981","0.0-11.0-357.0","","","","false","","","","","","","","","","null","","2148.7000000001863","","0","1","null","null","arrowup","[0.675,0.325,0.85,0.15]","","",""
"sailing-trial","393","1562643","0.0-11.0-358.0","","","","false","","","","","","","","","","585.6000000000931","","208.29999999981374","","2","1","arrowright","1","arrowleft","[0.675,0.325,0.85,0.15]","","",""
"sailing-trial","394","1564680","0.0-11.0-359.0","","","","false","","","","","","","","","","null","","674","","3","0","null","null","arrowup","[0.675,0.325,0.85,0.15]","","",""
"sailing-trial","395","1569194","0.0-11.0-360.0","","","","false","","","","","","","","","","582.7999999998137","","850.3999999999069","","0","1","arrowleft","0","arrowleft","[0.675,0.325,0.85,0.15]","","",""
"sailing-trial","396","1572208","0.0-11.0-361.0","","","","false","","","","","","","","","","null","","1181.3000000002794","","2","1","null","null","arrowup","[0.675,0.325,0.85,0.15]","","",""
"sailing-trial","397","1576875","0.0-11.0-362.0","","","","false","","","","","","","","","","1099.1000000000931","","657.7999999998137","","0","1","arrowleft","0","arrowleft","[0.675,0.325,0.85,0.15]","","",""
"sailing-trial","398","1579757","0.0-11.0-363.0","","","","false","","","","","","","","","","null","","923.7000000001863","","1","1","null","null","arrowup","[0.675,0.325,0.85,0.15]","","",""
"sailing-trial","399","1583795","0.0-11.0-364.0","","","","false","","","","","","","","","","637.7000000001863","","530.6000000000931","","0","1","arrowleft","0","arrowleft","[0.85,0.15,0.675,0.325]","","",""
"sailing-trial","400","1585913","0.0-11.0-365.0","","","","false","","","","","","","","","","null","","763.6000000000931","","1","0","null","null","arrowup","[0.85,0.15,0.675,0.325]","","",""
"sailing-trial","401","1589695","0.0-11.0-366.0","","","","false","","","","","","","","","","537.5","","405.39999999990687","","0","1","arrowleft","0","arrowleft","[0.85,0.15,0.675,0.325]","","",""
"sailing-trial","402","1591958","0.0-11.0-367.0","","","","false","","","","","","","","","","null","","856.7999999998137","","1","0","null","null","arrowup","[0.85,0.15,0.675,0.325]","","",""
"sailing-trial","403","1596410","0.0-11.0-368.0","","","","false","","","","","","","","","","1119.5","","468","","0","1","arrowleft","0","arrowleft","[0.85,0.15,0.675,0.325]","","",""
"sailing-trial","404","1598773","0.0-11.0-369.0","","","","false","","","","","","","","","","null","","783.1000000000931","","3","0","null","null","arrowup","[0.85,0.15,0.675,0.325]","","",""
"sailing-trial","405","1602525","0.0-11.0-370.0","","","","false","","","","","","","","","","744.3000000002794","","8.799999999813735","","0","1","arrowleft","0","arrowleft","[0.85,0.15,0.675,0.325]","","",""
"sailing-trial","406","1606659","0.0-11.0-371.0","","","","false","","","","","","","","","","null","","2210.9000000003725","","0","1","null","null","arrowup","[0.85,0.15,0.675,0.325]","","",""
"sailing-trial","407","1610658","0.0-11.0-372.0","","","","false","","","","","","","","","","664.6000000000931","","432.90000000037253","","0","1","arrowleft","0","arrowleft","[0.85,0.15,0.675,0.325]","","",""
"sailing-trial","408","1614542","0.0-11.0-373.0","","","","false","","","","","","","","","","null","","2028.7999999998137","","2","1","null","null","arrowup","[0.85,0.15,0.675,0.325]","","",""
"sailing-trial","409","1618510","0.0-11.0-374.0","","","","false","","","","","","","","","","734","","374.3000000002794","","0","1","arrowleft","0","arrowleft","[0.85,0.15,0.675,0.325]","","",""
"sailing-trial","410","1620774","0.0-11.0-375.0","","","","false","","","","","","","","","","null","","865.1999999997206","","1","0","null","null","arrowup","[0.85,0.15,0.675,0.325]","","",""
"sailing-trial","411","1623864","0.0-11.0-376.0","","","","false","","","","","","","","","","519.8999999999069","","218.6999999997206","","2","0","arrowright","1","arrowleft","[0.85,0.15,0.675,0.325]","","",""
"sailing-trial","412","1625810","0.0-11.0-377.0","","","","false","","","","","","","","","","null","","573.1000000000931","","3","0","null","null","arrowup","[0.85,0.15,0.675,0.325]","","",""
"sailing-trial","413","1629726","0.0-11.0-378.0","","","","false","","","","","","","","","","492.6999999997206","","511.20000000018626","","0","1","arrowleft","0","arrowleft","[0.85,0.15,0.675,0.325]","","",""
"sailing-trial","414","1632424","0.0-11.0-379.0","","","","false","","","","","","","","","","null","","848","","0","1","null","null","arrowup","[0.85,0.15,0.675,0.325]","","",""
"sailing-trial","415","1636491","0.0-11.0-380.0","","","","false","","","","","","","","","","583.2000000001863","","523.3000000002794","","0","1","arrowleft","0","arrowleft","[0.85,0.15,0.675,0.325]","","",""
"sailing-trial","416","1638958","0.0-11.0-381.0","","","","false","","","","","","","","","","null","","1065.5999999996275","","1","0","null","null","arrowup","[0.85,0.15,0.675,0.325]","","",""
"sailing-trial","417","1642894","0.0-11.0-382.0","","","","false","","","","","","","","","","663.3999999999069","","483.29999999981374","","0","1","arrowleft","0","arrowleft","[0.85,0.15,0.675,0.325]","","",""
"sailing-trial","418","1644926","0.0-11.0-383.0","","","","false","","","","","","","","","","null","","818.7000000001863","","3","0","null","null","arrowup","[0.85,0.15,0.675,0.325]","","",""
"sailing-trial","419","1649407","0.0-11.0-384.0","","","","false","","","","","","","","","","589.1000000000931","","1328.8999999999069","","0","1","arrowleft","0","arrowleft","[0.675,0.325,0.85,0.15]","","",""
"sailing-trial","420","1652139","0.0-11.0-385.0","","","","false","","","","","","","","","","null","","885.7999999998137","","2","1","null","null","arrowup","[0.675,0.325,0.85,0.15]","","",""
"sailing-trial","421","1655325","0.0-11.0-386.0","","","","false","","","","","","","","","","514.6000000000931","","160.70000000018626","","2","0","arrowright","1","arrowleft","[0.675,0.325,0.85,0.15]","","",""
"sailing-trial","422","1657397","0.0-11.0-387.0","","","","false","","","","","","","","","","null","","691.5","","1","0","null","null","arrowup","[0.675,0.325,0.85,0.15]","","",""
"sailing-trial","423","1660854","0.0-11.0-388.0","","","","false","","","","","","","","","","552.1000000000931","","446.29999999981374","","3","0","arrowright","1","arrowright","[0.675,0.325,0.85,0.15]","","",""
"sailing-trial","424","1663555","0.0-11.0-389.0","","","","false","","","","","","","","","","null","","703.8000000002794","","2","1","null","null","arrowup","[0.675,0.325,0.85,0.15]","","",""
"sailing-trial","425","1666522","0.0-11.0-390.0","","","","false","","","","","","","","","","484.10000000009313","","157.39999999990687","","2","0","arrowright","1","arrowleft","[0.675,0.325,0.85,0.15]","","",""
"sailing-trial","426","1668521","0.0-11.0-391.0","","","","false","","","","","","","","","","null","","718.8999999999069","","3","0","null","null","arrowup","[0.675,0.325,0.85,0.15]","","",""
"sailing-trial","427","1672089","0.0-11.0-392.0","","","","false","","","","","","","","","","414.29999999981374","","267.5","","0","1","arrowleft","0","arrowleft","[0.675,0.325,0.85,0.15]","","",""
"sailing-trial","428","1674181","0.0-11.0-393.0","","","","false","","","","","","","","","","null","","596.7999999998137","","3","0","null","null","arrowup","[0.675,0.325,0.85,0.15]","","",""
"sailing-trial","429","1677717","0.0-11.0-394.0","","","","false","","","","","","","","","","522.8999999999069","","184.79999999981374","","0","1","arrowleft","0","arrowleft","[0.675,0.325,0.85,0.15]","","",""
"sailing-trial","430","1681958","0.0-11.0-395.0","","","","false","","","","","","","","","","null","","2242.7999999998137","","0","1","null","null","arrowup","[0.675,0.325,0.85,0.15]","","",""
"sailing-trial","431","1685787","0.0-11.0-396.0","","","","false","","","","","","","","","","671.5","","346.29999999981374","","0","1","arrowleft","0","arrowleft","[0.675,0.325,0.85,0.15]","","",""
"sailing-trial","432","1688604","0.0-11.0-397.0","","","","false","","","","","","","","","","null","","587","","1","1","null","null","arrowup","[0.675,0.325,0.85,0.15]","","",""
"sailing-trial","433","1692822","0.0-11.0-398.0","","","","false","","","","","","","","","","644.8999999999069","","705.8000000002794","","0","1","arrowleft","0","arrowleft","[0.675,0.325,0.85,0.15]","","",""
"sailing-trial","434","1695554","0.0-11.0-399.0","","","","false","","","","","","","","","","null","","920.8999999999069","","0","1","null","null","arrowup","[0.675,0.325,0.85,0.15]","","",""
"instructions","435","1706057","0.0-12.0","","","","","","","","","","10501","","","","","","","","","","","","","","","","[{""page_index"":0,""viewing_time"":10498.100000000093}]"
"survey-debrief","436","1768845","0.0-13.0","","","","","","","","","","62778.200000000186","","","","","","","","","","","","","","{""difficulty"":""2"",""fun"":""5"",""clarity"":""5"",""strategy"":""I went with my instincts. "",""feedback"":""Thank you for allowing me to participate.""}","",""
