"trial_type","trial_index","time_elapsed","internal_node_id","value","metadata","success","timeout","failed_images","failed_audio","failed_video","browser_interaction","low_quality","rt","stimulus","response","button_pressed","island_rt","island_response","boat_rt","boat_response","boat","reward","island_key","island","boat_key","reward_probabilities","responses","num_errors","view_history"
"pavlovia","0","4","0.0-0.0","","","","","","","","","","","","","","","","","","","","","","","","","",""
"call-function","1","4","0.0-1.0","","{""task_version"":""sailing_part1_v1"",""task_condition"":""good"",""boats"":[""D"",""B"",""A"",""C""],""boats_demo"":[""H"",""F"",""G"",""E""],""islands"":[""A"",""B""],""subject_id"":""14754"",""age"":""19"",""gender"":""Male""}","","","","","","","","","","","","","","","","","","","","","","","",""
"preload","2","2247","0.0-2.0","","","true","false","[]","[]","[]","[{""event"":""fullscreenenter"",""trial"":3,""time"":3739}]","false","","","","","","","","","","","","","","","","",""
"fullscreen","3","4686","0.0-3.0","","","true","","","","","","","","","","","","","","","","","","","","","","",""
"audio-keyboard-response","4","7126","0.0-4.0-0.0","","","","","","","","","","0","audio/beep_loop.wav"," ","","","","","","","","","","","","","",""
"audio-test","5","9110","0.0-4.0-1.0","","","","","","","","","","null","audio/turtle.mp3","","3","","","","","","","","","","","","",""
"audio-test","6","11326","0.0-4.0-2.0","","","","","","","","","","null","audio/shark.mp3","","2","","","","","","","","","","","","",""
"sailing-instructions","7","43533","0.0-5.0-0.0-0.0","","","","","","","","","","","","","","null","null","null","null","null","null","","","","","","",""
"sailing-trial","8","47044","0.0-5.0-0.0-1.0-0.0","","","","false","","","","","","","","","","2376","","null","","null","null","arrowleft","0","null","null","","",""
"sailing-trial","9","48893","0.0-5.0-0.0-1.0-1.0","","","","false","","","","","","","","","","707","","null","","null","null","arrowright","1","null","null","","",""
"sailing-trial","10","52709","0.0-5.0-0.0-1.0-2.0","","","","false","","","","","","","","","","2665.9999999999927","","null","","null","null","arrowleft","0","null","null","","",""
"sailing-instructions","11","99597","0.0-5.0-0.0-2.0","","","","","","","","","","","","","","null","null","null","null","0","null","","","","","","",""
"sailing-trial","12","103827","0.0-5.0-0.0-3.0-0.0","","","","false","","","","","","","","","","null","","1158","","2","1","null","null","arrowleft","[1,1,1,1]","","",""
"sailing-trial","13","107627","0.0-5.0-0.0-3.0-1.0","","","","false","","","","","","","","","","null","","782","","3","1","null","null","arrowright","[1,1,1,1]","","",""
"sailing-trial","14","111459","0.0-5.0-0.0-3.0-2.0","","","","false","","","","","","","","","","null","","1097","","3","0","null","null","arrowright","[0,0,0,0]","","",""
"sailing-instructions","15","119057","0.0-5.0-0.0-4.0","","","","","","","","","","","","","","null","null","null","null","null","null","","","","","","",""
"sailing-comprehension","16","133139","0.0-5.0-0.0-5.0","","","","","","","","","","10519.999999999985","","","","","","","","","","","","","","[""true"",""true"",""false"",""true""]","0",""
"sailing-instructions","17","193696","0.0-6.0-0.0-0.0","","","","","","","","","","","","","","null","null","null","null","null","null","","","","","","",""
"sailing-comprehension","18","203348","0.0-6.0-0.0-1.0","","","","","","","","","","8647.99999999997","","","","","","","","","","","","","","[""true"",""false"",""true""]","0",""
"sailing-instructions","19","219807","0.0-7.0-0.0-0.0","","","","","","","","","","","","","","null","null","null","null","null","null","","","","","","",""
"sailing-trial","20","223514","0.0-7.0-0.0-1.0-0.0","","","","false","","","","","","","","","","null","","1238.999999999971","","0","0","null","null","arrowup","[0.2,0.8,0.2,0.8]","","",""
"sailing-trial","21","227159","0.0-7.0-0.0-1.0-1.0","","","","false","","","","","","","","","","null","","1376","","1","1","null","null","arrowup","[0.2,0.8,0.2,0.8]","","",""
"sailing-trial","22","230043","0.0-7.0-0.0-1.0-2.0","","","","false","","","","","","","","","","null","","846","","2","1","null","null","arrowup","[0.2,0.8,0.2,0.8]","","",""
"sailing-trial","23","232859","0.0-7.0-0.0-1.0-3.0","","","","false","","","","","","","","","","null","","771.9999999999709","","3","1","null","null","arrowup","[0.2,0.8,0.2,0.8]","","",""
"sailing-comprehension","24","240847","0.0-7.0-0.0-2.0","","","","","","","","","","5066","","","","","","","","","","","","","","[""true""]","1",""
"sailing-instructions","25","255816","0.0-7.0-0.1-0.1","","","","","","","","","","","","","","null","null","null","null","null","null","","","","","","",""
"sailing-trial","26","257808","0.0-7.0-0.1-1.1-0.1","","","","false","","","","","","","","","","null","","652.0000000000582","","0","0","null","null","arrowup","[0.2,0.8,0.2,0.8]","","",""
"sailing-trial","27","260737","0.0-7.0-0.1-1.1-1.1","","","","false","","","","","","","","","","null","","636.0000000000291","","1","0","null","null","arrowup","[0.2,0.8,0.2,0.8]","","",""
"sailing-trial","28","263476","0.0-7.0-0.1-1.1-2.1","","","","false","","","","","","","","","","null","","698","","2","1","null","null","arrowup","[0.2,0.8,0.2,0.8]","","",""
"sailing-trial","29","265926","0.0-7.0-0.1-1.1-3.1","","","","false","","","","","","","","","","null","","626","","3","1","null","null","arrowup","[0.2,0.8,0.2,0.8]","","",""
"sailing-comprehension","30","270264","0.0-7.0-0.1-2.1","","","","","","","","","","3266","","","","","","","","","","","","","","[""false""]","0",""
"sailing-instructions","31","280743","0.0-8.0-0.0-0.0","","","","","","","","","","","","","","null","null","null","null","null","null","","","","","","",""
"sailing-comprehension","32","283930","0.0-8.0-0.0-1.0","","","","","","","","","","2347.999999999942","","","","","","","","","","","","","","[""true""]","0",""
"sailing-instructions","33","305960","0.0-9.0-0.0-0.0","","","","","","","","","","","","","","null","null","null","null","null","null","","","","","","",""
"sailing-trial","34","311258","0.0-9.0-0.0-1.0-0.0","","","","false","","","","","","","","","","892","","875","","0","0","arrowleft","0","arrowleft","[0.2,0.8,0.2,0.8]","","",""
"sailing-trial","35","315775","0.0-9.0-0.0-1.0-1.0","","","","false","","","","","","","","","","855","","11","","3","1","arrowright","1","arrowright","[0.2,0.8,0.2,0.8]","","",""
"sailing-trial","36","319481","0.0-9.0-0.0-1.0-2.0","","","","false","","","","","","","","","","null","","1518","","0","0","null","null","arrowup","[0.2,0.8,0.2,0.8]","","",""
"sailing-trial","37","324759","0.0-9.0-0.0-1.0-3.0","","","","false","","","","","","","","","","943","","804","","1","1","arrowleft","0","arrowright","[0.2,0.8,0.2,0.8]","","",""
"sailing-trial","38","327909","0.0-9.0-0.0-1.0-4.0","","","","false","","","","","","","","","","null","","1068","","3","1","null","null","arrowup","[0.2,0.8,0.2,0.8]","","",""
"sailing-trial","39","333476","0.0-9.0-0.0-1.0-5.0","","","","false","","","","","","","","","","994","","636","","3","1","arrowright","1","arrowright","[0.2,0.8,0.2,0.8]","","",""
"sailing-instructions","40","358024","0.0-10.0","","","","","","","","","","","","","","null","null","null","null","null","null","","","","","","",""
"sailing-trial","41","363326","0.0-11.0-0.0","","","","false","","","","","","","","","","876","","4","","3","0","arrowright","1","arrowright","[0.85,0.15,0.325,0.675]","","",""
"sailing-trial","42","367292","0.0-11.0-1.0","","","","false","","","","","","","","","","null","","921","","3","0","null","null","arrowup","[0.85,0.15,0.325,0.675]","","",""
"sailing-trial","43","372409","0.0-11.0-2.0","","","","false","","","","","","","","","","689","","51","","1","0","arrowleft","0","arrowright","[0.85,0.15,0.325,0.675]","","",""
"sailing-trial","44","376075","0.0-11.0-3.0","","","","false","","","","","","","","","","null","","609.9999999999418","","2","0","null","null","arrowup","[0.85,0.15,0.325,0.675]","","",""
"sailing-trial","45","380825","0.0-11.0-4.0","","","","false","","","","","","","","","","454.9999999999418","","640","","0","1","arrowleft","0","arrowleft","[0.85,0.15,0.325,0.675]","","",""
"sailing-trial","46","383742","0.0-11.0-5.0","","","","false","","","","","","","","","","null","","842.9999999999418","","2","1","null","null","arrowup","[0.85,0.15,0.325,0.675]","","",""
"sailing-trial","47","388659","0.0-11.0-6.0","","","","false","","","","","","","","","","678","","784.0000000000582","","0","1","arrowleft","0","arrowleft","[0.85,0.15,0.325,0.675]","","",""
"sailing-trial","48","392358","0.0-11.0-7.0","","","","false","","","","","","","","","","null","","1610.9999999999418","","2","1","null","null","arrowup","[0.85,0.15,0.325,0.675]","","",""
"sailing-trial","49","397575","0.0-11.0-8.0","","","","false","","","","","","","","","","816","","529","","0","1","arrowleft","0","arrowleft","[0.85,0.15,0.325,0.675]","","",""
"sailing-trial","50","400558","0.0-11.0-9.0","","","","false","","","","","","","","","","null","","885","","2","1","null","null","arrowup","[0.85,0.15,0.325,0.675]","","",""
"sailing-trial","51","405242","0.0-11.0-10.0","","","","false","","","","","","","","","","526","","661","","0","1","arrowleft","0","arrowleft","[0.85,0.15,0.325,0.675]","","",""
"sailing-trial","52","409542","0.0-11.0-11.0","","","","false","","","","","","","","","","null","","1257.0000000000582","","1","0","null","null","arrowup","[0.85,0.15,0.325,0.675]","","",""
"sailing-trial","53","414851","0.0-11.0-12.0","","","","false","","","","","","","","","","852.0000000000582","","79","","2","0","arrowright","1","arrowleft","[0.85,0.15,0.325,0.675]","","",""
"sailing-trial","54","418757","0.0-11.0-13.0","","","","false","","","","","","","","","","null","","848","","1","0","null","null","arrowup","[0.85,0.15,0.325,0.675]","","",""
"sailing-trial","55","423324","0.0-11.0-14.0","","","","false","","","","","","","","","","485","","314","","0","1","arrowleft","0","arrowleft","[0.85,0.15,0.325,0.675]","","",""
"sailing-trial","56","425492","0.0-11.0-15.0","","","","false","","","","","","","","","","null","","627","","2","0","null","null","arrowup","[0.85,0.15,0.325,0.675]","","",""
"sailing-trial","57","430358","0.0-11.0-16.0","","","","false","","","","","","","","","","818","","334","","1","1","arrowleft","0","arrowright","[0.85,0.15,0.325,0.675]","","",""
"sailing-trial","58","433342","0.0-11.0-17.0","","","","false","","","","","","","","","","null","","576.0000000000582","","3","1","null","null","arrowup","[0.85,0.15,0.325,0.675]","","",""
"sailing-trial","59","438875","0.0-11.0-18.0","","","","false","","","","","","","","","","737","","403","","1","0","arrowleft","0","arrowright","[0.85,0.15,0.325,0.675]","","",""
"sailing-trial","60","442408","0.0-11.0-19.0","","","","false","","","","","","","","","","null","","473.9999999999418","","0","0","null","null","arrowup","[0.85,0.15,0.325,0.675]","","",""
"sailing-trial","61","446775","0.0-11.0-20.0","","","","false","","","","","","","","","","511","","360","","0","1","arrowleft","0","arrowleft","[0.85,0.15,0.325,0.675]","","",""
"sailing-trial","62","449791","0.0-11.0-21.0","","","","false","","","","","","","","","","null","","628","","3","1","null","null","arrowup","[0.85,0.15,0.325,0.675]","","",""
"sailing-trial","63","454025","0.0-11.0-22.0","","","","false","","","","","","","","","","509.9999999999418","","255","","0","1","arrowleft","0","arrowleft","[0.675,0.325,0.15,0.85]","","",""
"sailing-trial","64","457957","0.0-11.0-23.0","","","","false","","","","","","","","","","null","","1751","","0","1","null","null","arrowup","[0.675,0.325,0.15,0.85]","","",""
"sailing-trial","65","463074","0.0-11.0-24.0","","","","false","","","","","","","","","","620","","435","","0","1","arrowleft","0","arrowleft","[0.675,0.325,0.15,0.85]","","",""
"sailing-trial","66","466224","0.0-11.0-25.0","","","","false","","","","","","","","","","null","","709","","3","1","null","null","arrowup","[0.675,0.325,0.15,0.85]","","",""
"sailing-trial","67","471608","0.0-11.0-26.0","","","","false","","","","","","","","","","661","","300","","0","0","arrowleft","0","arrowleft","[0.675,0.325,0.15,0.85]","","",""
"sailing-trial","68","474641","0.0-11.0-27.0","","","","false","","","","","","","","","","null","","825","","0","1","null","null","arrowup","[0.675,0.325,0.15,0.85]","","",""
"sailing-trial","69","479625","0.0-11.0-28.0","","","","false","","","","","","","","","","511","","354","","0","1","arrowleft","0","arrowleft","[0.675,0.325,0.15,0.85]","","",""
"sailing-trial","70","482357","0.0-11.0-29.0","","","","false","","","","","","","","","","null","","625","","1","1","null","null","arrowup","[0.675,0.325,0.15,0.85]","","",""
"sailing-trial","71","486908","0.0-11.0-30.0","","","","false","","","","","","","","","","595.0000000000582","","254.0000000000582","","0","1","arrowleft","0","arrowleft","[0.675,0.325,0.15,0.85]","","",""
"sailing-trial","72","489642","0.0-11.0-31.0","","","","false","","","","","","","","","","null","","629.0000000000582","","3","1","null","null","arrowup","[0.675,0.325,0.15,0.85]","","",""
"sailing-trial","73","493724","0.0-11.0-32.0","","","","false","","","","","","","","","","638","","269","","0","1","arrowleft","0","arrowleft","[0.675,0.325,0.15,0.85]","","",""
"sailing-trial","74","495875","0.0-11.0-33.0","","","","false","","","","","","","","","","null","","623","","0","0","null","null","arrowup","[0.675,0.325,0.15,0.85]","","",""
"sailing-trial","75","501007","0.0-11.0-34.0","","","","false","","","","","","","","","","433.0000000000582","","269","","0","0","arrowleft","0","arrowleft","[0.675,0.325,0.15,0.85]","","",""
"sailing-trial","76","504108","0.0-11.0-35.0","","","","false","","","","","","","","","","null","","988","","3","1","null","null","arrowup","[0.675,0.325,0.15,0.85]","","",""
"sailing-trial","77","508740","0.0-11.0-36.0","","","","false","","","","","","","","","","533.9999999999418","","282","","0","1","arrowleft","0","arrowleft","[0.675,0.325,0.15,0.85]","","",""
"sailing-trial","78","512558","0.0-11.0-37.0","","","","false","","","","","","","","","","null","","759","","2","0","null","null","arrowup","[0.675,0.325,0.15,0.85]","","",""
"sailing-trial","79","517624","0.0-11.0-38.0","","","","false","","","","","","","","","","510","","809","","3","1","arrowright","1","arrowright","[0.675,0.325,0.15,0.85]","","",""
"sailing-trial","80","520424","0.0-11.0-39.0","","","","false","","","","","","","","","","null","","606.0000000001164","","0","1","null","null","arrowup","[0.675,0.325,0.15,0.85]","","",""
"sailing-trial","81","524974","0.0-11.0-40.0","","","","false","","","","","","","","","","510.9999999999418","","341.9999999999418","","3","1","arrowright","1","arrowright","[0.675,0.325,0.15,0.85]","","",""
"sailing-trial","82","528790","0.0-11.0-41.0","","","","false","","","","","","","","","","null","","754","","1","0","null","null","arrowup","[0.675,0.325,0.15,0.85]","","",""
"sailing-trial","83","533391","0.0-11.0-42.0","","","","false","","","","","","","","","","532","","364","","3","1","arrowright","1","arrowright","[0.675,0.325,0.15,0.85]","","",""
"sailing-trial","84","537059","0.0-11.0-43.0","","","","false","","","","","","","","","","null","","619","","1","0","null","null","arrowup","[0.675,0.325,0.15,0.85]","","",""
"sailing-trial","85","541374","0.0-11.0-44.0","","","","false","","","","","","","","","","468","","264","","3","1","arrowright","1","arrowright","[0.675,0.325,0.15,0.85]","","",""
"sailing-trial","86","544724","0.0-11.0-45.0","","","","false","","","","","","","","","","null","","1064","","3","1","null","null","arrowup","[0.675,0.325,0.15,0.85]","","",""
"sailing-trial","87","550174","0.0-11.0-46.0","","","","false","","","","","","","","","","626","","393.0000000001164","","0","0","arrowleft","0","arrowleft","[0.85,0.15,0.325,0.675]","","",""
"sailing-trial","88","552907","0.0-11.0-47.0","","","","false","","","","","","","","","","null","","653","","2","1","null","null","arrowup","[0.85,0.15,0.325,0.675]","","",""
"sailing-trial","89","557991","0.0-11.0-48.0","","","","false","","","","","","","","","","557.9999999998836","","120","","2","0","arrowright","1","arrowleft","[0.85,0.15,0.325,0.675]","","",""
"sailing-trial","90","561590","0.0-11.0-49.0","","","","false","","","","","","","","","","null","","541","","1","0","null","null","arrowup","[0.85,0.15,0.325,0.675]","","",""
"sailing-trial","91","565706","0.0-11.0-50.0","","","","false","","","","","","","","","","448","","210","","3","1","arrowright","1","arrowright","[0.85,0.15,0.325,0.675]","","",""
"sailing-trial","92","568552","0.0-11.0-51.0","","","","false","","","","","","","","","","null","","713","","0","1","null","null","arrowup","[0.85,0.15,0.325,0.675]","","",""
"sailing-trial","93","573173","0.0-11.0-52.0","","","","false","","","","","","","","","","519","","217","","3","1","arrowright","1","arrowright","[0.85,0.15,0.325,0.675]","","",""
"sailing-trial","94","576289","0.0-11.0-53.0","","","","false","","","","","","","","","","null","","1077","","0","1","null","null","arrowup","[0.85,0.15,0.325,0.675]","","",""
"sailing-trial","95","580691","0.0-11.0-54.0","","","","false","","","","","","","","","","574","","256","","3","1","arrowright","1","arrowright","[0.85,0.15,0.325,0.675]","","",""
"sailing-trial","96","583889","0.0-11.0-55.0","","","","false","","","","","","","","","","null","","1149","","3","1","null","null","arrowup","[0.85,0.15,0.325,0.675]","","",""
"sailing-trial","97","588224","0.0-11.0-56.0","","","","false","","","","","","","","","","585","","333","","3","1","arrowright","1","arrowright","[0.85,0.15,0.325,0.675]","","",""
"sailing-trial","98","592690","0.0-11.0-57.0","","","","false","","","","","","","","","","null","","2392","","0","1","null","null","arrowup","[0.85,0.15,0.325,0.675]","","",""
"sailing-trial","99","598523","0.0-11.0-58.0","","","","false","","","","","","","","","","584.0000000001164","","833.0000000001164","","3","0","arrowright","1","arrowright","[0.85,0.15,0.325,0.675]","","",""
"sailing-trial","100","601356","0.0-11.0-59.0","","","","false","","","","","","","","","","null","","599","","3","1","null","null","arrowup","[0.85,0.15,0.325,0.675]","","",""
"sailing-trial","101","606706","0.0-11.0-60.0","","","","false","","","","","","","","","","560.9999999998836","","381","","3","0","arrowright","1","arrowright","[0.85,0.15,0.325,0.675]","","",""
"sailing-trial","102","609605","0.0-11.0-61.0","","","","false","","","","","","","","","","null","","522","","0","1","null","null","arrowup","[0.85,0.15,0.325,0.675]","","",""
"sailing-trial","103","614289","0.0-11.0-62.0","","","","false","","","","","","","","","","658","","327","","1","1","arrowleft","0","arrowright","[0.325,0.675,0.85,0.15]","","",""
"sailing-trial","104","618073","0.0-11.0-63.0","","","","false","","","","","","","","","","null","","717","","3","0","null","null","arrowup","[0.325,0.675,0.85,0.15]","","",""
"sailing-trial","105","623140","0.0-11.0-64.0","","","","false","","","","","","","","","","830","","503","","1","1","arrowleft","0","arrowright","[0.325,0.675,0.85,0.15]","","",""
"sailing-trial","106","625623","0.0-11.0-65.0","","","","false","","","","","","","","","","null","","716","","0","0","null","null","arrowup","[0.325,0.675,0.85,0.15]","","",""
"sailing-trial","107","631005","0.0-11.0-66.0","","","","false","","","","","","","","","","519","","255","","3","0","arrowright","1","arrowright","[0.325,0.675,0.85,0.15]","","",""
"sailing-trial","108","634606","0.0-11.0-67.0","","","","false","","","","","","","","","","null","","566","","2","0","null","null","arrowup","[0.325,0.675,0.85,0.15]","","",""
"sailing-trial","109","639756","0.0-11.0-68.0","","","","false","","","","","","","","","","406","","358","","3","0","arrowright","1","arrowright","[0.325,0.675,0.85,0.15]","","",""
"sailing-trial","110","643257","0.0-11.0-69.0","","","","false","","","","","","","","","","null","","460","","1","0","null","null","arrowup","[0.325,0.675,0.85,0.15]","","",""
"sailing-trial","111","648423","0.0-11.0-70.0","","","","false","","","","","","","","","","492","","287","","1","0","arrowleft","0","arrowright","[0.325,0.675,0.85,0.15]","","",""
"sailing-trial","112","651156","0.0-11.0-71.0","","","","false","","","","","","","","","","null","","602","","3","1","null","null","arrowup","[0.325,0.675,0.85,0.15]","","",""
"sailing-trial","113","656040","0.0-11.0-72.0","","","","false","","","","","","","","","","778","","333","","2","1","arrowright","1","arrowleft","[0.325,0.675,0.85,0.15]","","",""
"sailing-trial","114","660206","0.0-11.0-73.0","","","","false","","","","","","","","","","null","","1116","","3","0","null","null","arrowup","[0.325,0.675,0.85,0.15]","","",""
"sailing-trial","115","664406","0.0-11.0-74.0","","","","false","","","","","","","","","","490","","302","","2","1","arrowright","1","arrowleft","[0.325,0.675,0.85,0.15]","","",""
"sailing-trial","116","668022","0.0-11.0-75.0","","","","false","","","","","","","","","","null","","574.9999999998836","","0","0","null","null","arrowup","[0.325,0.675,0.85,0.15]","","",""
"sailing-trial","117","672705","0.0-11.0-76.0","","","","false","","","","","","","","","","821","","358","","2","1","arrowright","1","arrowleft","[0.325,0.675,0.85,0.15]","","",""
"sailing-trial","118","676840","0.0-11.0-77.0","","","","false","","","","","","","","","","null","","1468","","1","1","null","null","arrowup","[0.325,0.675,0.85,0.15]","","",""
"sailing-trial","119","682122","0.0-11.0-78.0","","","","false","","","","","","","","","","611","","273","","2","0","arrowright","1","arrowleft","[0.15,0.85,0.675,0.325]","","",""
"sailing-trial","120","685022","0.0-11.0-79.0","","","","false","","","","","","","","","","null","","858","","1","1","null","null","arrowup","[0.15,0.85,0.675,0.325]","","",""
"sailing-trial","121","689121","0.0-11.0-80.0","","","","false","","","","","","","","","","481.9999999998836","","69.99999999988358","","2","1","arrowright","1","arrowleft","[0.15,0.85,0.675,0.325]","","",""
"sailing-trial","122","691866","0.0-11.0-81.0","","","","false","","","","","","","","","","null","","843","","0","0","null","null","arrowup","[0.15,0.85,0.675,0.325]","","",""
"sailing-trial","123","697007","0.0-11.0-82.0","","","","false","","","","","","","","","","596","","142","","2","0","arrowright","1","arrowleft","[0.15,0.85,0.675,0.325]","","",""
"sailing-trial","124","699989","0.0-11.0-83.0","","","","false","","","","","","","","","","null","","853","","0","0","null","null","arrowup","[0.15,0.85,0.675,0.325]","","",""
"sailing-trial","125","704606","0.0-11.0-84.0","","","","false","","","","","","","","","","496","","377","","1","1","arrowleft","0","arrowright","[0.15,0.85,0.675,0.325]","","",""
"sailing-trial","126","707671","0.0-11.0-85.0","","","","false","","","","","","","","","","null","","986","","2","1","null","null","arrowup","[0.15,0.85,0.675,0.325]","","",""
"sailing-trial","127","712356","0.0-11.0-86.0","","","","false","","","","","","","","","","648","","275","","1","1","arrowleft","0","arrowright","[0.15,0.85,0.675,0.325]","","",""
"sailing-trial","128","716306","0.0-11.0-87.0","","","","false","","","","","","","","","","null","","898","","0","0","null","null","arrowup","[0.15,0.85,0.675,0.325]","","",""
"sailing-trial","129","721106","0.0-11.0-88.0","","","","false","","","","","","","","","","568","","395","","1","1","arrowleft","0","arrowright","[0.15,0.85,0.675,0.325]","","",""
"sailing-trial","130","724856","0.0-11.0-89.0","","","","false","","","","","","","","","","null","","701","","3","0","null","null","arrowup","[0.15,0.85,0.675,0.325]","","",""
"sailing-trial","131","729156","0.0-11.0-90.0","","","","false","","","","","","","","","","552","","108","","2","1","arrowright","1","arrowleft","[0.15,0.85,0.675,0.325]","","",""
"sailing-trial","132","732406","0.0-11.0-91.0","","","","false","","","","","","","","","","null","","615","","3","1","null","null","arrowup","[0.15,0.85,0.675,0.325]","","",""
"sailing-trial","133","737621","0.0-11.0-92.0","","","","false","","","","","","","","","","524","","289","","2","0","arrowright","1","arrowleft","[0.15,0.85,0.675,0.325]","","",""
"sailing-trial","134","741154","0.0-11.0-93.0","","","","false","","","","","","","","","","null","","486.9999999998836","","3","0","null","null","arrowup","[0.15,0.85,0.675,0.325]","","",""
"sailing-trial","135","745689","0.0-11.0-94.0","","","","false","","","","","","","","","","482","","314","","1","1","arrowleft","0","arrowright","[0.15,0.85,0.675,0.325]","","",""
"sailing-trial","136","748244","0.0-11.0-95.0","","","","false","","","","","","","","","","null","","637","","3","0","null","null","arrowup","[0.15,0.85,0.675,0.325]","","",""
"sailing-trial","137","753422","0.0-11.0-96.0","","","","false","","","","","","","","","","588","","1","","0","0","arrowleft","0","arrowleft","[0.675,0.325,0.15,0.85]","","",""
"sailing-trial","138","756742","0.0-11.0-97.0","","","","false","","","","","","","","","","null","","525","","0","1","null","null","arrowup","[0.675,0.325,0.15,0.85]","","",""
"sailing-trial","139","761573","0.0-11.0-98.0","","","","false","","","","","","","","","","552","","29.999999999883585","","1","0","arrowleft","0","arrowright","[0.675,0.325,0.15,0.85]","","",""
"sailing-trial","140","765173","0.0-11.0-99.0","","","","false","","","","","","","","","","null","","542","","0","0","null","null","arrowup","[0.675,0.325,0.15,0.85]","","",""
"sailing-trial","141","769389","0.0-11.0-100.0","","","","false","","","","","","","","","","399","","316","","3","1","arrowright","1","arrowright","[0.675,0.325,0.15,0.85]","","",""
"sailing-trial","142","772222","0.0-11.0-101.0","","","","false","","","","","","","","","","null","","724","","1","0","null","null","arrowup","[0.675,0.325,0.15,0.85]","","",""
"sailing-trial","143","777138","0.0-11.0-102.0","","","","false","","","","","","","","","","491.0000000001164","","53.999999999883585","","2","0","arrowright","1","arrowleft","[0.675,0.325,0.15,0.85]","","",""
"sailing-trial","144","779402","0.0-11.0-103.0","","","","false","","","","","","","","","","null","","483","","2","0","null","null","arrowup","[0.675,0.325,0.15,0.85]","","",""
"sailing-trial","145","784406","0.0-11.0-104.0","","","","false","","","","","","","","","","434","","726","","3","1","arrowright","1","arrowright","[0.675,0.325,0.15,0.85]","","",""
"sailing-trial","146","787055","0.0-11.0-105.0","","","","false","","","","","","","","","","null","","583","","0","1","null","null","arrowup","[0.675,0.325,0.15,0.85]","","",""
"sailing-trial","147","791392","0.0-11.0-106.0","","","","false","","","","","","","","","","570","","224","","3","1","arrowright","1","arrowright","[0.675,0.325,0.15,0.85]","","",""
"sailing-trial","148","794205","0.0-11.0-107.0","","","","false","","","","","","","","","","null","","605","","3","1","null","null","arrowup","[0.675,0.325,0.15,0.85]","","",""
"sailing-trial","149","799455","0.0-11.0-108.0","","","","false","","","","","","","","","","603","","243.99999999988358","","3","0","arrowright","1","arrowright","[0.675,0.325,0.15,0.85]","","",""
"sailing-trial","150","802205","0.0-11.0-109.0","","","","false","","","","","","","","","","null","","531","","1","1","null","null","arrowup","[0.675,0.325,0.15,0.85]","","",""
"sailing-trial","151","806605","0.0-11.0-110.0","","","","false","","","","","","","","","","464.0000000001164","","314","","3","1","arrowright","1","arrowright","[0.675,0.325,0.15,0.85]","","",""
"sailing-trial","152","809289","0.0-11.0-111.0","","","","false","","","","","","","","","","null","","610","","1","1","null","null","arrowup","[0.675,0.325,0.15,0.85]","","",""
"sailing-trial","153","813635","0.0-11.0-112.0","","","","false","","","","","","","","","","560","","235","","3","1","arrowright","1","arrowright","[0.675,0.325,0.15,0.85]","","",""
"sailing-trial","154","816619","0.0-11.0-113.0","","","","false","","","","","","","","","","null","","866","","0","1","null","null","arrowup","[0.675,0.325,0.15,0.85]","","",""
"sailing-trial","155","821670","0.0-11.0-114.0","","","","false","","","","","","","","","","475","","198","","3","0","arrowright","1","arrowright","[0.85,0.15,0.325,0.675]","","",""
"sailing-trial","156","824201","0.0-11.0-115.0","","","","false","","","","","","","","","","null","","695.9999999998836","","2","0","null","null","arrowup","[0.85,0.15,0.325,0.675]","","",""
"sailing-trial","157","828610","0.0-11.0-116.0","","","","false","","","","","","","","","","941","","90","","2","0","arrowright","1","arrowleft","[0.85,0.15,0.325,0.675]","","",""
"sailing-trial","158","831671","0.0-11.0-117.0","","","","false","","","","","","","","","","null","","949","","0","1","null","null","arrowup","[0.85,0.15,0.325,0.675]","","",""
"sailing-trial","159","836655","0.0-11.0-118.0","","","","false","","","","","","","","","","910.9999999998836","","233","","3","1","arrowright","1","arrowright","[0.85,0.15,0.325,0.675]","","",""
"sailing-trial","160","838737","0.0-11.0-119.0","","","","false","","","","","","","","","","null","","528","","2","0","null","null","arrowup","[0.85,0.15,0.325,0.675]","","",""
"sailing-trial","161","843205","0.0-11.0-120.0","","","","false","","","","","","","","","","532","","306.9999999998836","","0","1","arrowleft","0","arrowleft","[0.85,0.15,0.325,0.675]","","",""
"sailing-trial","162","845822","0.0-11.0-121.0","","","","false","","","","","","","","","","null","","571","","2","1","null","null","arrowup","[0.85,0.15,0.325,0.675]","","",""
"sailing-trial","163","850824","0.0-11.0-122.0","","","","false","","","","","","","","","","576.0000000001164","","299","","0","1","arrowleft","0","arrowleft","[0.85,0.15,0.325,0.675]","","",""
"sailing-trial","164","853109","0.0-11.0-123.0","","","","false","","","","","","","","","","null","","788","","1","0","null","null","arrowup","[0.85,0.15,0.325,0.675]","","",""
"sailing-trial","165","857654","0.0-11.0-124.0","","","","false","","","","","","","","","","468","","466","","0","1","arrowleft","0","arrowleft","[0.85,0.15,0.325,0.675]","","",""
"sailing-trial","166","860571","0.0-11.0-125.0","","","","false","","","","","","","","","","null","","826","","3","1","null","null","arrowup","[0.85,0.15,0.325,0.675]","","",""
"sailing-trial","167","865520","0.0-11.0-126.0","","","","false","","","","","","","","","","659.9999999998836","","169","","0","1","arrowleft","0","arrowleft","[0.85,0.15,0.325,0.675]","","",""
"sailing-trial","168","868434","0.0-11.0-127.0","","","","false","","","","","","","","","","null","","778","","3","1","null","null","arrowup","[0.85,0.15,0.325,0.675]","","",""
"sailing-trial","169","873255","0.0-11.0-128.0","","","","false","","","","","","","","","","1085","","242","","0","1","arrowleft","0","arrowleft","[0.85,0.15,0.325,0.675]","","",""
"sailing-trial","170","878338","0.0-11.0-129.0","","","","false","","","","","","","","","","null","","2038","","2","0","null","null","arrowup","[0.85,0.15,0.325,0.675]","","",""
"sailing-trial","171","883871","0.0-11.0-130.0","","","","false","","","","","","","","","","573.9999999998836","","369.9999999998836","","0","0","arrowleft","0","arrowleft","[0.675,0.325,0.15,0.85]","","",""
"sailing-trial","172","886012","0.0-11.0-131.0","","","","false","","","","","","","","","","null","","534.9999999998836","","1","0","null","null","arrowup","[0.675,0.325,0.15,0.85]","","",""
"sailing-trial","173","892288","0.0-11.0-132.0","","","","false","","","","","","","","","","517","","262","","3","1","arrowright","1","arrowright","[0.675,0.325,0.15,0.85]","","",""
"sailing-trial","174","895087","0.0-11.0-133.0","","","","false","","","","","","","","","","null","","688","","1","1","null","null","arrowup","[0.675,0.325,0.15,0.85]","","",""
"sailing-trial","175","899205","0.0-11.0-134.0","","","","false","","","","","","","","","","632","","13","","3","1","arrowright","1","arrowright","[0.675,0.325,0.15,0.85]","","",""
"sailing-trial","176","901400","0.0-11.0-135.0","","","","false","","","","","","","","","","null","","688","","1","0","null","null","arrowup","[0.675,0.325,0.15,0.85]","","",""
"sailing-trial","177","906238","0.0-11.0-136.0","","","","false","","","","","","","","","","497","","947.9999999998836","","3","1","arrowright","1","arrowright","[0.675,0.325,0.15,0.85]","","",""
"sailing-trial","178","908821","0.0-11.0-137.0","","","","false","","","","","","","","","","null","","875","","1","0","null","null","arrowup","[0.675,0.325,0.15,0.85]","","",""
"sailing-trial","179","913487","0.0-11.0-138.0","","","","false","","","","","","","","","","590","","547.9999999998836","","3","1","arrowright","1","arrowright","[0.675,0.325,0.15,0.85]","","",""
"sailing-trial","180","916255","0.0-11.0-139.0","","","","false","","","","","","","","","","null","","681.0000000001164","","3","1","null","null","arrowup","[0.675,0.325,0.15,0.85]","","",""
"sailing-trial","181","920872","0.0-11.0-140.0","","","","false","","","","","","","","","","603.9999999998836","","408","","3","1","arrowright","1","arrowright","[0.675,0.325,0.15,0.85]","","",""
"sailing-trial","182","923638","0.0-11.0-141.0","","","","false","","","","","","","","","","null","","621","","3","1","null","null","arrowup","[0.675,0.325,0.15,0.85]","","",""
"sailing-trial","183","928521","0.0-11.0-142.0","","","","false","","","","","","","","","","618.9999999998836","","721.9999999998836","","3","1","arrowright","1","arrowright","[0.675,0.325,0.15,0.85]","","",""
"sailing-trial","184","933323","0.0-11.0-143.0","","","","false","","","","","","","","","","null","","1771.0000000001164","","2","0","null","null","arrowup","[0.675,0.325,0.15,0.85]","","",""
"sailing-trial","185","937837","0.0-11.0-144.0","","","","false","","","","","","","","","","598","","376.0000000001164","","3","1","arrowright","1","arrowright","[0.675,0.325,0.15,0.85]","","",""
"sailing-trial","186","940720","0.0-11.0-145.0","","","","false","","","","","","","","","","null","","747","","3","1","null","null","arrowup","[0.675,0.325,0.15,0.85]","","",""
"sailing-trial","187","945253","0.0-11.0-146.0","","","","false","","","","","","","","","","755","","253","","3","1","arrowright","1","arrowright","[0.675,0.325,0.15,0.85]","","",""
"sailing-trial","188","948036","0.0-11.0-147.0","","","","false","","","","","","","","","","null","","698.9999999998836","","0","1","null","null","arrowup","[0.675,0.325,0.15,0.85]","","",""
"sailing-trial","189","952253","0.0-11.0-148.0","","","","false","","","","","","","","","","657","","69","","3","1","arrowright","1","arrowright","[0.675,0.325,0.15,0.85]","","",""
"sailing-trial","190","954903","0.0-11.0-149.0","","","","false","","","","","","","","","","null","","564.9999999998836","","3","1","null","null","arrowup","[0.675,0.325,0.15,0.85]","","",""
"sailing-trial","191","959888","0.0-11.0-150.0","","","","false","","","","","","","","","","662.0000000001164","","440.0000000001164","","3","1","arrowright","1","arrowright","[0.85,0.15,0.325,0.675]","","",""
"sailing-trial","192","963504","0.0-11.0-151.0","","","","false","","","","","","","","","","null","","580","","2","0","null","null","arrowup","[0.85,0.15,0.325,0.675]","","",""
"sailing-trial","193","967737","0.0-11.0-152.0","","","","false","","","","","","","","","","467","","321","","3","1","arrowright","1","arrowright","[0.85,0.15,0.325,0.675]","","",""
"sailing-trial","194","969940","0.0-11.0-153.0","","","","false","","","","","","","","","","null","","674","","1","0","null","null","arrowup","[0.85,0.15,0.325,0.675]","","",""
"sailing-trial","195","974872","0.0-11.0-154.0","","","","false","","","","","","","","","","913","","341","","0","0","arrowleft","0","arrowleft","[0.85,0.15,0.325,0.675]","","",""
"sailing-trial","196","977184","0.0-11.0-155.0","","","","false","","","","","","","","","","null","","751","","2","0","null","null","arrowup","[0.85,0.15,0.325,0.675]","","",""
"sailing-trial","197","982854","0.0-11.0-156.0","","","","false","","","","","","","","","","414","","846","","3","0","arrowright","1","arrowright","[0.85,0.15,0.325,0.675]","","",""
"sailing-trial","198","986103","0.0-11.0-157.0","","","","false","","","","","","","","","","null","","1003","","1","1","null","null","arrowup","[0.85,0.15,0.325,0.675]","","",""
"sailing-trial","199","990585","0.0-11.0-158.0","","","","false","","","","","","","","","","1060","","241","","3","0","arrowright","1","arrowright","[0.85,0.15,0.325,0.675]","","",""
"sailing-trial","200","992725","0.0-11.0-159.0","","","","false","","","","","","","","","","null","","582","","1","0","null","null","arrowup","[0.85,0.15,0.325,0.675]","","",""
"sailing-trial","201","998451","0.0-11.0-160.0","","","","false","","","","","","","","","","2059.0000000001164","","65","","1","0","arrowleft","0","arrowright","[0.85,0.15,0.325,0.675]","","",""
"sailing-trial","202","1000615","0.0-11.0-161.0","","","","false","","","","","","","","","","null","","573.0000000001164","","2","0","null","null","arrowup","[0.85,0.15,0.325,0.675]","","",""
"sailing-trial","203","1006362","0.0-11.0-162.0","","","","false","","","","","","","","","","601","","2212.0000000001164","","0","0","arrowleft","0","arrowleft","[0.85,0.15,0.325,0.675]","","",""
"sailing-trial","204","1008531","0.0-11.0-163.0","","","","false","","","","","","","","","","null","","610","","2","0","null","null","arrowup","[0.85,0.15,0.325,0.675]","","",""
"sailing-trial","205","1012662","0.0-11.0-164.0","","","","false","","","","","","","","","","541","","343.0000000001164","","2","0","arrowright","1","arrowleft","[0.85,0.15,0.325,0.675]","","",""
"sailing-trial","206","1015129","0.0-11.0-165.0","","","","false","","","","","","","","","","null","","926","","3","0","null","null","arrowup","[0.85,0.15,0.325,0.675]","","",""
"sailing-trial","207","1019787","0.0-11.0-166.0","","","","false","","","","","","","","","","649","","330","","1","1","arrowleft","0","arrowright","[0.675,0.325,0.15,0.85]","","",""
"sailing-trial","208","1022127","0.0-11.0-167.0","","","","false","","","","","","","","","","null","","564.0000000001164","","0","0","null","null","arrowup","[0.675,0.325,0.15,0.85]","","",""
"sailing-trial","209","1026064","0.0-11.0-168.0","","","","false","","","","","","","","","","664.0000000001164","","210","","1","0","arrowleft","0","arrowright","[0.675,0.325,0.15,0.85]","","",""
"sailing-trial","210","1029220","0.0-11.0-169.0","","","","false","","","","","","","","","","null","","1046.0000000001164","","3","1","null","null","arrowup","[0.675,0.325,0.15,0.85]","","",""
"sailing-trial","211","1033453","0.0-11.0-170.0","","","","false","","","","","","","","","","457.0000000001164","","290","","3","1","arrowright","1","arrowright","[0.675,0.325,0.15,0.85]","","",""
"sailing-trial","212","1035665","0.0-11.0-171.0","","","","false","","","","","","","","","","null","","640.9999999998836","","1","0","null","null","arrowup","[0.675,0.325,0.15,0.85]","","",""
"sailing-trial","213","1040120","0.0-11.0-172.0","","","","false","","","","","","","","","","550","","263.9999999998836","","3","1","arrowright","1","arrowright","[0.675,0.325,0.15,0.85]","","",""
"sailing-trial","214","1042853","0.0-11.0-173.0","","","","false","","","","","","","","","","null","","627","","0","1","null","null","arrowup","[0.675,0.325,0.15,0.85]","","",""
"sailing-trial","215","1048120","0.0-11.0-174.0","","","","false","","","","","","","","","","518","","425","","3","1","arrowright","1","arrowright","[0.675,0.325,0.15,0.85]","","",""
"sailing-trial","216","1051770","0.0-11.0-175.0","","","","false","","","","","","","","","","null","","600","","2","0","null","null","arrowup","[0.675,0.325,0.15,0.85]","","",""
"sailing-trial","217","1055802","0.0-11.0-176.0","","","","false","","","","","","","","","","580.9999999997672","","8.99999999976717","","3","1","arrowright","1","arrowright","[0.675,0.325,0.15,0.85]","","",""
"sailing-trial","218","1058386","0.0-11.0-177.0","","","","false","","","","","","","","","","null","","484","","1","1","null","null","arrowup","[0.675,0.325,0.15,0.85]","","",""
"sailing-trial","219","1063803","0.0-11.0-178.0","","","","false","","","","","","","","","","556.0000000002328","","455","","3","0","arrowright","1","arrowright","[0.675,0.325,0.15,0.85]","","",""
"sailing-trial","220","1067703","0.0-11.0-179.0","","","","false","","","","","","","","","","null","","850","","0","0","null","null","arrowup","[0.675,0.325,0.15,0.85]","","",""
"sailing-trial","221","1072194","0.0-11.0-180.0","","","","false","","","","","","","","","","972","","135","","2","0","arrowright","1","arrowleft","[0.675,0.325,0.15,0.85]","","",""
"sailing-trial","222","1075875","0.0-11.0-181.0","","","","false","","","","","","","","","","null","","764","","0","0","null","null","arrowup","[0.675,0.325,0.15,0.85]","","",""
"sailing-trial","223","1080437","0.0-11.0-182.0","","","","false","","","","","","","","","","581","","286.00000000023283","","3","1","arrowright","1","arrowright","[0.675,0.325,0.15,0.85]","","",""
"sailing-trial","224","1082920","0.0-11.0-183.0","","","","false","","","","","","","","","","null","","511","","0","0","null","null","arrowup","[0.675,0.325,0.15,0.85]","","",""
"sailing-trial","225","1086952","0.0-11.0-184.0","","","","false","","","","","","","","","","454","","134","","3","1","arrowright","1","arrowright","[0.675,0.325,0.15,0.85]","","",""
"sailing-trial","226","1091485","0.0-11.0-185.0","","","","false","","","","","","","","","","null","","1489","","1","0","null","null","arrowup","[0.675,0.325,0.15,0.85]","","",""
"sailing-trial","227","1095630","0.0-11.0-186.0","","","","false","","","","","","","","","","419.00000000023283","","281","","3","0","arrowright","1","arrowright","[0.85,0.15,0.325,0.675]","","",""
"sailing-trial","228","1098277","0.0-11.0-187.0","","","","false","","","","","","","","","","null","","1123","","1","0","null","null","arrowup","[0.85,0.15,0.325,0.675]","","",""
"sailing-trial","229","1102419","0.0-11.0-188.0","","","","false","","","","","","","","","","623.9999999997672","","26","","0","1","arrowleft","0","arrowleft","[0.85,0.15,0.325,0.675]","","",""
"sailing-trial","230","1104857","0.0-11.0-189.0","","","","false","","","","","","","","","","null","","613","","1","0","null","null","arrowup","[0.85,0.15,0.325,0.675]","","",""
"sailing-trial","231","1108765","0.0-11.0-190.0","","","","false","","","","","","","","","","452","","365.99999999976717","","0","0","arrowleft","0","arrowleft","[0.85,0.15,0.325,0.675]","","",""
"sailing-trial","232","1111835","0.0-11.0-191.0","","","","false","","","","","","","","","","null","","992","","0","1","null","null","arrowup","[0.85,0.15,0.325,0.675]","","",""
"sailing-trial","233","1116453","0.0-11.0-192.0","","","","false","","","","","","","","","","473","","409.99999999976717","","0","1","arrowleft","0","arrowleft","[0.85,0.15,0.325,0.675]","","",""
"sailing-trial","234","1118832","0.0-11.0-193.0","","","","false","","","","","","","","","","null","","783","","1","0","null","null","arrowup","[0.85,0.15,0.325,0.675]","","",""
"sailing-trial","235","1123652","0.0-11.0-194.0","","","","false","","","","","","","","","","548","","300.99999999976717","","0","1","arrowleft","0","arrowleft","[0.85,0.15,0.325,0.675]","","",""
"sailing-trial","236","1126277","0.0-11.0-195.0","","","","false","","","","","","","","","","null","","1001","","2","0","null","null","arrowup","[0.85,0.15,0.325,0.675]","","",""
"sailing-trial","237","1130952","0.0-11.0-196.0","","","","false","","","","","","","","","","475","","362","","0","1","arrowleft","0","arrowleft","[0.85,0.15,0.325,0.675]","","",""
"sailing-trial","238","1133537","0.0-11.0-197.0","","","","false","","","","","","","","","","null","","906","","1","0","null","null","arrowup","[0.85,0.15,0.325,0.675]","","",""
"sailing-trial","239","1137986","0.0-11.0-198.0","","","","false","","","","","","","","","","479","","365.99999999976717","","0","1","arrowleft","0","arrowleft","[0.85,0.15,0.325,0.675]","","",""
"sailing-trial","240","1140969","0.0-11.0-199.0","","","","false","","","","","","","","","","null","","938","","0","1","null","null","arrowup","[0.85,0.15,0.325,0.675]","","",""
"sailing-trial","241","1145434","0.0-11.0-200.0","","","","false","","","","","","","","","","599","","374","","0","1","arrowleft","0","arrowleft","[0.85,0.15,0.325,0.675]","","",""
"sailing-trial","242","1147934","0.0-11.0-201.0","","","","false","","","","","","","","","","null","","674","","3","0","null","null","arrowup","[0.85,0.15,0.325,0.675]","","",""
"sailing-trial","243","1152053","0.0-11.0-202.0","","","","false","","","","","","","","","","426.00000000023283","","297","","0","1","arrowleft","0","arrowleft","[0.85,0.15,0.325,0.675]","","",""
"sailing-trial","244","1154339","0.0-11.0-203.0","","","","false","","","","","","","","","","null","","682.0000000002328","","1","0","null","null","arrowup","[0.85,0.15,0.325,0.675]","","",""
"sailing-trial","245","1158359","0.0-11.0-204.0","","","","false","","","","","","","","","","547","","254","","0","0","arrowleft","0","arrowleft","[0.15,0.85,0.675,0.325]","","",""
"sailing-trial","246","1161206","0.0-11.0-205.0","","","","false","","","","","","","","","","null","","1331","","3","0","null","null","arrowup","[0.15,0.85,0.675,0.325]","","",""
"sailing-trial","247","1165653","0.0-11.0-206.0","","","","false","","","","","","","","","","596.9999999997672","","316","","2","1","arrowright","1","arrowleft","[0.15,0.85,0.675,0.325]","","",""
"sailing-trial","248","1167949","0.0-11.0-207.0","","","","false","","","","","","","","","","null","","689","","0","0","null","null","arrowup","[0.15,0.85,0.675,0.325]","","",""
"sailing-trial","249","1172720","0.0-11.0-208.0","","","","false","","","","","","","","","","998","","303","","2","1","arrowright","1","arrowleft","[0.15,0.85,0.675,0.325]","","",""
"sailing-trial","250","1175669","0.0-11.0-209.0","","","","false","","","","","","","","","","null","","861","","2","1","null","null","arrowup","[0.15,0.85,0.675,0.325]","","",""
"sailing-trial","251","1180036","0.0-11.0-210.0","","","","false","","","","","","","","","","518.0000000002328","","292","","2","1","arrowright","1","arrowleft","[0.15,0.85,0.675,0.325]","","",""
"sailing-trial","252","1182718","0.0-11.0-211.0","","","","false","","","","","","","","","","null","","637","","3","1","null","null","arrowup","[0.15,0.85,0.675,0.325]","","",""
"sailing-trial","253","1187118","0.0-11.0-212.0","","","","false","","","","","","","","","","494","","211","","2","1","arrowright","1","arrowleft","[0.15,0.85,0.675,0.325]","","",""
"sailing-trial","254","1189752","0.0-11.0-213.0","","","","false","","","","","","","","","","null","","588","","1","1","null","null","arrowup","[0.15,0.85,0.675,0.325]","","",""
"sailing-trial","255","1194235","0.0-11.0-214.0","","","","false","","","","","","","","","","454","","102","","2","1","arrowright","1","arrowleft","[0.15,0.85,0.675,0.325]","","",""
"sailing-trial","256","1197418","0.0-11.0-215.0","","","","false","","","","","","","","","","null","","1100.9999999997672","","2","1","null","null","arrowup","[0.15,0.85,0.675,0.325]","","",""
"sailing-trial","257","1201752","0.0-11.0-216.0","","","","false","","","","","","","","","","649","","251","","2","1","arrowright","1","arrowleft","[0.15,0.85,0.675,0.325]","","",""
"sailing-trial","258","1204435","0.0-11.0-217.0","","","","false","","","","","","","","","","null","","628.9999999997672","","3","1","null","null","arrowup","[0.15,0.85,0.675,0.325]","","",""
"sailing-trial","259","1208652","0.0-11.0-218.0","","","","false","","","","","","","","","","598.9999999997672","","209","","2","1","arrowright","1","arrowleft","[0.15,0.85,0.675,0.325]","","",""
"sailing-trial","260","1210859","0.0-11.0-219.0","","","","false","","","","","","","","","","null","","710","","3","0","null","null","arrowup","[0.15,0.85,0.675,0.325]","","",""
"sailing-trial","261","1214883","0.0-11.0-220.0","","","","false","","","","","","","","","","410","","229.99999999976717","","2","1","arrowright","1","arrowleft","[0.15,0.85,0.675,0.325]","","",""
"sailing-trial","262","1217044","0.0-11.0-221.0","","","","false","","","","","","","","","","null","","594","","1","0","null","null","arrowup","[0.15,0.85,0.675,0.325]","","",""
"sailing-trial","263","1221251","0.0-11.0-222.0","","","","false","","","","","","","","","","385","","247.00000000023283","","2","1","arrowright","1","arrowleft","[0.325,0.675,0.85,0.15]","","",""
"sailing-trial","264","1223303","0.0-11.0-223.0","","","","false","","","","","","","","","","null","","556.9999999997672","","3","0","null","null","arrowup","[0.325,0.675,0.85,0.15]","","",""
"sailing-trial","265","1227751","0.0-11.0-224.0","","","","false","","","","","","","","","","385","","199","","2","1","arrowright","1","arrowleft","[0.325,0.675,0.85,0.15]","","",""
"sailing-trial","266","1230401","0.0-11.0-225.0","","","","false","","","","","","","","","","null","","609.9999999997672","","1","1","null","null","arrowup","[0.325,0.675,0.85,0.15]","","",""
"sailing-trial","267","1234234","0.0-11.0-226.0","","","","false","","","","","","","","","","466","","4","","2","1","arrowright","1","arrowleft","[0.325,0.675,0.85,0.15]","","",""
"sailing-trial","268","1237018","0.0-11.0-227.0","","","","false","","","","","","","","","","null","","769","","2","1","null","null","arrowup","[0.325,0.675,0.85,0.15]","","",""
"sailing-trial","269","1241251","0.0-11.0-228.0","","","","false","","","","","","","","","","560","","160","","2","1","arrowright","1","arrowleft","[0.325,0.675,0.85,0.15]","","",""
"sailing-trial","270","1244235","0.0-11.0-229.0","","","","false","","","","","","","","","","null","","884","","2","1","null","null","arrowup","[0.325,0.675,0.85,0.15]","","",""
"sailing-trial","271","1248801","0.0-11.0-230.0","","","","false","","","","","","","","","","520","","426","","2","1","arrowright","1","arrowleft","[0.325,0.675,0.85,0.15]","","",""
"sailing-trial","272","1251106","0.0-11.0-231.0","","","","false","","","","","","","","","","null","","806","","3","0","null","null","arrowup","[0.325,0.675,0.85,0.15]","","",""
"sailing-trial","273","1255301","0.0-11.0-232.0","","","","false","","","","","","","","","","461.99999999976717","","196.00000000023283","","2","1","arrowright","1","arrowleft","[0.325,0.675,0.85,0.15]","","",""
"sailing-trial","274","1257337","0.0-11.0-233.0","","","","false","","","","","","","","","","null","","530","","0","0","null","null","arrowup","[0.325,0.675,0.85,0.15]","","",""
"sailing-trial","275","1261502","0.0-11.0-234.0","","","","false","","","","","","","","","","346.99999999976717","","200","","2","1","arrowright","1","arrowleft","[0.325,0.675,0.85,0.15]","","",""
"sailing-trial","276","1264351","0.0-11.0-235.0","","","","false","","","","","","","","","","null","","610","","2","1","null","null","arrowup","[0.325,0.675,0.85,0.15]","","",""
"sailing-trial","277","1268732","0.0-11.0-236.0","","","","false","","","","","","","","","","577","","201","","2","1","arrowright","1","arrowleft","[0.325,0.675,0.85,0.15]","","",""
"sailing-trial","278","1271406","0.0-11.0-237.0","","","","false","","","","","","","","","","null","","1063","","1","0","null","null","arrowup","[0.325,0.675,0.85,0.15]","","",""
"sailing-trial","279","1276385","0.0-11.0-238.0","","","","false","","","","","","","","","","510","","328","","2","1","arrowright","1","arrowleft","[0.15,0.85,0.675,0.325]","","",""
"sailing-trial","280","1279018","0.0-11.0-239.0","","","","false","","","","","","","","","","null","","586","","0","1","null","null","arrowup","[0.15,0.85,0.675,0.325]","","",""
"sailing-trial","281","1283285","0.0-11.0-240.0","","","","false","","","","","","","","","","491","","342","","2","1","arrowright","1","arrowleft","[0.15,0.85,0.675,0.325]","","",""
"sailing-trial","282","1285868","0.0-11.0-241.0","","","","false","","","","","","","","","","null","","528","","3","1","null","null","arrowup","[0.15,0.85,0.675,0.325]","","",""
"sailing-trial","283","1290168","0.0-11.0-242.0","","","","false","","","","","","","","","","512","","324","","2","1","arrowright","1","arrowleft","[0.15,0.85,0.675,0.325]","","",""
"sailing-trial","284","1293151","0.0-11.0-243.0","","","","false","","","","","","","","","","null","","888","","1","1","null","null","arrowup","[0.15,0.85,0.675,0.325]","","",""
"sailing-trial","285","1297634","0.0-11.0-244.0","","","","false","","","","","","","","","","668","","346","","2","1","arrowright","1","arrowleft","[0.15,0.85,0.675,0.325]","","",""
"sailing-trial","286","1303085","0.0-11.0-245.0","","","","false","","","","","","","","","","null","","3346","","1","1","null","null","arrowup","[0.15,0.85,0.675,0.325]","","",""
"sailing-trial","287","1308301","0.0-11.0-246.0","","","","false","","","","","","","","","","818","","891","","2","1","arrowright","1","arrowleft","[0.15,0.85,0.675,0.325]","","",""
"sailing-trial","288","1311217","0.0-11.0-247.0","","","","false","","","","","","","","","","null","","811.0000000002328","","2","1","null","null","arrowup","[0.15,0.85,0.675,0.325]","","",""
"sailing-trial","289","1315485","0.0-11.0-248.0","","","","false","","","","","","","","","","498","","83","","2","1","arrowright","1","arrowleft","[0.15,0.85,0.675,0.325]","","",""
"sailing-trial","290","1318184","0.0-11.0-249.0","","","","false","","","","","","","","","","null","","484","","0","1","null","null","arrowup","[0.15,0.85,0.675,0.325]","","",""
"sailing-trial","291","1322351","0.0-11.0-250.0","","","","false","","","","","","","","","","360","","309","","2","1","arrowright","1","arrowleft","[0.15,0.85,0.675,0.325]","","",""
"sailing-trial","292","1325200","0.0-11.0-251.0","","","","false","","","","","","","","","","null","","833","","3","1","null","null","arrowup","[0.15,0.85,0.675,0.325]","","",""
"sailing-trial","293","1329251","0.0-11.0-252.0","","","","false","","","","","","","","","","424","","196","","2","1","arrowright","1","arrowleft","[0.15,0.85,0.675,0.325]","","",""
"sailing-trial","294","1332701","0.0-11.0-253.0","","","","false","","","","","","","","","","null","","1408","","1","1","null","null","arrowup","[0.15,0.85,0.675,0.325]","","",""
"sailing-trial","295","1337484","0.0-11.0-254.0","","","","false","","","","","","","","","","611","","308.00000000023283","","2","1","arrowright","1","arrowleft","[0.15,0.85,0.675,0.325]","","",""
"sailing-trial","296","1339702","0.0-11.0-255.0","","","","false","","","","","","","","","","null","","711","","2","0","null","null","arrowup","[0.15,0.85,0.675,0.325]","","",""
"sailing-trial","297","1344168","0.0-11.0-256.0","","","","false","","","","","","","","","","419","","253.99999999976717","","2","1","arrowright","1","arrowleft","[0.325,0.675,0.85,0.15]","","",""
"sailing-trial","298","1346459","0.0-11.0-257.0","","","","false","","","","","","","","","","null","","807","","3","0","null","null","arrowup","[0.325,0.675,0.85,0.15]","","",""
"sailing-trial","299","1350368","0.0-11.0-258.0","","","","false","","","","","","","","","","469","","25","","2","1","arrowright","1","arrowleft","[0.325,0.675,0.85,0.15]","","",""
"sailing-trial","300","1352551","0.0-11.0-259.0","","","","false","","","","","","","","","","null","","610","","3","0","null","null","arrowup","[0.325,0.675,0.85,0.15]","","",""
"sailing-trial","301","1357317","0.0-11.0-260.0","","","","false","","","","","","","","","","517","","752.0000000002328","","2","1","arrowright","1","arrowleft","[0.325,0.675,0.85,0.15]","","",""
"sailing-trial","302","1360234","0.0-11.0-261.0","","","","false","","","","","","","","","","null","","877","","2","1","null","null","arrowup","[0.325,0.675,0.85,0.15]","","",""
"sailing-trial","303","1365051","0.0-11.0-262.0","","","","false","","","","","","","","","","668.9999999997672","","216","","2","1","arrowright","1","arrowleft","[0.325,0.675,0.85,0.15]","","",""
"sailing-trial","304","1367790","0.0-11.0-263.0","","","","false","","","","","","","","","","null","","968","","3","0","null","null","arrowup","[0.325,0.675,0.85,0.15]","","",""
"sailing-trial","305","1374033","0.0-11.0-264.0","","","","false","","","","","","","","","","1607","","230","","2","0","arrowright","1","arrowleft","[0.325,0.675,0.85,0.15]","","",""
"sailing-trial","306","1376569","0.0-11.0-265.0","","","","false","","","","","","","","","","null","","548","","2","0","null","null","arrowup","[0.325,0.675,0.85,0.15]","","",""
"sailing-trial","307","1381167","0.0-11.0-266.0","","","","false","","","","","","","","","","728","","323.00000000023283","","0","1","arrowleft","0","arrowleft","[0.325,0.675,0.85,0.15]","","",""
"sailing-trial","308","1383535","0.0-11.0-267.0","","","","false","","","","","","","","","","null","","649.9999999997672","","1","0","null","null","arrowup","[0.325,0.675,0.85,0.15]","","",""
"sailing-trial","309","1388000","0.0-11.0-268.0","","","","false","","","","","","","","","","473","","211","","0","1","arrowleft","0","arrowleft","[0.325,0.675,0.85,0.15]","","",""
"sailing-trial","310","1390816","0.0-11.0-269.0","","","","false","","","","","","","","","","null","","766","","2","1","null","null","arrowup","[0.325,0.675,0.85,0.15]","","",""
"sailing-trial","311","1395333","0.0-11.0-270.0","","","","false","","","","","","","","","","496","","297","","0","1","arrowleft","0","arrowleft","[0.325,0.675,0.85,0.15]","","",""
"sailing-trial","312","1398068","0.0-11.0-271.0","","","","false","","","","","","","","","","null","","611","","2","1","null","null","arrowup","[0.325,0.675,0.85,0.15]","","",""
"sailing-trial","313","1403067","0.0-11.0-272.0","","","","false","","","","","","","","","","422","","182","","0","0","arrowleft","0","arrowleft","[0.325,0.675,0.85,0.15]","","",""
"sailing-trial","314","1405194","0.0-11.0-273.0","","","","false","","","","","","","","","","null","","513.0000000002328","","1","0","null","null","arrowup","[0.325,0.675,0.85,0.15]","","",""
"sailing-trial","315","1409349","0.0-11.0-274.0","","","","false","","","","","","","","","","920","","179","","3","0","arrowright","1","arrowright","[0.325,0.675,0.85,0.15]","","",""
"sailing-trial","316","1411814","0.0-11.0-275.0","","","","false","","","","","","","","","","null","","848","","0","0","null","null","arrowup","[0.325,0.675,0.85,0.15]","","",""
"sailing-trial","317","1416219","0.0-11.0-276.0","","","","false","","","","","","","","","","491","","887.9999999997672","","0","0","arrowleft","0","arrowleft","[0.15,0.85,0.675,0.325]","","",""
"sailing-trial","318","1419482","0.0-11.0-277.0","","","","false","","","","","","","","","","null","","882","","0","1","null","null","arrowup","[0.15,0.85,0.675,0.325]","","",""
"sailing-trial","319","1423550","0.0-11.0-278.0","","","","false","","","","","","","","","","542","","108","","1","1","arrowleft","0","arrowright","[0.15,0.85,0.675,0.325]","","",""
"sailing-trial","320","1426163","0.0-11.0-279.0","","","","false","","","","","","","","","","null","","599","","1","1","null","null","arrowup","[0.15,0.85,0.675,0.325]","","",""
"sailing-trial","321","1430550","0.0-11.0-280.0","","","","false","","","","","","","","","","444","","188","","1","1","arrowleft","0","arrowright","[0.15,0.85,0.675,0.325]","","",""
"sailing-trial","322","1433097","0.0-11.0-281.0","","","","false","","","","","","","","","","null","","511","","1","1","null","null","arrowup","[0.15,0.85,0.675,0.325]","","",""
"sailing-trial","323","1437172","0.0-11.0-282.0","","","","false","","","","","","","","","","495.99999999976717","","408.00000000023283","","1","0","arrowleft","0","arrowright","[0.15,0.85,0.675,0.325]","","",""
"sailing-trial","324","1439435","0.0-11.0-283.0","","","","false","","","","","","","","","","null","","744","","0","0","null","null","arrowup","[0.15,0.85,0.675,0.325]","","",""
"sailing-trial","325","1443733","0.0-11.0-284.0","","","","false","","","","","","","","","","533","","214","","1","1","arrowleft","0","arrowright","[0.15,0.85,0.675,0.325]","","",""
"sailing-trial","326","1446683","0.0-11.0-285.0","","","","false","","","","","","","","","","null","","875","","1","1","null","null","arrowup","[0.15,0.85,0.675,0.325]","","",""
"sailing-trial","327","1451733","0.0-11.0-286.0","","","","false","","","","","","","","","","1038","","300","","1","1","arrowleft","0","arrowright","[0.15,0.85,0.675,0.325]","","",""
"sailing-trial","328","1454179","0.0-11.0-287.0","","","","false","","","","","","","","","","null","","714","","3","0","null","null","arrowup","[0.15,0.85,0.675,0.325]","","",""
"sailing-trial","329","1458585","0.0-11.0-288.0","","","","false","","","","","","","","","","510","","280","","1","1","arrowleft","0","arrowright","[0.15,0.85,0.675,0.325]","","",""
"sailing-trial","330","1460596","0.0-11.0-289.0","","","","false","","","","","","","","","","null","","474","","0","0","null","null","arrowup","[0.15,0.85,0.675,0.325]","","",""
"sailing-trial","331","1465133","0.0-11.0-290.0","","","","false","","","","","","","","","","769","","198.00000000023283","","2","1","arrowright","1","arrowleft","[0.15,0.85,0.675,0.325]","","",""
"sailing-trial","332","1467045","0.0-11.0-291.0","","","","false","","","","","","","","","","null","","127","","0","0","null","null","arrowup","[0.15,0.85,0.675,0.325]","","",""
"sailing-trial","333","1471049","0.0-11.0-292.0","","","","false","","","","","","","","","","399","","163","","2","1","arrowright","1","arrowleft","[0.325,0.675,0.85,0.15]","","",""
"sailing-trial","334","1473120","0.0-11.0-293.0","","","","false","","","","","","","","","","null","","514","","0","0","null","null","arrowup","[0.325,0.675,0.85,0.15]","","",""
"sailing-trial","335","1477317","0.0-11.0-294.0","","","","false","","","","","","","","","","425","","374","","2","1","arrowright","1","arrowleft","[0.325,0.675,0.85,0.15]","","",""
"sailing-trial","336","1479866","0.0-11.0-295.0","","","","false","","","","","","","","","","null","","527.9999999997672","","2","1","null","null","arrowup","[0.325,0.675,0.85,0.15]","","",""
"sailing-trial","337","1484166","0.0-11.0-296.0","","","","false","","","","","","","","","","462","","377","","2","1","arrowright","1","arrowleft","[0.325,0.675,0.85,0.15]","","",""
"sailing-trial","338","1486733","0.0-11.0-297.0","","","","false","","","","","","","","","","null","","499","","0","1","null","null","arrowup","[0.325,0.675,0.85,0.15]","","",""
"sailing-trial","339","1491183","0.0-11.0-298.0","","","","false","","","","","","","","","","626","","423","","2","1","arrowright","1","arrowleft","[0.325,0.675,0.85,0.15]","","",""
"sailing-trial","340","1493545","0.0-11.0-299.0","","","","false","","","","","","","","","","null","","852","","3","0","null","null","arrowup","[0.325,0.675,0.85,0.15]","","",""
"sailing-trial","341","1498050","0.0-11.0-300.0","","","","false","","","","","","","","","","316","","334","","2","1","arrowright","1","arrowleft","[0.325,0.675,0.85,0.15]","","",""
"sailing-trial","342","1500175","0.0-11.0-301.0","","","","false","","","","","","","","","","null","","574","","3","0","null","null","arrowup","[0.325,0.675,0.85,0.15]","","",""
"sailing-trial","343","1504299","0.0-11.0-302.0","","","","false","","","","","","","","","","816","","182","","2","1","arrowright","1","arrowleft","[0.325,0.675,0.85,0.15]","","",""
"sailing-trial","344","1506433","0.0-11.0-303.0","","","","false","","","","","","","","","","null","","607","","3","0","null","null","arrowup","[0.325,0.675,0.85,0.15]","","",""
"sailing-trial","345","1510999","0.0-11.0-304.0","","","","false","","","","","","","","","","692","","274","","2","1","arrowright","1","arrowleft","[0.325,0.675,0.85,0.15]","","",""
"sailing-trial","346","1513164","0.0-11.0-305.0","","","","false","","","","","","","","","","null","","611.0000000002328","","0","0","null","null","arrowup","[0.325,0.675,0.85,0.15]","","",""
"sailing-trial","347","1517350","0.0-11.0-306.0","","","","false","","","","","","","","","","450","","277","","1","1","arrowleft","0","arrowright","[0.325,0.675,0.85,0.15]","","",""
"sailing-trial","348","1520050","0.0-11.0-307.0","","","","false","","","","","","","","","","null","","560","","2","1","null","null","arrowup","[0.325,0.675,0.85,0.15]","","",""
"sailing-trial","349","1524081","0.0-11.0-308.0","","","","false","","","","","","","","","","464","","197","","1","1","arrowleft","0","arrowright","[0.325,0.675,0.85,0.15]","","",""
"sailing-trial","350","1526832","0.0-11.0-309.0","","","","false","","","","","","","","","","null","","740","","2","1","null","null","arrowup","[0.325,0.675,0.85,0.15]","","",""
"sailing-trial","351","1530899","0.0-11.0-310.0","","","","false","","","","","","","","","","420","","216.00000000023283","","1","1","arrowleft","0","arrowright","[0.325,0.675,0.85,0.15]","","",""
"sailing-trial","352","1533035","0.0-11.0-311.0","","","","false","","","","","","","","","","null","","600","","0","0","null","null","arrowup","[0.325,0.675,0.85,0.15]","","",""
"sailing-trial","353","1536999","0.0-11.0-312.0","","","","false","","","","","","","","","","508.99999999976717","","233.00000000023283","","1","1","arrowleft","0","arrowright","[0.325,0.675,0.85,0.15]","","",""
"sailing-trial","354","1539018","0.0-11.0-313.0","","","","false","","","","","","","","","","null","","530","","0","0","null","null","arrowup","[0.325,0.675,0.85,0.15]","","",""
"sailing-trial","355","1543600","0.0-11.0-314.0","","","","false","","","","","","","","","","991","","211","","1","1","arrowleft","0","arrowright","[0.15,0.85,0.675,0.325]","","",""
"sailing-trial","356","1546405","0.0-11.0-315.0","","","","false","","","","","","","","","","null","","1310","","3","0","null","null","arrowup","[0.15,0.85,0.675,0.325]","","",""
"sailing-trial","357","1550516","0.0-11.0-316.0","","","","false","","","","","","","","","","479","","204","","1","1","arrowleft","0","arrowright","[0.15,0.85,0.675,0.325]","","",""
"sailing-trial","358","1553133","0.0-11.0-317.0","","","","false","","","","","","","","","","null","","529","","2","1","null","null","arrowup","[0.15,0.85,0.675,0.325]","","",""
"sailing-trial","359","1557283","0.0-11.0-318.0","","","","false","","","","","","","","","","472","","269","","2","1","arrowright","1","arrowleft","[0.15,0.85,0.675,0.325]","","",""
"sailing-trial","360","1559821","0.0-11.0-319.0","","","","false","","","","","","","","","","null","","1041","","0","0","null","null","arrowup","[0.15,0.85,0.675,0.325]","","",""
"sailing-trial","361","1563889","0.0-11.0-320.0","","","","false","","","","","","","","","","881.9999999997672","","139","","2","0","arrowright","1","arrowleft","[0.15,0.85,0.675,0.325]","","",""
"sailing-trial","362","1566254","0.0-11.0-321.0","","","","false","","","","","","","","","","null","","841","","3","0","null","null","arrowup","[0.15,0.85,0.675,0.325]","","",""
"sailing-trial","363","1570516","0.0-11.0-322.0","","","","false","","","","","","","","","","531.9999999997672","","200","","1","1","arrowleft","0","arrowright","[0.15,0.85,0.675,0.325]","","",""
"sailing-trial","364","1573165","0.0-11.0-323.0","","","","false","","","","","","","","","","null","","608","","0","1","null","null","arrowup","[0.15,0.85,0.675,0.325]","","",""
"sailing-trial","365","1577316","0.0-11.0-324.0","","","","false","","","","","","","","","","462","","266","","1","1","arrowleft","0","arrowright","[0.15,0.85,0.675,0.325]","","",""
"sailing-trial","366","1580048","0.0-11.0-325.0","","","","false","","","","","","","","","","null","","604","","3","1","null","null","arrowup","[0.15,0.85,0.675,0.325]","","",""
"sailing-trial","367","1584149","0.0-11.0-326.0","","","","false","","","","","","","","","","437","","253","","1","1","arrowleft","0","arrowright","[0.15,0.85,0.675,0.325]","","",""
"sailing-trial","368","1586733","0.0-11.0-327.0","","","","false","","","","","","","","","","null","","527.0000000002328","","2","1","null","null","arrowup","[0.15,0.85,0.675,0.325]","","",""
"sailing-trial","369","1590899","0.0-11.0-328.0","","","","false","","","","","","","","","","477.99999999976717","","273","","1","1","arrowleft","0","arrowright","[0.15,0.85,0.675,0.325]","","",""
"sailing-trial","370","1593465","0.0-11.0-329.0","","","","false","","","","","","","","","","null","","522","","0","1","null","null","arrowup","[0.15,0.85,0.675,0.325]","","",""
"sailing-trial","371","1597532","0.0-11.0-330.0","","","","false","","","","","","","","","","425.99999999976717","","195","","1","1","arrowleft","0","arrowright","[0.15,0.85,0.675,0.325]","","",""
"sailing-trial","372","1600115","0.0-11.0-331.0","","","","false","","","","","","","","","","null","","542","","2","1","null","null","arrowup","[0.15,0.85,0.675,0.325]","","",""
"sailing-trial","373","1603594","0.0-11.0-332.0","","","","false","","","","","","","","","","495","","118","","1","0","arrowleft","0","arrowright","[0.325,0.675,0.85,0.15]","","",""
"sailing-trial","374","1606352","0.0-11.0-333.0","","","","false","","","","","","","","","","null","","586","","1","1","null","null","arrowup","[0.325,0.675,0.85,0.15]","","",""
"sailing-trial","375","1610964","0.0-11.0-334.0","","","","false","","","","","","","","","","439","","188.00000000023283","","0","0","arrowleft","0","arrowleft","[0.325,0.675,0.85,0.15]","","",""
"sailing-trial","376","1613057","0.0-11.0-335.0","","","","false","","","","","","","","","","null","","577","","3","0","null","null","arrowup","[0.325,0.675,0.85,0.15]","","",""
"sailing-trial","377","1616988","0.0-11.0-336.0","","","","false","","","","","","","","","","933","","3","","2","0","arrowright","1","arrowleft","[0.325,0.675,0.85,0.15]","","",""
"sailing-trial","378","1620030","0.0-11.0-337.0","","","","false","","","","","","","","","","null","","802.0000000002328","","2","1","null","null","arrowup","[0.325,0.675,0.85,0.15]","","",""
"sailing-trial","379","1624332","0.0-11.0-338.0","","","","false","","","","","","","","","","513","","314","","1","1","arrowleft","0","arrowright","[0.325,0.675,0.85,0.15]","","",""
"sailing-trial","380","1626915","0.0-11.0-339.0","","","","false","","","","","","","","","","null","","534.0000000002328","","2","1","null","null","arrowup","[0.325,0.675,0.85,0.15]","","",""
"sailing-trial","381","1630354","0.0-11.0-340.0","","","","false","","","","","","","","","","433","","142","","1","0","arrowleft","0","arrowright","[0.325,0.675,0.85,0.15]","","",""
"sailing-trial","382","1632727","0.0-11.0-341.0","","","","false","","","","","","","","","","null","","559","","1","0","null","null","arrowup","[0.325,0.675,0.85,0.15]","","",""
"sailing-trial","383","1636715","0.0-11.0-342.0","","","","false","","","","","","","","","","406","","246.00000000023283","","2","1","arrowright","1","arrowleft","[0.325,0.675,0.85,0.15]","","",""
"sailing-trial","384","1638822","0.0-11.0-343.0","","","","false","","","","","","","","","","null","","534","","3","0","null","null","arrowup","[0.325,0.675,0.85,0.15]","","",""
"sailing-trial","385","1643181","0.0-11.0-344.0","","","","false","","","","","","","","","","867","","116","","2","1","arrowright","1","arrowleft","[0.325,0.675,0.85,0.15]","","",""
"sailing-trial","386","1645421","0.0-11.0-345.0","","","","false","","","","","","","","","","null","","592","","0","0","null","null","arrowup","[0.325,0.675,0.85,0.15]","","",""
"sailing-trial","387","1649498","0.0-11.0-346.0","","","","false","","","","","","","","","","446","","234.99999999976717","","2","1","arrowright","1","arrowleft","[0.325,0.675,0.85,0.15]","","",""
"sailing-trial","388","1652382","0.0-11.0-347.0","","","","false","","","","","","","","","","null","","756","","1","1","null","null","arrowup","[0.325,0.675,0.85,0.15]","","",""
"sailing-trial","389","1656436","0.0-11.0-348.0","","","","false","","","","","","","","","","471","","271","","2","0","arrowright","1","arrowleft","[0.325,0.675,0.85,0.15]","","",""
"sailing-trial","390","1658498","0.0-11.0-349.0","","","","false","","","","","","","","","","null","","490","","1","0","null","null","arrowup","[0.325,0.675,0.85,0.15]","","",""
"sailing-trial","391","1663264","0.0-11.0-350.0","","","","false","","","","","","","","","","844","","463","","1","1","arrowleft","0","arrowright","[0.325,0.675,0.85,0.15]","","",""
"sailing-trial","392","1665896","0.0-11.0-351.0","","","","false","","","","","","","","","","null","","560","","2","1","null","null","arrowup","[0.325,0.675,0.85,0.15]","","",""
"sailing-trial","393","1671215","0.0-11.0-352.0","","","","false","","","","","","","","","","414","","495","","1","0","arrowleft","0","arrowright","[0.675,0.325,0.15,0.85]","","",""
"sailing-trial","394","1673853","0.0-11.0-353.0","","","","false","","","","","","","","","","null","","377","","1","0","null","null","arrowup","[0.675,0.325,0.15,0.85]","","",""
"sailing-trial","395","1677895","0.0-11.0-354.0","","","","false","","","","","","","","","","493","","315","","2","0","arrowright","1","arrowleft","[0.675,0.325,0.15,0.85]","","",""
"sailing-trial","396","1680580","0.0-11.0-355.0","","","","false","","","","","","","","","","null","","875","","3","0","null","null","arrowup","[0.675,0.325,0.15,0.85]","","",""
"sailing-trial","397","1685115","0.0-11.0-356.0","","","","false","","","","","","","","","","382","","347","","3","1","arrowright","1","arrowright","[0.675,0.325,0.15,0.85]","","",""
"sailing-trial","398","1687964","0.0-11.0-357.0","","","","false","","","","","","","","","","null","","543","","1","1","null","null","arrowup","[0.675,0.325,0.15,0.85]","","",""
"sailing-trial","399","1692513","0.0-11.0-358.0","","","","false","","","","","","","","","","508","","173","","3","1","arrowright","1","arrowright","[0.675,0.325,0.15,0.85]","","",""
"sailing-trial","400","1696031","0.0-11.0-359.0","","","","false","","","","","","","","","","null","","461","","2","0","null","null","arrowup","[0.675,0.325,0.15,0.85]","","",""
"sailing-trial","401","1700298","0.0-11.0-360.0","","","","false","","","","","","","","","","219","","254.00000000023283","","3","1","arrowright","1","arrowright","[0.675,0.325,0.15,0.85]","","",""
"sailing-trial","402","1703115","0.0-11.0-361.0","","","","false","","","","","","","","","","null","","787","","3","1","null","null","arrowup","[0.675,0.325,0.15,0.85]","","",""
"sailing-trial","403","1707532","0.0-11.0-362.0","","","","false","","","","","","","","","","587","","363","","3","1","arrowright","1","arrowright","[0.675,0.325,0.15,0.85]","","",""
"sailing-trial","404","1709562","0.0-11.0-363.0","","","","false","","","","","","","","","","null","","489","","2","0","null","null","arrowup","[0.675,0.325,0.15,0.85]","","",""
"sailing-trial","405","1713633","0.0-11.0-364.0","","","","false","","","","","","","","","","432","","166","","3","1","arrowright","1","arrowright","[0.675,0.325,0.15,0.85]","","",""
"sailing-trial","406","1716214","0.0-11.0-365.0","","","","false","","","","","","","","","","null","","1030.0000000002328","","2","0","null","null","arrowup","[0.675,0.325,0.15,0.85]","","",""
"sailing-trial","407","1720015","0.0-11.0-366.0","","","","false","","","","","","","","","","591","","280","","1","0","arrowleft","0","arrowright","[0.675,0.325,0.15,0.85]","","",""
"sailing-trial","408","1722485","0.0-11.0-367.0","","","","false","","","","","","","","","","null","","920","","1","0","null","null","arrowup","[0.675,0.325,0.15,0.85]","","",""
"sailing-trial","409","1726586","0.0-11.0-368.0","","","","false","","","","","","","","","","448","","251","","2","1","arrowright","1","arrowleft","[0.15,0.85,0.675,0.325]","","",""
"sailing-trial","410","1729304","0.0-11.0-369.0","","","","false","","","","","","","","","","null","","592","","1","1","null","null","arrowup","[0.15,0.85,0.675,0.325]","","",""
"sailing-trial","411","1733488","0.0-11.0-370.0","","","","false","","","","","","","","","","461","","251","","2","1","arrowright","1","arrowleft","[0.15,0.85,0.675,0.325]","","",""
"sailing-trial","412","1735532","0.0-11.0-371.0","","","","false","","","","","","","","","","null","","524.0000000002328","","0","0","null","null","arrowup","[0.15,0.85,0.675,0.325]","","",""
"sailing-trial","413","1739197","0.0-11.0-372.0","","","","false","","","","","","","","","","448","","173","","2","0","arrowright","1","arrowleft","[0.15,0.85,0.675,0.325]","","",""
"sailing-trial","414","1741235","0.0-11.0-373.0","","","","false","","","","","","","","","","null","","495.99999999976717","","1","0","null","null","arrowup","[0.15,0.85,0.675,0.325]","","",""
"sailing-trial","415","1745123","0.0-11.0-374.0","","","","false","","","","","","","","","","352.99999999976717","","154","","3","1","arrowright","1","arrowright","[0.15,0.85,0.675,0.325]","","",""
"sailing-trial","416","1747823","0.0-11.0-375.0","","","","false","","","","","","","","","","null","","592","","2","1","null","null","arrowup","[0.15,0.85,0.675,0.325]","","",""
"sailing-trial","417","1751609","0.0-11.0-376.0","","","","false","","","","","","","","","","414","","169","","3","0","arrowright","1","arrowright","[0.15,0.85,0.675,0.325]","","",""
"sailing-trial","418","1754656","0.0-11.0-377.0","","","","false","","","","","","","","","","null","","1003.9999999997672","","3","1","null","null","arrowup","[0.15,0.85,0.675,0.325]","","",""
"sailing-trial","419","1758170","0.0-11.0-378.0","","","","false","","","","","","","","","","403","","188","","3","0","arrowright","1","arrowright","[0.15,0.85,0.675,0.325]","","",""
"sailing-trial","420","1760906","0.0-11.0-379.0","","","","false","","","","","","","","","","null","","677","","2","1","null","null","arrowup","[0.15,0.85,0.675,0.325]","","",""
"sailing-trial","421","1764667","0.0-11.0-380.0","","","","false","","","","","","","","","","389","","197.99999999976717","","2","0","arrowright","1","arrowleft","[0.15,0.85,0.675,0.325]","","",""
"sailing-trial","422","1766629","0.0-11.0-381.0","","","","false","","","","","","","","","","null","","419.99999999976717","","0","0","null","null","arrowup","[0.15,0.85,0.675,0.325]","","",""
"sailing-trial","423","1770144","0.0-11.0-382.0","","","","false","","","","","","","","","","430","","199","","3","0","arrowright","1","arrowright","[0.15,0.85,0.675,0.325]","","",""
"sailing-trial","424","1772807","0.0-11.0-383.0","","","","false","","","","","","","","","","null","","561.0000000002328","","3","1","null","null","arrowup","[0.15,0.85,0.675,0.325]","","",""
"sailing-trial","425","1777123","0.0-11.0-384.0","","","","false","","","","","","","","","","571.0000000002328","","280","","3","1","arrowright","1","arrowright","[0.85,0.15,0.325,0.675]","","",""
"sailing-trial","426","1779740","0.0-11.0-385.0","","","","false","","","","","","","","","","null","","511","","0","1","null","null","arrowup","[0.85,0.15,0.325,0.675]","","",""
"sailing-trial","427","1784373","0.0-11.0-386.0","","","","false","","","","","","","","","","529","","138","","3","1","arrowright","1","arrowright","[0.85,0.15,0.325,0.675]","","",""
"sailing-trial","428","1786578","0.0-11.0-387.0","","","","false","","","","","","","","","","null","","602","","2","0","null","null","arrowup","[0.85,0.15,0.325,0.675]","","",""
"sailing-trial","429","1791007","0.0-11.0-388.0","","","","false","","","","","","","","","","687","","165","","3","1","arrowright","1","arrowright","[0.85,0.15,0.325,0.675]","","",""
"sailing-trial","430","1793008","0.0-11.0-389.0","","","","false","","","","","","","","","","null","","503","","0","0","null","null","arrowup","[0.85,0.15,0.325,0.675]","","",""
"sailing-trial","431","1796557","0.0-11.0-390.0","","","","false","","","","","","","","","","381","","197.00000000023283","","2","0","arrowright","1","arrowleft","[0.85,0.15,0.325,0.675]","","",""
"sailing-trial","432","1798516","0.0-11.0-391.0","","","","false","","","","","","","","","","null","","452","","2","0","null","null","arrowup","[0.85,0.15,0.325,0.675]","","",""
"sailing-trial","433","1801862","0.0-11.0-392.0","","","","false","","","","","","","","","","308","","146","","3","0","arrowright","1","arrowright","[0.85,0.15,0.325,0.675]","","",""
"sailing-trial","434","1803895","0.0-11.0-393.0","","","","false","","","","","","","","","","null","","495","","2","0","null","null","arrowup","[0.85,0.15,0.325,0.675]","","",""
"sailing-trial","435","1807857","0.0-11.0-394.0","","","","false","","","","","","","","","","362","","202.99999999976717","","1","0","arrowleft","0","arrowright","[0.85,0.15,0.325,0.675]","","",""
"sailing-trial","436","1809823","0.0-11.0-395.0","","","","false","","","","","","","","","","null","","495","","1","0","null","null","arrowup","[0.85,0.15,0.325,0.675]","","",""
"sailing-trial","437","1813790","0.0-11.0-396.0","","","","false","","","","","","","","","","409","","155","","0","1","arrowleft","0","arrowleft","[0.85,0.15,0.325,0.675]","","",""
"sailing-trial","438","1816507","0.0-11.0-397.0","","","","false","","","","","","","","","","null","","699.9999999997672","","0","1","null","null","arrowup","[0.85,0.15,0.325,0.675]","","",""
"sailing-trial","439","1820588","0.0-11.0-398.0","","","","false","","","","","","","","","","439","","216","","0","1","arrowleft","0","arrowleft","[0.85,0.15,0.325,0.675]","","",""
"sailing-trial","440","1822622","0.0-11.0-399.0","","","","false","","","","","","","","","","null","","459.99999999976717","","2","0","null","null","arrowup","[0.85,0.15,0.325,0.675]","","",""
"instructions","441","1826005","0.0-12.0","","","","","","","","","","3382","","","","","","","","","","","","","","","","[{""page_index"":0,""viewing_time"":3382}]"
"survey-debrief","442","1833647","0.0-13.0","","","","","","","","","","7642","","","","","","","","","","","","","","{""difficulty"":""5"",""fun"":""2"",""clarity"":""5"",""strategy"":"""",""feedback"":""""}","",""
