"trial_type","trial_index","time_elapsed","internal_node_id","value","metadata","success","timeout","failed_images","failed_audio","failed_video","browser_interaction","low_quality","rt","stimulus","response","button_pressed","island_rt","island_response","boat_rt","boat_response","boat","reward","island_key","island","boat_key","reward_probabilities","responses","num_errors","view_history"
"pavlovia","0","8","0.0-0.0","","","","","","","","","","","","","","","","","","","","","","","","","",""
"call-function","1","11","0.0-1.0","","{""task_version"":""sailing_part1_v1"",""task_condition"":""good"",""boats"":[""A"",""D"",""C"",""B""],""boats_demo"":[""H"",""E"",""G"",""F""],""islands"":[""A"",""B""],""subject_id"":""13975"",""age"":""19"",""gender"":""Female""}","","","","","","","","","","","","","","","","","","","","","","","",""
"preload","2","1969","0.0-2.0","","","true","false","[]","[]","[]","[{""event"":""fullscreenenter"",""trial"":3,""time"":4242}]","false","","","","","","","","","","","","","","","","",""
"fullscreen","3","5226","0.0-3.0","","","true","","","","","","","","","","","","","","","","","","","","","","",""
"audio-keyboard-response","4","8449","0.0-4.0-0.0","","","","","","","","","","2781.3333333333335","audio/beep_loop.wav"," ","","","","","","","","","","","","","",""
"audio-test","5","11022","0.0-4.0-1.0","","","","","","","","","","null","audio/turtle.mp3","","3","","","","","","","","","","","","",""
"audio-test","6","13585","0.0-4.0-2.0","","","","","","","","","","null","audio/shark.mp3","","2","","","","","","","","","","","","",""
"sailing-instructions","7","62531","0.0-5.0-0.0-0.0","","","","","","","","","","","","","","null","null","null","null","null","null","","","","","","",""
"sailing-trial","8","75218","0.0-5.0-0.0-1.0-0.0","","","","false","","","","","","","","","","11545.899999976158","","null","","null","null","arrowleft","0","null","null","","",""
"sailing-trial","9","78335","0.0-5.0-0.0-1.0-1.0","","","","false","","","","","","","","","","1988.199999988079","","null","","null","null","arrowright","1","null","null","","",""
"sailing-trial","10","84210","0.0-5.0-0.0-1.0-2.0","","","","false","","","","","","","","","","4741.900000035763","","null","","null","null","arrowleft","0","null","null","","",""
"sailing-instructions","11","137098","0.0-5.0-0.0-2.0","","","","","","","","","","","","","","null","null","null","null","0","null","","","","","","",""
"sailing-trial","12","143301","0.0-5.0-0.0-3.0-0.0","","","","false","","","","","","","","","","null","","2049.5","","2","1","null","null","arrowleft","[1,1,1,1]","","",""
"sailing-trial","13","147028","0.0-5.0-0.0-3.0-1.0","","","","false","","","","","","","","","","null","","1103.300000011921","","3","1","null","null","arrowright","[1,1,1,1]","","",""
"sailing-trial","14","151015","0.0-5.0-0.0-3.0-2.0","","","","false","","","","","","","","","","null","","1217.199999988079","","3","0","null","null","arrowright","[0,0,0,0]","","",""
"sailing-instructions","15","158695","0.0-5.0-0.0-4.0","","","","","","","","","","","","","","null","null","null","null","null","null","","","","","","",""
"sailing-comprehension","16","187761","0.0-5.0-0.0-5.0","","","","","","","","","","20122.30000001192","","","","","","","","","","","","","","[""true"",""false"",""false"",""false""]","2",""
"sailing-instructions","17","221832","0.0-5.0-0.1-0.1","","","","","","","","","","","","","","null","null","null","null","null","null","","","","","","",""
"sailing-trial","18","224176","0.0-5.0-0.1-1.1-0.1","","","","false","","","","","","","","","","1200.5","","null","","null","null","arrowleft","0","null","null","","",""
"sailing-trial","19","226274","0.0-5.0-0.1-1.1-1.1","","","","false","","","","","","","","","","955.8999999761581","","null","","null","null","arrowright","1","null","null","","",""
"sailing-trial","20","228283","0.0-5.0-0.1-1.1-2.1","","","","false","","","","","","","","","","873.9000000357628","","null","","null","null","arrowleft","0","null","null","","",""
"sailing-instructions","21","275946","0.0-5.0-0.1-2.1","","","","","","","","","","","","","","null","null","null","null","0","null","","","","","","",""
"sailing-trial","22","281682","0.0-5.0-0.1-3.1-0.1","","","","false","","","","","","","","","","null","","2088.699999988079","","2","1","null","null","arrowleft","[1,1,1,1]","","",""
"sailing-trial","23","285385","0.0-5.0-0.1-3.1-1.1","","","","false","","","","","","","","","","null","","1234.300000011921","","3","1","null","null","arrowright","[1,1,1,1]","","",""
"sailing-trial","24","289916","0.0-5.0-0.1-3.1-2.1","","","","false","","","","","","","","","","null","","1632","","2","0","null","null","arrowleft","[0,0,0,0]","","",""
"sailing-instructions","25","297573","0.0-5.0-0.1-4.1","","","","","","","","","","","","","","null","null","null","null","null","null","","","","","","",""
"sailing-comprehension","26","307760","0.0-5.0-0.1-5.1","","","","","","","","","","8554.399999976158","","","","","","","","","","","","","","[""true"",""true"",""false"",""true""]","0",""
"sailing-instructions","27","371982","0.0-6.0-0.0-0.0","","","","","","","","","","","","","","null","null","null","null","null","null","","","","","","",""
"sailing-comprehension","28","385262","0.0-6.0-0.0-1.0","","","","","","","","","","12106.200000047684","","","","","","","","","","","","","","[""true"",""false"",""true""]","0",""
"sailing-instructions","29","400005","0.0-7.0-0.0-0.0","","","","","","","","","","","","","","null","null","null","null","null","null","","","","","","",""
"sailing-trial","30","409974","0.0-7.0-0.0-1.0-0.0","","","","false","","","","","","","","","","null","","7221.899999976158","","0","0","null","null","arrowup","[0.2,0.8,0.2,0.8]","","",""
"sailing-trial","31","414702","0.0-7.0-0.0-1.0-1.0","","","","false","","","","","","","","","","null","","2557.5","","1","1","null","null","arrowup","[0.2,0.8,0.2,0.8]","","",""
"sailing-trial","32","417981","0.0-7.0-0.0-1.0-2.0","","","","false","","","","","","","","","","null","","1712.5","","2","0","null","null","arrowup","[0.2,0.8,0.2,0.8]","","",""
"sailing-trial","33","421404","0.0-7.0-0.0-1.0-3.0","","","","false","","","","","","","","","","null","","1469.5999999642372","","3","1","null","null","arrowup","[0.2,0.8,0.2,0.8]","","",""
"sailing-comprehension","34","428511","0.0-7.0-0.0-2.0","","","","","","","","","","6049","","","","","","","","","","","","","","[""false""]","0",""
"sailing-instructions","35","452538","0.0-8.0-0.0-0.0","","","","","","","","","","","","","","null","null","null","null","null","null","","","","","","",""
"sailing-comprehension","36","456517","0.0-8.0-0.0-1.0","","","","","","","","","","2626.2000000476837","","","","","","","","","","","","","","[""true""]","0",""
"sailing-instructions","37","630401","0.0-9.0-0.0-0.0","","","","","","","","","","","","","","null","null","null","null","null","null","","","","","","",""
"sailing-trial","38","641021","0.0-9.0-0.0-1.0-0.0","","","","false","","","","","","","","","","2479.099999964237","","2422.800000011921","","0","0","arrowleft","0","arrowleft","[0.2,0.8,0.2,0.8]","","",""
"sailing-trial","39","647157","0.0-9.0-0.0-1.0-1.0","","","","false","","","","","","","","","","1356.3999999761581","","1326","","0","0","arrowleft","0","arrowleft","[0.2,0.8,0.2,0.8]","","",""
"sailing-trial","40","650870","0.0-9.0-0.0-1.0-2.0","","","","false","","","","","","","","","","null","","1878.6000000238419","","0","0","null","null","arrowup","[0.2,0.8,0.2,0.8]","","",""
"sailing-trial","41","655424","0.0-9.0-0.0-1.0-3.0","","","","false","","","","","","","","","","886.0999999642372","","64.80000001192093","","3","1","arrowright","1","arrowright","[0.2,0.8,0.2,0.8]","","",""
"sailing-trial","42","658443","0.0-9.0-0.0-1.0-4.0","","","","false","","","","","","","","","","null","","1085.9000000357628","","3","1","null","null","arrowup","[0.2,0.8,0.2,0.8]","","",""
"sailing-trial","43","662096","0.0-9.0-0.0-1.0-5.0","","","","false","","","","","","","","","","619.5","","89.59999996423721","","3","1","arrowright","1","arrowright","[0.2,0.8,0.2,0.8]","","",""
"sailing-instructions","44","692515","0.0-10.0","","","","","","","","","","","","","","null","null","null","null","null","null","","","","","","",""
"sailing-trial","45","701053","0.0-11.0-0.0","","","","false","","","","","","","","","","3861.100000023842","","384","","0","0","arrowleft","0","arrowleft","[0.325,0.675,0.15,0.85]","","",""
"sailing-trial","46","705655","0.0-11.0-1.0","","","","false","","","","","","","","","","null","","2709.7999999523163","","3","1","null","null","arrowup","[0.325,0.675,0.15,0.85]","","",""
"sailing-trial","47","709699","0.0-11.0-2.0","","","","false","","","","","","","","","","957.5","","150.80000001192093","","1","1","arrowleft","0","arrowright","[0.325,0.675,0.15,0.85]","","",""
"sailing-trial","48","712343","0.0-11.0-3.0","","","","false","","","","","","","","","","null","","945.5999999642372","","0","0","null","null","arrowup","[0.325,0.675,0.15,0.85]","","",""
"sailing-trial","49","718404","0.0-11.0-4.0","","","","false","","","","","","","","","","526.8999999761581","","2257.099999964237","","1","1","arrowleft","0","arrowright","[0.325,0.675,0.15,0.85]","","",""
"sailing-trial","50","721924","0.0-11.0-5.0","","","","false","","","","","","","","","","null","","1295.800000011921","","0","1","null","null","arrowup","[0.325,0.675,0.15,0.85]","","",""
"sailing-trial","51","727210","0.0-11.0-6.0","","","","false","","","","","","","","","","1145.6000000238419","","832.3999999761581","","2","0","arrowright","1","arrowleft","[0.325,0.675,0.15,0.85]","","",""
"sailing-trial","52","732813","0.0-11.0-7.0","","","","false","","","","","","","","","","null","","3635.300000011921","","1","1","null","null","arrowup","[0.325,0.675,0.15,0.85]","","",""
"sailing-trial","53","736395","0.0-11.0-8.0","","","","false","","","","","","","","","","859.6999999880791","","51.59999996423721","","2","0","arrowright","1","arrowleft","[0.325,0.675,0.15,0.85]","","",""
"sailing-trial","54","740219","0.0-11.0-9.0","","","","false","","","","","","","","","","null","","1532.6000000238419","","3","1","null","null","arrowup","[0.325,0.675,0.15,0.85]","","",""
"sailing-trial","55","744798","0.0-11.0-10.0","","","","false","","","","","","","","","","777.5","","528","","3","1","arrowright","1","arrowright","[0.325,0.675,0.15,0.85]","","",""
"sailing-trial","56","747550","0.0-11.0-11.0","","","","false","","","","","","","","","","null","","927.8999999761581","","3","1","null","null","arrowup","[0.325,0.675,0.15,0.85]","","",""
"sailing-trial","57","751593","0.0-11.0-12.0","","","","false","","","","","","","","","","575.3000000119209","","465.5","","3","1","arrowright","1","arrowright","[0.325,0.675,0.15,0.85]","","",""
"sailing-trial","58","756414","0.0-11.0-13.0","","","","false","","","","","","","","","","null","","3138","","2","0","null","null","arrowup","[0.325,0.675,0.15,0.85]","","",""
"sailing-trial","59","761036","0.0-11.0-14.0","","","","false","","","","","","","","","","1070.9000000357628","","557.1999999880791","","0","1","arrowleft","0","arrowleft","[0.325,0.675,0.15,0.85]","","",""
"sailing-trial","60","764263","0.0-11.0-15.0","","","","false","","","","","","","","","","null","","1331.699999988079","","0","1","null","null","arrowup","[0.325,0.675,0.15,0.85]","","",""
"sailing-trial","61","769312","0.0-11.0-16.0","","","","false","","","","","","","","","","1516.4000000357628","","591.2000000476837","","0","1","arrowleft","0","arrowleft","[0.325,0.675,0.15,0.85]","","",""
"sailing-trial","62","772321","0.0-11.0-17.0","","","","false","","","","","","","","","","null","","1085.800000011921","","1","1","null","null","arrowup","[0.325,0.675,0.15,0.85]","","",""
"sailing-trial","63","778612","0.0-11.0-18.0","","","","false","","","","","","","","","","1493.300000011921","","1105.3999999761581","","0","0","arrowleft","0","arrowleft","[0.15,0.85,0.325,0.675]","","",""
"sailing-trial","64","781717","0.0-11.0-19.0","","","","false","","","","","","","","","","null","","1065.699999988079","","2","1","null","null","arrowup","[0.15,0.85,0.325,0.675]","","",""
"sailing-trial","65","785546","0.0-11.0-20.0","","","","false","","","","","","","","","","577.9000000357628","","351.30000001192093","","1","1","arrowleft","0","arrowright","[0.15,0.85,0.325,0.675]","","",""
"sailing-trial","66","788842","0.0-11.0-21.0","","","","false","","","","","","","","","","null","","987.2000000476837","","1","1","null","null","arrowup","[0.15,0.85,0.325,0.675]","","",""
"sailing-trial","67","793739","0.0-11.0-22.0","","","","false","","","","","","","","","","967.5","","962.2999999523163","","1","1","arrowleft","0","arrowright","[0.15,0.85,0.325,0.675]","","",""
"sailing-trial","68","797454","0.0-11.0-23.0","","","","false","","","","","","","","","","null","","1612.0999999642372","","1","1","null","null","arrowup","[0.15,0.85,0.325,0.675]","","",""
"sailing-trial","69","801781","0.0-11.0-24.0","","","","false","","","","","","","","","","1056.4000000357628","","468.5","","1","1","arrowleft","0","arrowright","[0.15,0.85,0.325,0.675]","","",""
"sailing-trial","70","805621","0.0-11.0-25.0","","","","false","","","","","","","","","","null","","1429.699999988079","","0","0","null","null","arrowup","[0.15,0.85,0.325,0.675]","","",""
"sailing-trial","71","810223","0.0-11.0-26.0","","","","false","","","","","","","","","","1042.300000011921","","544","","1","1","arrowleft","0","arrowright","[0.15,0.85,0.325,0.675]","","",""
"sailing-trial","72","812921","0.0-11.0-27.0","","","","false","","","","","","","","","","null","","783.8000000119209","","1","1","null","null","arrowup","[0.15,0.85,0.325,0.675]","","",""
"sailing-trial","73","816864","0.0-11.0-28.0","","","","false","","","","","","","","","","509.5999999642372","","369","","1","1","arrowleft","0","arrowright","[0.15,0.85,0.325,0.675]","","",""
"sailing-trial","74","819660","0.0-11.0-29.0","","","","false","","","","","","","","","","null","","930.5","","0","1","null","null","arrowup","[0.15,0.85,0.325,0.675]","","",""
"sailing-trial","75","823526","0.0-11.0-30.0","","","","false","","","","","","","","","","539.4000000357628","","376.5999999642372","","1","1","arrowleft","0","arrowright","[0.15,0.85,0.325,0.675]","","",""
"sailing-trial","76","826817","0.0-11.0-31.0","","","","false","","","","","","","","","","null","","892.6999999880791","","3","0","null","null","arrowup","[0.15,0.85,0.325,0.675]","","",""
"sailing-trial","77","830505","0.0-11.0-32.0","","","","false","","","","","","","","","","480.5","","311.4000000357628","","1","1","arrowleft","0","arrowright","[0.15,0.85,0.325,0.675]","","",""
"sailing-trial","78","833915","0.0-11.0-33.0","","","","false","","","","","","","","","","null","","620.0999999642372","","2","0","null","null","arrowup","[0.15,0.85,0.325,0.675]","","",""
"sailing-trial","79","837781","0.0-11.0-34.0","","","","false","","","","","","","","","","526.9000000357628","","314.39999997615814","","1","0","arrowleft","0","arrowright","[0.325,0.675,0.15,0.85]","","",""
"sailing-trial","80","841056","0.0-11.0-35.0","","","","false","","","","","","","","","","null","","872.8999999761581","","2","0","null","null","arrowup","[0.325,0.675,0.15,0.85]","","",""
"sailing-trial","81","844822","0.0-11.0-36.0","","","","false","","","","","","","","","","489.30000001192093","","345.80000001192093","","3","1","arrowright","1","arrowright","[0.325,0.675,0.15,0.85]","","",""
"sailing-trial","82","848672","0.0-11.0-37.0","","","","false","","","","","","","","","","null","","831.0999999642372","","2","0","null","null","arrowup","[0.325,0.675,0.15,0.85]","","",""
"sailing-trial","83","852586","0.0-11.0-38.0","","","","false","","","","","","","","","","516.3999999761581","","175.5","","0","0","arrowleft","0","arrowleft","[0.325,0.675,0.15,0.85]","","",""
"sailing-trial","84","855471","0.0-11.0-39.0","","","","false","","","","","","","","","","null","","988.2000000476837","","3","1","null","null","arrowup","[0.325,0.675,0.15,0.85]","","",""
"sailing-trial","85","859132","0.0-11.0-40.0","","","","false","","","","","","","","","","505.69999998807907","","134.0999999642372","","3","1","arrowright","1","arrowright","[0.325,0.675,0.15,0.85]","","",""
"sailing-trial","86","862330","0.0-11.0-41.0","","","","false","","","","","","","","","","null","","796.3999999761581","","1","0","null","null","arrowup","[0.325,0.675,0.15,0.85]","","",""
"sailing-trial","87","866160","0.0-11.0-42.0","","","","false","","","","","","","","","","516","","368.19999998807907","","3","1","arrowright","1","arrowright","[0.325,0.675,0.15,0.85]","","",""
"sailing-trial","88","869026","0.0-11.0-43.0","","","","false","","","","","","","","","","null","","512.5","","2","0","null","null","arrowup","[0.325,0.675,0.15,0.85]","","",""
"sailing-trial","89","875016","0.0-11.0-44.0","","","","false","","","","","","","","","","613.8999999761581","","1318.5","","3","1","arrowright","1","arrowright","[0.325,0.675,0.15,0.85]","","",""
"sailing-trial","90","878492","0.0-11.0-45.0","","","","false","","","","","","","","","","null","","916.1999999880791","","0","0","null","null","arrowup","[0.325,0.675,0.15,0.85]","","",""
"sailing-trial","91","882451","0.0-11.0-46.0","","","","false","","","","","","","","","","529.6999999880791","","403.0999999642372","","3","1","arrowright","1","arrowright","[0.325,0.675,0.15,0.85]","","",""
"sailing-trial","92","885261","0.0-11.0-47.0","","","","false","","","","","","","","","","null","","784.6000000238419","","2","1","null","null","arrowup","[0.325,0.675,0.15,0.85]","","",""
"sailing-trial","93","889360","0.0-11.0-48.0","","","","false","","","","","","","","","","968.6000000238419","","232.19999998807907","","3","1","arrowright","1","arrowright","[0.325,0.675,0.15,0.85]","","",""
"sailing-trial","94","891665","0.0-11.0-49.0","","","","false","","","","","","","","","","null","","364.19999998807907","","3","0","null","null","arrowup","[0.325,0.675,0.15,0.85]","","",""
"sailing-trial","95","895583","0.0-11.0-50.0","","","","false","","","","","","","","","","526.4000000357628","","121.69999998807907","","2","0","arrowright","1","arrowleft","[0.15,0.85,0.325,0.675]","","",""
"sailing-trial","96","910597","0.0-11.0-51.0","","","","true","","","","","","","","","","null","","null","","null","null","null","null","null","[0.15,0.85,0.325,0.675]","","",""
"sailing-trial","97","916991","0.0-11.0-52.0","","","","false","","","","","","","","","","1384.5999999642372","","974.4000000357628","","0","0","arrowleft","0","arrowleft","[0.15,0.85,0.325,0.675]","","",""
"sailing-trial","98","923841","0.0-11.0-53.0","","","","false","","","","","","","","","","null","","3804.5","","0","0","null","null","arrowup","[0.15,0.85,0.325,0.675]","","",""
"sailing-trial","99","930393","0.0-11.0-54.0","","","","false","","","","","","","","","","1159.199999988079","","165.69999998807907","","1","1","arrowleft","0","arrowright","[0.15,0.85,0.325,0.675]","","",""
"sailing-trial","100","936256","0.0-11.0-55.0","","","","false","","","","","","","","","","null","","2833.099999964237","","3","0","null","null","arrowup","[0.15,0.85,0.325,0.675]","","",""
"sailing-trial","101","940726","0.0-11.0-56.0","","","","false","","","","","","","","","","573.6999999880791","","373","","2","0","arrowright","1","arrowleft","[0.15,0.85,0.325,0.675]","","",""
"sailing-trial","102","942934","0.0-11.0-57.0","","","","false","","","","","","","","","","null","","928.6999999880791","","1","0","null","null","arrowup","[0.15,0.85,0.325,0.675]","","",""
"sailing-trial","103","947829","0.0-11.0-58.0","","","","false","","","","","","","","","","518.3999999761581","","345.60000002384186","","0","0","arrowleft","0","arrowleft","[0.15,0.85,0.325,0.675]","","",""
"sailing-trial","104","955556","0.0-11.0-59.0","","","","false","","","","","","","","","","null","","4692.300000011921","","3","0","null","null","arrowup","[0.15,0.85,0.325,0.675]","","",""
"sailing-trial","105","959884","0.0-11.0-60.0","","","","false","","","","","","","","","","703.3000000119209","","471.30000001192093","","3","0","arrowright","1","arrowright","[0.15,0.85,0.325,0.675]","","",""
"sailing-trial","106","962699","0.0-11.0-61.0","","","","false","","","","","","","","","","null","","902.8000000119209","","2","1","null","null","arrowup","[0.15,0.85,0.325,0.675]","","",""
"sailing-trial","107","966305","0.0-11.0-62.0","","","","false","","","","","","","","","","458.30000001192093","","262.69999998807907","","2","1","arrowright","1","arrowleft","[0.15,0.85,0.325,0.675]","","",""
"sailing-trial","108","969193","0.0-11.0-63.0","","","","false","","","","","","","","","","null","","924.6999999880791","","3","1","null","null","arrowup","[0.15,0.85,0.325,0.675]","","",""
"sailing-trial","109","972876","0.0-11.0-64.0","","","","false","","","","","","","","","","535.5","","161.60000002384186","","2","1","arrowright","1","arrowleft","[0.15,0.85,0.325,0.675]","","",""
"sailing-trial","110","976117","0.0-11.0-65.0","","","","false","","","","","","","","","","null","","814.7999999523163","","0","0","null","null","arrowup","[0.15,0.85,0.325,0.675]","","",""
"sailing-trial","111","979700","0.0-11.0-66.0","","","","false","","","","","","","","","","425.2999999523163","","288.69999998807907","","2","1","arrowright","1","arrowleft","[0.15,0.85,0.325,0.675]","","",""
"sailing-trial","112","982544","0.0-11.0-67.0","","","","false","","","","","","","","","","null","","846.7999999523163","","0","1","null","null","arrowup","[0.15,0.85,0.325,0.675]","","",""
"sailing-trial","113","986291","0.0-11.0-68.0","","","","false","","","","","","","","","","520.3999999761581","","316","","2","1","arrowright","1","arrowleft","[0.15,0.85,0.325,0.675]","","",""
"sailing-trial","114","989492","0.0-11.0-69.0","","","","false","","","","","","","","","","null","","1368.5","","2","1","null","null","arrowup","[0.15,0.85,0.325,0.675]","","",""
"sailing-trial","115","993346","0.0-11.0-70.0","","","","false","","","","","","","","","","648.6000000238419","","194.5999999642372","","2","0","arrowright","1","arrowleft","[0.15,0.85,0.325,0.675]","","",""
"sailing-trial","116","996164","0.0-11.0-71.0","","","","false","","","","","","","","","","null","","975.2999999523163","","1","1","null","null","arrowup","[0.15,0.85,0.325,0.675]","","",""
"sailing-trial","117","999845","0.0-11.0-72.0","","","","false","","","","","","","","","","471.5999999642372","","299","","0","1","arrowleft","0","arrowleft","[0.325,0.675,0.15,0.85]","","",""
"sailing-trial","118","1002441","0.0-11.0-73.0","","","","false","","","","","","","","","","null","","738.5","","0","1","null","null","arrowup","[0.325,0.675,0.15,0.85]","","",""
"sailing-trial","119","1006005","0.0-11.0-74.0","","","","false","","","","","","","","","","445.69999998807907","","292.30000001192093","","0","0","arrowleft","0","arrowleft","[0.325,0.675,0.15,0.85]","","",""
"sailing-trial","120","1009172","0.0-11.0-75.0","","","","false","","","","","","","","","","null","","1218.800000011921","","3","1","null","null","arrowup","[0.325,0.675,0.15,0.85]","","",""
"sailing-trial","121","1012884","0.0-11.0-76.0","","","","false","","","","","","","","","","604.8999999761581","","251.39999997615814","","1","1","arrowleft","0","arrowright","[0.325,0.675,0.15,0.85]","","",""
"sailing-trial","122","1015406","0.0-11.0-77.0","","","","false","","","","","","","","","","null","","735.8999999761581","","1","1","null","null","arrowup","[0.325,0.675,0.15,0.85]","","",""
"sailing-trial","123","1019074","0.0-11.0-78.0","","","","false","","","","","","","","","","509.30000001192093","","253.70000004768372","","1","1","arrowleft","0","arrowright","[0.325,0.675,0.15,0.85]","","",""
"sailing-trial","124","1023036","0.0-11.0-79.0","","","","false","","","","","","","","","","null","","946.3000000119209","","0","0","null","null","arrowup","[0.325,0.675,0.15,0.85]","","",""
"sailing-trial","125","1037309","0.0-11.0-80.0","","","","false","","","","","","","","","","2484","","7999.599999964237","","1","0","arrowleft","0","arrowright","[0.325,0.675,0.15,0.85]","","",""
"sailing-trial","126","1040238","0.0-11.0-81.0","","","","false","","","","","","","","","","null","","813.1000000238419","","2","0","null","null","arrowup","[0.325,0.675,0.15,0.85]","","",""
"sailing-trial","127","1045123","0.0-11.0-82.0","","","","false","","","","","","","","","","1551.4000000357628","","63.90000003576279","","3","1","arrowright","1","arrowright","[0.325,0.675,0.15,0.85]","","",""
"sailing-trial","128","1048953","0.0-11.0-83.0","","","","false","","","","","","","","","","null","","899.5999999642372","","0","0","null","null","arrowup","[0.325,0.675,0.15,0.85]","","",""
"sailing-trial","129","1053053","0.0-11.0-84.0","","","","false","","","","","","","","","","560.5999999642372","","116.10000002384186","","3","0","arrowright","1","arrowright","[0.325,0.675,0.15,0.85]","","",""
"sailing-trial","130","1056575","0.0-11.0-85.0","","","","false","","","","","","","","","","null","","836.7999999523163","","2","0","null","null","arrowup","[0.325,0.675,0.15,0.85]","","",""
"sailing-trial","131","1060133","0.0-11.0-86.0","","","","false","","","","","","","","","","649.8999999761581","","243.60000002384186","","0","0","arrowleft","0","arrowleft","[0.325,0.675,0.15,0.85]","","",""
"sailing-trial","132","1062773","0.0-11.0-87.0","","","","false","","","","","","","","","","null","","755.3000000119209","","0","1","null","null","arrowup","[0.325,0.675,0.15,0.85]","","",""
"sailing-trial","133","1066468","0.0-11.0-88.0","","","","false","","","","","","","","","","708.6000000238419","","373.5","","1","0","arrowleft","0","arrowright","[0.325,0.675,0.15,0.85]","","",""
"sailing-trial","134","1069507","0.0-11.0-89.0","","","","false","","","","","","","","","","null","","1424.7999999523163","","0","0","null","null","arrowup","[0.325,0.675,0.15,0.85]","","",""
"sailing-trial","135","1075545","0.0-11.0-90.0","","","","false","","","","","","","","","","1587.9000000357628","","401.30000001192093","","0","0","arrowleft","0","arrowleft","[0.675,0.325,0.85,0.15]","","",""
"sailing-trial","136","1083198","0.0-11.0-91.0","","","","false","","","","","","","","","","null","","5603.100000023842","","1","0","null","null","arrowup","[0.675,0.325,0.85,0.15]","","",""
"sailing-trial","137","1087288","0.0-11.0-92.0","","","","false","","","","","","","","","","927.5999999642372","","26.5","","2","1","arrowright","1","arrowleft","[0.675,0.325,0.85,0.15]","","",""
"sailing-trial","138","1090628","0.0-11.0-93.0","","","","false","","","","","","","","","","null","","1553.3999999761581","","2","1","null","null","arrowup","[0.675,0.325,0.85,0.15]","","",""
"sailing-trial","139","1094313","0.0-11.0-94.0","","","","false","","","","","","","","","","716.4000000357628","","100.80000001192093","","2","1","arrowright","1","arrowleft","[0.675,0.325,0.85,0.15]","","",""
"sailing-trial","140","1097964","0.0-11.0-95.0","","","","false","","","","","","","","","","null","","937","","1","0","null","null","arrowup","[0.675,0.325,0.85,0.15]","","",""
"sailing-trial","141","1101709","0.0-11.0-96.0","","","","false","","","","","","","","","","560","","289.80000001192093","","2","1","arrowright","1","arrowleft","[0.675,0.325,0.85,0.15]","","",""
"sailing-trial","142","1104384","0.0-11.0-97.0","","","","false","","","","","","","","","","null","","869.3999999761581","","2","1","null","null","arrowup","[0.675,0.325,0.85,0.15]","","",""
"sailing-trial","143","1108149","0.0-11.0-98.0","","","","false","","","","","","","","","","524.6000000238419","","328.7000000476837","","2","1","arrowright","1","arrowleft","[0.675,0.325,0.85,0.15]","","",""
"sailing-trial","144","1111285","0.0-11.0-99.0","","","","false","","","","","","","","","","null","","831.6999999880791","","1","0","null","null","arrowup","[0.675,0.325,0.85,0.15]","","",""
"sailing-trial","145","1114621","0.0-11.0-100.0","","","","false","","","","","","","","","","468.5999999642372","","88.89999997615814","","2","1","arrowright","1","arrowleft","[0.675,0.325,0.85,0.15]","","",""
"sailing-trial","146","1116592","0.0-11.0-101.0","","","","false","","","","","","","","","","null","","824.0999999642372","","1","0","null","null","arrowup","[0.675,0.325,0.85,0.15]","","",""
"sailing-trial","147","1120086","0.0-11.0-102.0","","","","false","","","","","","","","","","537.6999999880791","","234.69999998807907","","2","1","arrowright","1","arrowleft","[0.675,0.325,0.85,0.15]","","",""
"sailing-trial","148","1122961","0.0-11.0-103.0","","","","false","","","","","","","","","","null","","778.1999999880791","","3","0","null","null","arrowup","[0.675,0.325,0.85,0.15]","","",""
"sailing-trial","149","1126561","0.0-11.0-104.0","","","","false","","","","","","","","","","491.39999997615814","","229.5999999642372","","2","1","arrowright","1","arrowleft","[0.675,0.325,0.85,0.15]","","",""
"sailing-trial","150","1129291","0.0-11.0-105.0","","","","false","","","","","","","","","","null","","896.1000000238419","","0","1","null","null","arrowup","[0.675,0.325,0.85,0.15]","","",""
"sailing-trial","151","1132769","0.0-11.0-106.0","","","","false","","","","","","","","","","450.2999999523163","","144.19999998807907","","2","1","arrowright","1","arrowleft","[0.15,0.85,0.325,0.675]","","",""
"sailing-trial","152","1134794","0.0-11.0-107.0","","","","false","","","","","","","","","","null","","753.5","","3","0","null","null","arrowup","[0.15,0.85,0.325,0.675]","","",""
"sailing-trial","153","1140460","0.0-11.0-108.0","","","","false","","","","","","","","","","1529.199999988079","","38.80000001192093","","2","0","arrowright","1","arrowleft","[0.15,0.85,0.325,0.675]","","",""
"sailing-trial","154","1145224","0.0-11.0-109.0","","","","false","","","","","","","","","","null","","959.8000000119209","","3","1","null","null","arrowup","[0.15,0.85,0.325,0.675]","","",""
"sailing-trial","155","1149536","0.0-11.0-110.0","","","","false","","","","","","","","","","1088","","266.80000001192093","","0","1","arrowleft","0","arrowleft","[0.15,0.85,0.325,0.675]","","",""
"sailing-trial","156","1157919","0.0-11.0-111.0","","","","false","","","","","","","","","","null","","5346.599999964237","","2","0","null","null","arrowup","[0.15,0.85,0.325,0.675]","","",""
"sailing-trial","157","1162728","0.0-11.0-112.0","","","","false","","","","","","","","","","2278.7000000476837","","290.80000001192093","","2","0","arrowright","1","arrowleft","[0.15,0.85,0.325,0.675]","","",""
"sailing-trial","158","1165790","0.0-11.0-113.0","","","","false","","","","","","","","","","null","","938.5","","3","0","null","null","arrowup","[0.15,0.85,0.325,0.675]","","",""
"sailing-trial","159","1169617","0.0-11.0-114.0","","","","false","","","","","","","","","","632.2000000476837","","323.2000000476837","","1","1","arrowleft","0","arrowright","[0.15,0.85,0.325,0.675]","","",""
"sailing-trial","160","1173810","0.0-11.0-115.0","","","","false","","","","","","","","","","null","","1398.300000011921","","1","0","null","null","arrowup","[0.15,0.85,0.325,0.675]","","",""
"sailing-trial","161","1176836","0.0-11.0-116.0","","","","false","","","","","","","","","","551.3000000119209","","160","","0","0","arrowleft","0","arrowleft","[0.15,0.85,0.325,0.675]","","",""
"sailing-trial","162","1179274","0.0-11.0-117.0","","","","false","","","","","","","","","","null","","793","","2","1","null","null","arrowup","[0.15,0.85,0.325,0.675]","","",""
"sailing-trial","163","1182427","0.0-11.0-118.0","","","","false","","","","","","","","","","525.5","","322.60000002384186","","2","0","arrowright","1","arrowleft","[0.15,0.85,0.325,0.675]","","",""
"sailing-trial","164","1186493","0.0-11.0-119.0","","","","false","","","","","","","","","","null","","1139.300000011921","","2","0","null","null","arrowup","[0.15,0.85,0.325,0.675]","","",""
"sailing-trial","165","1190505","0.0-11.0-120.0","","","","false","","","","","","","","","","502.4000000357628","","217.80000001192093","","3","0","arrowright","1","arrowright","[0.15,0.85,0.325,0.675]","","",""
"sailing-trial","166","1193271","0.0-11.0-121.0","","","","false","","","","","","","","","","null","","866.2999999523163","","3","1","null","null","arrowup","[0.15,0.85,0.325,0.675]","","",""
"sailing-trial","167","1196934","0.0-11.0-122.0","","","","false","","","","","","","","","","491.69999998807907","","178.5999999642372","","3","1","arrowright","1","arrowright","[0.15,0.85,0.325,0.675]","","",""
"sailing-trial","168","1198842","0.0-11.0-123.0","","","","false","","","","","","","","","","null","","634.6000000238419","","2","0","null","null","arrowup","[0.15,0.85,0.325,0.675]","","",""
"sailing-trial","169","1202479","0.0-11.0-124.0","","","","false","","","","","","","","","","560.3000000119209","","245.60000002384186","","3","1","arrowright","1","arrowright","[0.15,0.85,0.325,0.675]","","",""
"sailing-trial","170","1205052","0.0-11.0-125.0","","","","false","","","","","","","","","","null","","922.3000000119209","","3","0","null","null","arrowup","[0.15,0.85,0.325,0.675]","","",""
"sailing-trial","171","1208742","0.0-11.0-126.0","","","","false","","","","","","","","","","603.2999999523163","","185.10000002384186","","1","1","arrowleft","0","arrowright","[0.325,0.675,0.15,0.85]","","",""
"sailing-trial","172","1211196","0.0-11.0-127.0","","","","false","","","","","","","","","","null","","696.6000000238419","","0","0","null","null","arrowup","[0.325,0.675,0.15,0.85]","","",""
"sailing-trial","173","1214823","0.0-11.0-128.0","","","","false","","","","","","","","","","600.6999999880791","","235.39999997615814","","1","1","arrowleft","0","arrowright","[0.325,0.675,0.15,0.85]","","",""
"sailing-trial","174","1217721","0.0-11.0-129.0","","","","false","","","","","","","","","","null","","929.1999999880791","","1","1","null","null","arrowup","[0.325,0.675,0.15,0.85]","","",""
"sailing-trial","175","1221193","0.0-11.0-130.0","","","","false","","","","","","","","","","440.19999998807907","","276.0999999642372","","1","0","arrowleft","0","arrowright","[0.325,0.675,0.15,0.85]","","",""
"sailing-trial","176","1223843","0.0-11.0-131.0","","","","false","","","","","","","","","","null","","966.6000000238419","","0","0","null","null","arrowup","[0.325,0.675,0.15,0.85]","","",""
"sailing-trial","177","1227329","0.0-11.0-132.0","","","","false","","","","","","","","","","721.0999999642372","","289.60000002384186","","2","0","arrowright","1","arrowleft","[0.325,0.675,0.15,0.85]","","",""
"sailing-trial","178","1229929","0.0-11.0-133.0","","","","false","","","","","","","","","","null","","727.3999999761581","","0","1","null","null","arrowup","[0.325,0.675,0.15,0.85]","","",""
"sailing-trial","179","1233099","0.0-11.0-134.0","","","","false","","","","","","","","","","627.0999999642372","","52.39999997615814","","0","0","arrowleft","0","arrowleft","[0.325,0.675,0.15,0.85]","","",""
"sailing-trial","180","1235802","0.0-11.0-135.0","","","","false","","","","","","","","","","null","","875.1000000238419","","3","1","null","null","arrowup","[0.325,0.675,0.15,0.85]","","",""
"sailing-trial","181","1239486","0.0-11.0-136.0","","","","false","","","","","","","","","","452.60000002384186","","289","","3","1","arrowright","1","arrowright","[0.325,0.675,0.15,0.85]","","",""
"sailing-trial","182","1241750","0.0-11.0-137.0","","","","false","","","","","","","","","","null","","472.30000001192093","","1","1","null","null","arrowup","[0.325,0.675,0.15,0.85]","","",""
"sailing-trial","183","1245562","0.0-11.0-138.0","","","","false","","","","","","","","","","517.7999999523163","","461.39999997615814","","3","1","arrowright","1","arrowright","[0.325,0.675,0.15,0.85]","","",""
"sailing-trial","184","1248715","0.0-11.0-139.0","","","","false","","","","","","","","","","null","","1157.300000011921","","1","0","null","null","arrowup","[0.325,0.675,0.15,0.85]","","",""
"sailing-trial","185","1254003","0.0-11.0-140.0","","","","false","","","","","","","","","","543.1999999880791","","1889.699999988079","","3","1","arrowright","1","arrowright","[0.325,0.675,0.15,0.85]","","",""
"sailing-trial","186","1257859","0.0-11.0-141.0","","","","false","","","","","","","","","","null","","2283.300000011921","","2","0","null","null","arrowup","[0.325,0.675,0.15,0.85]","","",""
"sailing-trial","187","1261464","0.0-11.0-142.0","","","","false","","","","","","","","","","573.8000000119209","","118","","1","1","arrowleft","0","arrowright","[0.15,0.85,0.325,0.675]","","",""
"sailing-trial","188","1263875","0.0-11.0-143.0","","","","false","","","","","","","","","","null","","552.5","","3","1","null","null","arrowup","[0.15,0.85,0.325,0.675]","","",""
"sailing-trial","189","1267474","0.0-11.0-144.0","","","","false","","","","","","","","","","492.69999998807907","","282.10000002384186","","3","1","arrowright","1","arrowright","[0.15,0.85,0.325,0.675]","","",""
"sailing-trial","190","1269689","0.0-11.0-145.0","","","","false","","","","","","","","","","null","","915.8000000119209","","3","0","null","null","arrowup","[0.15,0.85,0.325,0.675]","","",""
"sailing-trial","191","1273180","0.0-11.0-146.0","","","","false","","","","","","","","","","494.80000001192093","","135.5","","1","1","arrowleft","0","arrowright","[0.15,0.85,0.325,0.675]","","",""
"sailing-trial","192","1275693","0.0-11.0-147.0","","","","false","","","","","","","","","","null","","745.6999999880791","","2","1","null","null","arrowup","[0.15,0.85,0.325,0.675]","","",""
"sailing-trial","193","1279261","0.0-11.0-148.0","","","","false","","","","","","","","","","507.30000001192093","","432.30000001192093","","0","0","arrowleft","0","arrowleft","[0.15,0.85,0.325,0.675]","","",""
"sailing-trial","194","1281638","0.0-11.0-149.0","","","","false","","","","","","","","","","null","","615.5999999642372","","2","1","null","null","arrowup","[0.15,0.85,0.325,0.675]","","",""
"sailing-trial","195","1285239","0.0-11.0-150.0","","","","false","","","","","","","","","","636.6999999880791","","196.30000001192093","","2","0","arrowright","1","arrowleft","[0.15,0.85,0.325,0.675]","","",""
"sailing-trial","196","1287064","0.0-11.0-151.0","","","","false","","","","","","","","","","null","","524.6000000238419","","0","0","null","null","arrowup","[0.15,0.85,0.325,0.675]","","",""
"sailing-trial","197","1291712","0.0-11.0-152.0","","","","false","","","","","","","","","","445.9000000357628","","84.5","","1","1","arrowleft","0","arrowright","[0.15,0.85,0.325,0.675]","","",""
"sailing-trial","198","1294103","0.0-11.0-153.0","","","","false","","","","","","","","","","null","","942.3000000119209","","3","0","null","null","arrowup","[0.15,0.85,0.325,0.675]","","",""
"sailing-trial","199","1298542","0.0-11.0-154.0","","","","false","","","","","","","","","","2023.199999988079","","155.4000000357628","","0","0","arrowleft","0","arrowleft","[0.15,0.85,0.325,0.675]","","",""
"sailing-trial","200","1301227","0.0-11.0-155.0","","","","false","","","","","","","","","","null","","877.6999999880791","","1","1","null","null","arrowup","[0.15,0.85,0.325,0.675]","","",""
"sailing-trial","201","1305273","0.0-11.0-156.0","","","","false","","","","","","","","","","787.8999999761581","","433.60000002384186","","2","1","arrowright","1","arrowleft","[0.15,0.85,0.325,0.675]","","",""
"sailing-trial","202","1307847","0.0-11.0-157.0","","","","false","","","","","","","","","","null","","801.2000000476837","","1","1","null","null","arrowup","[0.15,0.85,0.325,0.675]","","",""
"sailing-trial","203","1311209","0.0-11.0-158.0","","","","false","","","","","","","","","","457.4000000357628","","66.10000002384186","","1","1","arrowleft","0","arrowright","[0.325,0.675,0.15,0.85]","","",""
"sailing-trial","204","1313775","0.0-11.0-159.0","","","","false","","","","","","","","","","null","","744.5","","3","1","null","null","arrowup","[0.325,0.675,0.15,0.85]","","",""
"sailing-trial","205","1317337","0.0-11.0-160.0","","","","false","","","","","","","","","","482.5999999642372","","272.89999997615814","","3","1","arrowright","1","arrowright","[0.325,0.675,0.15,0.85]","","",""
"sailing-trial","206","1319970","0.0-11.0-161.0","","","","false","","","","","","","","","","null","","706.2000000476837","","0","1","null","null","arrowup","[0.325,0.675,0.15,0.85]","","",""
"sailing-trial","207","1323984","0.0-11.0-162.0","","","","false","","","","","","","","","","772.1999999880791","","348.89999997615814","","3","1","arrowright","1","arrowright","[0.325,0.675,0.15,0.85]","","",""
"sailing-trial","208","1326577","0.0-11.0-163.0","","","","false","","","","","","","","","","null","","765.3000000119209","","3","1","null","null","arrowup","[0.325,0.675,0.15,0.85]","","",""
"sailing-trial","209","1330173","0.0-11.0-164.0","","","","false","","","","","","","","","","512.3000000119209","","29.899999976158142","","3","1","arrowright","1","arrowright","[0.325,0.675,0.15,0.85]","","",""
"sailing-trial","210","1332488","0.0-11.0-165.0","","","","false","","","","","","","","","","null","","433.39999997615814","","3","1","null","null","arrowup","[0.325,0.675,0.15,0.85]","","",""
"sailing-trial","211","1336980","0.0-11.0-166.0","","","","false","","","","","","","","","","396.7000000476837","","1482.5999999642372","","3","1","arrowright","1","arrowright","[0.325,0.675,0.15,0.85]","","",""
"sailing-trial","212","1339170","0.0-11.0-167.0","","","","false","","","","","","","","","","null","","720.8000000119209","","2","0","null","null","arrowup","[0.325,0.675,0.15,0.85]","","",""
"sailing-trial","213","1342690","0.0-11.0-168.0","","","","false","","","","","","","","","","533.6000000238419","","193","","3","1","arrowright","1","arrowright","[0.325,0.675,0.15,0.85]","","",""
"sailing-trial","214","1345039","0.0-11.0-169.0","","","","false","","","","","","","","","","null","","499.5","","3","1","null","null","arrowup","[0.325,0.675,0.15,0.85]","","",""
"sailing-trial","215","1348651","0.0-11.0-170.0","","","","false","","","","","","","","","","426.89999997615814","","377.5","","3","1","arrowright","1","arrowright","[0.325,0.675,0.15,0.85]","","",""
"sailing-trial","216","1350527","0.0-11.0-171.0","","","","false","","","","","","","","","","null","","580.1999999880791","","1","0","null","null","arrowup","[0.325,0.675,0.15,0.85]","","",""
"sailing-trial","217","1354212","0.0-11.0-172.0","","","","false","","","","","","","","","","550.8999999761581","","234.5","","3","1","arrowright","1","arrowright","[0.325,0.675,0.15,0.85]","","",""
"sailing-trial","218","1356881","0.0-11.0-173.0","","","","false","","","","","","","","","","null","","840.6999999880791","","3","1","null","null","arrowup","[0.325,0.675,0.15,0.85]","","",""
"sailing-trial","219","1360976","0.0-11.0-174.0","","","","false","","","","","","","","","","660.8000000119209","","397.5","","3","0","arrowright","1","arrowright","[0.325,0.675,0.15,0.85]","","",""
"sailing-trial","220","1364024","0.0-11.0-175.0","","","","false","","","","","","","","","","null","","1241.4000000357628","","1","1","null","null","arrowup","[0.325,0.675,0.15,0.85]","","",""
"sailing-trial","221","1367768","0.0-11.0-176.0","","","","false","","","","","","","","","","507.2999999523163","","436.69999998807907","","1","1","arrowleft","0","arrowright","[0.325,0.675,0.15,0.85]","","",""
"sailing-trial","222","1369814","0.0-11.0-177.0","","","","false","","","","","","","","","","null","","737","","2","0","null","null","arrowup","[0.325,0.675,0.15,0.85]","","",""
"sailing-trial","223","1373378","0.0-11.0-178.0","","","","false","","","","","","","","","","467.10000002384186","","293.69999998807907","","1","1","arrowleft","0","arrowright","[0.15,0.85,0.325,0.675]","","",""
"sailing-trial","224","1377228","0.0-11.0-179.0","","","","false","","","","","","","","","","null","","1021.2999999523163","","2","1","null","null","arrowup","[0.15,0.85,0.325,0.675]","","",""
"sailing-trial","225","1382355","0.0-11.0-180.0","","","","false","","","","","","","","","","2090.7000000476837","","110.5","","1","1","arrowleft","0","arrowright","[0.15,0.85,0.325,0.675]","","",""
"sailing-trial","226","1385465","0.0-11.0-181.0","","","","false","","","","","","","","","","null","","1005.0999999642372","","1","1","null","null","arrowup","[0.15,0.85,0.325,0.675]","","",""
"sailing-trial","227","1389428","0.0-11.0-182.0","","","","false","","","","","","","","","","996","","45.5","","1","1","arrowleft","0","arrowright","[0.15,0.85,0.325,0.675]","","",""
"sailing-trial","228","1392169","0.0-11.0-183.0","","","","false","","","","","","","","","","null","","791.3999999761581","","0","0","null","null","arrowup","[0.15,0.85,0.325,0.675]","","",""
"sailing-trial","229","1396236","0.0-11.0-184.0","","","","false","","","","","","","","","","672.7999999523163","","390","","0","0","arrowleft","0","arrowleft","[0.15,0.85,0.325,0.675]","","",""
"sailing-trial","230","1400537","0.0-11.0-185.0","","","","false","","","","","","","","","","null","","1269.3999999761581","","0","0","null","null","arrowup","[0.15,0.85,0.325,0.675]","","",""
"sailing-trial","231","1404284","0.0-11.0-186.0","","","","false","","","","","","","","","","712.1999999880791","","347.39999997615814","","2","0","arrowright","1","arrowleft","[0.15,0.85,0.325,0.675]","","",""
"sailing-trial","232","1406415","0.0-11.0-187.0","","","","false","","","","","","","","","","null","","754.1999999880791","","0","0","null","null","arrowup","[0.15,0.85,0.325,0.675]","","",""
"sailing-trial","233","1409670","0.0-11.0-188.0","","","","false","","","","","","","","","","593.6000000238419","","321.9000000357628","","3","0","arrowright","1","arrowright","[0.15,0.85,0.325,0.675]","","",""
"sailing-trial","234","1411754","0.0-11.0-189.0","","","","false","","","","","","","","","","null","","819","","3","0","null","null","arrowup","[0.15,0.85,0.325,0.675]","","",""
"sailing-trial","235","1417599","0.0-11.0-190.0","","","","false","","","","","","","","","","700.8999999761581","","1106.5999999642372","","1","0","arrowleft","0","arrowright","[0.15,0.85,0.325,0.675]","","",""
"sailing-trial","236","1424810","0.0-11.0-191.0","","","","false","","","","","","","","","","null","","4176.300000011921","","3","0","null","null","arrowup","[0.15,0.85,0.325,0.675]","","",""
"sailing-trial","237","1439912","0.0-11.0-192.0","","","","false","","","","","","","","","","9602.5","","1474.800000011921","","3","0","arrowright","1","arrowright","[0.15,0.85,0.325,0.675]","","",""
"sailing-trial","238","1447059","0.0-11.0-193.0","","","","false","","","","","","","","","","null","","4859.099999964237","","1","1","null","null","arrowup","[0.15,0.85,0.325,0.675]","","",""
"sailing-trial","239","1455502","0.0-11.0-194.0","","","","false","","","","","","","","","","4192","","181.9000000357628","","0","0","arrowleft","0","arrowleft","[0.15,0.85,0.325,0.675]","","",""
"sailing-trial","240","1463741","0.0-11.0-195.0","","","","false","","","","","","","","","","null","","4881.900000035763","","3","1","null","null","arrowup","[0.15,0.85,0.325,0.675]","","",""
"sailing-trial","241","1466803","0.0-11.0-196.0","","","","false","","","","","","","","","","675.1000000238419","","67.19999998807907","","2","0","arrowright","1","arrowleft","[0.15,0.85,0.325,0.675]","","",""
"sailing-trial","242","1469450","0.0-11.0-197.0","","","","false","","","","","","","","","","null","","808.6999999880791","","0","1","null","null","arrowup","[0.15,0.85,0.325,0.675]","","",""
"sailing-trial","243","1473132","0.0-11.0-198.0","","","","false","","","","","","","","","","605.2000000476837","","235.19999998807907","","0","1","arrowleft","0","arrowleft","[0.85,0.15,0.675,0.325]","","",""
"sailing-trial","244","1475911","0.0-11.0-199.0","","","","false","","","","","","","","","","null","","1494.300000011921","","0","0","null","null","arrowup","[0.85,0.15,0.675,0.325]","","",""
"sailing-trial","245","1479236","0.0-11.0-200.0","","","","false","","","","","","","","","","577.6999999880791","","308.89999997615814","","1","0","arrowleft","0","arrowright","[0.85,0.15,0.675,0.325]","","",""
"sailing-trial","246","1481219","0.0-11.0-201.0","","","","false","","","","","","","","","","null","","814.3000000119209","","1","0","null","null","arrowup","[0.85,0.15,0.675,0.325]","","",""
"sailing-trial","247","1484159","0.0-11.0-202.0","","","","false","","","","","","","","","","574.1000000238419","","282.5","","3","0","arrowright","1","arrowright","[0.85,0.15,0.675,0.325]","","",""
"sailing-trial","248","1486047","0.0-11.0-203.0","","","","false","","","","","","","","","","null","","703.8000000119209","","1","0","null","null","arrowup","[0.85,0.15,0.675,0.325]","","",""
"sailing-trial","249","1489030","0.0-11.0-204.0","","","","false","","","","","","","","","","472.39999997615814","","84","","2","0","arrowright","1","arrowleft","[0.85,0.15,0.675,0.325]","","",""
"sailing-trial","250","1491527","0.0-11.0-205.0","","","","false","","","","","","","","","","null","","1220.2000000476837","","3","0","null","null","arrowup","[0.85,0.15,0.675,0.325]","","",""
"sailing-trial","251","1495347","0.0-11.0-206.0","","","","false","","","","","","","","","","685.5999999642372","","260.0999999642372","","0","1","arrowleft","0","arrowleft","[0.85,0.15,0.675,0.325]","","",""
"sailing-trial","252","1497725","0.0-11.0-207.0","","","","false","","","","","","","","","","null","","624.6000000238419","","2","1","null","null","arrowup","[0.85,0.15,0.675,0.325]","","",""
"sailing-trial","253","1501258","0.0-11.0-208.0","","","","false","","","","","","","","","","429.80000001192093","","300.69999998807907","","0","1","arrowleft","0","arrowleft","[0.85,0.15,0.675,0.325]","","",""
"sailing-trial","254","1503575","0.0-11.0-209.0","","","","false","","","","","","","","","","null","","544.2000000476837","","2","1","null","null","arrowup","[0.85,0.15,0.675,0.325]","","",""
"sailing-trial","255","1507215","0.0-11.0-210.0","","","","false","","","","","","","","","","484.0999999642372","","262.39999997615814","","0","1","arrowleft","0","arrowleft","[0.85,0.15,0.675,0.325]","","",""
"sailing-trial","256","1508760","0.0-11.0-211.0","","","","false","","","","","","","","","","null","","274","","1","0","null","null","arrowup","[0.85,0.15,0.675,0.325]","","",""
"sailing-trial","257","1511805","0.0-11.0-212.0","","","","false","","","","","","","","","","446.69999998807907","","261.39999997615814","","0","0","arrowleft","0","arrowleft","[0.85,0.15,0.675,0.325]","","",""
"sailing-trial","258","1513774","0.0-11.0-213.0","","","","false","","","","","","","","","","null","","712.9000000357628","","3","0","null","null","arrowup","[0.85,0.15,0.675,0.325]","","",""
"sailing-trial","259","1517295","0.0-11.0-214.0","","","","false","","","","","","","","","","480.80000001192093","","225","","2","1","arrowright","1","arrowleft","[0.85,0.15,0.675,0.325]","","",""
"sailing-trial","260","1518903","0.0-11.0-215.0","","","","false","","","","","","","","","","null","","405.2999999523163","","3","0","null","null","arrowup","[0.85,0.15,0.675,0.325]","","",""
"sailing-trial","261","1522349","0.0-11.0-216.0","","","","false","","","","","","","","","","558.6999999880791","","249.60000002384186","","2","0","arrowright","1","arrowleft","[0.85,0.15,0.675,0.325]","","",""
"sailing-trial","262","1524197","0.0-11.0-217.0","","","","false","","","","","","","","","","null","","489.0999999642372","","1","0","null","null","arrowup","[0.85,0.15,0.675,0.325]","","",""
"sailing-trial","263","1527404","0.0-11.0-218.0","","","","false","","","","","","","","","","602.1999999880791","","298.80000001192093","","3","0","arrowright","1","arrowright","[0.675,0.325,0.85,0.15]","","",""
"sailing-trial","264","1529782","0.0-11.0-219.0","","","","false","","","","","","","","","","null","","591.2000000476837","","0","1","null","null","arrowup","[0.675,0.325,0.85,0.15]","","",""
"sailing-trial","265","1533360","0.0-11.0-220.0","","","","false","","","","","","","","","","457.60000002384186","","250.70000004768372","","0","1","arrowleft","0","arrowleft","[0.675,0.325,0.85,0.15]","","",""
"sailing-trial","266","1535212","0.0-11.0-221.0","","","","false","","","","","","","","","","null","","601","","3","0","null","null","arrowup","[0.675,0.325,0.85,0.15]","","",""
"sailing-trial","267","1538955","0.0-11.0-222.0","","","","false","","","","","","","","","","686.9000000357628","","249.5","","0","1","arrowleft","0","arrowleft","[0.675,0.325,0.85,0.15]","","",""
"sailing-trial","268","1541244","0.0-11.0-223.0","","","","false","","","","","","","","","","null","","745.7999999523163","","1","0","null","null","arrowup","[0.675,0.325,0.85,0.15]","","",""
"sailing-trial","269","1544279","0.0-11.0-224.0","","","","false","","","","","","","","","","560.6999999880791","","297.10000002384186","","0","0","arrowleft","0","arrowleft","[0.675,0.325,0.85,0.15]","","",""
"sailing-trial","270","1546796","0.0-11.0-225.0","","","","false","","","","","","","","","","null","","803.3000000119209","","0","1","null","null","arrowup","[0.675,0.325,0.85,0.15]","","",""
"sailing-trial","271","1549925","0.0-11.0-226.0","","","","false","","","","","","","","","","263.80000001192093","","59.09999996423721","","0","1","arrowleft","0","arrowleft","[0.675,0.325,0.85,0.15]","","",""
"sailing-trial","272","1551940","0.0-11.0-227.0","","","","false","","","","","","","","","","null","","235.5999999642372","","2","1","null","null","arrowup","[0.675,0.325,0.85,0.15]","","",""
"sailing-trial","273","1555287","0.0-11.0-228.0","","","","false","","","","","","","","","","293.4000000357628","","168","","2","1","arrowright","1","arrowleft","[0.675,0.325,0.85,0.15]","","",""
"sailing-trial","274","1557843","0.0-11.0-229.0","","","","false","","","","","","","","","","null","","270.19999998807907","","1","0","null","null","arrowup","[0.675,0.325,0.85,0.15]","","",""
"sailing-trial","275","1561435","0.0-11.0-230.0","","","","false","","","","","","","","","","388.0999999642372","","164","","0","1","arrowleft","0","arrowleft","[0.675,0.325,0.85,0.15]","","",""
"sailing-trial","276","1563026","0.0-11.0-231.0","","","","false","","","","","","","","","","null","","357.89999997615814","","0","0","null","null","arrowup","[0.675,0.325,0.85,0.15]","","",""
"sailing-trial","277","1566758","0.0-11.0-232.0","","","","false","","","","","","","","","","504.30000001192093","","432.4000000357628","","2","1","arrowright","1","arrowleft","[0.675,0.325,0.85,0.15]","","",""
"sailing-trial","278","1568872","0.0-11.0-233.0","","","","false","","","","","","","","","","null","","312.9000000357628","","3","1","null","null","arrowup","[0.675,0.325,0.85,0.15]","","",""
"sailing-trial","279","1572037","0.0-11.0-234.0","","","","false","","","","","","","","","","375.0999999642372","","89.89999997615814","","3","1","arrowright","1","arrowright","[0.85,0.15,0.675,0.325]","","",""
"sailing-trial","280","1574219","0.0-11.0-235.0","","","","false","","","","","","","","","","null","","350.0999999642372","","0","1","null","null","arrowup","[0.85,0.15,0.675,0.325]","","",""
"sailing-trial","281","1577730","0.0-11.0-236.0","","","","false","","","","","","","","","","577.7999999523163","","132.10000002384186","","2","1","arrowright","1","arrowleft","[0.85,0.15,0.675,0.325]","","",""
"sailing-trial","282","1579881","0.0-11.0-237.0","","","","false","","","","","","","","","","null","","452.19999998807907","","3","1","null","null","arrowup","[0.85,0.15,0.675,0.325]","","",""
"sailing-trial","283","1583197","0.0-11.0-238.0","","","","false","","","","","","","","","","410.19999998807907","","117.30000001192093","","0","1","arrowleft","0","arrowleft","[0.85,0.15,0.675,0.325]","","",""
"sailing-trial","284","1585405","0.0-11.0-239.0","","","","false","","","","","","","","","","null","","392.4000000357628","","0","1","null","null","arrowup","[0.85,0.15,0.675,0.325]","","",""
"sailing-trial","285","1588216","0.0-11.0-240.0","","","","false","","","","","","","","","","378.60000002384186","","266.80000001192093","","3","0","arrowright","1","arrowright","[0.85,0.15,0.675,0.325]","","",""
"sailing-trial","286","1590081","0.0-11.0-241.0","","","","false","","","","","","","","","","null","","589.1999999880791","","2","0","null","null","arrowup","[0.85,0.15,0.675,0.325]","","",""
"sailing-trial","287","1593480","0.0-11.0-242.0","","","","false","","","","","","","","","","458.69999998807907","","308.7000000476837","","0","1","arrowleft","0","arrowleft","[0.85,0.15,0.675,0.325]","","",""
"sailing-trial","288","1595635","0.0-11.0-243.0","","","","false","","","","","","","","","","null","","200.39999997615814","","2","1","null","null","arrowup","[0.85,0.15,0.675,0.325]","","",""
"sailing-trial","289","1598470","0.0-11.0-244.0","","","","false","","","","","","","","","","305.10000002384186","","220.19999998807907","","2","0","arrowright","1","arrowleft","[0.85,0.15,0.675,0.325]","","",""
"sailing-trial","290","1600062","0.0-11.0-245.0","","","","false","","","","","","","","","","null","","469.10000002384186","","2","0","null","null","arrowup","[0.85,0.15,0.675,0.325]","","",""
"sailing-trial","291","1603346","0.0-11.0-246.0","","","","false","","","","","","","","","","325.69999998807907","","312.39999997615814","","0","1","arrowleft","0","arrowleft","[0.85,0.15,0.675,0.325]","","",""
"sailing-trial","292","1605453","0.0-11.0-247.0","","","","false","","","","","","","","","","null","","460.5","","2","1","null","null","arrowup","[0.85,0.15,0.675,0.325]","","",""
"sailing-trial","293","1609014","0.0-11.0-248.0","","","","false","","","","","","","","","","401.30000001192093","","205.39999997615814","","0","1","arrowleft","0","arrowleft","[0.85,0.15,0.675,0.325]","","",""
"sailing-trial","294","1610879","0.0-11.0-249.0","","","","false","","","","","","","","","","null","","409.39999997615814","","2","0","null","null","arrowup","[0.85,0.15,0.675,0.325]","","",""
"sailing-trial","295","1613991","0.0-11.0-250.0","","","","false","","","","","","","","","","572","","246.60000002384186","","0","0","arrowleft","0","arrowleft","[0.85,0.15,0.675,0.325]","","",""
"sailing-trial","296","1615828","0.0-11.0-251.0","","","","false","","","","","","","","","","null","","580.1999999880791","","1","0","null","null","arrowup","[0.85,0.15,0.675,0.325]","","",""
"sailing-trial","297","1618354","0.0-11.0-252.0","","","","false","","","","","","","","","","426.5","","1.4000000357627869","","3","0","arrowright","1","arrowright","[0.15,0.85,0.325,0.675]","","",""
"sailing-trial","298","1620253","0.0-11.0-253.0","","","","false","","","","","","","","","","null","","713.1000000238419","","0","0","null","null","arrowup","[0.15,0.85,0.325,0.675]","","",""
"sailing-trial","299","1623417","0.0-11.0-254.0","","","","false","","","","","","","","","","588.8000000119209","","127.90000003576279","","2","0","arrowright","1","arrowleft","[0.15,0.85,0.325,0.675]","","",""
"sailing-trial","300","1626150","0.0-11.0-255.0","","","","false","","","","","","","","","","null","","851.8000000119209","","2","1","null","null","arrowup","[0.15,0.85,0.325,0.675]","","",""
"sailing-trial","301","1629329","0.0-11.0-256.0","","","","false","","","","","","","","","","317.5999999642372","","112.69999998807907","","2","1","arrowright","1","arrowleft","[0.15,0.85,0.325,0.675]","","",""
"sailing-trial","302","1630839","0.0-11.0-257.0","","","","false","","","","","","","","","","null","","450.9000000357628","","0","0","null","null","arrowup","[0.15,0.85,0.325,0.675]","","",""
"sailing-trial","303","1634124","0.0-11.0-258.0","","","","false","","","","","","","","","","351.5","","25.899999976158142","","2","1","arrowright","1","arrowleft","[0.15,0.85,0.325,0.675]","","",""
"sailing-trial","304","1636193","0.0-11.0-259.0","","","","false","","","","","","","","","","null","","3.299999952316284","","1","1","null","null","arrowup","[0.15,0.85,0.325,0.675]","","",""
"sailing-trial","305","1639561","0.0-11.0-260.0","","","","false","","","","","","","","","","442.19999998807907","","215.19999998807907","","2","0","arrowright","1","arrowleft","[0.15,0.85,0.325,0.675]","","",""
"sailing-trial","306","1641227","0.0-11.0-261.0","","","","false","","","","","","","","","","null","","417.69999998807907","","3","0","null","null","arrowup","[0.15,0.85,0.325,0.675]","","",""
"sailing-trial","307","1644913","0.0-11.0-262.0","","","","false","","","","","","","","","","467.5","","341.5","","1","1","arrowleft","0","arrowright","[0.15,0.85,0.325,0.675]","","",""
"sailing-trial","308","1647112","0.0-11.0-263.0","","","","false","","","","","","","","","","null","","485.0999999642372","","1","1","null","null","arrowup","[0.15,0.85,0.325,0.675]","","",""
"sailing-trial","309","1650740","0.0-11.0-264.0","","","","false","","","","","","","","","","430","","443.4000000357628","","1","1","arrowleft","0","arrowright","[0.15,0.85,0.325,0.675]","","",""
"sailing-trial","310","1653080","0.0-11.0-265.0","","","","false","","","","","","","","","","null","","622.2000000476837","","1","1","null","null","arrowup","[0.15,0.85,0.325,0.675]","","",""
"sailing-trial","311","1656770","0.0-11.0-266.0","","","","false","","","","","","","","","","380.39999997615814","","404.5999999642372","","1","1","arrowleft","0","arrowright","[0.15,0.85,0.325,0.675]","","",""
"sailing-trial","312","1659387","0.0-11.0-267.0","","","","false","","","","","","","","","","null","","424.4000000357628","","3","1","null","null","arrowup","[0.15,0.85,0.325,0.675]","","",""
"sailing-trial","313","1662887","0.0-11.0-268.0","","","","false","","","","","","","","","","409.4000000357628","","365.60000002384186","","1","1","arrowleft","0","arrowright","[0.325,0.675,0.15,0.85]","","",""
"sailing-trial","314","1665543","0.0-11.0-269.0","","","","false","","","","","","","","","","null","","852.3000000119209","","0","1","null","null","arrowup","[0.325,0.675,0.15,0.85]","","",""
"sailing-trial","315","1669306","0.0-11.0-270.0","","","","false","","","","","","","","","","689.0999999642372","","480","","1","1","arrowleft","0","arrowright","[0.325,0.675,0.15,0.85]","","",""
"sailing-trial","316","1671824","0.0-11.0-271.0","","","","false","","","","","","","","","","null","","734.2999999523163","","2","1","null","null","arrowup","[0.325,0.675,0.15,0.85]","","",""
"sailing-trial","317","1675082","0.0-11.0-272.0","","","","false","","","","","","","","","","420","","355.19999998807907","","1","0","arrowleft","0","arrowright","[0.325,0.675,0.15,0.85]","","",""
"sailing-trial","318","1677629","0.0-11.0-273.0","","","","false","","","","","","","","","","null","","555.0999999642372","","0","0","null","null","arrowup","[0.325,0.675,0.15,0.85]","","",""
"sailing-trial","319","1681246","0.0-11.0-274.0","","","","false","","","","","","","","","","535.1999999880791","","304.30000001192093","","3","1","arrowright","1","arrowright","[0.325,0.675,0.15,0.85]","","",""
"sailing-trial","320","1683528","0.0-11.0-275.0","","","","false","","","","","","","","","","null","","692.6999999880791","","1","1","null","null","arrowup","[0.325,0.675,0.15,0.85]","","",""
"sailing-trial","321","1686651","0.0-11.0-276.0","","","","false","","","","","","","","","","780.4000000357628","","163.9000000357628","","2","0","arrowright","1","arrowleft","[0.325,0.675,0.15,0.85]","","",""
"sailing-trial","322","1688371","0.0-11.0-277.0","","","","false","","","","","","","","","","null","","576.6999999880791","","1","0","null","null","arrowup","[0.325,0.675,0.15,0.85]","","",""
"sailing-trial","323","1691950","0.0-11.0-278.0","","","","false","","","","","","","","","","357.80000001192093","","278.19999998807907","","3","1","arrowright","1","arrowright","[0.325,0.675,0.15,0.85]","","",""
"sailing-trial","324","1693851","0.0-11.0-279.0","","","","false","","","","","","","","","","null","","568.6000000238419","","2","0","null","null","arrowup","[0.325,0.675,0.15,0.85]","","",""
"sailing-trial","325","1697280","0.0-11.0-280.0","","","","false","","","","","","","","","","503.4000000357628","","304.5","","3","0","arrowright","1","arrowright","[0.325,0.675,0.15,0.85]","","",""
"sailing-trial","326","1699047","0.0-11.0-281.0","","","","false","","","","","","","","","","null","","531.5","","0","0","null","null","arrowup","[0.325,0.675,0.15,0.85]","","",""
"sailing-trial","327","1702314","0.0-11.0-282.0","","","","false","","","","","","","","","","401.30000001192093","","589.5","","1","0","arrowleft","0","arrowright","[0.325,0.675,0.15,0.85]","","",""
"sailing-trial","328","1704662","0.0-11.0-283.0","","","","false","","","","","","","","","","null","","624.3000000119209","","1","1","null","null","arrowup","[0.325,0.675,0.15,0.85]","","",""
"sailing-trial","329","1708150","0.0-11.0-284.0","","","","false","","","","","","","","","","919.4000000357628","","37","","2","0","arrowright","1","arrowleft","[0.325,0.675,0.15,0.85]","","",""
"sailing-trial","330","1711965","0.0-11.0-285.0","","","","false","","","","","","","","","","null","","1918.2000000476837","","2","0","null","null","arrowup","[0.325,0.675,0.15,0.85]","","",""
"sailing-trial","331","1720222","0.0-11.0-286.0","","","","false","","","","","","","","","","4068.900000035763","","119.59999996423721","","0","0","arrowleft","0","arrowleft","[0.325,0.675,0.15,0.85]","","",""
"sailing-trial","332","1727789","0.0-11.0-287.0","","","","false","","","","","","","","","","null","","5826.600000023842","","0","1","null","null","arrowup","[0.325,0.675,0.15,0.85]","","",""
"sailing-trial","333","1731420","0.0-11.0-288.0","","","","false","","","","","","","","","","1070.5999999642372","","287.19999998807907","","0","0","arrowleft","0","arrowleft","[0.325,0.675,0.15,0.85]","","",""
"sailing-trial","334","1734246","0.0-11.0-289.0","","","","false","","","","","","","","","","null","","851.4000000357628","","0","1","null","null","arrowup","[0.325,0.675,0.15,0.85]","","",""
"sailing-trial","335","1740919","0.0-11.0-290.0","","","","false","","","","","","","","","","3417.5","","276.5999999642372","","1","0","arrowleft","0","arrowright","[0.15,0.85,0.325,0.675]","","",""
"sailing-trial","336","1744135","0.0-11.0-291.0","","","","false","","","","","","","","","","null","","1330.5999999642372","","0","1","null","null","arrowup","[0.15,0.85,0.325,0.675]","","",""
"sailing-trial","337","1748468","0.0-11.0-292.0","","","","false","","","","","","","","","","913.5","","597.3000000119209","","0","1","arrowleft","0","arrowleft","[0.15,0.85,0.325,0.675]","","",""
"sailing-trial","338","1751810","0.0-11.0-293.0","","","","false","","","","","","","","","","null","","1489.1000000238419","","3","1","null","null","arrowup","[0.15,0.85,0.325,0.675]","","",""
"sailing-trial","339","1754972","0.0-11.0-294.0","","","","false","","","","","","","","","","488.39999997615814","","162.10000002384186","","0","0","arrowleft","0","arrowleft","[0.15,0.85,0.325,0.675]","","",""
"sailing-trial","340","1757869","0.0-11.0-295.0","","","","false","","","","","","","","","","null","","1411.1000000238419","","3","0","null","null","arrowup","[0.15,0.85,0.325,0.675]","","",""
"sailing-trial","341","1761904","0.0-11.0-296.0","","","","false","","","","","","","","","","730.3000000119209","","322.30000001192093","","1","1","arrowleft","0","arrowright","[0.15,0.85,0.325,0.675]","","",""
"sailing-trial","342","1763711","0.0-11.0-297.0","","","","false","","","","","","","","","","null","","570.5","","1","0","null","null","arrowup","[0.15,0.85,0.325,0.675]","","",""
"sailing-trial","343","1766495","0.0-11.0-298.0","","","","false","","","","","","","","","","488","","158.30000001192093","","0","0","arrowleft","0","arrowleft","[0.15,0.85,0.325,0.675]","","",""
"sailing-trial","344","1768592","0.0-11.0-299.0","","","","false","","","","","","","","","","null","","868.3000000119209","","0","0","null","null","arrowup","[0.15,0.85,0.325,0.675]","","",""
"sailing-trial","345","1771617","0.0-11.0-300.0","","","","false","","","","","","","","","","430.7000000476837","","182.80000001192093","","2","0","arrowright","1","arrowleft","[0.15,0.85,0.325,0.675]","","",""
"sailing-trial","346","1773537","0.0-11.0-301.0","","","","false","","","","","","","","","","null","","674.7999999523163","","0","0","null","null","arrowup","[0.15,0.85,0.325,0.675]","","",""
"sailing-trial","347","1776972","0.0-11.0-302.0","","","","false","","","","","","","","","","578.5","","122.10000002384186","","3","1","arrowright","1","arrowright","[0.15,0.85,0.325,0.675]","","",""
"sailing-trial","348","1779325","0.0-11.0-303.0","","","","false","","","","","","","","","","null","","543.1999999880791","","1","1","null","null","arrowup","[0.15,0.85,0.325,0.675]","","",""
"sailing-trial","349","1782103","0.0-11.0-304.0","","","","false","","","","","","","","","","369.30000001192093","","161.30000001192093","","3","0","arrowright","1","arrowright","[0.15,0.85,0.325,0.675]","","",""
"sailing-trial","350","1784349","0.0-11.0-305.0","","","","false","","","","","","","","","","null","","653","","0","1","null","null","arrowup","[0.15,0.85,0.325,0.675]","","",""
"sailing-trial","351","1788046","0.0-11.0-306.0","","","","false","","","","","","","","","","809.2999999523163","","356.80000001192093","","0","0","arrowleft","0","arrowleft","[0.15,0.85,0.325,0.675]","","",""
"sailing-trial","352","1790189","0.0-11.0-307.0","","","","false","","","","","","","","","","null","","912.1000000238419","","0","0","null","null","arrowup","[0.15,0.85,0.325,0.675]","","",""
"sailing-trial","353","1793282","0.0-11.0-308.0","","","","false","","","","","","","","","","524.9000000357628","","1.5999999642372131","","1","0","arrowleft","0","arrowright","[0.325,0.675,0.15,0.85]","","",""
"sailing-trial","354","1795218","0.0-11.0-309.0","","","","false","","","","","","","","","","null","","698.8999999761581","","1","0","null","null","arrowup","[0.325,0.675,0.15,0.85]","","",""
"sailing-trial","355","1798113","0.0-11.0-310.0","","","","false","","","","","","","","","","608.4000000357628","","211.69999998807907","","2","0","arrowright","1","arrowleft","[0.325,0.675,0.15,0.85]","","",""
"sailing-trial","356","1800413","0.0-11.0-311.0","","","","false","","","","","","","","","","null","","548.0999999642372","","1","1","null","null","arrowup","[0.325,0.675,0.15,0.85]","","",""
"sailing-trial","357","1803897","0.0-11.0-312.0","","","","false","","","","","","","","","","718.8000000119209","","91.19999998807907","","3","1","arrowright","1","arrowright","[0.325,0.675,0.15,0.85]","","",""
"sailing-trial","358","1805596","0.0-11.0-313.0","","","","false","","","","","","","","","","null","","445.9000000357628","","2","0","null","null","arrowup","[0.325,0.675,0.15,0.85]","","",""
"sailing-trial","359","1810654","0.0-11.0-314.0","","","","false","","","","","","","","","","516","","587.2000000476837","","3","1","arrowright","1","arrowright","[0.325,0.675,0.15,0.85]","","",""
"sailing-trial","360","1812960","0.0-11.0-315.0","","","","false","","","","","","","","","","null","","1071","","0","0","null","null","arrowup","[0.325,0.675,0.15,0.85]","","",""
"sailing-trial","361","1818778","0.0-11.0-316.0","","","","false","","","","","","","","","","2810.099999964237","","11.800000011920929","","3","1","arrowright","1","arrowright","[0.325,0.675,0.15,0.85]","","",""
"sailing-trial","362","1821640","0.0-11.0-317.0","","","","false","","","","","","","","","","null","","890","","1","1","null","null","arrowup","[0.325,0.675,0.15,0.85]","","",""
"sailing-trial","363","1826202","0.0-11.0-318.0","","","","false","","","","","","","","","","1119.5","","521.8000000119209","","3","1","arrowright","1","arrowright","[0.325,0.675,0.15,0.85]","","",""
"sailing-trial","364","1829980","0.0-11.0-319.0","","","","false","","","","","","","","","","null","","1053.300000011921","","1","1","null","null","arrowup","[0.325,0.675,0.15,0.85]","","",""
"sailing-trial","365","1833611","0.0-11.0-320.0","","","","false","","","","","","","","","","1012.1000000238419","","79","","0","0","arrowleft","0","arrowleft","[0.325,0.675,0.15,0.85]","","",""
"sailing-trial","366","1841023","0.0-11.0-321.0","","","","false","","","","","","","","","","null","","5807.100000023842","","3","0","null","null","arrowup","[0.325,0.675,0.15,0.85]","","",""
"sailing-trial","367","1849566","0.0-11.0-322.0","","","","false","","","","","","","","","","3949.5","","508.9000000357628","","0","0","arrowleft","0","arrowleft","[0.325,0.675,0.15,0.85]","","",""
"sailing-trial","368","1854743","0.0-11.0-323.0","","","","false","","","","","","","","","","null","","3272.5","","3","1","null","null","arrowup","[0.325,0.675,0.15,0.85]","","",""
"sailing-trial","369","1861572","0.0-11.0-324.0","","","","false","","","","","","","","","","3091.699999988079","","612.1999999880791","","3","1","arrowright","1","arrowright","[0.325,0.675,0.15,0.85]","","",""
"sailing-trial","370","1864584","0.0-11.0-325.0","","","","false","","","","","","","","","","null","","910.5999999642372","","2","1","null","null","arrowup","[0.325,0.675,0.15,0.85]","","",""
"sailing-trial","371","1869879","0.0-11.0-326.0","","","","false","","","","","","","","","","944.7000000476837","","1425.800000011921","","3","1","arrowright","1","arrowright","[0.15,0.85,0.325,0.675]","","",""
"sailing-trial","372","1873288","0.0-11.0-327.0","","","","false","","","","","","","","","","null","","1659.800000011921","","2","0","null","null","arrowup","[0.15,0.85,0.325,0.675]","","",""
"sailing-trial","373","1876974","0.0-11.0-328.0","","","","false","","","","","","","","","","963.8000000119209","","227.5","","0","0","arrowleft","0","arrowleft","[0.15,0.85,0.325,0.675]","","",""
"sailing-trial","374","1879058","0.0-11.0-329.0","","","","false","","","","","","","","","","null","","843.3000000119209","","0","0","null","null","arrowup","[0.15,0.85,0.325,0.675]","","",""
"sailing-trial","375","1883301","0.0-11.0-330.0","","","","false","","","","","","","","","","691.1999999880791","","130.30000001192093","","2","1","arrowright","1","arrowleft","[0.15,0.85,0.325,0.675]","","",""
"sailing-trial","376","1888263","0.0-11.0-331.0","","","","false","","","","","","","","","","null","","1369.300000011921","","0","1","null","null","arrowup","[0.15,0.85,0.325,0.675]","","",""
"sailing-trial","377","1893312","0.0-11.0-332.0","","","","false","","","","","","","","","","2312.300000011921","","428.10000002384186","","2","0","arrowright","1","arrowleft","[0.15,0.85,0.325,0.675]","","",""
"sailing-trial","378","1895569","0.0-11.0-333.0","","","","false","","","","","","","","","","null","","1020.6999999880791","","0","0","null","null","arrowup","[0.15,0.85,0.325,0.675]","","",""
"sailing-trial","379","1899328","0.0-11.0-334.0","","","","false","","","","","","","","","","586.5","","262.30000001192093","","3","1","arrowright","1","arrowright","[0.15,0.85,0.325,0.675]","","",""
"sailing-trial","380","1902028","0.0-11.0-335.0","","","","false","","","","","","","","","","null","","890.6999999880791","","1","1","null","null","arrowup","[0.15,0.85,0.325,0.675]","","",""
"sailing-trial","381","1905889","0.0-11.0-336.0","","","","false","","","","","","","","","","527.3000000119209","","263.39999997615814","","3","1","arrowright","1","arrowright","[0.15,0.85,0.325,0.675]","","",""
"sailing-trial","382","1907598","0.0-11.0-337.0","","","","false","","","","","","","","","","null","","493.9000000357628","","0","0","null","null","arrowup","[0.15,0.85,0.325,0.675]","","",""
"sailing-trial","383","1911037","0.0-11.0-338.0","","","","false","","","","","","","","","","470.39999997615814","","12.100000023841858","","1","1","arrowleft","0","arrowright","[0.15,0.85,0.325,0.675]","","",""
"sailing-trial","384","1913187","0.0-11.0-339.0","","","","false","","","","","","","","","","null","","390.10000002384186","","1","1","null","null","arrowup","[0.15,0.85,0.325,0.675]","","",""
"sailing-trial","385","1916981","0.0-11.0-340.0","","","","false","","","","","","","","","","494.19999998807907","","201.80000001192093","","1","1","arrowleft","0","arrowright","[0.15,0.85,0.325,0.675]","","",""
"sailing-trial","386","1919478","0.0-11.0-341.0","","","","false","","","","","","","","","","null","","846.0999999642372","","2","1","null","null","arrowup","[0.15,0.85,0.325,0.675]","","",""
"sailing-trial","387","1922939","0.0-11.0-342.0","","","","false","","","","","","","","","","584.3000000119209","","4.300000011920929","","2","1","arrowright","1","arrowleft","[0.15,0.85,0.325,0.675]","","",""
"sailing-trial","388","1925347","0.0-11.0-343.0","","","","false","","","","","","","","","","null","","980","","2","0","null","null","arrowup","[0.15,0.85,0.325,0.675]","","",""
"sailing-trial","389","1928251","0.0-11.0-344.0","","","","false","","","","","","","","","","448.69999998807907","","210.0999999642372","","0","0","arrowleft","0","arrowleft","[0.15,0.85,0.325,0.675]","","",""
"sailing-trial","390","1930005","0.0-11.0-345.0","","","","false","","","","","","","","","","null","","582.3999999761581","","0","0","null","null","arrowup","[0.15,0.85,0.325,0.675]","","",""
"sailing-trial","391","1933297","0.0-11.0-346.0","","","","false","","","","","","","","","","570.8999999761581","","102.19999998807907","","3","1","arrowright","1","arrowright","[0.15,0.85,0.325,0.675]","","",""
"sailing-trial","392","1935460","0.0-11.0-347.0","","","","false","","","","","","","","","","null","","541.6999999880791","","3","1","null","null","arrowup","[0.15,0.85,0.325,0.675]","","",""
"sailing-trial","393","1938667","0.0-11.0-348.0","","","","false","","","","","","","","","","406","","288","","3","0","arrowright","1","arrowright","[0.15,0.85,0.325,0.675]","","",""
"sailing-trial","394","1940938","0.0-11.0-349.0","","","","false","","","","","","","","","","null","","550.3000000119209","","3","1","null","null","arrowup","[0.15,0.85,0.325,0.675]","","",""
"sailing-trial","395","1943617","0.0-11.0-350.0","","","","false","","","","","","","","","","444.80000001192093","","117.90000003576279","","3","0","arrowright","1","arrowright","[0.675,0.325,0.85,0.15]","","",""
"sailing-trial","396","1945463","0.0-11.0-351.0","","","","false","","","","","","","","","","null","","689","","0","0","null","null","arrowup","[0.675,0.325,0.85,0.15]","","",""
"sailing-trial","397","1949248","0.0-11.0-352.0","","","","false","","","","","","","","","","541.8000000119209","","308.5","","1","1","arrowleft","0","arrowright","[0.675,0.325,0.85,0.15]","","",""
"sailing-trial","398","1950711","0.0-11.0-353.0","","","","false","","","","","","","","","","null","","354.0999999642372","","3","0","null","null","arrowup","[0.675,0.325,0.85,0.15]","","",""
"sailing-trial","399","1954295","0.0-11.0-354.0","","","","false","","","","","","","","","","762.8999999761581","","143","","2","1","arrowright","1","arrowleft","[0.675,0.325,0.85,0.15]","","",""
"sailing-trial","400","1956593","0.0-11.0-355.0","","","","false","","","","","","","","","","null","","376.80000001192093","","2","1","null","null","arrowup","[0.675,0.325,0.85,0.15]","","",""
"sailing-trial","401","1960084","0.0-11.0-356.0","","","","false","","","","","","","","","","340.5","","393.60000002384186","","2","1","arrowright","1","arrowleft","[0.675,0.325,0.85,0.15]","","",""
"sailing-trial","402","1962032","0.0-11.0-357.0","","","","false","","","","","","","","","","null","","596.3999999761581","","0","0","null","null","arrowup","[0.675,0.325,0.85,0.15]","","",""
"sailing-trial","403","1965397","0.0-11.0-358.0","","","","false","","","","","","","","","","396.30000001192093","","2.300000011920929","","2","1","arrowright","1","arrowleft","[0.675,0.325,0.85,0.15]","","",""
"sailing-trial","404","1966971","0.0-11.0-359.0","","","","false","","","","","","","","","","null","","294.80000001192093","","3","0","null","null","arrowup","[0.675,0.325,0.85,0.15]","","",""
"sailing-trial","405","1970380","0.0-11.0-360.0","","","","false","","","","","","","","","","505.69999998807907","","280","","2","1","arrowright","1","arrowleft","[0.675,0.325,0.85,0.15]","","",""
"sailing-trial","406","1972362","0.0-11.0-361.0","","","","false","","","","","","","","","","null","","380.7000000476837","","2","1","null","null","arrowup","[0.675,0.325,0.85,0.15]","","",""
"sailing-trial","407","1975721","0.0-11.0-362.0","","","","false","","","","","","","","","","400.30000001192093","","579.1000000238419","","2","0","arrowright","1","arrowleft","[0.675,0.325,0.85,0.15]","","",""
"sailing-trial","408","1977920","0.0-11.0-363.0","","","","false","","","","","","","","","","null","","556.1999999880791","","2","1","null","null","arrowup","[0.675,0.325,0.85,0.15]","","",""
"sailing-trial","409","1981009","0.0-11.0-364.0","","","","false","","","","","","","","","","358","","48.89999997615814","","0","1","arrowleft","0","arrowleft","[0.675,0.325,0.85,0.15]","","",""
"sailing-trial","410","1983202","0.0-11.0-365.0","","","","false","","","","","","","","","","null","","388","","2","1","null","null","arrowup","[0.675,0.325,0.85,0.15]","","",""
"sailing-trial","411","1986409","0.0-11.0-366.0","","","","false","","","","","","","","","","316.9000000357628","","149.9000000357628","","2","1","arrowright","1","arrowleft","[0.85,0.15,0.675,0.325]","","",""
"sailing-trial","412","1987910","0.0-11.0-367.0","","","","false","","","","","","","","","","null","","283","","2","0","null","null","arrowup","[0.85,0.15,0.675,0.325]","","",""
"sailing-trial","413","1991324","0.0-11.0-368.0","","","","false","","","","","","","","","","422.69999998807907","","243.89999997615814","","0","1","arrowleft","0","arrowleft","[0.85,0.15,0.675,0.325]","","",""
"sailing-trial","414","1993179","0.0-11.0-369.0","","","","false","","","","","","","","","","null","","294.19999998807907","","3","1","null","null","arrowup","[0.85,0.15,0.675,0.325]","","",""
"sailing-trial","415","1995962","0.0-11.0-370.0","","","","false","","","","","","","","","","335.4000000357628","","326.69999998807907","","0","0","arrowleft","0","arrowleft","[0.85,0.15,0.675,0.325]","","",""
"sailing-trial","416","1998324","0.0-11.0-371.0","","","","false","","","","","","","","","","null","","385.80000001192093","","2","1","null","null","arrowup","[0.85,0.15,0.675,0.325]","","",""
"sailing-trial","417","2001769","0.0-11.0-372.0","","","","false","","","","","","","","","","429.9000000357628","","198.19999998807907","","2","1","arrowright","1","arrowleft","[0.85,0.15,0.675,0.325]","","",""
"sailing-trial","418","2004000","0.0-11.0-373.0","","","","false","","","","","","","","","","null","","437.69999998807907","","2","1","null","null","arrowup","[0.85,0.15,0.675,0.325]","","",""
"sailing-trial","419","2006775","0.0-11.0-374.0","","","","false","","","","","","","","","","269.39999997615814","","302.10000002384186","","2","0","arrowright","1","arrowleft","[0.85,0.15,0.675,0.325]","","",""
"sailing-trial","420","2008345","0.0-11.0-375.0","","","","false","","","","","","","","","","null","","537.2000000476837","","2","0","null","null","arrowup","[0.85,0.15,0.675,0.325]","","",""
"sailing-trial","421","2011649","0.0-11.0-376.0","","","","false","","","","","","","","","","332.7999999523163","","295.39999997615814","","3","1","arrowright","1","arrowright","[0.85,0.15,0.675,0.325]","","",""
"sailing-trial","422","2014007","0.0-11.0-377.0","","","","false","","","","","","","","","","null","","199","","2","0","null","null","arrowup","[0.85,0.15,0.675,0.325]","","",""
"sailing-trial","423","2016848","0.0-11.0-378.0","","","","false","","","","","","","","","","326.2999999523163","","213.9000000357628","","3","0","arrowright","1","arrowright","[0.85,0.15,0.675,0.325]","","",""
"sailing-trial","424","2019017","0.0-11.0-379.0","","","","false","","","","","","","","","","null","","560.8000000119209","","1","1","null","null","arrowup","[0.85,0.15,0.675,0.325]","","",""
"sailing-trial","425","2022340","0.0-11.0-380.0","","","","false","","","","","","","","","","416.19999998807907","","419.5999999642372","","1","0","arrowleft","0","arrowright","[0.85,0.15,0.675,0.325]","","",""
"sailing-trial","426","2024613","0.0-11.0-381.0","","","","false","","","","","","","","","","null","","405.19999998807907","","1","1","null","null","arrowup","[0.85,0.15,0.675,0.325]","","",""
"sailing-trial","427","2027560","0.0-11.0-382.0","","","","false","","","","","","","","","","58.59999996423721","","318.4000000357628","","1","1","arrowleft","0","arrowright","[0.325,0.675,0.15,0.85]","","",""
"sailing-trial","428","2029300","0.0-11.0-383.0","","","","false","","","","","","","","","","null","","318.5","","1","0","null","null","arrowup","[0.325,0.675,0.15,0.85]","","",""
"sailing-trial","429","2032735","0.0-11.0-384.0","","","","false","","","","","","","","","","296.5","","382.5999999642372","","0","1","arrowleft","0","arrowleft","[0.325,0.675,0.15,0.85]","","",""
"sailing-trial","430","2034655","0.0-11.0-385.0","","","","false","","","","","","","","","","null","","251.89999997615814","","3","1","null","null","arrowup","[0.325,0.675,0.15,0.85]","","",""
"sailing-trial","431","2037538","0.0-11.0-386.0","","","","false","","","","","","","","","","272.19999998807907","","380.0999999642372","","0","0","arrowleft","0","arrowleft","[0.325,0.675,0.15,0.85]","","",""
"sailing-trial","432","2039176","0.0-11.0-387.0","","","","false","","","","","","","","","","null","","509.39999997615814","","2","0","null","null","arrowup","[0.325,0.675,0.15,0.85]","","",""
"sailing-trial","433","2042662","0.0-11.0-388.0","","","","false","","","","","","","","","","344.9000000357628","","253.89999997615814","","3","0","arrowright","1","arrowright","[0.325,0.675,0.15,0.85]","","",""
"sailing-trial","434","2044206","0.0-11.0-389.0","","","","false","","","","","","","","","","null","","227.4000000357628","","1","0","null","null","arrowup","[0.325,0.675,0.15,0.85]","","",""
"sailing-trial","435","2047115","0.0-11.0-390.0","","","","false","","","","","","","","","","351.5","","155","","2","0","arrowright","1","arrowleft","[0.325,0.675,0.15,0.85]","","",""
"sailing-trial","436","2049438","0.0-11.0-391.0","","","","false","","","","","","","","","","null","","403","","3","1","null","null","arrowup","[0.325,0.675,0.15,0.85]","","",""
"sailing-trial","437","2053055","0.0-11.0-392.0","","","","false","","","","","","","","","","428.80000001192093","","260.39999997615814","","3","1","arrowright","1","arrowright","[0.325,0.675,0.15,0.85]","","",""
"sailing-trial","438","2054713","0.0-11.0-393.0","","","","false","","","","","","","","","","null","","74.80000001192093","","1","1","null","null","arrowup","[0.325,0.675,0.15,0.85]","","",""
"sailing-trial","439","2057466","0.0-11.0-394.0","","","","false","","","","","","","","","","379.89999997615814","","308.69999998807907","","3","0","arrowright","1","arrowright","[0.325,0.675,0.15,0.85]","","",""
"sailing-trial","440","2059437","0.0-11.0-395.0","","","","false","","","","","","","","","","null","","356.30000001192093","","1","1","null","null","arrowup","[0.325,0.675,0.15,0.85]","","",""
"sailing-trial","441","2063038","0.0-11.0-396.0","","","","false","","","","","","","","","","520.3999999761581","","317.5999999642372","","1","1","arrowleft","0","arrowright","[0.325,0.675,0.15,0.85]","","",""
"sailing-trial","442","2064885","0.0-11.0-397.0","","","","false","","","","","","","","","","null","","241.5999999642372","","3","1","null","null","arrowup","[0.325,0.675,0.15,0.85]","","",""
"sailing-trial","443","2068228","0.0-11.0-398.0","","","","false","","","","","","","","","","431.4000000357628","","276.89999997615814","","1","1","arrowleft","0","arrowright","[0.325,0.675,0.15,0.85]","","",""
"sailing-trial","444","2070563","0.0-11.0-399.0","","","","false","","","","","","","","","","null","","593.6999999880791","","3","1","null","null","arrowup","[0.325,0.675,0.15,0.85]","","",""
"instructions","445","2077659","0.0-12.0","","","","","","","","","","7094.800000011921","","","","","","","","","","","","","","","","[{""page_index"":0,""viewing_time"":7091.5}]"
"survey-debrief","446","2126624","0.0-13.0","","","","","","","","","","48951.60000002384","","","","","","","","","","","","","","{""difficulty"":""4"",""fun"":""4"",""clarity"":""5"",""strategy"":""Mainly just trying to cross off mentally in my head which shops i got a cross and then also trying to understand the pattern, at times i felt like there was a pattern."",""feedback"":""""}","",""
