"trial_type","trial_index","time_elapsed","internal_node_id","value","metadata","success","timeout","failed_images","failed_audio","failed_video","browser_interaction","low_quality","rt","stimulus","response","button_pressed","island_rt","island_response","boat_rt","boat_response","boat","reward","island_key","island","boat_key","reward_probabilities","responses","num_errors","view_history"
"pavlovia","0","3","0.0-0.0","","","","","","","","","","","","","","","","","","","","","","","","","",""
"call-function","1","3","0.0-1.0","","{""task_version"":""sailing_part1_v1"",""task_condition"":""good"",""boats"":[""A"",""C"",""D"",""B""],""boats_demo"":[""G"",""E"",""H"",""F""],""islands"":[""B"",""A""],""subject_id"":""14931"",""age"":""11"",""gender"":""Female""}","","","","","","","","","","","","","","","","","","","","","","","",""
"preload","2","1414","0.0-2.0","","","true","false","[]","[]","[]","[{""event"":""fullscreenenter"",""trial"":3,""time"":6263}]","false","","","","","","","","","","","","","","","","",""
"fullscreen","3","7240","0.0-3.0","","","true","","","","","","","","","","","","","","","","","","","","","","",""
"audio-keyboard-response","4","18837","0.0-4.0-0.0","","","","","","","","","","0","audio/beep_loop.wav"," ","","","","","","","","","","","","","",""
"audio-test","5","21411","0.0-4.0-1.0","","","","","","","","","","null","audio/turtle.mp3","","3","","","","","","","","","","","","",""
"audio-test","6","23905","0.0-4.0-2.0","","","","","","","","","","null","audio/shark.mp3","","2","","","","","","","","","","","","",""
"sailing-instructions","7","55507","0.0-5.0-0.0-0.0","","","","","","","","","","","","","","null","null","null","null","null","null","","","","","","",""
"sailing-trial","8","59812","0.0-5.0-0.0-1.0-0.0","","","","false","","","","","","","","","","3184","","null","","null","null","arrowleft","0","null","null","","",""
"sailing-trial","9","62031","0.0-5.0-0.0-1.0-1.0","","","","false","","","","","","","","","","1107.0000000000073","","null","","null","null","arrowright","1","null","null","","",""
"sailing-trial","10","66145","0.0-5.0-0.0-1.0-2.0","","","","false","","","","","","","","","","3009","","null","","null","null","arrowleft","0","null","null","","",""
"sailing-instructions","11","110032","0.0-5.0-0.0-2.0","","","","","","","","","","","","","","null","null","null","null","0","null","","","","","","",""
"sailing-trial","12","118263","0.0-5.0-0.0-3.0-0.0","","","","false","","","","","","","","","","null","","4261","","2","1","null","null","arrowleft","[1,1,1,1]","","",""
"sailing-trial","13","122778","0.0-5.0-0.0-3.0-1.0","","","","false","","","","","","","","","","null","","813","","3","1","null","null","arrowright","[1,1,1,1]","","",""
"sailing-trial","14","127865","0.0-5.0-0.0-3.0-2.0","","","","false","","","","","","","","","","null","","1558.0000000000146","","2","0","null","null","arrowleft","[0,0,0,0]","","",""
"sailing-instructions","15","135524","0.0-5.0-0.0-4.0","","","","","","","","","","","","","","null","null","null","null","null","null","","","","","","",""
"sailing-comprehension","16","169562","0.0-5.0-0.0-5.0","","","","","","","","","","18038","","","","","","","","","","","","","","[""true"",""false"",""false"",""true""]","1",""
"sailing-instructions","17","200680","0.0-5.0-0.1-0.1","","","","","","","","","","","","","","null","null","null","null","null","null","","","","","","",""
"sailing-trial","18","203879","0.0-5.0-0.1-1.1-0.1","","","","false","","","","","","","","","","2086","","null","","null","null","arrowleft","0","null","null","","",""
"sailing-trial","19","205694","0.0-5.0-0.1-1.1-1.1","","","","false","","","","","","","","","","697","","null","","null","null","arrowright","1","null","null","","",""
"sailing-trial","20","208279","0.0-5.0-0.1-1.1-2.1","","","","false","","","","","","","","","","1479","","null","","null","null","arrowleft","0","null","null","","",""
"sailing-instructions","21","249044","0.0-5.0-0.1-2.1","","","","","","","","","","","","","","null","null","null","null","0","null","","","","","","",""
"sailing-trial","22","254464","0.0-5.0-0.1-3.1-0.1","","","","false","","","","","","","","","","null","","1535","","2","1","null","null","arrowleft","[1,1,1,1]","","",""
"sailing-trial","23","259812","0.0-5.0-0.1-3.1-1.1","","","","false","","","","","","","","","","null","","1833","","3","1","null","null","arrowright","[1,1,1,1]","","",""
"sailing-trial","24","264299","0.0-5.0-0.1-3.1-2.1","","","","false","","","","","","","","","","null","","1503.9999999999418","","2","0","null","null","arrowleft","[0,0,0,0]","","",""
"sailing-instructions","25","271394","0.0-5.0-0.1-4.1","","","","","","","","","","","","","","null","null","null","null","null","null","","","","","","",""
"sailing-comprehension","26","288682","0.0-5.0-0.1-5.1","","","","","","","","","","15725","","","","","","","","","","","","","","[""true"",""true"",""false"",""true""]","0",""
"sailing-instructions","27","351463","0.0-6.0-0.0-0.0","","","","","","","","","","","","","","null","null","null","null","null","null","","","","","","",""
"sailing-comprehension","28","370030","0.0-6.0-0.0-1.0","","","","","","","","","","15837","","","","","","","","","","","","","","[""true"",""false"",""true""]","0",""
"sailing-instructions","29","384641","0.0-7.0-0.0-0.0","","","","","","","","","","","","","","null","null","null","null","null","null","","","","","","",""
"sailing-trial","30","390030","0.0-7.0-0.0-1.0-0.0","","","","false","","","","","","","","","","null","","2378","","0","0","null","null","arrowup","[0.2,0.8,0.2,0.8]","","",""
"sailing-trial","31","394043","0.0-7.0-0.0-1.0-1.0","","","","false","","","","","","","","","","null","","1370","","1","1","null","null","arrowup","[0.2,0.8,0.2,0.8]","","",""
"sailing-trial","32","396348","0.0-7.0-0.0-1.0-2.0","","","","false","","","","","","","","","","null","","803","","2","0","null","null","arrowup","[0.2,0.8,0.2,0.8]","","",""
"sailing-trial","33","399744","0.0-7.0-0.0-1.0-3.0","","","","false","","","","","","","","","","null","","762","","3","1","null","null","arrowup","[0.2,0.8,0.2,0.8]","","",""
"sailing-comprehension","34","413783","0.0-7.0-0.0-2.0","","","","","","","","","","9214","","","","","","","","","","","","","","[""false""]","0",""
"sailing-instructions","35","424511","0.0-8.0-0.0-0.0","","","","","","","","","","","","","","null","null","null","null","null","null","","","","","","",""
"sailing-comprehension","36","433930","0.0-8.0-0.0-1.0","","","","","","","","","","3677","","","","","","","","","","","","","","[""true""]","0",""
"sailing-instructions","37","464806","0.0-9.0-0.0-0.0","","","","","","","","","","","","","","null","null","null","null","null","null","","","","","","",""
"sailing-trial","38","472428","0.0-9.0-0.0-1.0-0.0","","","","false","","","","","","","","","","2526","","1233.9999999999418","","1","1","arrowleft","0","arrowright","[0.2,0.8,0.2,0.8]","","",""
"sailing-trial","39","476723","0.0-9.0-0.0-1.0-1.0","","","","false","","","","","","","","","","907","","29","","2","0","arrowright","1","arrowleft","[0.2,0.8,0.2,0.8]","","",""
"sailing-trial","40","480697","0.0-9.0-0.0-1.0-2.0","","","","false","","","","","","","","","","null","","1530","","0","0","null","null","arrowup","[0.2,0.8,0.2,0.8]","","",""
"sailing-trial","41","486578","0.0-9.0-0.0-1.0-3.0","","","","false","","","","","","","","","","1332","","1110.9999999999418","","0","1","arrowleft","0","arrowleft","[0.2,0.8,0.2,0.8]","","",""
"sailing-trial","42","492527","0.0-9.0-0.0-1.0-4.0","","","","false","","","","","","","","","","null","","3900.999999999942","","3","1","null","null","arrowup","[0.2,0.8,0.2,0.8]","","",""
"sailing-trial","43","498079","0.0-9.0-0.0-1.0-5.0","","","","false","","","","","","","","","","445","","923","","0","0","arrowleft","0","arrowleft","[0.2,0.8,0.2,0.8]","","",""
"sailing-instructions","44","524720","0.0-10.0","","","","","","","","","","","","","","null","null","null","null","null","null","","","","","","",""
"sailing-trial","45","532078","0.0-11.0-0.0","","","","false","","","","","","","","","","2970.0000000001164","","619","","3","1","arrowright","1","arrowright","[0.85,0.15,0.675,0.325]","","",""
"sailing-trial","46","535554","0.0-11.0-1.0","","","","false","","","","","","","","","","null","","2081.0000000001164","","1","0","null","null","arrowup","[0.85,0.15,0.675,0.325]","","",""
"sailing-trial","47","540597","0.0-11.0-2.0","","","","false","","","","","","","","","","611","","261","","1","0","arrowleft","0","arrowright","[0.85,0.15,0.675,0.325]","","",""
"sailing-trial","48","545430","0.0-11.0-3.0","","","","false","","","","","","","","","","null","","1817","","1","0","null","null","arrowup","[0.85,0.15,0.675,0.325]","","",""
"sailing-trial","49","549661","0.0-11.0-4.0","","","","false","","","","","","","","","","462","","671","","0","1","arrowleft","0","arrowleft","[0.85,0.15,0.675,0.325]","","",""
"sailing-trial","50","552085","0.0-11.0-5.0","","","","false","","","","","","","","","","null","","1264","","1","0","null","null","arrowup","[0.85,0.15,0.675,0.325]","","",""
"sailing-trial","51","556093","0.0-11.0-6.0","","","","false","","","","","","","","","","666","","590","","2","1","arrowright","1","arrowleft","[0.85,0.15,0.675,0.325]","","",""
"sailing-trial","52","560428","0.0-11.0-7.0","","","","false","","","","","","","","","","null","","1327","","3","0","null","null","arrowup","[0.85,0.15,0.675,0.325]","","",""
"sailing-trial","53","565927","0.0-11.0-8.0","","","","false","","","","","","","","","","838","","485","","3","0","arrowright","1","arrowright","[0.85,0.15,0.675,0.325]","","",""
"sailing-trial","54","568644","0.0-11.0-9.0","","","","false","","","","","","","","","","null","","1102","","2","1","null","null","arrowup","[0.85,0.15,0.675,0.325]","","",""
"sailing-trial","55","573795","0.0-11.0-10.0","","","","false","","","","","","","","","","480","","515","","1","0","arrowleft","0","arrowright","[0.85,0.15,0.675,0.325]","","",""
"sailing-trial","56","576928","0.0-11.0-11.0","","","","false","","","","","","","","","","null","","1146","","3","1","null","null","arrowup","[0.85,0.15,0.675,0.325]","","",""
"sailing-trial","57","581261","0.0-11.0-12.0","","","","false","","","","","","","","","","530.0000000001164","","511","","0","1","arrowleft","0","arrowleft","[0.85,0.15,0.675,0.325]","","",""
"sailing-trial","58","584494","0.0-11.0-13.0","","","","false","","","","","","","","","","null","","1418","","2","1","null","null","arrowup","[0.85,0.15,0.675,0.325]","","",""
"sailing-trial","59","589245","0.0-11.0-14.0","","","","false","","","","","","","","","","712","","355","","2","1","arrowright","1","arrowleft","[0.85,0.15,0.675,0.325]","","",""
"sailing-trial","60","592295","0.0-11.0-15.0","","","","false","","","","","","","","","","null","","1317","","0","1","null","null","arrowup","[0.85,0.15,0.675,0.325]","","",""
"sailing-trial","61","596328","0.0-11.0-16.0","","","","false","","","","","","","","","","871.0000000001164","","212.99999999988358","","2","1","arrowright","1","arrowleft","[0.85,0.15,0.675,0.325]","","",""
"sailing-trial","62","600144","0.0-11.0-17.0","","","","false","","","","","","","","","","null","","1710","","2","1","null","null","arrowup","[0.85,0.15,0.675,0.325]","","",""
"sailing-trial","63","604384","0.0-11.0-18.0","","","","false","","","","","","","","","","826","","1195","","1","0","arrowleft","0","arrowright","[0.85,0.15,0.675,0.325]","","",""
"sailing-trial","64","607127","0.0-11.0-19.0","","","","false","","","","","","","","","","null","","1283","","2","0","null","null","arrowup","[0.85,0.15,0.675,0.325]","","",""
"sailing-trial","65","610834","0.0-11.0-20.0","","","","false","","","","","","","","","","690.0000000001164","","480.0000000001164","","3","0","arrowright","1","arrowright","[0.85,0.15,0.675,0.325]","","",""
"sailing-trial","66","613877","0.0-11.0-21.0","","","","false","","","","","","","","","","null","","1150.0000000001164","","0","1","null","null","arrowup","[0.85,0.15,0.675,0.325]","","",""
"sailing-trial","67","619884","0.0-11.0-22.0","","","","false","","","","","","","","","","405","","1436","","1","0","arrowleft","0","arrowright","[0.675,0.325,0.85,0.15]","","",""
"sailing-trial","68","622493","0.0-11.0-23.0","","","","false","","","","","","","","","","null","","1096","","1","0","null","null","arrowup","[0.675,0.325,0.85,0.15]","","",""
"sailing-trial","69","625925","0.0-11.0-24.0","","","","false","","","","","","","","","","546","","508","","2","0","arrowright","1","arrowleft","[0.675,0.325,0.85,0.15]","","",""
"sailing-trial","70","628794","0.0-11.0-25.0","","","","false","","","","","","","","","","null","","1128","","1","1","null","null","arrowup","[0.675,0.325,0.85,0.15]","","",""
"sailing-trial","71","632151","0.0-11.0-26.0","","","","false","","","","","","","","","","440.0000000001164","","517","","3","0","arrowright","1","arrowright","[0.675,0.325,0.85,0.15]","","",""
"sailing-trial","72","635510","0.0-11.0-27.0","","","","false","","","","","","","","","","null","","1158","","2","1","null","null","arrowup","[0.675,0.325,0.85,0.15]","","",""
"sailing-trial","73","640194","0.0-11.0-28.0","","","","false","","","","","","","","","","1177","","284","","0","1","arrowleft","0","arrowleft","[0.675,0.325,0.85,0.15]","","",""
"sailing-trial","74","643199","0.0-11.0-29.0","","","","false","","","","","","","","","","null","","1275","","1","0","null","null","arrowup","[0.675,0.325,0.85,0.15]","","",""
"sailing-trial","75","647127","0.0-11.0-30.0","","","","false","","","","","","","","","","388","","382","","0","1","arrowleft","0","arrowleft","[0.675,0.325,0.85,0.15]","","",""
"sailing-trial","76","649757","0.0-11.0-31.0","","","","false","","","","","","","","","","null","","1371","","1","0","null","null","arrowup","[0.675,0.325,0.85,0.15]","","",""
"sailing-trial","77","652908","0.0-11.0-32.0","","","","false","","","","","","","","","","389","","157","","0","0","arrowleft","0","arrowleft","[0.675,0.325,0.85,0.15]","","",""
"sailing-trial","78","655781","0.0-11.0-33.0","","","","false","","","","","","","","","","null","","1444","","1","0","null","null","arrowup","[0.675,0.325,0.85,0.15]","","",""
"sailing-trial","79","660897","0.0-11.0-34.0","","","","false","","","","","","","","","","942.9999999998836","","20","","3","0","arrowright","1","arrowright","[0.675,0.325,0.85,0.15]","","",""
"sailing-trial","80","664060","0.0-11.0-35.0","","","","false","","","","","","","","","","null","","1548","","0","1","null","null","arrowup","[0.675,0.325,0.85,0.15]","","",""
"sailing-trial","81","669695","0.0-11.0-36.0","","","","false","","","","","","","","","","1444.9999999998836","","33","","1","0","arrowleft","0","arrowright","[0.675,0.325,0.85,0.15]","","",""
"sailing-trial","82","672433","0.0-11.0-37.0","","","","false","","","","","","","","","","null","","1258","","3","0","null","null","arrowup","[0.675,0.325,0.85,0.15]","","",""
"sailing-trial","83","677078","0.0-11.0-38.0","","","","false","","","","","","","","","","542","","652","","2","1","arrowright","1","arrowleft","[0.675,0.325,0.85,0.15]","","",""
"sailing-trial","84","682178","0.0-11.0-39.0","","","","false","","","","","","","","","","null","","2079.9999999998836","","1","0","null","null","arrowup","[0.675,0.325,0.85,0.15]","","",""
"sailing-trial","85","688462","0.0-11.0-40.0","","","","false","","","","","","","","","","506","","1593","","3","0","arrowright","1","arrowright","[0.85,0.15,0.675,0.325]","","",""
"sailing-trial","86","703468","0.0-11.0-41.0","","","","true","","","","","","","","","","null","","null","","null","null","null","null","null","[0.85,0.15,0.675,0.325]","","",""
"sailing-trial","87","709644","0.0-11.0-42.0","","","","false","","","","","","","","","","1188.0000000001164","","1442","","2","1","arrowright","1","arrowleft","[0.85,0.15,0.675,0.325]","","",""
"sailing-trial","88","713527","0.0-11.0-43.0","","","","false","","","","","","","","","","null","","1945","","0","1","null","null","arrowup","[0.85,0.15,0.675,0.325]","","",""
"sailing-trial","89","717510","0.0-11.0-44.0","","","","false","","","","","","","","","","435.9999999998836","","427","","2","1","arrowright","1","arrowleft","[0.85,0.15,0.675,0.325]","","",""
"sailing-trial","90","720276","0.0-11.0-45.0","","","","false","","","","","","","","","","null","","1154.9999999998836","","0","1","null","null","arrowup","[0.85,0.15,0.675,0.325]","","",""
"sailing-trial","91","724726","0.0-11.0-46.0","","","","false","","","","","","","","","","897","","315.0000000001164","","0","1","arrowleft","0","arrowleft","[0.85,0.15,0.675,0.325]","","",""
"sailing-trial","92","727910","0.0-11.0-47.0","","","","false","","","","","","","","","","null","","1564.0000000001164","","0","1","null","null","arrowup","[0.85,0.15,0.675,0.325]","","",""
"sailing-trial","93","731265","0.0-11.0-48.0","","","","false","","","","","","","","","","370","","416","","3","0","arrowright","1","arrowright","[0.85,0.15,0.675,0.325]","","",""
"sailing-trial","94","733462","0.0-11.0-49.0","","","","false","","","","","","","","","","null","","1090.9999999998836","","1","0","null","null","arrowup","[0.85,0.15,0.675,0.325]","","",""
"sailing-trial","95","743961","0.0-11.0-50.0","","","","false","","","","","","","","","","722","","447","","2","1","arrowright","1","arrowleft","[0.85,0.15,0.675,0.325]","","",""
"sailing-trial","96","748578","0.0-11.0-51.0","","","","false","","","","","","","","","","null","","2769","","0","1","null","null","arrowup","[0.85,0.15,0.675,0.325]","","",""
"sailing-trial","97","753449","0.0-11.0-52.0","","","","false","","","","","","","","","","1022","","184.00000000011642","","3","1","arrowright","1","arrowright","[0.85,0.15,0.675,0.325]","","",""
"sailing-trial","98","756599","0.0-11.0-53.0","","","","false","","","","","","","","","","null","","1176","","2","1","null","null","arrowup","[0.85,0.15,0.675,0.325]","","",""
"sailing-trial","99","760200","0.0-11.0-54.0","","","","false","","","","","","","","","","658","","12","","0","1","arrowleft","0","arrowleft","[0.85,0.15,0.675,0.325]","","",""
"sailing-trial","100","763684","0.0-11.0-55.0","","","","false","","","","","","","","","","null","","1495.9999999998836","","1","1","null","null","arrowup","[0.85,0.15,0.675,0.325]","","",""
"sailing-trial","101","768385","0.0-11.0-56.0","","","","false","","","","","","","","","","700","","317","","0","1","arrowleft","0","arrowleft","[0.85,0.15,0.675,0.325]","","",""
"sailing-trial","102","772735","0.0-11.0-57.0","","","","false","","","","","","","","","","null","","2381.9999999998836","","0","1","null","null","arrowup","[0.85,0.15,0.675,0.325]","","",""
"sailing-trial","103","778070","0.0-11.0-58.0","","","","false","","","","","","","","","","1214","","438","","0","1","arrowleft","0","arrowleft","[0.85,0.15,0.675,0.325]","","",""
"sailing-trial","104","780749","0.0-11.0-59.0","","","","false","","","","","","","","","","null","","1470","","3","0","null","null","arrowup","[0.85,0.15,0.675,0.325]","","",""
"sailing-trial","105","786052","0.0-11.0-60.0","","","","false","","","","","","","","","","805","","323.0000000001164","","1","0","arrowleft","0","arrowright","[0.85,0.15,0.675,0.325]","","",""
"sailing-trial","106","789902","0.0-11.0-61.0","","","","false","","","","","","","","","","null","","2061.9999999998836","","0","1","null","null","arrowup","[0.85,0.15,0.675,0.325]","","",""
"sailing-trial","107","794903","0.0-11.0-62.0","","","","false","","","","","","","","","","1042.9999999998836","","474.9999999998836","","0","1","arrowleft","0","arrowleft","[0.85,0.15,0.675,0.325]","","",""
"sailing-trial","108","798703","0.0-11.0-63.0","","","","false","","","","","","","","","","null","","1859","","2","1","null","null","arrowup","[0.85,0.15,0.675,0.325]","","",""
"sailing-trial","109","803838","0.0-11.0-64.0","","","","false","","","","","","","","","","691","","291","","3","0","arrowright","1","arrowright","[0.675,0.325,0.85,0.15]","","",""
"sailing-trial","110","808620","0.0-11.0-65.0","","","","false","","","","","","","","","","null","","1770","","3","0","null","null","arrowup","[0.675,0.325,0.85,0.15]","","",""
"sailing-trial","111","815553","0.0-11.0-66.0","","","","false","","","","","","","","","","1967","","931.0000000001164","","0","1","arrowleft","0","arrowleft","[0.675,0.325,0.85,0.15]","","",""
"sailing-trial","112","820933","0.0-11.0-67.0","","","","false","","","","","","","","","","null","","3218","","1","0","null","null","arrowup","[0.675,0.325,0.85,0.15]","","",""
"sailing-trial","113","825938","0.0-11.0-68.0","","","","false","","","","","","","","","","527","","304.9999999998836","","0","0","arrowleft","0","arrowleft","[0.675,0.325,0.85,0.15]","","",""
"sailing-trial","114","830186","0.0-11.0-69.0","","","","false","","","","","","","","","","null","","1205","","3","1","null","null","arrowup","[0.675,0.325,0.85,0.15]","","",""
"sailing-trial","115","834720","0.0-11.0-70.0","","","","false","","","","","","","","","","1298","","86","","2","1","arrowright","1","arrowleft","[0.675,0.325,0.85,0.15]","","",""
"sailing-trial","116","839592","0.0-11.0-71.0","","","","false","","","","","","","","","","null","","2056","","1","0","null","null","arrowup","[0.675,0.325,0.85,0.15]","","",""
"sailing-trial","117","844287","0.0-11.0-72.0","","","","false","","","","","","","","","","761","","730","","2","1","arrowright","1","arrowleft","[0.675,0.325,0.85,0.15]","","",""
"sailing-trial","118","848869","0.0-11.0-73.0","","","","false","","","","","","","","","","null","","2644","","1","1","null","null","arrowup","[0.675,0.325,0.85,0.15]","","",""
"sailing-trial","119","853887","0.0-11.0-74.0","","","","false","","","","","","","","","","1104","","203","","2","1","arrowright","1","arrowleft","[0.675,0.325,0.85,0.15]","","",""
"sailing-trial","120","857020","0.0-11.0-75.0","","","","false","","","","","","","","","","null","","1109","","3","1","null","null","arrowup","[0.675,0.325,0.85,0.15]","","",""
"sailing-trial","121","862302","0.0-11.0-76.0","","","","false","","","","","","","","","","1766","","525","","2","1","arrowright","1","arrowleft","[0.675,0.325,0.85,0.15]","","",""
"sailing-trial","122","867437","0.0-11.0-77.0","","","","false","","","","","","","","","","null","","2978","","2","1","null","null","arrowup","[0.675,0.325,0.85,0.15]","","",""
"sailing-trial","123","871037","0.0-11.0-78.0","","","","false","","","","","","","","","","511","","284","","2","1","arrowright","1","arrowleft","[0.675,0.325,0.85,0.15]","","",""
"sailing-trial","124","874185","0.0-11.0-79.0","","","","false","","","","","","","","","","null","","1241.0000000001164","","0","1","null","null","arrowup","[0.675,0.325,0.85,0.15]","","",""
"sailing-trial","125","879470","0.0-11.0-80.0","","","","false","","","","","","","","","","786","","980","","2","1","arrowright","1","arrowleft","[0.675,0.325,0.85,0.15]","","",""
"sailing-trial","126","881825","0.0-11.0-81.0","","","","false","","","","","","","","","","null","","1089","","3","0","null","null","arrowup","[0.675,0.325,0.85,0.15]","","",""
"sailing-trial","127","886353","0.0-11.0-82.0","","","","false","","","","","","","","","","470","","323","","2","1","arrowright","1","arrowleft","[0.675,0.325,0.85,0.15]","","",""
"sailing-trial","128","890121","0.0-11.0-83.0","","","","false","","","","","","","","","","null","","747.0000000001164","","1","0","null","null","arrowup","[0.675,0.325,0.85,0.15]","","",""
"sailing-trial","129","895820","0.0-11.0-84.0","","","","false","","","","","","","","","","2339","","577.9999999998836","","2","1","arrowright","1","arrowleft","[0.675,0.325,0.85,0.15]","","",""
"sailing-trial","130","900372","0.0-11.0-85.0","","","","false","","","","","","","","","","null","","1530.0000000001164","","1","0","null","null","arrowup","[0.675,0.325,0.85,0.15]","","",""
"sailing-trial","131","903770","0.0-11.0-86.0","","","","false","","","","","","","","","","551","","437","","0","0","arrowleft","0","arrowleft","[0.15,0.85,0.325,0.675]","","",""
"sailing-trial","132","908870","0.0-11.0-87.0","","","","false","","","","","","","","","","null","","3325","","1","1","null","null","arrowup","[0.15,0.85,0.325,0.675]","","",""
"sailing-trial","133","914204","0.0-11.0-88.0","","","","false","","","","","","","","","","613.9999999998836","","576","","3","0","arrowright","1","arrowright","[0.15,0.85,0.325,0.675]","","",""
"sailing-trial","134","918423","0.0-11.0-89.0","","","","false","","","","","","","","","","null","","1213","","3","0","null","null","arrowup","[0.15,0.85,0.325,0.675]","","",""
"sailing-trial","135","927304","0.0-11.0-90.0","","","","false","","","","","","","","","","3442","","1284.9999999998836","","0","0","arrowleft","0","arrowleft","[0.15,0.85,0.325,0.675]","","",""
"sailing-trial","136","932039","0.0-11.0-91.0","","","","false","","","","","","","","","","null","","1728","","1","0","null","null","arrowup","[0.15,0.85,0.325,0.675]","","",""
"sailing-trial","137","937637","0.0-11.0-92.0","","","","false","","","","","","","","","","796.9999999998836","","1073","","1","1","arrowleft","0","arrowright","[0.15,0.85,0.325,0.675]","","",""
"sailing-trial","138","940669","0.0-11.0-93.0","","","","false","","","","","","","","","","null","","1346","","0","1","null","null","arrowup","[0.15,0.85,0.325,0.675]","","",""
"sailing-trial","139","944303","0.0-11.0-94.0","","","","false","","","","","","","","","","665","","145","","1","1","arrowleft","0","arrowright","[0.15,0.85,0.325,0.675]","","",""
"sailing-trial","140","947092","0.0-11.0-95.0","","","","false","","","","","","","","","","null","","1263","","0","0","null","null","arrowup","[0.15,0.85,0.325,0.675]","","",""
"sailing-trial","141","950886","0.0-11.0-96.0","","","","false","","","","","","","","","","597","","150","","1","1","arrowleft","0","arrowright","[0.15,0.85,0.325,0.675]","","",""
"sailing-trial","142","953515","0.0-11.0-97.0","","","","false","","","","","","","","","","null","","1178","","0","0","null","null","arrowup","[0.15,0.85,0.325,0.675]","","",""
"sailing-trial","143","957420","0.0-11.0-98.0","","","","false","","","","","","","","","","239.00000000011642","","388.9999999998836","","1","1","arrowleft","0","arrowright","[0.15,0.85,0.325,0.675]","","",""
"sailing-trial","144","960224","0.0-11.0-99.0","","","","false","","","","","","","","","","null","","1338","","2","0","null","null","arrowup","[0.15,0.85,0.325,0.675]","","",""
"sailing-trial","145","964236","0.0-11.0-100.0","","","","false","","","","","","","","","","437","","253","","1","1","arrowleft","0","arrowright","[0.15,0.85,0.325,0.675]","","",""
"sailing-trial","146","967553","0.0-11.0-101.0","","","","false","","","","","","","","","","null","","1372","","1","1","null","null","arrowup","[0.15,0.85,0.325,0.675]","","",""
"sailing-trial","147","972406","0.0-11.0-102.0","","","","false","","","","","","","","","","356","","288.0000000001164","","1","0","arrowleft","0","arrowright","[0.325,0.675,0.15,0.85]","","",""
"sailing-trial","148","975887","0.0-11.0-103.0","","","","false","","","","","","","","","","null","","1116","","3","1","null","null","arrowup","[0.325,0.675,0.15,0.85]","","",""
"sailing-trial","149","981154","0.0-11.0-104.0","","","","false","","","","","","","","","","1923","","21","","0","1","arrowleft","0","arrowleft","[0.325,0.675,0.15,0.85]","","",""
"sailing-trial","150","983860","0.0-11.0-105.0","","","","false","","","","","","","","","","null","","1149","","2","0","null","null","arrowup","[0.325,0.675,0.15,0.85]","","",""
"sailing-trial","151","986774","0.0-11.0-106.0","","","","false","","","","","","","","","","407","","111.99999999988358","","0","0","arrowleft","0","arrowleft","[0.325,0.675,0.15,0.85]","","",""
"sailing-trial","152","990048","0.0-11.0-107.0","","","","false","","","","","","","","","","null","","1954.9999999998836","","2","0","null","null","arrowup","[0.325,0.675,0.15,0.85]","","",""
"sailing-trial","153","995204","0.0-11.0-108.0","","","","false","","","","","","","","","","810","","184.00000000011642","","0","0","arrowleft","0","arrowleft","[0.325,0.675,0.15,0.85]","","",""
"sailing-trial","154","997753","0.0-11.0-109.0","","","","false","","","","","","","","","","null","","887","","2","1","null","null","arrowup","[0.325,0.675,0.15,0.85]","","",""
"sailing-trial","155","1002054","0.0-11.0-110.0","","","","false","","","","","","","","","","426","","314","","3","1","arrowright","1","arrowright","[0.325,0.675,0.15,0.85]","","",""
"sailing-trial","156","1004633","0.0-11.0-111.0","","","","false","","","","","","","","","","null","","1121","","3","0","null","null","arrowup","[0.325,0.675,0.15,0.85]","","",""
"sailing-trial","157","1008837","0.0-11.0-112.0","","","","false","","","","","","","","","","306","","208","","3","1","arrowright","1","arrowright","[0.325,0.675,0.15,0.85]","","",""
"sailing-trial","158","1011969","0.0-11.0-113.0","","","","false","","","","","","","","","","null","","1193","","1","1","null","null","arrowup","[0.325,0.675,0.15,0.85]","","",""
"sailing-trial","159","1016235","0.0-11.0-114.0","","","","false","","","","","","","","","","690","","702","","3","1","arrowright","1","arrowright","[0.325,0.675,0.15,0.85]","","",""
"sailing-trial","160","1019369","0.0-11.0-115.0","","","","false","","","","","","","","","","null","","1234.9999999998836","","3","1","null","null","arrowup","[0.325,0.675,0.15,0.85]","","",""
"sailing-trial","161","1023988","0.0-11.0-116.0","","","","false","","","","","","","","","","289.0000000001164","","150.99999999988358","","3","0","arrowright","1","arrowright","[0.325,0.675,0.15,0.85]","","",""
"sailing-trial","162","1026053","0.0-11.0-117.0","","","","false","","","","","","","","","","null","","434","","3","1","null","null","arrowup","[0.325,0.675,0.15,0.85]","","",""
"sailing-trial","163","1029954","0.0-11.0-118.0","","","","false","","","","","","","","","","733","","217","","2","1","arrowright","1","arrowleft","[0.675,0.325,0.85,0.15]","","",""
"sailing-trial","164","1032453","0.0-11.0-119.0","","","","false","","","","","","","","","","null","","457.9999999998836","","0","1","null","null","arrowup","[0.675,0.325,0.85,0.15]","","",""
"sailing-trial","165","1036370","0.0-11.0-120.0","","","","false","","","","","","","","","","452","","382.0000000001164","","1","1","arrowleft","0","arrowright","[0.675,0.325,0.85,0.15]","","",""
"sailing-trial","166","1039036","0.0-11.0-121.0","","","","false","","","","","","","","","","null","","1030.9999999998836","","1","1","null","null","arrowup","[0.675,0.325,0.85,0.15]","","",""
"sailing-trial","167","1044069","0.0-11.0-122.0","","","","false","","","","","","","","","","746","","514.0000000001164","","0","1","arrowleft","0","arrowleft","[0.675,0.325,0.85,0.15]","","",""
"sailing-trial","168","1059075","0.0-11.0-123.0","","","","true","","","","","","","","","","null","","null","","null","null","null","null","null","[0.675,0.325,0.85,0.15]","","",""
"sailing-trial","169","1074082","0.0-11.0-124.0","","","","true","","","","","","","","","","null","","null","","null","null","null","null","null","[0.675,0.325,0.85,0.15]","","",""
"sailing-trial","170","1078772","0.0-11.0-125.0","","","","false","","","","","","","","","","null","","1682","","3","0","null","null","arrowup","[0.675,0.325,0.85,0.15]","","",""
"sailing-trial","171","1085404","0.0-11.0-126.0","","","","false","","","","","","","","","","1498.9999999997672","","968.9999999997672","","3","0","arrowright","1","arrowright","[0.675,0.325,0.85,0.15]","","",""
"sailing-trial","172","1090152","0.0-11.0-127.0","","","","false","","","","","","","","","","null","","1521","","2","1","null","null","arrowup","[0.675,0.325,0.85,0.15]","","",""
"sailing-trial","173","1097062","0.0-11.0-128.0","","","","false","","","","","","","","","","644","","2103","","1","0","arrowleft","0","arrowright","[0.675,0.325,0.85,0.15]","","",""
"sailing-trial","174","1099336","0.0-11.0-129.0","","","","false","","","","","","","","","","null","","516","","2","1","null","null","arrowup","[0.675,0.325,0.85,0.15]","","",""
"sailing-trial","175","1103992","0.0-11.0-130.0","","","","false","","","","","","","","","","953","","1033","","1","0","arrowleft","0","arrowright","[0.675,0.325,0.85,0.15]","","",""
"sailing-trial","176","1108753","0.0-11.0-131.0","","","","false","","","","","","","","","","null","","1742.0000000002328","","3","0","null","null","arrowup","[0.675,0.325,0.85,0.15]","","",""
"sailing-trial","177","1116062","0.0-11.0-132.0","","","","false","","","","","","","","","","3001.999999999767","","120.99999999976717","","0","0","arrowleft","0","arrowleft","[0.675,0.325,0.85,0.15]","","",""
"sailing-trial","178","1121120","0.0-11.0-133.0","","","","false","","","","","","","","","","null","","2465","","1","0","null","null","arrowup","[0.675,0.325,0.85,0.15]","","",""
"sailing-trial","179","1128271","0.0-11.0-134.0","","","","false","","","","","","","","","","2709","","271.99999999976717","","3","0","arrowright","1","arrowright","[0.675,0.325,0.85,0.15]","","",""
"sailing-trial","180","1132048","0.0-11.0-135.0","","","","false","","","","","","","","","","null","","1401","","1","1","null","null","arrowup","[0.675,0.325,0.85,0.15]","","",""
"sailing-trial","181","1136704","0.0-11.0-136.0","","","","false","","","","","","","","","","901","","420","","3","1","arrowright","1","arrowright","[0.675,0.325,0.85,0.15]","","",""
"sailing-trial","182","1142596","0.0-11.0-137.0","","","","false","","","","","","","","","","null","","4824","","1","0","null","null","arrowup","[0.675,0.325,0.85,0.15]","","",""
"sailing-trial","183","1147953","0.0-11.0-138.0","","","","false","","","","","","","","","","1229","","492","","2","1","arrowright","1","arrowleft","[0.85,0.15,0.675,0.325]","","",""
"sailing-trial","184","1152037","0.0-11.0-139.0","","","","false","","","","","","","","","","null","","2378","","0","1","null","null","arrowup","[0.85,0.15,0.675,0.325]","","",""
"sailing-trial","185","1157819","0.0-11.0-140.0","","","","false","","","","","","","","","","1192","","283.00000000023283","","2","1","arrowright","1","arrowleft","[0.85,0.15,0.675,0.325]","","",""
"sailing-trial","186","1160152","0.0-11.0-141.0","","","","false","","","","","","","","","","null","","986","","0","0","null","null","arrowup","[0.85,0.15,0.675,0.325]","","",""
"sailing-trial","187","1164304","0.0-11.0-142.0","","","","false","","","","","","","","","","505","","139","","3","1","arrowright","1","arrowright","[0.85,0.15,0.675,0.325]","","",""
"sailing-trial","188","1167671","0.0-11.0-143.0","","","","false","","","","","","","","","","null","","1351","","1","1","null","null","arrowup","[0.85,0.15,0.675,0.325]","","",""
"sailing-trial","189","1172202","0.0-11.0-144.0","","","","false","","","","","","","","","","1678","","266","","1","0","arrowleft","0","arrowright","[0.85,0.15,0.675,0.325]","","",""
"sailing-trial","190","1174325","0.0-11.0-145.0","","","","false","","","","","","","","","","null","","928","","2","0","null","null","arrowup","[0.85,0.15,0.675,0.325]","","",""
"sailing-trial","191","1178070","0.0-11.0-146.0","","","","false","","","","","","","","","","528","","96","","0","1","arrowleft","0","arrowleft","[0.85,0.15,0.675,0.325]","","",""
"sailing-trial","192","1180564","0.0-11.0-147.0","","","","false","","","","","","","","","","null","","1348","","1","0","null","null","arrowup","[0.85,0.15,0.675,0.325]","","",""
"sailing-trial","193","1184553","0.0-11.0-148.0","","","","false","","","","","","","","","","570","","119","","0","1","arrowleft","0","arrowleft","[0.85,0.15,0.675,0.325]","","",""
"sailing-trial","194","1187953","0.0-11.0-149.0","","","","false","","","","","","","","","","null","","1188","","3","1","null","null","arrowup","[0.85,0.15,0.675,0.325]","","",""
"sailing-trial","195","1191571","0.0-11.0-150.0","","","","false","","","","","","","","","","58.00000000023283","","168.99999999976717","","0","1","arrowleft","0","arrowleft","[0.85,0.15,0.675,0.325]","","",""
"sailing-trial","196","1194619","0.0-11.0-151.0","","","","false","","","","","","","","","","null","","1311","","2","0","null","null","arrowup","[0.85,0.15,0.675,0.325]","","",""
"sailing-trial","197","1198454","0.0-11.0-152.0","","","","false","","","","","","","","","","107.99999999976717","","112","","0","1","arrowleft","0","arrowleft","[0.85,0.15,0.675,0.325]","","",""
"sailing-trial","198","1200959","0.0-11.0-153.0","","","","false","","","","","","","","","","null","","1391","","1","0","null","null","arrowup","[0.85,0.15,0.675,0.325]","","",""
"sailing-trial","199","1205805","0.0-11.0-154.0","","","","false","","","","","","","","","","713","","402","","0","1","arrowleft","0","arrowleft","[0.85,0.15,0.675,0.325]","","",""
"sailing-trial","200","1209471","0.0-11.0-155.0","","","","false","","","","","","","","","","null","","2479","","1","0","null","null","arrowup","[0.85,0.15,0.675,0.325]","","",""
"sailing-trial","201","1213752","0.0-11.0-156.0","","","","false","","","","","","","","","","805","","10","","0","1","arrowleft","0","arrowleft","[0.675,0.325,0.85,0.15]","","",""
"sailing-trial","202","1217028","0.0-11.0-157.0","","","","false","","","","","","","","","","null","","1680","","3","0","null","null","arrowup","[0.675,0.325,0.85,0.15]","","",""
"sailing-trial","203","1221120","0.0-11.0-158.0","","","","false","","","","","","","","","","743","","56.99999999976717","","0","1","arrowleft","0","arrowleft","[0.675,0.325,0.85,0.15]","","",""
"sailing-trial","204","1224863","0.0-11.0-159.0","","","","false","","","","","","","","","","null","","2311","","3","0","null","null","arrowup","[0.675,0.325,0.85,0.15]","","",""
"sailing-trial","205","1229870","0.0-11.0-160.0","","","","false","","","","","","","","","","1235","","319","","0","1","arrowleft","0","arrowleft","[0.675,0.325,0.85,0.15]","","",""
"sailing-trial","206","1234620","0.0-11.0-161.0","","","","false","","","","","","","","","","null","","2352","","2","1","null","null","arrowup","[0.675,0.325,0.85,0.15]","","",""
"sailing-trial","207","1241137","0.0-11.0-162.0","","","","false","","","","","","","","","","2264","","551","","0","1","arrowleft","0","arrowleft","[0.675,0.325,0.85,0.15]","","",""
"sailing-trial","208","1244304","0.0-11.0-163.0","","","","false","","","","","","","","","","null","","1434","","2","1","null","null","arrowup","[0.675,0.325,0.85,0.15]","","",""
"sailing-trial","209","1250272","0.0-11.0-164.0","","","","false","","","","","","","","","","912","","914","","0","0","arrowleft","0","arrowleft","[0.675,0.325,0.85,0.15]","","",""
"sailing-trial","210","1255172","0.0-11.0-165.0","","","","false","","","","","","","","","","null","","3337","","1","0","null","null","arrowup","[0.675,0.325,0.85,0.15]","","",""
"sailing-trial","211","1260707","0.0-11.0-166.0","","","","false","","","","","","","","","","1107.0000000002328","","258","","3","0","arrowright","1","arrowright","[0.675,0.325,0.85,0.15]","","",""
"sailing-trial","212","1268393","0.0-11.0-167.0","","","","false","","","","","","","","","","null","","4678","","0","0","null","null","arrowup","[0.675,0.325,0.85,0.15]","","",""
"sailing-trial","213","1273239","0.0-11.0-168.0","","","","false","","","","","","","","","","535","","159","","1","0","arrowleft","0","arrowright","[0.675,0.325,0.85,0.15]","","",""
"sailing-trial","214","1276405","0.0-11.0-169.0","","","","false","","","","","","","","","","null","","1095","","1","1","null","null","arrowup","[0.675,0.325,0.85,0.15]","","",""
"sailing-trial","215","1280803","0.0-11.0-170.0","","","","false","","","","","","","","","","654","","112","","2","1","arrowright","1","arrowleft","[0.675,0.325,0.85,0.15]","","",""
"sailing-trial","216","1283515","0.0-11.0-171.0","","","","false","","","","","","","","","","null","","1308","","0","0","null","null","arrowup","[0.675,0.325,0.85,0.15]","","",""
"sailing-trial","217","1291454","0.0-11.0-172.0","","","","false","","","","","","","","","","2993","","1185.9999999997672","","0","1","arrowleft","0","arrowleft","[0.85,0.15,0.675,0.325]","","",""
"sailing-trial","218","1294482","0.0-11.0-173.0","","","","false","","","","","","","","","","null","","1527","","1","0","null","null","arrowup","[0.85,0.15,0.675,0.325]","","",""
"sailing-trial","219","1298341","0.0-11.0-174.0","","","","false","","","","","","","","","","881","","38","","0","0","arrowleft","0","arrowleft","[0.85,0.15,0.675,0.325]","","",""
"sailing-trial","220","1301536","0.0-11.0-175.0","","","","false","","","","","","","","","","null","","1728","","3","0","null","null","arrowup","[0.85,0.15,0.675,0.325]","","",""
"sailing-trial","221","1307221","0.0-11.0-176.0","","","","false","","","","","","","","","","2196","","397","","0","1","arrowleft","0","arrowleft","[0.85,0.15,0.675,0.325]","","",""
"sailing-trial","222","1312837","0.0-11.0-177.0","","","","false","","","","","","","","","","null","","3949","","0","1","null","null","arrowup","[0.85,0.15,0.675,0.325]","","",""
"sailing-trial","223","1319261","0.0-11.0-178.0","","","","false","","","","","","","","","","2117.999999999767","","1650","","0","0","arrowleft","0","arrowleft","[0.85,0.15,0.675,0.325]","","",""
"sailing-trial","224","1328440","0.0-11.0-179.0","","","","false","","","","","","","","","","null","","7753","","3","0","null","null","arrowup","[0.85,0.15,0.675,0.325]","","",""
"sailing-trial","225","1333724","0.0-11.0-180.0","","","","false","","","","","","","","","","723","","410","","2","0","arrowright","1","arrowleft","[0.85,0.15,0.675,0.325]","","",""
"sailing-trial","226","1339086","0.0-11.0-181.0","","","","false","","","","","","","","","","null","","4139.999999999767","","3","0","null","null","arrowup","[0.85,0.15,0.675,0.325]","","",""
"sailing-trial","227","1347179","0.0-11.0-182.0","","","","false","","","","","","","","","","3858","","69","","1","0","arrowleft","0","arrowright","[0.85,0.15,0.675,0.325]","","",""
"sailing-trial","228","1357970","0.0-11.0-183.0","","","","false","","","","","","","","","","null","","7120","","0","1","null","null","arrowup","[0.85,0.15,0.675,0.325]","","",""
"sailing-trial","229","1364621","0.0-11.0-184.0","","","","false","","","","","","","","","","2348","","789.9999999997672","","0","1","arrowleft","0","arrowleft","[0.85,0.15,0.675,0.325]","","",""
"sailing-trial","230","1375822","0.0-11.0-185.0","","","","false","","","","","","","","","","null","","8183","","3","0","null","null","arrowup","[0.85,0.15,0.675,0.325]","","",""
"sailing-trial","231","1381021","0.0-11.0-186.0","","","","false","","","","","","","","","","718","","324","","2","1","arrowright","1","arrowleft","[0.85,0.15,0.675,0.325]","","",""
"sailing-trial","232","1389172","0.0-11.0-187.0","","","","false","","","","","","","","","","null","","5126","","1","0","null","null","arrowup","[0.85,0.15,0.675,0.325]","","",""
"sailing-trial","233","1404176","0.0-11.0-188.0","","","","true","","","","","","","","","","null","","null","","null","null","null","null","null","[0.85,0.15,0.675,0.325]","","",""
"sailing-trial","234","1411264","0.0-11.0-189.0","","","","false","","","","","","","","","","null","","5078","","3","0","null","null","arrowup","[0.85,0.15,0.675,0.325]","","",""
"sailing-trial","235","1422504","0.0-11.0-190.0","","","","false","","","","","","","","","","7547.000000000233","","343","","2","1","arrowright","1","arrowleft","[0.675,0.325,0.85,0.15]","","",""
"sailing-trial","236","1425331","0.0-11.0-191.0","","","","false","","","","","","","","","","null","","1450","","1","0","null","null","arrowup","[0.675,0.325,0.85,0.15]","","",""
"sailing-trial","237","1429254","0.0-11.0-192.0","","","","false","","","","","","","","","","526","","12.00000000023283","","0","1","arrowleft","0","arrowleft","[0.675,0.325,0.85,0.15]","","",""
"sailing-trial","238","1432137","0.0-11.0-193.0","","","","false","","","","","","","","","","null","","1262","","3","1","null","null","arrowup","[0.675,0.325,0.85,0.15]","","",""
"sailing-trial","239","1437018","0.0-11.0-194.0","","","","false","","","","","","","","","","473","","359","","1","0","arrowleft","0","arrowright","[0.675,0.325,0.85,0.15]","","",""
"sailing-trial","240","1439904","0.0-11.0-195.0","","","","false","","","","","","","","","","null","","1268","","1","1","null","null","arrowup","[0.675,0.325,0.85,0.15]","","",""
"sailing-trial","241","1443388","0.0-11.0-196.0","","","","false","","","","","","","","","","842","","138","","0","0","arrowleft","0","arrowleft","[0.675,0.325,0.85,0.15]","","",""
"sailing-trial","242","1448082","0.0-11.0-197.0","","","","false","","","","","","","","","","null","","3420.999999999767","","3","0","null","null","arrowup","[0.675,0.325,0.85,0.15]","","",""
"sailing-trial","243","1455021","0.0-11.0-198.0","","","","false","","","","","","","","","","772","","2569.999999999767","","0","1","arrowleft","0","arrowleft","[0.675,0.325,0.85,0.15]","","",""
"sailing-trial","244","1458570","0.0-11.0-199.0","","","","false","","","","","","","","","","null","","1050.0000000002328","","0","1","null","null","arrowup","[0.675,0.325,0.85,0.15]","","",""
"sailing-trial","245","1462137","0.0-11.0-200.0","","","","false","","","","","","","","","","11","","116.99999999976717","","0","1","arrowleft","0","arrowleft","[0.675,0.325,0.85,0.15]","","",""
"sailing-trial","246","1466038","0.0-11.0-201.0","","","","false","","","","","","","","","","null","","1742","","3","1","null","null","arrowup","[0.675,0.325,0.85,0.15]","","",""
"sailing-trial","247","1470270","0.0-11.0-202.0","","","","false","","","","","","","","","","1023","","52.00000000023283","","0","1","arrowleft","0","arrowleft","[0.675,0.325,0.85,0.15]","","",""
"sailing-trial","248","1473837","0.0-11.0-203.0","","","","false","","","","","","","","","","null","","1177","","2","1","null","null","arrowup","[0.675,0.325,0.85,0.15]","","",""
"sailing-trial","249","1479439","0.0-11.0-204.0","","","","false","","","","","","","","","","1397","","34","","0","0","arrowleft","0","arrowleft","[0.675,0.325,0.85,0.15]","","",""
"sailing-trial","250","1486988","0.0-11.0-205.0","","","","false","","","","","","","","","","null","","2172","","2","1","null","null","arrowup","[0.675,0.325,0.85,0.15]","","",""
"sailing-trial","251","1493305","0.0-11.0-206.0","","","","false","","","","","","","","","","1191","","962","","3","0","arrowright","1","arrowright","[0.85,0.15,0.675,0.325]","","",""
"sailing-trial","252","1508311","0.0-11.0-207.0","","","","true","","","","","","","","","","null","","null","","null","null","null","null","null","[0.85,0.15,0.675,0.325]","","",""
"sailing-trial","253","1523315","0.0-11.0-208.0","","","","true","","","","","","","","","","null","","null","","null","null","null","null","null","[0.85,0.15,0.675,0.325]","","",""
"sailing-trial","254","1532105","0.0-11.0-209.0","","","","false","","","","","","","","","","null","","2628.000000000233","","2","1","null","null","arrowup","[0.85,0.15,0.675,0.325]","","",""
"sailing-trial","255","1536505","0.0-11.0-210.0","","","","false","","","","","","","","","","933","","291","","0","1","arrowleft","0","arrowleft","[0.85,0.15,0.675,0.325]","","",""
"sailing-trial","256","1539804","0.0-11.0-211.0","","","","false","","","","","","","","","","null","","1349","","3","1","null","null","arrowup","[0.85,0.15,0.675,0.325]","","",""
"sailing-trial","257","1545621","0.0-11.0-212.0","","","","false","","","","","","","","","","2058","","291","","0","1","arrowleft","0","arrowleft","[0.85,0.15,0.675,0.325]","","",""
"sailing-trial","258","1553104","0.0-11.0-213.0","","","","false","","","","","","","","","","null","","5330","","0","1","null","null","arrowup","[0.85,0.15,0.675,0.325]","","",""
"sailing-trial","259","1560691","0.0-11.0-214.0","","","","false","","","","","","","","","","3025","","395","","3","0","arrowright","1","arrowright","[0.85,0.15,0.675,0.325]","","",""
"sailing-trial","260","1565004","0.0-11.0-215.0","","","","false","","","","","","","","","","null","","2409.000000000233","","3","1","null","null","arrowup","[0.85,0.15,0.675,0.325]","","",""
"sailing-trial","261","1569488","0.0-11.0-216.0","","","","false","","","","","","","","","","749","","429.00000000023283","","0","1","arrowleft","0","arrowleft","[0.85,0.15,0.675,0.325]","","",""
"sailing-trial","262","1572587","0.0-11.0-217.0","","","","false","","","","","","","","","","null","","1416","","3","1","null","null","arrowup","[0.85,0.15,0.675,0.325]","","",""
"sailing-trial","263","1578103","0.0-11.0-218.0","","","","false","","","","","","","","","","694.0000000002328","","656.0000000002328","","1","0","arrowleft","0","arrowright","[0.85,0.15,0.675,0.325]","","",""
"sailing-trial","264","1588105","0.0-11.0-219.0","","","","false","","","","","","","","","","null","","7951","","2","1","null","null","arrowup","[0.85,0.15,0.675,0.325]","","",""
"sailing-trial","265","1597837","0.0-11.0-220.0","","","","false","","","","","","","","","","1000","","4809","","0","1","arrowleft","0","arrowleft","[0.85,0.15,0.675,0.325]","","",""
"sailing-trial","266","1601229","0.0-11.0-221.0","","","","false","","","","","","","","","","null","","1296","","1","0","null","null","arrowup","[0.85,0.15,0.675,0.325]","","",""
"sailing-trial","267","1605586","0.0-11.0-222.0","","","","false","","","","","","","","","","1046","","851","","0","0","arrowleft","0","arrowleft","[0.675,0.325,0.85,0.15]","","",""
"sailing-trial","268","1609222","0.0-11.0-223.0","","","","false","","","","","","","","","","null","","1223","","0","1","null","null","arrowup","[0.675,0.325,0.85,0.15]","","",""
"sailing-trial","269","1614239","0.0-11.0-224.0","","","","false","","","","","","","","","","641","","891","","1","1","arrowleft","0","arrowright","[0.675,0.325,0.85,0.15]","","",""
"sailing-trial","270","1617621","0.0-11.0-225.0","","","","false","","","","","","","","","","null","","1562.0000000002328","","0","1","null","null","arrowup","[0.675,0.325,0.85,0.15]","","",""
"sailing-trial","271","1622137","0.0-11.0-226.0","","","","false","","","","","","","","","","624","","772","","0","1","arrowleft","0","arrowleft","[0.675,0.325,0.85,0.15]","","",""
"sailing-trial","272","1625152","0.0-11.0-227.0","","","","false","","","","","","","","","","null","","1340","","1","0","null","null","arrowup","[0.675,0.325,0.85,0.15]","","",""
"sailing-trial","273","1630122","0.0-11.0-228.0","","","","false","","","","","","","","","","811","","3","","0","0","arrowleft","0","arrowleft","[0.675,0.325,0.85,0.15]","","",""
"sailing-trial","274","1633088","0.0-11.0-229.0","","","","false","","","","","","","","","","null","","990","","0","1","null","null","arrowup","[0.675,0.325,0.85,0.15]","","",""
"sailing-trial","275","1638972","0.0-11.0-230.0","","","","false","","","","","","","","","","956","","772","","0","0","arrowleft","0","arrowleft","[0.675,0.325,0.85,0.15]","","",""
"sailing-trial","276","1641336","0.0-11.0-231.0","","","","false","","","","","","","","","","null","","827","","3","0","null","null","arrowup","[0.675,0.325,0.85,0.15]","","",""
"sailing-trial","277","1645957","0.0-11.0-232.0","","","","false","","","","","","","","","","373","","95.00000000023283","","0","0","arrowleft","0","arrowleft","[0.675,0.325,0.85,0.15]","","",""
"sailing-trial","278","1649590","0.0-11.0-233.0","","","","false","","","","","","","","","","null","","612","","3","0","null","null","arrowup","[0.675,0.325,0.85,0.15]","","",""
"sailing-trial","279","1653655","0.0-11.0-234.0","","","","false","","","","","","","","","","30.00000000023283","","192","","0","1","arrowleft","0","arrowleft","[0.675,0.325,0.85,0.15]","","",""
"sailing-trial","280","1657305","0.0-11.0-235.0","","","","false","","","","","","","","","","null","","1146.9999999997672","","2","1","null","null","arrowup","[0.675,0.325,0.85,0.15]","","",""
"sailing-trial","281","1662056","0.0-11.0-236.0","","","","false","","","","","","","","","","1199","","100","","0","1","arrowleft","0","arrowleft","[0.675,0.325,0.85,0.15]","","",""
"sailing-trial","282","1666073","0.0-11.0-237.0","","","","false","","","","","","","","","","null","","1000","","3","0","null","null","arrowup","[0.675,0.325,0.85,0.15]","","",""
"sailing-trial","283","1670115","0.0-11.0-238.0","","","","false","","","","","","","","","","877","","75","","0","0","arrowleft","0","arrowleft","[0.675,0.325,0.85,0.15]","","",""
"sailing-trial","284","1672844","0.0-11.0-239.0","","","","false","","","","","","","","","","null","","1272","","3","0","null","null","arrowup","[0.675,0.325,0.85,0.15]","","",""
"sailing-trial","285","1687848","0.0-11.0-240.0","","","","true","","","","","","","","","","null","","null","","null","null","null","null","null","[0.15,0.85,0.325,0.675]","","",""
"sailing-trial","286","1696672","0.0-11.0-241.0","","","","false","","","","","","","","","","null","","4824.999999999767","","2","1","null","null","arrowup","[0.15,0.85,0.325,0.675]","","",""
"sailing-trial","287","1701373","0.0-11.0-242.0","","","","false","","","","","","","","","","491.99999999976717","","16","","0","0","arrowleft","0","arrowleft","[0.15,0.85,0.325,0.675]","","",""
"sailing-trial","288","1705322","0.0-11.0-243.0","","","","false","","","","","","","","","","null","","1658","","3","1","null","null","arrowup","[0.15,0.85,0.325,0.675]","","",""
"sailing-trial","289","1713772","0.0-11.0-244.0","","","","false","","","","","","","","","","4262","","1","","3","0","arrowright","1","arrowright","[0.15,0.85,0.325,0.675]","","",""
"sailing-trial","290","1717063","0.0-11.0-245.0","","","","false","","","","","","","","","","null","","2119.999999999767","","0","0","null","null","arrowup","[0.15,0.85,0.325,0.675]","","",""
"sailing-trial","291","1720921","0.0-11.0-246.0","","","","false","","","","","","","","","","777.0000000002328","","91","","1","1","arrowleft","0","arrowright","[0.15,0.85,0.325,0.675]","","",""
"sailing-trial","292","1726572","0.0-11.0-247.0","","","","false","","","","","","","","","","null","","3730","","2","1","null","null","arrowup","[0.15,0.85,0.325,0.675]","","",""
"sailing-trial","293","1731367","0.0-11.0-248.0","","","","false","","","","","","","","","","1113","","178","","0","0","arrowleft","0","arrowleft","[0.15,0.85,0.325,0.675]","","",""
"sailing-trial","294","1738424","0.0-11.0-249.0","","","","false","","","","","","","","","","null","","4048","","0","0","null","null","arrowup","[0.15,0.85,0.325,0.675]","","",""
"sailing-trial","295","1743075","0.0-11.0-250.0","","","","false","","","","","","","","","","1107","","146.00000000023283","","0","0","arrowleft","0","arrowleft","[0.15,0.85,0.325,0.675]","","",""
"sailing-trial","296","1747978","0.0-11.0-251.0","","","","false","","","","","","","","","","null","","3363","","2","0","null","null","arrowup","[0.15,0.85,0.325,0.675]","","",""
"sailing-trial","297","1762985","0.0-11.0-252.0","","","","true","","","","","","","","","","null","","null","","null","null","null","null","null","[0.15,0.85,0.325,0.675]","","",""
"sailing-trial","298","1777996","0.0-11.0-253.0","","","","true","","","","","","","","","","null","","null","","null","null","null","null","null","[0.15,0.85,0.325,0.675]","","",""
"sailing-trial","299","1791789","0.0-11.0-254.0","","","","false","","","","","","","","","","7438","","980.9999999997672","","3","1","arrowright","1","arrowright","[0.15,0.85,0.325,0.675]","","",""
"sailing-trial","300","1795449","0.0-11.0-255.0","","","","false","","","","","","","","","","null","","2268","","2","0","null","null","arrowup","[0.15,0.85,0.325,0.675]","","",""
"sailing-trial","301","1805338","0.0-11.0-256.0","","","","false","","","","","","","","","","5721","","1070","","0","0","arrowleft","0","arrowleft","[0.15,0.85,0.325,0.675]","","",""
"sailing-trial","302","1809354","0.0-11.0-257.0","","","","false","","","","","","","","","","null","","2013","","1","1","null","null","arrowup","[0.15,0.85,0.325,0.675]","","",""
"sailing-trial","303","1814073","0.0-11.0-258.0","","","","false","","","","","","","","","","893","","500","","2","1","arrowright","1","arrowleft","[0.15,0.85,0.325,0.675]","","",""
"sailing-trial","304","1817787","0.0-11.0-259.0","","","","false","","","","","","","","","","null","","1565","","3","1","null","null","arrowup","[0.15,0.85,0.325,0.675]","","",""
"sailing-trial","305","1822719","0.0-11.0-260.0","","","","false","","","","","","","","","","2298","","71","","3","0","arrowright","1","arrowright","[0.85,0.15,0.675,0.325]","","",""
"sailing-trial","306","1827038","0.0-11.0-261.0","","","","false","","","","","","","","","","null","","1309","","1","0","null","null","arrowup","[0.85,0.15,0.675,0.325]","","",""
"sailing-trial","307","1832039","0.0-11.0-262.0","","","","false","","","","","","","","","","822","","1058","","3","1","arrowright","1","arrowright","[0.85,0.15,0.675,0.325]","","",""
"sailing-trial","308","1835229","0.0-11.0-263.0","","","","false","","","","","","","","","","null","","1426","","1","0","null","null","arrowup","[0.85,0.15,0.675,0.325]","","",""
"sailing-trial","309","1849211","0.0-11.0-264.0","","","","false","","","","","","","","","","9838","","1510","","0","0","arrowleft","0","arrowleft","[0.85,0.15,0.675,0.325]","","",""
"sailing-trial","310","1860414","0.0-11.0-265.0","","","","false","","","","","","","","","","null","","9771","","3","0","null","null","arrowup","[0.85,0.15,0.675,0.325]","","",""
"sailing-trial","311","1875429","0.0-11.0-266.0","","","","true","","","","","","","","","","null","","null","","null","null","null","null","null","[0.85,0.15,0.675,0.325]","","",""
"sailing-trial","312","1878800","0.0-11.0-267.0","","","","false","","","","","","","","","","null","","1173","","2","0","null","null","arrowup","[0.85,0.15,0.675,0.325]","","",""
"sailing-trial","313","1884405","0.0-11.0-268.0","","","","false","","","","","","","","","","545.9999999997672","","548","","2","1","arrowright","1","arrowleft","[0.85,0.15,0.675,0.325]","","",""
"sailing-trial","314","1888737","0.0-11.0-269.0","","","","false","","","","","","","","","","null","","1768","","0","1","null","null","arrowup","[0.85,0.15,0.675,0.325]","","",""
"sailing-trial","315","1894305","0.0-11.0-270.0","","","","false","","","","","","","","","","1678","","787","","0","1","arrowleft","0","arrowleft","[0.85,0.15,0.675,0.325]","","",""
"sailing-trial","316","1896920","0.0-11.0-271.0","","","","false","","","","","","","","","","null","","1188.0000000002328","","1","0","null","null","arrowup","[0.85,0.15,0.675,0.325]","","",""
"sailing-trial","317","1900921","0.0-11.0-272.0","","","","false","","","","","","","","","","597","","2","","0","1","arrowleft","0","arrowleft","[0.85,0.15,0.675,0.325]","","",""
"sailing-trial","318","1905331","0.0-11.0-273.0","","","","false","","","","","","","","","","null","","1587","","2","0","null","null","arrowup","[0.85,0.15,0.675,0.325]","","",""
"sailing-trial","319","1909289","0.0-11.0-274.0","","","","false","","","","","","","","","","535","","81","","0","1","arrowleft","0","arrowleft","[0.85,0.15,0.675,0.325]","","",""
"sailing-trial","320","1912322","0.0-11.0-275.0","","","","false","","","","","","","","","","null","","1086","","0","1","null","null","arrowup","[0.85,0.15,0.675,0.325]","","",""
"sailing-trial","321","1916189","0.0-11.0-276.0","","","","false","","","","","","","","","","416","","232","","0","1","arrowleft","0","arrowleft","[0.15,0.85,0.325,0.675]","","",""
"sailing-trial","322","1920288","0.0-11.0-277.0","","","","false","","","","","","","","","","null","","1148.0000000002328","","3","0","null","null","arrowup","[0.15,0.85,0.325,0.675]","","",""
"sailing-trial","323","1924737","0.0-11.0-278.0","","","","false","","","","","","","","","","650","","489","","0","0","arrowleft","0","arrowleft","[0.15,0.85,0.325,0.675]","","",""
"sailing-trial","324","1927203","0.0-11.0-279.0","","","","false","","","","","","","","","","null","","978.0000000002328","","0","0","null","null","arrowup","[0.15,0.85,0.325,0.675]","","",""
"sailing-trial","325","1931822","0.0-11.0-280.0","","","","false","","","","","","","","","","369","","822","","0","1","arrowleft","0","arrowleft","[0.15,0.85,0.325,0.675]","","",""
"sailing-trial","326","1935589","0.0-11.0-281.0","","","","false","","","","","","","","","","null","","747.0000000002328","","2","0","null","null","arrowup","[0.15,0.85,0.325,0.675]","","",""
"sailing-trial","327","1940822","0.0-11.0-282.0","","","","false","","","","","","","","","","746","","553","","0","1","arrowleft","0","arrowleft","[0.15,0.85,0.325,0.675]","","",""
"sailing-trial","328","1944089","0.0-11.0-283.0","","","","false","","","","","","","","","","null","","1029","","1","1","null","null","arrowup","[0.15,0.85,0.325,0.675]","","",""
"sailing-trial","329","1948356","0.0-11.0-284.0","","","","false","","","","","","","","","","569","","444","","1","1","arrowleft","0","arrowright","[0.15,0.85,0.325,0.675]","","",""
"sailing-trial","330","1952602","0.0-11.0-285.0","","","","false","","","","","","","","","","null","","1990","","3","1","null","null","arrowup","[0.15,0.85,0.325,0.675]","","",""
"sailing-trial","331","1957341","0.0-11.0-286.0","","","","false","","","","","","","","","","974","","669","","1","0","arrowleft","0","arrowright","[0.15,0.85,0.325,0.675]","","",""
"sailing-trial","332","1961089","0.0-11.0-287.0","","","","false","","","","","","","","","","null","","1399","","3","1","null","null","arrowup","[0.15,0.85,0.325,0.675]","","",""
"sailing-trial","333","1966974","0.0-11.0-288.0","","","","false","","","","","","","","","","1279","","435","","2","0","arrowright","1","arrowleft","[0.15,0.85,0.325,0.675]","","",""
"sailing-trial","334","1970155","0.0-11.0-289.0","","","","false","","","","","","","","","","null","","879.9999999997672","","2","1","null","null","arrowup","[0.15,0.85,0.325,0.675]","","",""
"sailing-trial","335","1974889","0.0-11.0-290.0","","","","false","","","","","","","","","","697","","515","","1","1","arrowleft","0","arrowright","[0.15,0.85,0.325,0.675]","","",""
"sailing-trial","336","1978973","0.0-11.0-291.0","","","","false","","","","","","","","","","null","","1065","","0","0","null","null","arrowup","[0.15,0.85,0.325,0.675]","","",""
"sailing-trial","337","1983356","0.0-11.0-292.0","","","","false","","","","","","","","","","820","","107.00000000023283","","1","1","arrowleft","0","arrowright","[0.15,0.85,0.325,0.675]","","",""
"sailing-trial","338","1988352","0.0-11.0-293.0","","","","false","","","","","","","","","","null","","3711","","0","0","null","null","arrowup","[0.15,0.85,0.325,0.675]","","",""
"sailing-trial","339","1994354","0.0-11.0-294.0","","","","false","","","","","","","","","","2052","","204","","1","1","arrowleft","0","arrowright","[0.325,0.675,0.15,0.85]","","",""
"sailing-trial","340","1999022","0.0-11.0-295.0","","","","false","","","","","","","","","","null","","1649","","1","0","null","null","arrowup","[0.325,0.675,0.15,0.85]","","",""
"sailing-trial","341","2004140","0.0-11.0-296.0","","","","false","","","","","","","","","","691","","261.99999999976717","","1","0","arrowleft","0","arrowright","[0.325,0.675,0.15,0.85]","","",""
"sailing-trial","342","2006461","0.0-11.0-297.0","","","","false","","","","","","","","","","null","","812","","2","0","null","null","arrowup","[0.325,0.675,0.15,0.85]","","",""
"sailing-trial","343","2011655","0.0-11.0-298.0","","","","false","","","","","","","","","","1919","","223","","1","1","arrowleft","0","arrowright","[0.325,0.675,0.15,0.85]","","",""
"sailing-trial","344","2015724","0.0-11.0-299.0","","","","false","","","","","","","","","","null","","1043.9999999997672","","2","0","null","null","arrowup","[0.325,0.675,0.15,0.85]","","",""
"sailing-trial","345","2022207","0.0-11.0-300.0","","","","false","","","","","","","","","","2722","","255","","1","1","arrowleft","0","arrowright","[0.325,0.675,0.15,0.85]","","",""
"sailing-trial","346","2025196","0.0-11.0-301.0","","","","false","","","","","","","","","","null","","998.0000000002328","","2","0","null","null","arrowup","[0.325,0.675,0.15,0.85]","","",""
"sailing-trial","347","2029548","0.0-11.0-302.0","","","","false","","","","","","","","","","485.99999999976717","","496","","1","1","arrowleft","0","arrowright","[0.325,0.675,0.15,0.85]","","",""
"sailing-trial","348","2033472","0.0-11.0-303.0","","","","false","","","","","","","","","","null","","895","","0","0","null","null","arrowup","[0.325,0.675,0.15,0.85]","","",""
"sailing-trial","349","2038880","0.0-11.0-304.0","","","","false","","","","","","","","","","597","","644","","0","0","arrowleft","0","arrowleft","[0.325,0.675,0.15,0.85]","","",""
"sailing-trial","350","2042784","0.0-11.0-305.0","","","","false","","","","","","","","","","null","","903","","0","1","null","null","arrowup","[0.325,0.675,0.15,0.85]","","",""
"sailing-trial","351","2047571","0.0-11.0-306.0","","","","false","","","","","","","","","","868","","495.00000000023283","","0","1","arrowleft","0","arrowleft","[0.325,0.675,0.15,0.85]","","",""
"sailing-trial","352","2050177","0.0-11.0-307.0","","","","false","","","","","","","","","","null","","951","","3","0","null","null","arrowup","[0.325,0.675,0.15,0.85]","","",""
"sailing-trial","353","2053825","0.0-11.0-308.0","","","","false","","","","","","","","","","683.9999999997672","","76","","0","1","arrowleft","0","arrowleft","[0.325,0.675,0.15,0.85]","","",""
"sailing-trial","354","2056758","0.0-11.0-309.0","","","","false","","","","","","","","","","null","","938","","1","1","null","null","arrowup","[0.325,0.675,0.15,0.85]","","",""
"sailing-trial","355","2061797","0.0-11.0-310.0","","","","false","","","","","","","","","","529.9999999997672","","349.99999999976717","","1","0","arrowleft","0","arrowright","[0.325,0.675,0.15,0.85]","","",""
"sailing-trial","356","2065547","0.0-11.0-311.0","","","","false","","","","","","","","","","null","","732","","1","0","null","null","arrowup","[0.325,0.675,0.15,0.85]","","",""
"sailing-trial","357","2071066","0.0-11.0-312.0","","","","false","","","","","","","","","","1190.0000000002328","","161.00000000023283","","1","0","arrowleft","0","arrowright","[0.15,0.85,0.325,0.675]","","",""
"sailing-trial","358","2077465","0.0-11.0-313.0","","","","false","","","","","","","","","","null","","891.0000000002328","","2","1","null","null","arrowup","[0.15,0.85,0.325,0.675]","","",""
"sailing-trial","359","2080651","0.0-11.0-314.0","","","","false","","","","","","","","","","485","","35.00000000023283","","1","0","arrowleft","0","arrowright","[0.15,0.85,0.325,0.675]","","",""
"sailing-trial","360","2084816","0.0-11.0-315.0","","","","false","","","","","","","","","","null","","1145","","2","0","null","null","arrowup","[0.15,0.85,0.325,0.675]","","",""
"sailing-trial","361","2088650","0.0-11.0-316.0","","","","false","","","","","","","","","","334.00000000023283","","379.99999999953434","","1","1","arrowleft","0","arrowright","[0.15,0.85,0.325,0.675]","","",""
"sailing-trial","362","2091448","0.0-11.0-317.0","","","","false","","","","","","","","","","null","","847.0000000002328","","2","1","null","null","arrowup","[0.15,0.85,0.325,0.675]","","",""
"sailing-trial","363","2095750","0.0-11.0-318.0","","","","false","","","","","","","","","","588.0000000002328","","551.0000000004657","","1","1","arrowleft","0","arrowright","[0.15,0.85,0.325,0.675]","","",""
"sailing-trial","364","2098917","0.0-11.0-319.0","","","","false","","","","","","","","","","null","","1212","","2","1","null","null","arrowup","[0.15,0.85,0.325,0.675]","","",""
"sailing-trial","365","2103100","0.0-11.0-320.0","","","","false","","","","","","","","","","637","","300","","1","1","arrowleft","0","arrowright","[0.15,0.85,0.325,0.675]","","",""
"sailing-trial","366","2106740","0.0-11.0-321.0","","","","false","","","","","","","","","","null","","957","","0","0","null","null","arrowup","[0.15,0.85,0.325,0.675]","","",""
"sailing-trial","367","2111983","0.0-11.0-322.0","","","","false","","","","","","","","","","1038","","61","","1","1","arrowleft","0","arrowright","[0.15,0.85,0.325,0.675]","","",""
"sailing-trial","368","2115583","0.0-11.0-323.0","","","","false","","","","","","","","","","null","","776","","2","1","null","null","arrowup","[0.15,0.85,0.325,0.675]","","",""
"sailing-trial","369","2120139","0.0-11.0-324.0","","","","false","","","","","","","","","","883","","265","","1","1","arrowleft","0","arrowright","[0.15,0.85,0.325,0.675]","","",""
"sailing-trial","370","2123333","0.0-11.0-325.0","","","","false","","","","","","","","","","null","","1002","","1","1","null","null","arrowup","[0.15,0.85,0.325,0.675]","","",""
"sailing-trial","371","2128299","0.0-11.0-326.0","","","","false","","","","","","","","","","701","","101","","1","1","arrowleft","0","arrowright","[0.15,0.85,0.325,0.675]","","",""
"sailing-trial","372","2131552","0.0-11.0-327.0","","","","false","","","","","","","","","","null","","1536","","0","0","null","null","arrowup","[0.15,0.85,0.325,0.675]","","",""
"sailing-trial","373","2138586","0.0-11.0-328.0","","","","false","","","","","","","","","","2693.0000000004657","","184","","1","0","arrowleft","0","arrowright","[0.675,0.325,0.85,0.15]","","",""
"sailing-trial","374","2143900","0.0-11.0-329.0","","","","false","","","","","","","","","","null","","972","","0","1","null","null","arrowup","[0.675,0.325,0.85,0.15]","","",""
"sailing-trial","375","2148368","0.0-11.0-330.0","","","","false","","","","","","","","","","16","","353","","0","1","arrowleft","0","arrowleft","[0.675,0.325,0.85,0.15]","","",""
"sailing-trial","376","2152301","0.0-11.0-331.0","","","","false","","","","","","","","","","null","","922.9999999995343","","3","0","null","null","arrowup","[0.675,0.325,0.85,0.15]","","",""
"sailing-trial","377","2156733","0.0-11.0-332.0","","","","false","","","","","","","","","","492","","194","","0","1","arrowleft","0","arrowleft","[0.675,0.325,0.85,0.15]","","",""
"sailing-trial","378","2160435","0.0-11.0-333.0","","","","false","","","","","","","","","","null","","693","","3","0","null","null","arrowup","[0.675,0.325,0.85,0.15]","","",""
"sailing-trial","379","2166335","0.0-11.0-334.0","","","","false","","","","","","","","","","1053","","1373","","0","1","arrowleft","0","arrowleft","[0.675,0.325,0.85,0.15]","","",""
"sailing-trial","380","2169184","0.0-11.0-335.0","","","","false","","","","","","","","","","null","","857","","2","1","null","null","arrowup","[0.675,0.325,0.85,0.15]","","",""
"sailing-trial","381","2174434","0.0-11.0-336.0","","","","false","","","","","","","","","","1397.0000000004657","","111","","0","1","arrowleft","0","arrowleft","[0.675,0.325,0.85,0.15]","","",""
"sailing-trial","382","2178549","0.0-11.0-337.0","","","","false","","","","","","","","","","null","","950","","3","1","null","null","arrowup","[0.675,0.325,0.85,0.15]","","",""
"sailing-trial","383","2182184","0.0-11.0-338.0","","","","false","","","","","","","","","","695.0000000004657","","161.00000000046566","","0","1","arrowleft","0","arrowleft","[0.675,0.325,0.85,0.15]","","",""
"sailing-trial","384","2185516","0.0-11.0-339.0","","","","false","","","","","","","","","","null","","1125","","2","1","null","null","arrowup","[0.675,0.325,0.85,0.15]","","",""
"sailing-trial","385","2192134","0.0-11.0-340.0","","","","false","","","","","","","","","","3097","","581","","0","1","arrowleft","0","arrowleft","[0.675,0.325,0.85,0.15]","","",""
"sailing-trial","386","2195152","0.0-11.0-341.0","","","","false","","","","","","","","","","null","","951","","0","1","null","null","arrowup","[0.675,0.325,0.85,0.15]","","",""
"sailing-trial","387","2201435","0.0-11.0-342.0","","","","false","","","","","","","","","","441","","1158","","0","1","arrowleft","0","arrowleft","[0.675,0.325,0.85,0.15]","","",""
"sailing-trial","388","2204384","0.0-11.0-343.0","","","","false","","","","","","","","","","null","","898","","1","1","null","null","arrowup","[0.675,0.325,0.85,0.15]","","",""
"sailing-trial","389","2208718","0.0-11.0-344.0","","","","false","","","","","","","","","","984","","270.00000000046566","","0","1","arrowleft","0","arrowleft","[0.85,0.15,0.675,0.325]","","",""
"sailing-trial","390","2211717","0.0-11.0-345.0","","","","false","","","","","","","","","","null","","1051","","0","1","null","null","arrowup","[0.85,0.15,0.675,0.325]","","",""
"sailing-trial","391","2216835","0.0-11.0-346.0","","","","false","","","","","","","","","","855.9999999995343","","729","","0","1","arrowleft","0","arrowleft","[0.85,0.15,0.675,0.325]","","",""
"sailing-trial","392","2219985","0.0-11.0-347.0","","","","false","","","","","","","","","","null","","830","","3","1","null","null","arrowup","[0.85,0.15,0.675,0.325]","","",""
"sailing-trial","393","2224451","0.0-11.0-348.0","","","","false","","","","","","","","","","732.0000000004657","","520","","0","1","arrowleft","0","arrowleft","[0.85,0.15,0.675,0.325]","","",""
"sailing-trial","394","2227893","0.0-11.0-349.0","","","","false","","","","","","","","","","null","","1939","","3","0","null","null","arrowup","[0.85,0.15,0.675,0.325]","","",""
"sailing-trial","395","2232668","0.0-11.0-350.0","","","","false","","","","","","","","","","823","","289.00000000046566","","0","1","arrowleft","0","arrowleft","[0.85,0.15,0.675,0.325]","","",""
"sailing-trial","396","2235568","0.0-11.0-351.0","","","","false","","","","","","","","","","null","","631","","0","1","null","null","arrowup","[0.85,0.15,0.675,0.325]","","",""
"sailing-trial","397","2239453","0.0-11.0-352.0","","","","false","","","","","","","","","","463","","61","","0","1","arrowleft","0","arrowleft","[0.85,0.15,0.675,0.325]","","",""
"sailing-trial","398","2242085","0.0-11.0-353.0","","","","false","","","","","","","","","","null","","962","","2","1","null","null","arrowup","[0.85,0.15,0.675,0.325]","","",""
"sailing-trial","399","2245594","0.0-11.0-354.0","","","","false","","","","","","","","","","626","","268","","0","0","arrowleft","0","arrowleft","[0.85,0.15,0.675,0.325]","","",""
"sailing-trial","400","2250370","0.0-11.0-355.0","","","","false","","","","","","","","","","null","","1752","","1","0","null","null","arrowup","[0.85,0.15,0.675,0.325]","","",""
"sailing-trial","401","2253699","0.0-11.0-356.0","","","","false","","","","","","","","","","375","","336","","0","0","arrowleft","0","arrowleft","[0.85,0.15,0.675,0.325]","","",""
"sailing-trial","402","2256919","0.0-11.0-357.0","","","","false","","","","","","","","","","null","","1469","","0","1","null","null","arrowup","[0.85,0.15,0.675,0.325]","","",""
"sailing-trial","403","2260718","0.0-11.0-358.0","","","","false","","","","","","","","","","770","","254","","0","1","arrowleft","0","arrowleft","[0.85,0.15,0.675,0.325]","","",""
"sailing-trial","404","2262932","0.0-11.0-359.0","","","","false","","","","","","","","","","null","","842","","3","0","null","null","arrowup","[0.85,0.15,0.675,0.325]","","",""
"sailing-trial","405","2266585","0.0-11.0-360.0","","","","false","","","","","","","","","","640","","12","","0","1","arrowleft","0","arrowleft","[0.85,0.15,0.675,0.325]","","",""
"sailing-trial","406","2269184","0.0-11.0-361.0","","","","false","","","","","","","","","","null","","1134","","1","0","null","null","arrowup","[0.85,0.15,0.675,0.325]","","",""
"sailing-trial","407","2273235","0.0-11.0-362.0","","","","false","","","","","","","","","","1041","","231","","0","1","arrowleft","0","arrowleft","[0.85,0.15,0.675,0.325]","","",""
"sailing-trial","408","2277072","0.0-11.0-363.0","","","","false","","","","","","","","","","null","","813","","3","0","null","null","arrowup","[0.85,0.15,0.675,0.325]","","",""
"sailing-trial","409","2282202","0.0-11.0-364.0","","","","false","","","","","","","","","","578","","406","","0","1","arrowleft","0","arrowleft","[0.675,0.325,0.85,0.15]","","",""
"sailing-trial","410","2287687","0.0-11.0-365.0","","","","false","","","","","","","","","","null","","2475","","0","0","null","null","arrowup","[0.675,0.325,0.85,0.15]","","",""
"sailing-trial","411","2292851","0.0-11.0-366.0","","","","false","","","","","","","","","","634","","720","","0","1","arrowleft","0","arrowleft","[0.675,0.325,0.85,0.15]","","",""
"sailing-trial","412","2295625","0.0-11.0-367.0","","","","false","","","","","","","","","","null","","1348","","0","0","null","null","arrowup","[0.675,0.325,0.85,0.15]","","",""
"sailing-trial","413","2299601","0.0-11.0-368.0","","","","false","","","","","","","","","","1073","","89.00000000046566","","0","1","arrowleft","0","arrowleft","[0.675,0.325,0.85,0.15]","","",""
"sailing-trial","414","2302251","0.0-11.0-369.0","","","","false","","","","","","","","","","null","","1214","","3","0","null","null","arrowup","[0.675,0.325,0.85,0.15]","","",""
"sailing-trial","415","2306369","0.0-11.0-370.0","","","","false","","","","","","","","","","732","","121","","0","1","arrowleft","0","arrowleft","[0.675,0.325,0.85,0.15]","","",""
"sailing-trial","416","2309026","0.0-11.0-371.0","","","","false","","","","","","","","","","null","","1274","","1","0","null","null","arrowup","[0.675,0.325,0.85,0.15]","","",""
"sailing-trial","417","2316319","0.0-11.0-372.0","","","","false","","","","","","","","","","1992.9999999995343","","1326","","1","1","arrowleft","0","arrowright","[0.675,0.325,0.85,0.15]","","",""
"sailing-trial","418","2319886","0.0-11.0-373.0","","","","false","","","","","","","","","","null","","1128","","0","1","null","null","arrowup","[0.675,0.325,0.85,0.15]","","",""
"sailing-trial","419","2323832","0.0-11.0-374.0","","","","false","","","","","","","","","","659","","611","","1","0","arrowleft","0","arrowright","[0.675,0.325,0.85,0.15]","","",""
"sailing-trial","420","2326852","0.0-11.0-375.0","","","","false","","","","","","","","","","null","","1109","","0","1","null","null","arrowup","[0.675,0.325,0.85,0.15]","","",""
"sailing-trial","421","2331418","0.0-11.0-376.0","","","","false","","","","","","","","","","489.00000000046566","","506","","0","1","arrowleft","0","arrowleft","[0.675,0.325,0.85,0.15]","","",""
"sailing-trial","422","2334220","0.0-11.0-377.0","","","","false","","","","","","","","","","null","","1126","","3","1","null","null","arrowup","[0.675,0.325,0.85,0.15]","","",""
"sailing-trial","423","2338470","0.0-11.0-378.0","","","","false","","","","","","","","","","692","","671","","0","1","arrowleft","0","arrowleft","[0.675,0.325,0.85,0.15]","","",""
"sailing-trial","424","2341303","0.0-11.0-379.0","","","","false","","","","","","","","","","null","","896","","2","1","null","null","arrowup","[0.675,0.325,0.85,0.15]","","",""
"sailing-trial","425","2345554","0.0-11.0-380.0","","","","false","","","","","","","","","","674","","460","","0","1","arrowleft","0","arrowleft","[0.675,0.325,0.85,0.15]","","",""
"sailing-trial","426","2351402","0.0-11.0-381.0","","","","false","","","","","","","","","","null","","2009","","0","1","null","null","arrowup","[0.675,0.325,0.85,0.15]","","",""
"sailing-trial","427","2355453","0.0-11.0-382.0","","","","false","","","","","","","","","","681.0000000004657","","132","","0","1","arrowleft","0","arrowleft","[0.675,0.325,0.85,0.15]","","",""
"sailing-trial","428","2360786","0.0-11.0-383.0","","","","false","","","","","","","","","","null","","3706","","2","1","null","null","arrowup","[0.675,0.325,0.85,0.15]","","",""
"sailing-trial","429","2365153","0.0-11.0-384.0","","","","false","","","","","","","","","","836","","74","","0","1","arrowleft","0","arrowleft","[0.85,0.15,0.675,0.325]","","",""
"sailing-trial","430","2367890","0.0-11.0-385.0","","","","false","","","","","","","","","","null","","1282.0000000004657","","2","0","null","null","arrowup","[0.85,0.15,0.675,0.325]","","",""
"sailing-trial","431","2372020","0.0-11.0-386.0","","","","false","","","","","","","","","","831","","149","","0","1","arrowleft","0","arrowleft","[0.85,0.15,0.675,0.325]","","",""
"sailing-trial","432","2374404","0.0-11.0-387.0","","","","false","","","","","","","","","","null","","924","","1","0","null","null","arrowup","[0.85,0.15,0.675,0.325]","","",""
"sailing-trial","433","2379287","0.0-11.0-388.0","","","","false","","","","","","","","","","897","","280","","0","1","arrowleft","0","arrowleft","[0.85,0.15,0.675,0.325]","","",""
"sailing-trial","434","2382337","0.0-11.0-389.0","","","","false","","","","","","","","","","null","","1396","","2","1","null","null","arrowup","[0.85,0.15,0.675,0.325]","","",""
"sailing-trial","435","2386287","0.0-11.0-390.0","","","","false","","","","","","","","","","308","","564","","0","1","arrowleft","0","arrowleft","[0.85,0.15,0.675,0.325]","","",""
"sailing-trial","436","2389258","0.0-11.0-391.0","","","","false","","","","","","","","","","null","","1449","","2","0","null","null","arrowup","[0.85,0.15,0.675,0.325]","","",""
"sailing-trial","437","2393587","0.0-11.0-392.0","","","","false","","","","","","","","","","623","","573","","0","1","arrowleft","0","arrowleft","[0.85,0.15,0.675,0.325]","","",""
"sailing-trial","438","2395955","0.0-11.0-393.0","","","","false","","","","","","","","","","null","","923","","0","0","null","null","arrowup","[0.85,0.15,0.675,0.325]","","",""
"sailing-trial","439","2401137","0.0-11.0-394.0","","","","false","","","","","","","","","","1807","","28.00000000046566","","0","1","arrowleft","0","arrowleft","[0.85,0.15,0.675,0.325]","","",""
"sailing-trial","440","2404203","0.0-11.0-395.0","","","","false","","","","","","","","","","null","","1087","","2","1","null","null","arrowup","[0.85,0.15,0.675,0.325]","","",""
"sailing-trial","441","2408154","0.0-11.0-396.0","","","","false","","","","","","","","","","627","","218","","0","1","arrowleft","0","arrowleft","[0.85,0.15,0.675,0.325]","","",""
"sailing-trial","442","2410988","0.0-11.0-397.0","","","","false","","","","","","","","","","null","","873","","2","1","null","null","arrowup","[0.85,0.15,0.675,0.325]","","",""
"sailing-trial","443","2416454","0.0-11.0-398.0","","","","false","","","","","","","","","","563","","2115","","0","1","arrowleft","0","arrowleft","[0.85,0.15,0.675,0.325]","","",""
"sailing-trial","444","2419169","0.0-11.0-399.0","","","","false","","","","","","","","","","null","","1249","","3","0","null","null","arrowup","[0.85,0.15,0.675,0.325]","","",""
"instructions","445","2424772","0.0-12.0","","","","","","","","","","5599","","","","","","","","","","","","","","","","[{""page_index"":0,""viewing_time"":5599}]"
"survey-debrief","446","2559231","0.0-13.0","","","","","","","","","","134446","","","","","","","","","","","","","","{""difficulty"":""1"",""fun"":""1"",""clarity"":""5"",""strategy"":""No I just remembered that the left island was always more rewarding"",""feedback"":"" I HATE THIS GAME SO MUCH IM JUST USING THIS MONEY TO BUY SOL DE JANRIO( AL 9 RL10 )""}","",""
