"trial_type","trial_index","time_elapsed","internal_node_id","value","metadata","success","timeout","failed_images","failed_audio","failed_video","browser_interaction","low_quality","rt","stimulus","response","button_pressed","island_rt","island_response","boat_rt","boat_response","boat","reward","island_key","island","boat_key","reward_probabilities","responses","num_errors","view_history"
"pavlovia","0","4","0.0-0.0","","","","","","","","","","","","","","","","","","","","","","","","","",""
"call-function","1","4","0.0-1.0","","{""task_version"":""sailing_part1_v1"",""task_condition"":""good"",""boats"":[""A"",""D"",""C"",""B""],""boats_demo"":[""G"",""E"",""F"",""H""],""islands"":[""B"",""A""],""subject_id"":""14958"",""age"":""22"",""gender"":""Male""}","","","","","","","","","","","","","","","","","","","","","","","",""
"preload","2","2423","0.0-2.0","","","true","false","[]","[]","[]","[{""event"":""fullscreenenter"",""trial"":3,""time"":3677}]","false","","","","","","","","","","","","","","","","",""
"fullscreen","3","4661","0.0-3.0","","","true","","","","","","","","","","","","","","","","","","","","","","",""
"audio-keyboard-response","4","6857","0.0-4.0-0.0","","","","","","","","","","2122.6666666666665","audio/beep_loop.wav"," ","","","","","","","","","","","","","",""
"audio-test","5","8270","0.0-4.0-1.0","","","","","","","","","","null","audio/turtle.mp3","","3","","","","","","","","","","","","",""
"audio-test","6","10490","0.0-4.0-2.0","","","","","","","","","","null","audio/shark.mp3","","2","","","","","","","","","","","","",""
"sailing-instructions","7","40442","0.0-5.0-0.0-0.0","","","","","","","","","","","","","","null","null","null","null","null","null","","","","","","",""
"sailing-trial","8","42798","0.0-5.0-0.0-1.0-0.0","","","","false","","","","","","","","","","1242.9000000001397","","null","","null","null","arrowleft","0","null","null","","",""
"sailing-trial","9","44646","0.0-5.0-0.0-1.0-1.0","","","","false","","","","","","","","","","717.3000000000466","","null","","null","null","arrowright","1","null","null","","",""
"sailing-trial","10","46664","0.0-5.0-0.0-1.0-2.0","","","","false","","","","","","","","","","916.5","","null","","null","null","arrowleft","0","null","null","","",""
"sailing-instructions","11","85747","0.0-5.0-0.0-2.0","","","","","","","","","","","","","","null","null","null","null","0","null","","","","","","",""
"sailing-trial","12","89462","0.0-5.0-0.0-3.0-0.0","","","","false","","","","","","","","","","null","","1228.5","","2","1","null","null","arrowleft","[1,1,1,1]","","",""
"sailing-trial","13","91877","0.0-5.0-0.0-3.0-1.0","","","","false","","","","","","","","","","null","","21.600000000093132","","3","1","null","null","arrowright","[1,1,1,1]","","",""
"sailing-trial","14","94694","0.0-5.0-0.0-3.0-2.0","","","","false","","","","","","","","","","null","","117.5","","2","0","null","null","arrowleft","[0,0,0,0]","","",""
"sailing-instructions","15","101901","0.0-5.0-0.0-4.0","","","","","","","","","","","","","","null","null","null","null","null","null","","","","","","",""
"sailing-comprehension","16","110585","0.0-5.0-0.0-5.0","","","","","","","","","","7216.600000000093","","","","","","","","","","","","","","[""true"",""true"",""false"",""true""]","0",""
"sailing-instructions","17","169643","0.0-6.0-0.0-0.0","","","","","","","","","","","","","","null","null","null","null","null","null","","","","","","",""
"sailing-comprehension","18","176810","0.0-6.0-0.0-1.0","","","","","","","","","","6211.700000000186","","","","","","","","","","","","","","[""true"",""false"",""true""]","0",""
"sailing-instructions","19","190310","0.0-7.0-0.0-0.0","","","","","","","","","","","","","","null","null","null","null","null","null","","","","","","",""
"sailing-trial","20","195272","0.0-7.0-0.0-1.0-0.0","","","","false","","","","","","","","","","null","","2411.2000000001863","","0","1","null","null","arrowup","[0.2,0.8,0.2,0.8]","","",""
"sailing-trial","21","198887","0.0-7.0-0.0-1.0-1.0","","","","false","","","","","","","","","","null","","1731.1000000000931","","1","1","null","null","arrowup","[0.2,0.8,0.2,0.8]","","",""
"sailing-trial","22","201010","0.0-7.0-0.0-1.0-2.0","","","","false","","","","","","","","","","null","","622.5","","2","0","null","null","arrowup","[0.2,0.8,0.2,0.8]","","",""
"sailing-trial","23","203803","0.0-7.0-0.0-1.0-3.0","","","","false","","","","","","","","","","null","","929.8999999999069","","3","1","null","null","arrowup","[0.2,0.8,0.2,0.8]","","",""
"sailing-comprehension","24","208180","0.0-7.0-0.0-2.0","","","","","","","","","","2750.600000000093","","","","","","","","","","","","","","[""true""]","1",""
"sailing-instructions","25","221946","0.0-7.0-0.1-0.1","","","","","","","","","","","","","","null","null","null","null","null","null","","","","","","",""
"sailing-trial","26","224304","0.0-7.0-0.1-1.1-0.1","","","","false","","","","","","","","","","null","","598.8999999999069","","0","1","null","null","arrowup","[0.2,0.8,0.2,0.8]","","",""
"sailing-trial","27","226638","0.0-7.0-0.1-1.1-1.1","","","","false","","","","","","","","","","null","","455.20000000018626","","1","1","null","null","arrowup","[0.2,0.8,0.2,0.8]","","",""
"sailing-trial","28","228821","0.0-7.0-0.1-1.1-2.1","","","","false","","","","","","","","","","null","","884.3999999999069","","2","0","null","null","arrowup","[0.2,0.8,0.2,0.8]","","",""
"sailing-trial","29","231621","0.0-7.0-0.1-1.1-3.1","","","","false","","","","","","","","","","null","","1047.3000000002794","","3","1","null","null","arrowup","[0.2,0.8,0.2,0.8]","","",""
"sailing-comprehension","30","235546","0.0-7.0-0.1-2.1","","","","","","","","","","3178.399999999907","","","","","","","","","","","","","","[""false""]","0",""
"sailing-instructions","31","245750","0.0-8.0-0.0-0.0","","","","","","","","","","","","","","null","null","null","null","null","null","","","","","","",""
"sailing-comprehension","32","249437","0.0-8.0-0.0-1.0","","","","","","","","","","2999.600000000093","","","","","","","","","","","","","","[""true""]","0",""
"sailing-instructions","33","272832","0.0-9.0-0.0-0.0","","","","","","","","","","","","","","null","null","null","null","null","null","","","","","","",""
"sailing-trial","34","277842","0.0-9.0-0.0-1.0-0.0","","","","false","","","","","","","","","","952.6000000000931","","445.5","","0","0","arrowleft","0","arrowleft","[0.2,0.8,0.2,0.8]","","",""
"sailing-trial","35","281918","0.0-9.0-0.0-1.0-1.0","","","","false","","","","","","","","","","533","","4.800000000279397","","2","1","arrowright","1","arrowleft","[0.2,0.8,0.2,0.8]","","",""
"sailing-trial","36","284426","0.0-9.0-0.0-1.0-2.0","","","","false","","","","","","","","","","null","","1200.7000000001863","","0","0","null","null","arrowup","[0.2,0.8,0.2,0.8]","","",""
"sailing-trial","37","288799","0.0-9.0-0.0-1.0-3.0","","","","false","","","","","","","","","","795.3000000002794","","434.89999999990687","","3","1","arrowright","1","arrowright","[0.2,0.8,0.2,0.8]","","",""
"sailing-trial","38","292099","0.0-9.0-0.0-1.0-4.0","","","","false","","","","","","","","","","null","","970.3999999999069","","3","1","null","null","arrowup","[0.2,0.8,0.2,0.8]","","",""
"sailing-trial","39","296001","0.0-9.0-0.0-1.0-5.0","","","","false","","","","","","","","","","932","","268.29999999981374","","1","1","arrowleft","0","arrowright","[0.2,0.8,0.2,0.8]","","",""
"sailing-instructions","40","320037","0.0-10.0","","","","","","","","","","","","","","null","null","null","null","null","null","","","","","","",""
"sailing-trial","41","326604","0.0-11.0-0.0","","","","false","","","","","","","","","","2140","","364.8000000002794","","0","0","arrowleft","0","arrowleft","[0.15,0.85,0.325,0.675]","","",""
"sailing-trial","42","329682","0.0-11.0-1.0","","","","false","","","","","","","","","","null","","1068.5","","2","1","null","null","arrowup","[0.15,0.85,0.325,0.675]","","",""
"sailing-trial","43","334165","0.0-11.0-2.0","","","","false","","","","","","","","","","525.2999999998137","","267.89999999990687","","1","1","arrowleft","0","arrowright","[0.15,0.85,0.325,0.675]","","",""
"sailing-trial","44","338317","0.0-11.0-3.0","","","","false","","","","","","","","","","null","","1138.8999999999069","","0","0","null","null","arrowup","[0.15,0.85,0.325,0.675]","","",""
"sailing-trial","45","342098","0.0-11.0-4.0","","","","false","","","","","","","","","","523.3999999999069","","206.59999999962747","","2","1","arrowright","1","arrowleft","[0.15,0.85,0.325,0.675]","","",""
"sailing-trial","46","345214","0.0-11.0-5.0","","","","false","","","","","","","","","","null","","1067.7000000001863","","3","1","null","null","arrowup","[0.15,0.85,0.325,0.675]","","",""
"sailing-trial","47","349064","0.0-11.0-6.0","","","","false","","","","","","","","","","591.7999999998137","","290.39999999990687","","3","1","arrowright","1","arrowright","[0.15,0.85,0.325,0.675]","","",""
"sailing-trial","48","351883","0.0-11.0-7.0","","","","false","","","","","","","","","","null","","849.1000000000931","","0","0","null","null","arrowup","[0.15,0.85,0.325,0.675]","","",""
"sailing-trial","49","356553","0.0-11.0-8.0","","","","false","","","","","","","","","","642.5","","470.10000000009313","","3","0","arrowright","1","arrowright","[0.15,0.85,0.325,0.675]","","",""
"sailing-trial","50","358961","0.0-11.0-9.0","","","","false","","","","","","","","","","null","","962.1000000000931","","2","0","null","null","arrowup","[0.15,0.85,0.325,0.675]","","",""
"sailing-trial","51","362779","0.0-11.0-10.0","","","","false","","","","","","","","","","562.8999999999069","","230","","2","1","arrowright","1","arrowleft","[0.15,0.85,0.325,0.675]","","",""
"sailing-trial","52","364921","0.0-11.0-11.0","","","","false","","","","","","","","","","null","","719.2000000001863","","0","0","null","null","arrowup","[0.15,0.85,0.325,0.675]","","",""
"sailing-trial","53","369146","0.0-11.0-12.0","","","","false","","","","","","","","","","1053.1000000000931","","304.10000000009313","","2","1","arrowright","1","arrowleft","[0.15,0.85,0.325,0.675]","","",""
"sailing-trial","54","371948","0.0-11.0-13.0","","","","false","","","","","","","","","","null","","1039.2000000001863","","2","1","null","null","arrowup","[0.15,0.85,0.325,0.675]","","",""
"sailing-trial","55","376171","0.0-11.0-14.0","","","","false","","","","","","","","","","884","","385.10000000009313","","2","0","arrowright","1","arrowleft","[0.15,0.85,0.325,0.675]","","",""
"sailing-trial","56","379113","0.0-11.0-15.0","","","","false","","","","","","","","","","null","","865.9000000003725","","3","1","null","null","arrowup","[0.15,0.85,0.325,0.675]","","",""
"sailing-trial","57","383114","0.0-11.0-16.0","","","","false","","","","","","","","","","710.1000000000931","","261.8000000002794","","3","1","arrowright","1","arrowright","[0.325,0.675,0.15,0.85]","","",""
"sailing-trial","58","385771","0.0-11.0-17.0","","","","false","","","","","","","","","","null","","1230.1999999997206","","1","0","null","null","arrowup","[0.325,0.675,0.15,0.85]","","",""
"sailing-trial","59","389760","0.0-11.0-18.0","","","","false","","","","","","","","","","835.5","","329.90000000037253","","3","1","arrowright","1","arrowright","[0.325,0.675,0.15,0.85]","","",""
"sailing-trial","60","392661","0.0-11.0-19.0","","","","false","","","","","","","","","","null","","890.8000000002794","","1","1","null","null","arrowup","[0.325,0.675,0.15,0.85]","","",""
"sailing-trial","61","396165","0.0-11.0-20.0","","","","false","","","","","","","","","","756.6000000000931","","281.6999999997206","","1","0","arrowleft","0","arrowright","[0.325,0.675,0.15,0.85]","","",""
"sailing-trial","62","398928","0.0-11.0-21.0","","","","false","","","","","","","","","","null","","911.6999999997206","","1","1","null","null","arrowup","[0.325,0.675,0.15,0.85]","","",""
"sailing-trial","63","402595","0.0-11.0-22.0","","","","false","","","","","","","","","","841.9000000003725","","372.39999999990687","","1","0","arrowleft","0","arrowright","[0.325,0.675,0.15,0.85]","","",""
"sailing-trial","64","405045","0.0-11.0-23.0","","","","false","","","","","","","","","","null","","640.8999999999069","","1","1","null","null","arrowup","[0.325,0.675,0.15,0.85]","","",""
"sailing-trial","65","408810","0.0-11.0-24.0","","","","false","","","","","","","","","","730.7000000001863","","185.20000000018626","","0","1","arrowleft","0","arrowleft","[0.325,0.675,0.15,0.85]","","",""
"sailing-trial","66","411461","0.0-11.0-25.0","","","","false","","","","","","","","","","null","","699.6000000000931","","3","1","null","null","arrowup","[0.325,0.675,0.15,0.85]","","",""
"sailing-trial","67","415168","0.0-11.0-26.0","","","","false","","","","","","","","","","788.9000000003725","","444.79999999981374","","0","0","arrowleft","0","arrowleft","[0.325,0.675,0.15,0.85]","","",""
"sailing-trial","68","418129","0.0-11.0-27.0","","","","false","","","","","","","","","","null","","1384.5","","0","0","null","null","arrowup","[0.325,0.675,0.15,0.85]","","",""
"sailing-trial","69","421806","0.0-11.0-28.0","","","","false","","","","","","","","","","716.2999999998137","","76.10000000009313","","3","1","arrowright","1","arrowright","[0.325,0.675,0.15,0.85]","","",""
"sailing-trial","70","424455","0.0-11.0-29.0","","","","false","","","","","","","","","","null","","1198.5999999996275","","0","0","null","null","arrowup","[0.325,0.675,0.15,0.85]","","",""
"sailing-trial","71","427507","0.0-11.0-30.0","","","","false","","","","","","","","","","616.7000000001863","","14.399999999906868","","2","0","arrowright","1","arrowleft","[0.325,0.675,0.15,0.85]","","",""
"sailing-trial","72","429754","0.0-11.0-31.0","","","","false","","","","","","","","","","null","","905.2999999998137","","2","0","null","null","arrowup","[0.325,0.675,0.15,0.85]","","",""
"sailing-trial","73","432896","0.0-11.0-32.0","","","","false","","","","","","","","","","698.6000000000931","","155.39999999990687","","0","0","arrowleft","0","arrowleft","[0.325,0.675,0.15,0.85]","","",""
"sailing-trial","74","434919","0.0-11.0-33.0","","","","false","","","","","","","","","","null","","793.2999999998137","","0","0","null","null","arrowup","[0.325,0.675,0.15,0.85]","","",""
"sailing-trial","75","438295","0.0-11.0-34.0","","","","false","","","","","","","","","","603.1000000000931","","356.8000000002794","","2","0","arrowright","1","arrowleft","[0.325,0.675,0.15,0.85]","","",""
"sailing-trial","76","440790","0.0-11.0-35.0","","","","false","","","","","","","","","","null","","736.8999999999069","","3","1","null","null","arrowup","[0.325,0.675,0.15,0.85]","","",""
"sailing-trial","77","444756","0.0-11.0-36.0","","","","false","","","","","","","","","","668.7000000001863","","535.1999999997206","","3","1","arrowright","1","arrowright","[0.15,0.85,0.325,0.675]","","",""
"sailing-trial","78","447358","0.0-11.0-37.0","","","","false","","","","","","","","","","null","","597.7000000001863","","2","1","null","null","arrowup","[0.15,0.85,0.325,0.675]","","",""
"sailing-trial","79","450588","0.0-11.0-38.0","","","","false","","","","","","","","","","770","","154.10000000009313","","3","0","arrowright","1","arrowright","[0.15,0.85,0.325,0.675]","","",""
"sailing-trial","80","453408","0.0-11.0-39.0","","","","false","","","","","","","","","","null","","917.8999999999069","","3","1","null","null","arrowup","[0.15,0.85,0.325,0.675]","","",""
"sailing-trial","81","456415","0.0-11.0-40.0","","","","false","","","","","","","","","","528.8999999999069","","270.70000000018626","","2","0","arrowright","1","arrowleft","[0.15,0.85,0.325,0.675]","","",""
"sailing-trial","82","458382","0.0-11.0-41.0","","","","false","","","","","","","","","","null","","683.5","","3","0","null","null","arrowup","[0.15,0.85,0.325,0.675]","","",""
"sailing-trial","83","461745","0.0-11.0-42.0","","","","false","","","","","","","","","","767.6000000000931","","319.10000000009313","","0","0","arrowleft","0","arrowleft","[0.15,0.85,0.325,0.675]","","",""
"sailing-trial","84","464272","0.0-11.0-43.0","","","","false","","","","","","","","","","null","","647.1000000000931","","3","1","null","null","arrowup","[0.15,0.85,0.325,0.675]","","",""
"sailing-trial","85","467775","0.0-11.0-44.0","","","","false","","","","","","","","","","714.3999999999069","","41.5","","1","1","arrowleft","0","arrowright","[0.15,0.85,0.325,0.675]","","",""
"sailing-trial","86","469794","0.0-11.0-45.0","","","","false","","","","","","","","","","null","","770.6999999997206","","0","0","null","null","arrowup","[0.15,0.85,0.325,0.675]","","",""
"sailing-trial","87","473261","0.0-11.0-46.0","","","","false","","","","","","","","","","780.5","","379.79999999981374","","0","0","arrowleft","0","arrowleft","[0.15,0.85,0.325,0.675]","","",""
"sailing-trial","88","475475","0.0-11.0-47.0","","","","false","","","","","","","","","","null","","1039.3999999999069","","0","0","null","null","arrowup","[0.15,0.85,0.325,0.675]","","",""
"sailing-trial","89","479205","0.0-11.0-48.0","","","","false","","","","","","","","","","555.2000000001863","","348","","1","1","arrowleft","0","arrowright","[0.15,0.85,0.325,0.675]","","",""
"sailing-trial","90","481892","0.0-11.0-49.0","","","","false","","","","","","","","","","null","","1052.7999999998137","","1","1","null","null","arrowup","[0.15,0.85,0.325,0.675]","","",""
"sailing-trial","91","485846","0.0-11.0-50.0","","","","false","","","","","","","","","","584.2000000001863","","573.1999999997206","","2","1","arrowright","1","arrowleft","[0.15,0.85,0.325,0.675]","","",""
"sailing-trial","92","487711","0.0-11.0-51.0","","","","false","","","","","","","","","","null","","721.3000000002794","","0","0","null","null","arrowup","[0.15,0.85,0.325,0.675]","","",""
"sailing-trial","93","490691","0.0-11.0-52.0","","","","false","","","","","","","","","","647.6000000000931","","97.5","","2","0","arrowright","1","arrowleft","[0.325,0.675,0.15,0.85]","","",""
"sailing-trial","94","492604","0.0-11.0-53.0","","","","false","","","","","","","","","","null","","735.2999999998137","","0","0","null","null","arrowup","[0.325,0.675,0.15,0.85]","","",""
"sailing-trial","95","496255","0.0-11.0-54.0","","","","false","","","","","","","","","","786.3999999999069","","167.60000000009313","","1","1","arrowleft","0","arrowright","[0.325,0.675,0.15,0.85]","","",""
"sailing-trial","96","498590","0.0-11.0-55.0","","","","false","","","","","","","","","","null","","722.0999999996275","","3","1","null","null","arrowup","[0.325,0.675,0.15,0.85]","","",""
"sailing-trial","97","501710","0.0-11.0-56.0","","","","false","","","","","","","","","","807.8000000002794","","58.10000000009313","","1","0","arrowleft","0","arrowright","[0.325,0.675,0.15,0.85]","","",""
"sailing-trial","98","504387","0.0-11.0-57.0","","","","false","","","","","","","","","","null","","730.5","","1","1","null","null","arrowup","[0.325,0.675,0.15,0.85]","","",""
"sailing-trial","99","508007","0.0-11.0-58.0","","","","false","","","","","","","","","","478.5","","480.5","","1","1","arrowleft","0","arrowright","[0.325,0.675,0.15,0.85]","","",""
"sailing-trial","100","510585","0.0-11.0-59.0","","","","false","","","","","","","","","","null","","1481.1999999997206","","0","0","null","null","arrowup","[0.325,0.675,0.15,0.85]","","",""
"sailing-trial","101","513742","0.0-11.0-60.0","","","","false","","","","","","","","","","622.3000000002794","","246.20000000018626","","1","0","arrowleft","0","arrowright","[0.325,0.675,0.15,0.85]","","",""
"sailing-trial","102","516023","0.0-11.0-61.0","","","","false","","","","","","","","","","null","","586.7999999998137","","1","1","null","null","arrowup","[0.325,0.675,0.15,0.85]","","",""
"sailing-trial","103","519737","0.0-11.0-62.0","","","","false","","","","","","","","","","643.9000000003725","","265.79999999981374","","1","1","arrowleft","0","arrowright","[0.325,0.675,0.15,0.85]","","",""
"sailing-trial","104","521829","0.0-11.0-63.0","","","","false","","","","","","","","","","null","","888.5999999996275","","0","0","null","null","arrowup","[0.325,0.675,0.15,0.85]","","",""
"sailing-trial","105","525555","0.0-11.0-64.0","","","","false","","","","","","","","","","674.5","","250.10000000009313","","1","1","arrowleft","0","arrowright","[0.325,0.675,0.15,0.85]","","",""
"sailing-trial","106","528020","0.0-11.0-65.0","","","","false","","","","","","","","","","null","","881.8999999999069","","1","1","null","null","arrowup","[0.325,0.675,0.15,0.85]","","",""
"sailing-trial","107","530809","0.0-11.0-66.0","","","","false","","","","","","","","","","492.89999999990687","","29.899999999906868","","2","0","arrowright","1","arrowleft","[0.325,0.675,0.15,0.85]","","",""
"sailing-trial","108","532647","0.0-11.0-67.0","","","","false","","","","","","","","","","null","","681.3000000002794","","2","0","null","null","arrowup","[0.325,0.675,0.15,0.85]","","",""
"sailing-trial","109","535940","0.0-11.0-68.0","","","","false","","","","","","","","","","672.5","","365.70000000018626","","3","0","arrowright","1","arrowright","[0.675,0.325,0.85,0.15]","","",""
"sailing-trial","110","538248","0.0-11.0-69.0","","","","false","","","","","","","","","","null","","632.2000000001863","","1","0","null","null","arrowup","[0.675,0.325,0.85,0.15]","","",""
"sailing-trial","111","543786","0.0-11.0-70.0","","","","false","","","","","","","","","","1295.1999999997206","","404.39999999990687","","0","0","arrowleft","0","arrowleft","[0.675,0.325,0.85,0.15]","","",""
"sailing-trial","112","545738","0.0-11.0-71.0","","","","false","","","","","","","","","","null","","694.3999999999069","","3","0","null","null","arrowup","[0.675,0.325,0.85,0.15]","","",""
"sailing-trial","113","549033","0.0-11.0-72.0","","","","false","","","","","","","","","","629.5999999996275","","315.1999999997206","","1","0","arrowleft","0","arrowright","[0.675,0.325,0.85,0.15]","","",""
"sailing-trial","114","551554","0.0-11.0-73.0","","","","false","","","","","","","","","","null","","744.8999999999069","","2","1","null","null","arrowup","[0.675,0.325,0.85,0.15]","","",""
"sailing-trial","115","555171","0.0-11.0-74.0","","","","false","","","","","","","","","","568.5999999996275","","349.1999999997206","","1","1","arrowleft","0","arrowright","[0.675,0.325,0.85,0.15]","","",""
"sailing-trial","116","557486","0.0-11.0-75.0","","","","false","","","","","","","","","","null","","575.1000000000931","","2","1","null","null","arrowup","[0.675,0.325,0.85,0.15]","","",""
"sailing-trial","117","560635","0.0-11.0-76.0","","","","false","","","","","","","","","","719.3999999999069","","191.90000000037253","","1","0","arrowleft","0","arrowright","[0.675,0.325,0.85,0.15]","","",""
"sailing-trial","118","562439","0.0-11.0-77.0","","","","false","","","","","","","","","","null","","595.3000000002794","","2","0","null","null","arrowup","[0.675,0.325,0.85,0.15]","","",""
"sailing-trial","119","566020","0.0-11.0-78.0","","","","false","","","","","","","","","","803.1000000000931","","442","","3","0","arrowright","1","arrowright","[0.675,0.325,0.85,0.15]","","",""
"sailing-trial","120","568320","0.0-11.0-79.0","","","","false","","","","","","","","","","null","","569.3999999999069","","0","1","null","null","arrowup","[0.675,0.325,0.85,0.15]","","",""
"sailing-trial","121","572985","0.0-11.0-80.0","","","","false","","","","","","","","","","711.5999999996275","","1157.3000000002794","","0","1","arrowleft","0","arrowleft","[0.675,0.325,0.85,0.15]","","",""
"sailing-trial","122","574954","0.0-11.0-81.0","","","","false","","","","","","","","","","null","","718.2999999998137","","3","0","null","null","arrowup","[0.675,0.325,0.85,0.15]","","",""
"sailing-trial","123","578503","0.0-11.0-82.0","","","","false","","","","","","","","","","601.3999999999069","","407.6999999997206","","1","0","arrowleft","0","arrowright","[0.675,0.325,0.85,0.15]","","",""
"sailing-trial","124","581118","0.0-11.0-83.0","","","","false","","","","","","","","","","null","","879.5999999996275","","2","1","null","null","arrowup","[0.675,0.325,0.85,0.15]","","",""
"sailing-trial","125","584956","0.0-11.0-84.0","","","","false","","","","","","","","","","1074.8999999999069","","293.79999999981374","","1","0","arrowleft","0","arrowright","[0.85,0.15,0.675,0.325]","","",""
"sailing-trial","126","586921","0.0-11.0-85.0","","","","false","","","","","","","","","","null","","790.1000000000931","","1","0","null","null","arrowup","[0.85,0.15,0.675,0.325]","","",""
"sailing-trial","127","589885","0.0-11.0-86.0","","","","false","","","","","","","","","","631.3999999999069","","67.10000000009313","","0","0","arrowleft","0","arrowleft","[0.85,0.15,0.675,0.325]","","",""
"sailing-trial","128","592134","0.0-11.0-87.0","","","","false","","","","","","","","","","null","","502","","2","1","null","null","arrowup","[0.85,0.15,0.675,0.325]","","",""
"sailing-trial","129","595634","0.0-11.0-88.0","","","","false","","","","","","","","","","587.7000000001863","","195","","0","1","arrowleft","0","arrowleft","[0.85,0.15,0.675,0.325]","","",""
"sailing-trial","130","598083","0.0-11.0-89.0","","","","false","","","","","","","","","","null","","735.3999999999069","","0","1","null","null","arrowup","[0.85,0.15,0.675,0.325]","","",""
"sailing-trial","131","601618","0.0-11.0-90.0","","","","false","","","","","","","","","","782.8999999999069","","162.10000000009313","","0","1","arrowleft","0","arrowleft","[0.85,0.15,0.675,0.325]","","",""
"sailing-trial","132","603527","0.0-11.0-91.0","","","","false","","","","","","","","","","null","","670.7000000001863","","1","0","null","null","arrowup","[0.85,0.15,0.675,0.325]","","",""
"sailing-trial","133","607232","0.0-11.0-92.0","","","","false","","","","","","","","","","609.5999999996275","","350.10000000009313","","0","1","arrowleft","0","arrowleft","[0.85,0.15,0.675,0.325]","","",""
"sailing-trial","134","609318","0.0-11.0-93.0","","","","false","","","","","","","","","","null","","924.6999999997206","","0","0","null","null","arrowup","[0.85,0.15,0.675,0.325]","","",""
"sailing-trial","135","612801","0.0-11.0-94.0","","","","false","","","","","","","","","","533.3999999999069","","240.29999999981374","","0","1","arrowleft","0","arrowleft","[0.85,0.15,0.675,0.325]","","",""
"sailing-trial","136","614755","0.0-11.0-95.0","","","","false","","","","","","","","","","null","","738","","3","0","null","null","arrowup","[0.85,0.15,0.675,0.325]","","",""
"sailing-trial","137","618452","0.0-11.0-96.0","","","","false","","","","","","","","","","744.1999999997206","","754.5","","0","0","arrowleft","0","arrowleft","[0.85,0.15,0.675,0.325]","","",""
"sailing-trial","138","620280","0.0-11.0-97.0","","","","false","","","","","","","","","","null","","595.6000000000931","","3","0","null","null","arrowup","[0.85,0.15,0.675,0.325]","","",""
"sailing-trial","139","624148","0.0-11.0-98.0","","","","false","","","","","","","","","","590.4000000003725","","510.39999999990687","","0","1","arrowleft","0","arrowleft","[0.85,0.15,0.675,0.325]","","",""
"sailing-trial","140","627980","0.0-11.0-99.0","","","","false","","","","","","","","","","null","","2601.8000000002794","","2","0","null","null","arrowup","[0.85,0.15,0.675,0.325]","","",""
"sailing-trial","141","631514","0.0-11.0-100.0","","","","false","","","","","","","","","","666.3000000002794","","321","","0","1","arrowleft","0","arrowleft","[0.675,0.325,0.85,0.15]","","",""
"sailing-trial","142","633703","0.0-11.0-101.0","","","","false","","","","","","","","","","null","","1096.0999999996275","","3","0","null","null","arrowup","[0.675,0.325,0.85,0.15]","","",""
"sailing-trial","143","636412","0.0-11.0-102.0","","","","false","","","","","","","","","","489.10000000009313","","101.29999999981374","","3","0","arrowright","1","arrowright","[0.675,0.325,0.85,0.15]","","",""
"sailing-trial","144","638343","0.0-11.0-103.0","","","","false","","","","","","","","","","null","","799","","1","0","null","null","arrowup","[0.675,0.325,0.85,0.15]","","",""
"sailing-trial","145","642183","0.0-11.0-104.0","","","","false","","","","","","","","","","717.6000000000931","","552.2000000001863","","0","1","arrowleft","0","arrowleft","[0.675,0.325,0.85,0.15]","","",""
"sailing-trial","146","645016","0.0-11.0-105.0","","","","false","","","","","","","","","","null","","731.4000000003725","","1","1","null","null","arrowup","[0.675,0.325,0.85,0.15]","","",""
"sailing-trial","147","648396","0.0-11.0-106.0","","","","false","","","","","","","","","","379.90000000037253","","439.10000000009313","","1","1","arrowleft","0","arrowright","[0.675,0.325,0.85,0.15]","","",""
"sailing-trial","148","650749","0.0-11.0-107.0","","","","false","","","","","","","","","","null","","703.1999999997206","","1","1","null","null","arrowup","[0.675,0.325,0.85,0.15]","","",""
"sailing-trial","149","654030","0.0-11.0-108.0","","","","false","","","","","","","","","","435.79999999981374","","227.20000000018626","","1","0","arrowleft","0","arrowright","[0.675,0.325,0.85,0.15]","","",""
"sailing-trial","150","657762","0.0-11.0-109.0","","","","false","","","","","","","","","","null","","1011.1000000000931","","0","0","null","null","arrowup","[0.675,0.325,0.85,0.15]","","",""
"sailing-trial","151","661364","0.0-11.0-110.0","","","","false","","","","","","","","","","565","","269.3000000002794","","0","1","arrowleft","0","arrowleft","[0.675,0.325,0.85,0.15]","","",""
"sailing-trial","152","663498","0.0-11.0-111.0","","","","false","","","","","","","","","","null","","1082.8999999999069","","0","0","null","null","arrowup","[0.675,0.325,0.85,0.15]","","",""
"sailing-trial","153","666453","0.0-11.0-112.0","","","","false","","","","","","","","","","623.4000000003725","","244.8000000002794","","3","0","arrowright","1","arrowright","[0.675,0.325,0.85,0.15]","","",""
"sailing-trial","154","669165","0.0-11.0-113.0","","","","false","","","","","","","","","","null","","1046.2999999998137","","0","1","null","null","arrowup","[0.675,0.325,0.85,0.15]","","",""
"sailing-trial","155","673011","0.0-11.0-114.0","","","","false","","","","","","","","","","815.2999999998137","","403","","0","1","arrowleft","0","arrowleft","[0.675,0.325,0.85,0.15]","","",""
"sailing-trial","156","674892","0.0-11.0-115.0","","","","false","","","","","","","","","","null","","727.8000000002794","","1","0","null","null","arrowup","[0.675,0.325,0.85,0.15]","","",""
"sailing-trial","157","677984","0.0-11.0-116.0","","","","false","","","","","","","","","","629.8000000002794","","252","","1","0","arrowleft","0","arrowright","[0.675,0.325,0.85,0.15]","","",""
"sailing-trial","158","680226","0.0-11.0-117.0","","","","false","","","","","","","","","","null","","1142.2000000001863","","1","0","null","null","arrowup","[0.675,0.325,0.85,0.15]","","",""
"sailing-trial","159","685146","0.0-11.0-118.0","","","","false","","","","","","","","","","992.3999999999069","","464.89999999990687","","2","1","arrowright","1","arrowleft","[0.85,0.15,0.675,0.325]","","",""
"sailing-trial","160","687663","0.0-11.0-119.0","","","","false","","","","","","","","","","null","","990.2000000001863","","0","1","null","null","arrowup","[0.85,0.15,0.675,0.325]","","",""
"sailing-trial","161","691182","0.0-11.0-120.0","","","","false","","","","","","","","","","678.5","","241.10000000009313","","2","1","arrowright","1","arrowleft","[0.85,0.15,0.675,0.325]","","",""
"sailing-trial","162","693746","0.0-11.0-121.0","","","","false","","","","","","","","","","null","","941","","2","1","null","null","arrowup","[0.85,0.15,0.675,0.325]","","",""
"sailing-trial","163","697997","0.0-11.0-122.0","","","","false","","","","","","","","","","721.5","","110.39999999990687","","2","1","arrowright","1","arrowleft","[0.85,0.15,0.675,0.325]","","",""
"sailing-trial","164","700296","0.0-11.0-123.0","","","","false","","","","","","","","","","null","","581.4000000003725","","2","1","null","null","arrowup","[0.85,0.15,0.675,0.325]","","",""
"sailing-trial","165","703811","0.0-11.0-124.0","","","","false","","","","","","","","","","349.39999999990687","","477.8000000002794","","2","1","arrowright","1","arrowleft","[0.85,0.15,0.675,0.325]","","",""
"sailing-trial","166","706149","0.0-11.0-125.0","","","","false","","","","","","","","","","null","","760.1000000000931","","2","0","null","null","arrowup","[0.85,0.15,0.675,0.325]","","",""
"sailing-trial","167","709728","0.0-11.0-126.0","","","","false","","","","","","","","","","384.79999999981374","","392.89999999990687","","1","0","arrowleft","0","arrowright","[0.85,0.15,0.675,0.325]","","",""
"sailing-trial","168","714067","0.0-11.0-127.0","","","","false","","","","","","","","","","null","","1322.1000000000931","","1","0","null","null","arrowup","[0.85,0.15,0.675,0.325]","","",""
"sailing-trial","169","717718","0.0-11.0-128.0","","","","false","","","","","","","","","","785.3999999999069","","85.79999999981374","","2","0","arrowright","1","arrowleft","[0.85,0.15,0.675,0.325]","","",""
"sailing-trial","170","720130","0.0-11.0-129.0","","","","false","","","","","","","","","","null","","788.3999999999069","","2","1","null","null","arrowup","[0.85,0.15,0.675,0.325]","","",""
"sailing-trial","171","723334","0.0-11.0-130.0","","","","false","","","","","","","","","","799.7000000001863","","188.79999999981374","","3","0","arrowright","1","arrowright","[0.85,0.15,0.675,0.325]","","",""
"sailing-trial","172","726759","0.0-11.0-131.0","","","","false","","","","","","","","","","null","","787.2000000001863","","1","0","null","null","arrowup","[0.85,0.15,0.675,0.325]","","",""
"sailing-trial","173","729902","0.0-11.0-132.0","","","","false","","","","","","","","","","591.2000000001863","","493.89999999990687","","0","0","arrowleft","0","arrowleft","[0.85,0.15,0.675,0.325]","","",""
"sailing-trial","174","732495","0.0-11.0-133.0","","","","false","","","","","","","","","","null","","968.2999999998137","","1","1","null","null","arrowup","[0.85,0.15,0.675,0.325]","","",""
"sailing-trial","175","736326","0.0-11.0-134.0","","","","false","","","","","","","","","","726","","494.70000000018626","","1","0","arrowleft","0","arrowright","[0.85,0.15,0.675,0.325]","","",""
"sailing-trial","176","738369","0.0-11.0-135.0","","","","false","","","","","","","","","","null","","990.7999999998137","","1","0","null","null","arrowup","[0.85,0.15,0.675,0.325]","","",""
"sailing-trial","177","741771","0.0-11.0-136.0","","","","false","","","","","","","","","","573.8999999999069","","493.39999999990687","","3","0","arrowright","1","arrowright","[0.675,0.325,0.85,0.15]","","",""
"sailing-trial","178","744411","0.0-11.0-137.0","","","","false","","","","","","","","","","null","","844.6999999997206","","1","1","null","null","arrowup","[0.675,0.325,0.85,0.15]","","",""
"sailing-trial","179","748626","0.0-11.0-138.0","","","","false","","","","","","","","","","757.2999999998137","","298.8000000002794","","2","1","arrowright","1","arrowleft","[0.675,0.325,0.85,0.15]","","",""
"sailing-trial","180","750417","0.0-11.0-139.0","","","","false","","","","","","","","","","null","","751.3999999999069","","1","0","null","null","arrowup","[0.675,0.325,0.85,0.15]","","",""
"sailing-trial","181","753270","0.0-11.0-140.0","","","","false","","","","","","","","","","668.8000000002794","","162.1999999997206","","1","0","arrowleft","0","arrowright","[0.675,0.325,0.85,0.15]","","",""
"sailing-trial","182","755117","0.0-11.0-141.0","","","","false","","","","","","","","","","null","","714.2999999998137","","1","0","null","null","arrowup","[0.675,0.325,0.85,0.15]","","",""
"sailing-trial","183","758209","0.0-11.0-142.0","","","","false","","","","","","","","","","746.6999999997206","","158.10000000009313","","2","0","arrowright","1","arrowleft","[0.675,0.325,0.85,0.15]","","",""
"sailing-trial","184","760926","0.0-11.0-143.0","","","","false","","","","","","","","","","null","","682.7999999998137","","0","1","null","null","arrowup","[0.675,0.325,0.85,0.15]","","",""
"sailing-trial","185","764727","0.0-11.0-144.0","","","","false","","","","","","","","","","977.6000000000931","","657.8999999999069","","3","0","arrowright","1","arrowright","[0.675,0.325,0.85,0.15]","","",""
"sailing-trial","186","767707","0.0-11.0-145.0","","","","false","","","","","","","","","","null","","1165","","0","1","null","null","arrowup","[0.675,0.325,0.85,0.15]","","",""
"sailing-trial","187","772778","0.0-11.0-146.0","","","","false","","","","","","","","","","872","","175.20000000018626","","1","0","arrowleft","0","arrowright","[0.675,0.325,0.85,0.15]","","",""
"sailing-trial","188","774893","0.0-11.0-147.0","","","","false","","","","","","","","","","null","","1116.3999999999069","","3","0","null","null","arrowup","[0.675,0.325,0.85,0.15]","","",""
"sailing-trial","189","778064","0.0-11.0-148.0","","","","false","","","","","","","","","","667.2999999998137","","439.79999999981374","","0","0","arrowleft","0","arrowleft","[0.675,0.325,0.85,0.15]","","",""
"sailing-trial","190","779808","0.0-11.0-149.0","","","","false","","","","","","","","","","null","","683.2999999998137","","1","0","null","null","arrowup","[0.675,0.325,0.85,0.15]","","",""
"sailing-trial","191","783523","0.0-11.0-150.0","","","","false","","","","","","","","","","693.8999999999069","","463.6999999997206","","2","1","arrowright","1","arrowleft","[0.675,0.325,0.85,0.15]","","",""
"sailing-trial","192","787643","0.0-11.0-151.0","","","","false","","","","","","","","","","null","","1122.3999999999069","","1","0","null","null","arrowup","[0.675,0.325,0.85,0.15]","","",""
"sailing-trial","193","793593","0.0-11.0-152.0","","","","false","","","","","","","","","","1430.6999999997206","","506.79999999981374","","2","0","arrowright","1","arrowleft","[0.15,0.85,0.325,0.675]","","",""
"sailing-trial","194","797658","0.0-11.0-153.0","","","","false","","","","","","","","","","null","","1344.9000000003725","","1","1","null","null","arrowup","[0.15,0.85,0.325,0.675]","","",""
"sailing-trial","195","800956","0.0-11.0-154.0","","","","false","","","","","","","","","","649.9000000003725","","117.8000000002794","","1","1","arrowleft","0","arrowright","[0.15,0.85,0.325,0.675]","","",""
"sailing-trial","196","803406","0.0-11.0-155.0","","","","false","","","","","","","","","","null","","865.5","","0","1","null","null","arrowup","[0.15,0.85,0.325,0.675]","","",""
"sailing-trial","197","807408","0.0-11.0-156.0","","","","false","","","","","","","","","","616","","347.1999999997206","","1","1","arrowleft","0","arrowright","[0.15,0.85,0.325,0.675]","","",""
"sailing-trial","198","809723","0.0-11.0-157.0","","","","false","","","","","","","","","","null","","665.0999999996275","","0","1","null","null","arrowup","[0.15,0.85,0.325,0.675]","","",""
"sailing-trial","199","812964","0.0-11.0-158.0","","","","false","","","","","","","","","","739.7000000001863","","336.29999999981374","","0","0","arrowleft","0","arrowleft","[0.15,0.85,0.325,0.675]","","",""
"sailing-trial","200","814595","0.0-11.0-159.0","","","","false","","","","","","","","","","null","","580.5","","0","0","null","null","arrowup","[0.15,0.85,0.325,0.675]","","",""
"sailing-trial","201","817754","0.0-11.0-160.0","","","","false","","","","","","","","","","635.7000000001863","","388.8000000002794","","1","0","arrowleft","0","arrowright","[0.15,0.85,0.325,0.675]","","",""
"sailing-trial","202","820089","0.0-11.0-161.0","","","","false","","","","","","","","","","null","","679","","3","1","null","null","arrowup","[0.15,0.85,0.325,0.675]","","",""
"sailing-trial","203","823522","0.0-11.0-162.0","","","","false","","","","","","","","","","657.3999999999069","","184.5","","1","1","arrowleft","0","arrowright","[0.15,0.85,0.325,0.675]","","",""
"sailing-trial","204","826071","0.0-11.0-163.0","","","","false","","","","","","","","","","null","","998.1000000000931","","3","1","null","null","arrowup","[0.15,0.85,0.325,0.675]","","",""
"sailing-trial","205","829995","0.0-11.0-164.0","","","","false","","","","","","","","","","799.7000000001863","","166.60000000009313","","0","0","arrowleft","0","arrowleft","[0.15,0.85,0.325,0.675]","","",""
"sailing-trial","206","832640","0.0-11.0-165.0","","","","false","","","","","","","","","","null","","962.8000000002794","","1","1","null","null","arrowup","[0.15,0.85,0.325,0.675]","","",""
"sailing-trial","207","836187","0.0-11.0-166.0","","","","false","","","","","","","","","","663.8000000002794","","852.3000000002794","","2","0","arrowright","1","arrowleft","[0.15,0.85,0.325,0.675]","","",""
"sailing-trial","208","838687","0.0-11.0-167.0","","","","false","","","","","","","","","","null","","759.6000000000931","","2","1","null","null","arrowup","[0.15,0.85,0.325,0.675]","","",""
"sailing-trial","209","841921","0.0-11.0-168.0","","","","false","","","","","","","","","","410.1999999997206","","77.8000000002794","","1","1","arrowleft","0","arrowright","[0.15,0.85,0.325,0.675]","","",""
"sailing-trial","210","845740","0.0-11.0-169.0","","","","false","","","","","","","","","","null","","813.1999999997206","","3","0","null","null","arrowup","[0.15,0.85,0.325,0.675]","","",""
"sailing-trial","211","850992","0.0-11.0-170.0","","","","false","","","","","","","","","","579.6000000000931","","1209.3000000002794","","0","0","arrowleft","0","arrowleft","[0.15,0.85,0.325,0.675]","","",""
"sailing-trial","212","853637","0.0-11.0-171.0","","","","false","","","","","","","","","","null","","1020.5","","1","1","null","null","arrowup","[0.15,0.85,0.325,0.675]","","",""
"sailing-trial","213","856668","0.0-11.0-172.0","","","","false","","","","","","","","","","656.9000000003725","","230.90000000037253","","0","0","arrowleft","0","arrowleft","[0.15,0.85,0.325,0.675]","","",""
"sailing-trial","214","858706","0.0-11.0-173.0","","","","false","","","","","","","","","","null","","947.4000000003725","","2","0","null","null","arrowup","[0.15,0.85,0.325,0.675]","","",""
"sailing-trial","215","862418","0.0-11.0-174.0","","","","false","","","","","","","","","","622.7000000001863","","268.39999999990687","","2","1","arrowright","1","arrowleft","[0.15,0.85,0.325,0.675]","","",""
"sailing-trial","216","864920","0.0-11.0-175.0","","","","false","","","","","","","","","","null","","794.3999999999069","","2","1","null","null","arrowup","[0.15,0.85,0.325,0.675]","","",""
"sailing-trial","217","869254","0.0-11.0-176.0","","","","false","","","","","","","","","","696.1999999997206","","879.2999999998137","","3","1","arrowright","1","arrowright","[0.325,0.675,0.15,0.85]","","",""
"sailing-trial","218","871194","0.0-11.0-177.0","","","","false","","","","","","","","","","null","","748.6000000000931","","2","0","null","null","arrowup","[0.325,0.675,0.15,0.85]","","",""
"sailing-trial","219","874768","0.0-11.0-178.0","","","","false","","","","","","","","","","691.7000000001863","","151.40000000037253","","2","1","arrowright","1","arrowleft","[0.325,0.675,0.15,0.85]","","",""
"sailing-trial","220","877302","0.0-11.0-179.0","","","","false","","","","","","","","","","null","","1414.1999999997206","","0","0","null","null","arrowup","[0.325,0.675,0.15,0.85]","","",""
"sailing-trial","221","880805","0.0-11.0-180.0","","","","false","","","","","","","","","","668.7000000001863","","108.60000000009313","","3","1","arrowright","1","arrowright","[0.325,0.675,0.15,0.85]","","",""
"sailing-trial","222","884403","0.0-11.0-181.0","","","","false","","","","","","","","","","null","","1568.9000000003725","","3","1","null","null","arrowup","[0.325,0.675,0.15,0.85]","","",""
"sailing-trial","223","888804","0.0-11.0-182.0","","","","false","","","","","","","","","","703","","1385.5","","2","0","arrowright","1","arrowleft","[0.325,0.675,0.15,0.85]","","",""
"sailing-trial","224","890821","0.0-11.0-183.0","","","","false","","","","","","","","","","null","","1008.8999999999069","","1","0","null","null","arrowup","[0.325,0.675,0.15,0.85]","","",""
"sailing-trial","225","895537","0.0-11.0-184.0","","","","false","","","","","","","","","","503.70000000018626","","230.89999999990687","","0","1","arrowleft","0","arrowleft","[0.325,0.675,0.15,0.85]","","",""
"sailing-trial","226","897667","0.0-11.0-185.0","","","","false","","","","","","","","","","null","","89.6999999997206","","3","1","null","null","arrowup","[0.325,0.675,0.15,0.85]","","",""
"sailing-trial","227","901026","0.0-11.0-186.0","","","","false","","","","","","","","","","416.5","","791.0999999996275","","2","0","arrowright","1","arrowleft","[0.325,0.675,0.15,0.85]","","",""
"sailing-trial","228","903370","0.0-11.0-187.0","","","","false","","","","","","","","","","null","","850.3000000002794","","2","0","null","null","arrowup","[0.325,0.675,0.15,0.85]","","",""
"sailing-trial","229","906975","0.0-11.0-188.0","","","","false","","","","","","","","","","507.5","","535.1000000000931","","3","1","arrowright","1","arrowright","[0.325,0.675,0.15,0.85]","","",""
"sailing-trial","230","909622","0.0-11.0-189.0","","","","false","","","","","","","","","","null","","621.2000000001863","","0","1","null","null","arrowup","[0.325,0.675,0.15,0.85]","","",""
"sailing-trial","231","913202","0.0-11.0-190.0","","","","false","","","","","","","","","","746.6000000000931","","183.1999999997206","","3","1","arrowright","1","arrowright","[0.325,0.675,0.15,0.85]","","",""
"sailing-trial","232","915111","0.0-11.0-191.0","","","","false","","","","","","","","","","null","","770.5","","2","0","null","null","arrowup","[0.325,0.675,0.15,0.85]","","",""
"sailing-trial","233","921066","0.0-11.0-192.0","","","","false","","","","","","","","","","2996.399999999907","","284.5","","1","1","arrowleft","0","arrowright","[0.15,0.85,0.325,0.675]","","",""
"sailing-trial","234","923409","0.0-11.0-193.0","","","","false","","","","","","","","","","null","","992.3999999999069","","0","0","null","null","arrowup","[0.15,0.85,0.325,0.675]","","",""
"sailing-trial","235","926981","0.0-11.0-194.0","","","","false","","","","","","","","","","490.5","","412.60000000009313","","2","1","arrowright","1","arrowleft","[0.15,0.85,0.325,0.675]","","",""
"sailing-trial","236","928983","0.0-11.0-195.0","","","","false","","","","","","","","","","null","","847.5","","0","0","null","null","arrowup","[0.15,0.85,0.325,0.675]","","",""
"sailing-trial","237","932880","0.0-11.0-196.0","","","","false","","","","","","","","","","562.1000000000931","","557.6000000000931","","2","1","arrowright","1","arrowleft","[0.15,0.85,0.325,0.675]","","",""
"sailing-trial","238","934785","0.0-11.0-197.0","","","","false","","","","","","","","","","null","","896.5","","2","0","null","null","arrowup","[0.15,0.85,0.325,0.675]","","",""
"sailing-trial","239","938345","0.0-11.0-198.0","","","","false","","","","","","","","","","570.6000000000931","","194.5","","3","1","arrowright","1","arrowright","[0.15,0.85,0.325,0.675]","","",""
"sailing-trial","240","941535","0.0-11.0-199.0","","","","false","","","","","","","","","","null","","1055.1000000000931","","0","0","null","null","arrowup","[0.15,0.85,0.325,0.675]","","",""
"sailing-trial","241","944392","0.0-11.0-200.0","","","","false","","","","","","","","","","467.10000000009313","","369.10000000009313","","2","0","arrowright","1","arrowleft","[0.15,0.85,0.325,0.675]","","",""
"sailing-trial","242","946643","0.0-11.0-201.0","","","","false","","","","","","","","","","null","","727.7000000001863","","1","1","null","null","arrowup","[0.15,0.85,0.325,0.675]","","",""
"sailing-trial","243","950658","0.0-11.0-202.0","","","","false","","","","","","","","","","604.8999999999069","","301.3000000002794","","1","1","arrowleft","0","arrowright","[0.15,0.85,0.325,0.675]","","",""
"sailing-trial","244","952894","0.0-11.0-203.0","","","","false","","","","","","","","","","null","","678.7000000001863","","3","1","null","null","arrowup","[0.15,0.85,0.325,0.675]","","",""
"sailing-trial","245","956608","0.0-11.0-204.0","","","","false","","","","","","","","","","788.5","","332.10000000009313","","1","1","arrowleft","0","arrowright","[0.15,0.85,0.325,0.675]","","",""
"sailing-trial","246","959775","0.0-11.0-205.0","","","","false","","","","","","","","","","null","","49.299999999813735","","2","1","null","null","arrowup","[0.15,0.85,0.325,0.675]","","",""
"sailing-trial","247","962960","0.0-11.0-206.0","","","","false","","","","","","","","","","657","","196.20000000018626","","3","0","arrowright","1","arrowright","[0.15,0.85,0.325,0.675]","","",""
"sailing-trial","248","965176","0.0-11.0-207.0","","","","false","","","","","","","","","","null","","672.5","","1","1","null","null","arrowup","[0.15,0.85,0.325,0.675]","","",""
"sailing-trial","249","968775","0.0-11.0-208.0","","","","false","","","","","","","","","","766","","244.60000000009313","","1","1","arrowleft","0","arrowright","[0.15,0.85,0.325,0.675]","","",""
"sailing-trial","250","974276","0.0-11.0-209.0","","","","false","","","","","","","","","","null","","3658.899999999907","","2","1","null","null","arrowup","[0.15,0.85,0.325,0.675]","","",""
"sailing-trial","251","978358","0.0-11.0-210.0","","","","false","","","","","","","","","","920","","208","","1","1","arrowleft","0","arrowright","[0.15,0.85,0.325,0.675]","","",""
"sailing-trial","252","981107","0.0-11.0-211.0","","","","false","","","","","","","","","","null","","1125.5","","3","1","null","null","arrowup","[0.15,0.85,0.325,0.675]","","",""
"sailing-trial","253","985341","0.0-11.0-212.0","","","","false","","","","","","","","","","783.8999999999069","","216.6999999997206","","1","1","arrowleft","0","arrowright","[0.15,0.85,0.325,0.675]","","",""
"sailing-trial","254","988289","0.0-11.0-213.0","","","","false","","","","","","","","","","null","","740.1000000000931","","2","1","null","null","arrowup","[0.15,0.85,0.325,0.675]","","",""
"sailing-trial","255","994874","0.0-11.0-214.0","","","","false","","","","","","","","","","1404.7999999998137","","551.5","","1","1","arrowleft","0","arrowright","[0.675,0.325,0.85,0.15]","","",""
"sailing-trial","256","997756","0.0-11.0-215.0","","","","false","","","","","","","","","","null","","928.1999999997206","","0","1","null","null","arrowup","[0.675,0.325,0.85,0.15]","","",""
"sailing-trial","257","1000738","0.0-11.0-216.0","","","","false","","","","","","","","","","719.7999999998137","","121.89999999990687","","2","0","arrowright","1","arrowleft","[0.675,0.325,0.85,0.15]","","",""
"sailing-trial","258","1003207","0.0-11.0-217.0","","","","false","","","","","","","","","","null","","861.8999999999069","","2","1","null","null","arrowup","[0.675,0.325,0.85,0.15]","","",""
"sailing-trial","259","1006226","0.0-11.0-218.0","","","","false","","","","","","","","","","735.1000000000931","","121","","3","0","arrowright","1","arrowright","[0.675,0.325,0.85,0.15]","","",""
"sailing-trial","260","1009074","0.0-11.0-219.0","","","","false","","","","","","","","","","null","","1144.8999999999069","","2","1","null","null","arrowup","[0.675,0.325,0.85,0.15]","","",""
"sailing-trial","261","1012457","0.0-11.0-220.0","","","","false","","","","","","","","","","637.3999999999069","","218.8000000002794","","1","1","arrowleft","0","arrowright","[0.675,0.325,0.85,0.15]","","",""
"sailing-trial","262","1014608","0.0-11.0-221.0","","","","false","","","","","","","","","","null","","1103.6000000000931","","3","0","null","null","arrowup","[0.675,0.325,0.85,0.15]","","",""
"sailing-trial","263","1017864","0.0-11.0-222.0","","","","false","","","","","","","","","","846.8999999999069","","386.60000000009313","","2","0","arrowright","1","arrowleft","[0.675,0.325,0.85,0.15]","","",""
"sailing-trial","264","1020290","0.0-11.0-223.0","","","","false","","","","","","","","","","null","","895.3999999999069","","0","1","null","null","arrowup","[0.675,0.325,0.85,0.15]","","",""
"sailing-trial","265","1023342","0.0-11.0-224.0","","","","false","","","","","","","","","","334.1999999997206","","666.1999999997206","","3","0","arrowright","1","arrowright","[0.675,0.325,0.85,0.15]","","",""
"sailing-trial","266","1028585","0.0-11.0-225.0","","","","false","","","","","","","","","","null","","3989.5999999996275","","0","0","null","null","arrowup","[0.675,0.325,0.85,0.15]","","",""
"sailing-trial","267","1033505","0.0-11.0-226.0","","","","false","","","","","","","","","","719.4000000003725","","199.1999999997206","","0","1","arrowleft","0","arrowleft","[0.675,0.325,0.85,0.15]","","",""
"sailing-trial","268","1036038","0.0-11.0-227.0","","","","false","","","","","","","","","","null","","865.7999999998137","","2","1","null","null","arrowup","[0.675,0.325,0.85,0.15]","","",""
"sailing-trial","269","1039656","0.0-11.0-228.0","","","","false","","","","","","","","","","674.5","","161.5","","0","0","arrowleft","0","arrowleft","[0.675,0.325,0.85,0.15]","","",""
"sailing-trial","270","1041495","0.0-11.0-229.0","","","","false","","","","","","","","","","null","","698.0999999996275","","3","0","null","null","arrowup","[0.675,0.325,0.85,0.15]","","",""
"sailing-trial","271","1045004","0.0-11.0-230.0","","","","false","","","","","","","","","","534.5","","359.20000000018626","","2","1","arrowright","1","arrowleft","[0.85,0.15,0.675,0.325]","","",""
"sailing-trial","272","1046776","0.0-11.0-231.0","","","","false","","","","","","","","","","null","","674.4000000003725","","3","0","null","null","arrowup","[0.85,0.15,0.675,0.325]","","",""
"sailing-trial","273","1050439","0.0-11.0-232.0","","","","false","","","","","","","","","","911.8000000002794","","115.8000000002794","","1","1","arrowleft","0","arrowright","[0.85,0.15,0.675,0.325]","","",""
"sailing-trial","274","1052247","0.0-11.0-233.0","","","","false","","","","","","","","","","null","","686.5","","2","0","null","null","arrowup","[0.85,0.15,0.675,0.325]","","",""
"sailing-trial","275","1055370","0.0-11.0-234.0","","","","false","","","","","","","","","","494.3000000002794","","90.39999999990687","","2","1","arrowright","1","arrowleft","[0.85,0.15,0.675,0.325]","","",""
"sailing-trial","276","1058140","0.0-11.0-235.0","","","","false","","","","","","","","","","null","","1053.7999999998137","","0","1","null","null","arrowup","[0.85,0.15,0.675,0.325]","","",""
"sailing-trial","277","1062252","0.0-11.0-236.0","","","","false","","","","","","","","","","834.0999999996275","","386.10000000009313","","2","1","arrowright","1","arrowleft","[0.85,0.15,0.675,0.325]","","",""
"sailing-trial","278","1066358","0.0-11.0-237.0","","","","false","","","","","","","","","","null","","1087.6000000000931","","1","0","null","null","arrowup","[0.85,0.15,0.675,0.325]","","",""
"sailing-trial","279","1070756","0.0-11.0-238.0","","","","false","","","","","","","","","","829","","279.89999999990687","","1","0","arrowleft","0","arrowright","[0.85,0.15,0.675,0.325]","","",""
"sailing-trial","280","1072807","0.0-11.0-239.0","","","","false","","","","","","","","","","null","","992.2000000001863","","1","0","null","null","arrowup","[0.85,0.15,0.675,0.325]","","",""
"sailing-trial","281","1076219","0.0-11.0-240.0","","","","false","","","","","","","","","","543.3000000002794","","99.20000000018626","","2","1","arrowright","1","arrowleft","[0.85,0.15,0.675,0.325]","","",""
"sailing-trial","282","1080687","0.0-11.0-241.0","","","","false","","","","","","","","","","null","","1458.1000000000931","","3","0","null","null","arrowup","[0.85,0.15,0.675,0.325]","","",""
"sailing-trial","283","1083712","0.0-11.0-242.0","","","","false","","","","","","","","","","496.89999999990687","","432.89999999990687","","1","0","arrowleft","0","arrowright","[0.85,0.15,0.675,0.325]","","",""
"sailing-trial","284","1086436","0.0-11.0-243.0","","","","false","","","","","","","","","","null","","1085","","2","1","null","null","arrowup","[0.85,0.15,0.675,0.325]","","",""
"sailing-trial","285","1089516","0.0-11.0-244.0","","","","false","","","","","","","","","","621.3000000002794","","195.10000000009313","","0","0","arrowleft","0","arrowleft","[0.85,0.15,0.675,0.325]","","",""
"sailing-trial","286","1092102","0.0-11.0-245.0","","","","false","","","","","","","","","","null","","973.8999999999069","","2","1","null","null","arrowup","[0.85,0.15,0.675,0.325]","","",""
"sailing-trial","287","1095298","0.0-11.0-246.0","","","","false","","","","","","","","","","623.2999999998137","","310.1999999997206","","1","0","arrowleft","0","arrowright","[0.85,0.15,0.675,0.325]","","",""
"sailing-trial","288","1098238","0.0-11.0-247.0","","","","false","","","","","","","","","","null","","1202.4000000003725","","1","0","null","null","arrowup","[0.85,0.15,0.675,0.325]","","",""
"sailing-trial","289","1101934","0.0-11.0-248.0","","","","false","","","","","","","","","","721.7999999998137","","301.79999999981374","","2","0","arrowright","1","arrowleft","[0.85,0.15,0.675,0.325]","","",""
"sailing-trial","290","1105733","0.0-11.0-249.0","","","","false","","","","","","","","","","null","","966.6999999997206","","1","0","null","null","arrowup","[0.85,0.15,0.675,0.325]","","",""
"sailing-trial","291","1110180","0.0-11.0-250.0","","","","false","","","","","","","","","","535.4000000003725","","326.09999999962747","","3","0","arrowright","1","arrowright","[0.675,0.325,0.85,0.15]","","",""
"sailing-trial","292","1112252","0.0-11.0-251.0","","","","false","","","","","","","","","","null","","478.89999999990687","","3","0","null","null","arrowup","[0.675,0.325,0.85,0.15]","","",""
"sailing-trial","293","1116229","0.0-11.0-252.0","","","","false","","","","","","","","","","625.6000000000931","","91.20000000018626","","1","0","arrowleft","0","arrowright","[0.675,0.325,0.85,0.15]","","",""
"sailing-trial","294","1118085","0.0-11.0-253.0","","","","false","","","","","","","","","","null","","596.2000000001863","","0","0","null","null","arrowup","[0.675,0.325,0.85,0.15]","","",""
"sailing-trial","295","1123015","0.0-11.0-254.0","","","","false","","","","","","","","","","1040.2000000001863","","712.5","","1","1","arrowleft","0","arrowright","[0.675,0.325,0.85,0.15]","","",""
"sailing-trial","296","1125109","0.0-11.0-255.0","","","","false","","","","","","","","","","null","","1031.7999999998137","","0","0","null","null","arrowup","[0.675,0.325,0.85,0.15]","","",""
"sailing-trial","297","1128816","0.0-11.0-256.0","","","","false","","","","","","","","","","742.8999999999069","","28.700000000186265","","1","1","arrowleft","0","arrowright","[0.675,0.325,0.85,0.15]","","",""
"sailing-trial","298","1132183","0.0-11.0-257.0","","","","false","","","","","","","","","","null","","1403.3999999999069","","3","1","null","null","arrowup","[0.675,0.325,0.85,0.15]","","",""
"sailing-trial","299","1135711","0.0-11.0-258.0","","","","false","","","","","","","","","","757.8999999999069","","242.89999999990687","","1","0","arrowleft","0","arrowright","[0.675,0.325,0.85,0.15]","","",""
"sailing-trial","300","1137384","0.0-11.0-259.0","","","","false","","","","","","","","","","null","","559.6000000000931","","1","0","null","null","arrowup","[0.675,0.325,0.85,0.15]","","",""
"sailing-trial","301","1140292","0.0-11.0-260.0","","","","false","","","","","","","","","","451","","68.3000000002794","","3","0","arrowright","1","arrowright","[0.675,0.325,0.85,0.15]","","",""
"sailing-trial","302","1142865","0.0-11.0-261.0","","","","false","","","","","","","","","","null","","898.1000000000931","","3","1","null","null","arrowup","[0.675,0.325,0.85,0.15]","","",""
"sailing-trial","303","1146134","0.0-11.0-262.0","","","","false","","","","","","","","","","409.10000000009313","","131.79999999981374","","3","1","arrowright","1","arrowright","[0.675,0.325,0.85,0.15]","","",""
"sailing-trial","304","1149530","0.0-11.0-263.0","","","","false","","","","","","","","","","null","","1629.7999999998137","","0","1","null","null","arrowup","[0.675,0.325,0.85,0.15]","","",""
"sailing-trial","305","1153731","0.0-11.0-264.0","","","","false","","","","","","","","","","559.7000000001863","","196.89999999990687","","3","0","arrowright","1","arrowright","[0.675,0.325,0.85,0.15]","","",""
"sailing-trial","306","1156132","0.0-11.0-265.0","","","","false","","","","","","","","","","null","","944.7000000001863","","1","0","null","null","arrowup","[0.675,0.325,0.85,0.15]","","",""
"sailing-trial","307","1159243","0.0-11.0-266.0","","","","false","","","","","","","","","","731","","150.29999999981374","","3","0","arrowright","1","arrowright","[0.675,0.325,0.85,0.15]","","",""
"sailing-trial","308","1161140","0.0-11.0-267.0","","","","false","","","","","","","","","","null","","702.7999999998137","","1","0","null","null","arrowup","[0.675,0.325,0.85,0.15]","","",""
"sailing-trial","309","1164346","0.0-11.0-268.0","","","","false","","","","","","","","","","620.6999999997206","","301.6999999997206","","3","0","arrowright","1","arrowright","[0.675,0.325,0.85,0.15]","","",""
"sailing-trial","310","1168116","0.0-11.0-269.0","","","","false","","","","","","","","","","null","","2199.8000000002794","","2","1","null","null","arrowup","[0.675,0.325,0.85,0.15]","","",""
"sailing-trial","311","1172249","0.0-11.0-270.0","","","","false","","","","","","","","","","1170.1999999997206","","438","","0","1","arrowleft","0","arrowleft","[0.85,0.15,0.675,0.325]","","",""
"sailing-trial","312","1176249","0.0-11.0-271.0","","","","false","","","","","","","","","","null","","1000.2000000001863","","3","0","null","null","arrowup","[0.85,0.15,0.675,0.325]","","",""
"sailing-trial","313","1179791","0.0-11.0-272.0","","","","false","","","","","","","","","","719.5","","81.39999999990687","","1","0","arrowleft","0","arrowright","[0.85,0.15,0.675,0.325]","","",""
"sailing-trial","314","1181707","0.0-11.0-273.0","","","","false","","","","","","","","","","null","","735.5999999996275","","0","0","null","null","arrowup","[0.85,0.15,0.675,0.325]","","",""
"sailing-trial","315","1184650","0.0-11.0-274.0","","","","false","","","","","","","","","","542.8999999999069","","60.89999999990687","","2","0","arrowright","1","arrowleft","[0.85,0.15,0.675,0.325]","","",""
"sailing-trial","316","1187797","0.0-11.0-275.0","","","","false","","","","","","","","","","null","","1279.1999999997206","","2","1","null","null","arrowup","[0.85,0.15,0.675,0.325]","","",""
"sailing-trial","317","1192495","0.0-11.0-276.0","","","","false","","","","","","","","","","881.6000000000931","","528","","0","1","arrowleft","0","arrowleft","[0.85,0.15,0.675,0.325]","","",""
"sailing-trial","318","1194744","0.0-11.0-277.0","","","","false","","","","","","","","","","null","","790.5","","3","0","null","null","arrowup","[0.85,0.15,0.675,0.325]","","",""
"sailing-trial","319","1198145","0.0-11.0-278.0","","","","false","","","","","","","","","","598","","262.59999999962747","","2","1","arrowright","1","arrowleft","[0.85,0.15,0.675,0.325]","","",""
"sailing-trial","320","1199992","0.0-11.0-279.0","","","","false","","","","","","","","","","null","","805.1999999997206","","0","0","null","null","arrowup","[0.85,0.15,0.675,0.325]","","",""
"sailing-trial","321","1204044","0.0-11.0-280.0","","","","false","","","","","","","","","","665.5999999996275","","81.29999999981374","","2","1","arrowright","1","arrowleft","[0.85,0.15,0.675,0.325]","","",""
"sailing-trial","322","1206846","0.0-11.0-281.0","","","","false","","","","","","","","","","null","","1195.1000000000931","","1","1","null","null","arrowup","[0.85,0.15,0.675,0.325]","","",""
"sailing-trial","323","1211252","0.0-11.0-282.0","","","","false","","","","","","","","","","524.6000000000931","","291.60000000009313","","2","0","arrowright","1","arrowleft","[0.85,0.15,0.675,0.325]","","",""
"sailing-trial","324","1215147","0.0-11.0-283.0","","","","false","","","","","","","","","","null","","895.3999999999069","","1","0","null","null","arrowup","[0.85,0.15,0.675,0.325]","","",""
"sailing-trial","325","1218218","0.0-11.0-284.0","","","","false","","","","","","","","","","648","","276.8000000002794","","1","0","arrowleft","0","arrowright","[0.85,0.15,0.675,0.325]","","",""
"sailing-trial","326","1220530","0.0-11.0-285.0","","","","false","","","","","","","","","","null","","711.5","","0","1","null","null","arrowup","[0.85,0.15,0.675,0.325]","","",""
"sailing-trial","327","1223514","0.0-11.0-286.0","","","","false","","","","","","","","","","713.5","","141.79999999981374","","0","0","arrowleft","0","arrowleft","[0.85,0.15,0.675,0.325]","","",""
"sailing-trial","328","1225422","0.0-11.0-287.0","","","","false","","","","","","","","","","null","","889.4000000003725","","1","0","null","null","arrowup","[0.85,0.15,0.675,0.325]","","",""
"sailing-trial","329","1228244","0.0-11.0-288.0","","","","false","","","","","","","","","","624.3000000002794","","120.70000000018626","","1","0","arrowleft","0","arrowright","[0.15,0.85,0.325,0.675]","","",""
"sailing-trial","330","1230540","0.0-11.0-289.0","","","","false","","","","","","","","","","null","","792.7999999998137","","0","0","null","null","arrowup","[0.15,0.85,0.325,0.675]","","",""
"sailing-trial","331","1236155","0.0-11.0-290.0","","","","false","","","","","","","","","","2994","","476.3000000002794","","0","0","arrowleft","0","arrowleft","[0.15,0.85,0.325,0.675]","","",""
"sailing-trial","332","1238069","0.0-11.0-291.0","","","","false","","","","","","","","","","null","","907.3999999999069","","0","0","null","null","arrowup","[0.15,0.85,0.325,0.675]","","",""
"sailing-trial","333","1241866","0.0-11.0-292.0","","","","false","","","","","","","","","","710.2000000001863","","109.70000000018626","","0","0","arrowleft","0","arrowleft","[0.15,0.85,0.325,0.675]","","",""
"sailing-trial","334","1243769","0.0-11.0-293.0","","","","false","","","","","","","","","","null","","877.2000000001863","","0","0","null","null","arrowup","[0.15,0.85,0.325,0.675]","","",""
"sailing-trial","335","1247495","0.0-11.0-294.0","","","","false","","","","","","","","","","587.1999999997206","","220.39999999990687","","3","1","arrowright","1","arrowright","[0.15,0.85,0.325,0.675]","","",""
"sailing-trial","336","1250689","0.0-11.0-295.0","","","","false","","","","","","","","","","null","","1061.2999999998137","","2","0","null","null","arrowup","[0.15,0.85,0.325,0.675]","","",""
"sailing-trial","337","1253610","0.0-11.0-296.0","","","","false","","","","","","","","","","503.40000000037253","","132","","0","0","arrowleft","0","arrowleft","[0.15,0.85,0.325,0.675]","","",""
"sailing-trial","338","1255695","0.0-11.0-297.0","","","","false","","","","","","","","","","null","","549.7000000001863","","3","1","null","null","arrowup","[0.15,0.85,0.325,0.675]","","",""
"sailing-trial","339","1259192","0.0-11.0-298.0","","","","false","","","","","","","","","","561","","68","","1","1","arrowleft","0","arrowright","[0.15,0.85,0.325,0.675]","","",""
"sailing-trial","340","1261016","0.0-11.0-299.0","","","","false","","","","","","","","","","null","","747.6999999997206","","3","0","null","null","arrowup","[0.15,0.85,0.325,0.675]","","",""
"sailing-trial","341","1264232","0.0-11.0-300.0","","","","false","","","","","","","","","","732.1000000000931","","413.89999999990687","","2","0","arrowright","1","arrowleft","[0.15,0.85,0.325,0.675]","","",""
"sailing-trial","342","1266747","0.0-11.0-301.0","","","","false","","","","","","","","","","null","","638.6000000000931","","1","0","null","null","arrowup","[0.15,0.85,0.325,0.675]","","",""
"sailing-trial","343","1269317","0.0-11.0-302.0","","","","false","","","","","","","","","","342.10000000009313","","152.3000000002794","","0","0","arrowleft","0","arrowleft","[0.15,0.85,0.325,0.675]","","",""
"sailing-trial","344","1272175","0.0-11.0-303.0","","","","false","","","","","","","","","","null","","1160.6000000000931","","2","1","null","null","arrowup","[0.15,0.85,0.325,0.675]","","",""
"sailing-trial","345","1275829","0.0-11.0-304.0","","","","false","","","","","","","","","","682.8999999999069","","41.60000000009313","","2","0","arrowright","1","arrowleft","[0.15,0.85,0.325,0.675]","","",""
"sailing-trial","346","1278649","0.0-11.0-305.0","","","","false","","","","","","","","","","null","","1756.7999999998137","","3","0","null","null","arrowup","[0.15,0.85,0.325,0.675]","","",""
"sailing-trial","347","1283077","0.0-11.0-306.0","","","","false","","","","","","","","","","979.2000000001863","","394.79999999981374","","0","1","arrowleft","0","arrowleft","[0.675,0.325,0.85,0.15]","","",""
"sailing-trial","348","1286241","0.0-11.0-307.0","","","","false","","","","","","","","","","null","","1903","","3","0","null","null","arrowup","[0.675,0.325,0.85,0.15]","","",""
"sailing-trial","349","1289491","0.0-11.0-308.0","","","","false","","","","","","","","","","938.3999999999069","","104.70000000018626","","1","0","arrowleft","0","arrowright","[0.675,0.325,0.85,0.15]","","",""
"sailing-trial","350","1291568","0.0-11.0-309.0","","","","false","","","","","","","","","","null","","958.5","","3","0","null","null","arrowup","[0.675,0.325,0.85,0.15]","","",""
"sailing-trial","351","1294993","0.0-11.0-310.0","","","","false","","","","","","","","","","561.1999999997206","","171.89999999990687","","0","1","arrowleft","0","arrowleft","[0.675,0.325,0.85,0.15]","","",""
"sailing-trial","352","1297359","0.0-11.0-311.0","","","","false","","","","","","","","","","null","","735.5","","1","1","null","null","arrowup","[0.675,0.325,0.85,0.15]","","",""
"sailing-trial","353","1300810","0.0-11.0-312.0","","","","false","","","","","","","","","","628.5999999996275","","143.5","","0","1","arrowleft","0","arrowleft","[0.675,0.325,0.85,0.15]","","",""
"sailing-trial","354","1302504","0.0-11.0-313.0","","","","false","","","","","","","","","","null","","656.8000000002794","","3","0","null","null","arrowup","[0.675,0.325,0.85,0.15]","","",""
"sailing-trial","355","1305519","0.0-11.0-314.0","","","","false","","","","","","","","","","545.2999999998137","","210.10000000009313","","0","0","arrowleft","0","arrowleft","[0.675,0.325,0.85,0.15]","","",""
"sailing-trial","356","1307875","0.0-11.0-315.0","","","","false","","","","","","","","","","null","","821.8000000002794","","2","1","null","null","arrowup","[0.675,0.325,0.85,0.15]","","",""
"sailing-trial","357","1310763","0.0-11.0-316.0","","","","false","","","","","","","","","","691.8999999999069","","96.39999999990687","","2","0","arrowright","1","arrowleft","[0.675,0.325,0.85,0.15]","","",""
"sailing-trial","358","1313072","0.0-11.0-317.0","","","","false","","","","","","","","","","null","","751.6000000000931","","3","1","null","null","arrowup","[0.675,0.325,0.85,0.15]","","",""
"sailing-trial","359","1316890","0.0-11.0-318.0","","","","false","","","","","","","","","","524.6000000000931","","513.8999999999069","","0","1","arrowleft","0","arrowleft","[0.675,0.325,0.85,0.15]","","",""
"sailing-trial","360","1318645","0.0-11.0-319.0","","","","false","","","","","","","","","","null","","716.6000000000931","","1","0","null","null","arrowup","[0.675,0.325,0.85,0.15]","","",""
"sailing-trial","361","1322391","0.0-11.0-320.0","","","","false","","","","","","","","","","540.3999999999069","","256.29999999981374","","2","1","arrowright","1","arrowleft","[0.675,0.325,0.85,0.15]","","",""
"sailing-trial","362","1324909","0.0-11.0-321.0","","","","false","","","","","","","","","","null","","1466.1999999997206","","1","0","null","null","arrowup","[0.675,0.325,0.85,0.15]","","",""
"sailing-trial","363","1327787","0.0-11.0-322.0","","","","false","","","","","","","","","","600","","193.5","","3","0","arrowright","1","arrowright","[0.675,0.325,0.85,0.15]","","",""
"sailing-trial","364","1329653","0.0-11.0-323.0","","","","false","","","","","","","","","","null","","810.8999999999069","","3","0","null","null","arrowup","[0.675,0.325,0.85,0.15]","","",""
"sailing-trial","365","1333139","0.0-11.0-324.0","","","","false","","","","","","","","","","640.5","","85.89999999990687","","3","1","arrowright","1","arrowright","[0.85,0.15,0.675,0.325]","","",""
"sailing-trial","366","1335618","0.0-11.0-325.0","","","","false","","","","","","","","","","null","","1226.8999999999069","","3","0","null","null","arrowup","[0.85,0.15,0.675,0.325]","","",""
"sailing-trial","367","1340040","0.0-11.0-326.0","","","","false","","","","","","","","","","629.3000000002794","","849.9000000003725","","0","1","arrowleft","0","arrowleft","[0.85,0.15,0.675,0.325]","","",""
"sailing-trial","368","1342803","0.0-11.0-327.0","","","","false","","","","","","","","","","null","","1321.2999999998137","","2","0","null","null","arrowup","[0.85,0.15,0.675,0.325]","","",""
"sailing-trial","369","1347057","0.0-11.0-328.0","","","","false","","","","","","","","","","937.1000000000931","","514.8999999999069","","2","1","arrowright","1","arrowleft","[0.85,0.15,0.675,0.325]","","",""
"sailing-trial","370","1349223","0.0-11.0-329.0","","","","false","","","","","","","","","","null","","629","","3","1","null","null","arrowup","[0.85,0.15,0.675,0.325]","","",""
"sailing-trial","371","1351862","0.0-11.0-330.0","","","","false","","","","","","","","","","498.20000000018626","","138.3000000002794","","0","0","arrowleft","0","arrowleft","[0.85,0.15,0.675,0.325]","","",""
"sailing-trial","372","1354104","0.0-11.0-331.0","","","","false","","","","","","","","","","null","","683.1000000000931","","2","1","null","null","arrowup","[0.85,0.15,0.675,0.325]","","",""
"sailing-trial","373","1357587","0.0-11.0-332.0","","","","false","","","","","","","","","","537","","399.39999999990687","","3","1","arrowright","1","arrowright","[0.85,0.15,0.675,0.325]","","",""
"sailing-trial","374","1360403","0.0-11.0-333.0","","","","false","","","","","","","","","","null","","785.3999999999069","","0","1","null","null","arrowup","[0.85,0.15,0.675,0.325]","","",""
"sailing-trial","375","1363507","0.0-11.0-334.0","","","","false","","","","","","","","","","655.1000000000931","","313.20000000018626","","0","0","arrowleft","0","arrowleft","[0.85,0.15,0.675,0.325]","","",""
"sailing-trial","376","1365605","0.0-11.0-335.0","","","","false","","","","","","","","","","null","","687.6000000000931","","2","0","null","null","arrowup","[0.85,0.15,0.675,0.325]","","",""
"sailing-trial","377","1368175","0.0-11.0-336.0","","","","false","","","","","","","","","","525.1000000000931","","34.299999999813735","","3","0","arrowright","1","arrowright","[0.85,0.15,0.675,0.325]","","",""
"sailing-trial","378","1370469","0.0-11.0-337.0","","","","false","","","","","","","","","","null","","574.7999999998137","","2","0","null","null","arrowup","[0.85,0.15,0.675,0.325]","","",""
"sailing-trial","379","1373336","0.0-11.0-338.0","","","","false","","","","","","","","","","721.5","","83.3000000002794","","3","0","arrowright","1","arrowright","[0.85,0.15,0.675,0.325]","","",""
"sailing-trial","380","1383301","0.0-11.0-339.0","","","","false","","","","","","","","","","null","","8285.799999999814","","0","1","null","null","arrowup","[0.85,0.15,0.675,0.325]","","",""
"sailing-trial","381","1387019","0.0-11.0-340.0","","","","false","","","","","","","","","","619.5","","303.5","","3","1","arrowright","1","arrowright","[0.15,0.85,0.325,0.675]","","",""
"sailing-trial","382","1389753","0.0-11.0-341.0","","","","false","","","","","","","","","","null","","846.1999999997206","","3","1","null","null","arrowup","[0.15,0.85,0.325,0.675]","","",""
"sailing-trial","383","1393186","0.0-11.0-342.0","","","","false","","","","","","","","","","627.8000000002794","","63.6999999997206","","3","1","arrowright","1","arrowright","[0.15,0.85,0.325,0.675]","","",""
"sailing-trial","384","1395603","0.0-11.0-343.0","","","","false","","","","","","","","","","null","","586.5","","0","1","null","null","arrowup","[0.15,0.85,0.325,0.675]","","",""
"sailing-trial","385","1399086","0.0-11.0-344.0","","","","false","","","","","","","","","","564.4000000003725","","10.200000000186265","","3","1","arrowright","1","arrowright","[0.15,0.85,0.325,0.675]","","",""
"sailing-trial","386","1400685","0.0-11.0-345.0","","","","false","","","","","","","","","","null","","532.3000000002794","","2","0","null","null","arrowup","[0.15,0.85,0.325,0.675]","","",""
"sailing-trial","387","1403557","0.0-11.0-346.0","","","","false","","","","","","","","","","358","","455.40000000037253","","3","0","arrowright","1","arrowright","[0.15,0.85,0.325,0.675]","","",""
"sailing-trial","388","1406072","0.0-11.0-347.0","","","","false","","","","","","","","","","null","","568.3999999999069","","2","1","null","null","arrowup","[0.15,0.85,0.325,0.675]","","",""
"sailing-trial","389","1409503","0.0-11.0-348.0","","","","false","","","","","","","","","","207.29999999981374","","348.10000000009313","","3","1","arrowright","1","arrowright","[0.15,0.85,0.325,0.675]","","",""
"sailing-trial","390","1413342","0.0-11.0-349.0","","","","false","","","","","","","","","","null","","919.2999999998137","","0","0","null","null","arrowup","[0.15,0.85,0.325,0.675]","","",""
"sailing-trial","391","1416521","0.0-11.0-350.0","","","","false","","","","","","","","","","620.6000000000931","","385.8000000002794","","0","0","arrowleft","0","arrowleft","[0.15,0.85,0.325,0.675]","","",""
"sailing-trial","392","1419085","0.0-11.0-351.0","","","","false","","","","","","","","","","null","","816.6000000000931","","2","1","null","null","arrowup","[0.15,0.85,0.325,0.675]","","",""
"sailing-trial","393","1422535","0.0-11.0-352.0","","","","false","","","","","","","","","","341.10000000009313","","250.10000000009313","","2","1","arrowright","1","arrowleft","[0.15,0.85,0.325,0.675]","","",""
"sailing-trial","394","1424696","0.0-11.0-353.0","","","","false","","","","","","","","","","null","","1086.2999999998137","","3","0","null","null","arrowup","[0.15,0.85,0.325,0.675]","","",""
"sailing-trial","395","1428050","0.0-11.0-354.0","","","","false","","","","","","","","","","571.8999999999069","","266.5","","1","1","arrowleft","0","arrowright","[0.15,0.85,0.325,0.675]","","",""
"sailing-trial","396","1429972","0.0-11.0-355.0","","","","false","","","","","","","","","","null","","849.5","","3","0","null","null","arrowup","[0.15,0.85,0.325,0.675]","","",""
"sailing-trial","397","1433701","0.0-11.0-356.0","","","","false","","","","","","","","","","593.8999999999069","","383.1999999997206","","2","1","arrowright","1","arrowleft","[0.15,0.85,0.325,0.675]","","",""
"sailing-trial","398","1435832","0.0-11.0-357.0","","","","false","","","","","","","","","","null","","856.1000000000931","","2","0","null","null","arrowup","[0.15,0.85,0.325,0.675]","","",""
"sailing-trial","399","1438477","0.0-11.0-358.0","","","","false","","","","","","","","","","527","","25","","0","0","arrowleft","0","arrowleft","[0.15,0.85,0.325,0.675]","","",""
"sailing-trial","400","1440684","0.0-11.0-359.0","","","","false","","","","","","","","","","null","","594.6000000000931","","3","1","null","null","arrowup","[0.15,0.85,0.325,0.675]","","",""
"sailing-trial","401","1443543","0.0-11.0-360.0","","","","false","","","","","","","","","","450","","390.29999999981374","","2","0","arrowright","1","arrowleft","[0.15,0.85,0.325,0.675]","","",""
"sailing-trial","402","1445233","0.0-11.0-361.0","","","","false","","","","","","","","","","null","","650","","0","0","null","null","arrowup","[0.15,0.85,0.325,0.675]","","",""
"sailing-trial","403","1448213","0.0-11.0-362.0","","","","false","","","","","","","","","","501.09999999962747","","37.39999999990687","","3","0","arrowright","1","arrowright","[0.325,0.675,0.15,0.85]","","",""
"sailing-trial","404","1449571","0.0-11.0-363.0","","","","false","","","","","","","","","","null","","100.90000000037253","","1","0","null","null","arrowup","[0.325,0.675,0.15,0.85]","","",""
"sailing-trial","405","1452530","0.0-11.0-364.0","","","","false","","","","","","","","","","477.20000000018626","","362.90000000037253","","0","0","arrowleft","0","arrowleft","[0.325,0.675,0.15,0.85]","","",""
"sailing-trial","406","1454195","0.0-11.0-365.0","","","","false","","","","","","","","","","null","","537.6999999997206","","3","0","null","null","arrowup","[0.325,0.675,0.15,0.85]","","",""
"sailing-trial","407","1457466","0.0-11.0-366.0","","","","false","","","","","","","","","","639.1000000000931","","5.800000000279397","","1","1","arrowleft","0","arrowright","[0.325,0.675,0.15,0.85]","","",""
"sailing-trial","408","1460647","0.0-11.0-367.0","","","","false","","","","","","","","","","null","","1977.5","","2","0","null","null","arrowup","[0.325,0.675,0.15,0.85]","","",""
"sailing-trial","409","1464051","0.0-11.0-368.0","","","","false","","","","","","","","","","591.8999999999069","","96.20000000018626","","0","1","arrowleft","0","arrowleft","[0.325,0.675,0.15,0.85]","","",""
"sailing-trial","410","1465931","0.0-11.0-369.0","","","","false","","","","","","","","","","null","","763.9000000003725","","2","0","null","null","arrowup","[0.325,0.675,0.15,0.85]","","",""
"sailing-trial","411","1468698","0.0-11.0-370.0","","","","false","","","","","","","","","","575.1999999997206","","170.20000000018626","","0","0","arrowleft","0","arrowleft","[0.325,0.675,0.15,0.85]","","",""
"sailing-trial","412","1471481","0.0-11.0-371.0","","","","false","","","","","","","","","","null","","883.5","","3","1","null","null","arrowup","[0.325,0.675,0.15,0.85]","","",""
"sailing-trial","413","1474881","0.0-11.0-372.0","","","","false","","","","","","","","","","804.3000000002794","","71.5","","1","1","arrowleft","0","arrowright","[0.325,0.675,0.15,0.85]","","",""
"sailing-trial","414","1478360","0.0-11.0-373.0","","","","false","","","","","","","","","","null","","932.2000000001863","","3","0","null","null","arrowup","[0.325,0.675,0.15,0.85]","","",""
"sailing-trial","415","1481212","0.0-11.0-374.0","","","","false","","","","","","","","","","544.2000000001863","","17.5","","0","0","arrowleft","0","arrowleft","[0.325,0.675,0.15,0.85]","","",""
"sailing-trial","416","1482873","0.0-11.0-375.0","","","","false","","","","","","","","","","null","","592.8000000002794","","2","0","null","null","arrowup","[0.325,0.675,0.15,0.85]","","",""
"sailing-trial","417","1485702","0.0-11.0-376.0","","","","false","","","","","","","","","","620.5999999996275","","195.39999999990687","","2","0","arrowright","1","arrowleft","[0.325,0.675,0.15,0.85]","","",""
"sailing-trial","418","1487680","0.0-11.0-377.0","","","","false","","","","","","","","","","null","","940","","1","0","null","null","arrowup","[0.325,0.675,0.15,0.85]","","",""
"sailing-trial","419","1491697","0.0-11.0-378.0","","","","false","","","","","","","","","","898.8999999999069","","299.60000000009313","","2","1","arrowright","1","arrowleft","[0.325,0.675,0.15,0.85]","","",""
"sailing-trial","420","1493927","0.0-11.0-379.0","","","","false","","","","","","","","","","null","","875.1999999997206","","2","0","null","null","arrowup","[0.325,0.675,0.15,0.85]","","",""
"sailing-trial","421","1497561","0.0-11.0-380.0","","","","false","","","","","","","","","","603.8999999999069","","697.1000000000931","","2","0","arrowright","1","arrowleft","[0.15,0.85,0.325,0.675]","","",""
"sailing-trial","422","1500148","0.0-11.0-381.0","","","","false","","","","","","","","","","null","","1022.3999999999069","","1","1","null","null","arrowup","[0.15,0.85,0.325,0.675]","","",""
"sailing-trial","423","1503141","0.0-11.0-382.0","","","","false","","","","","","","","","","611.7999999998137","","87.70000000018626","","0","0","arrowleft","0","arrowleft","[0.15,0.85,0.325,0.675]","","",""
"sailing-trial","424","1505331","0.0-11.0-383.0","","","","false","","","","","","","","","","null","","609.4000000003725","","3","1","null","null","arrowup","[0.15,0.85,0.325,0.675]","","",""
"sailing-trial","425","1508145","0.0-11.0-384.0","","","","false","","","","","","","","","","454.5","","105.39999999990687","","2","0","arrowright","1","arrowleft","[0.15,0.85,0.325,0.675]","","",""
"sailing-trial","426","1510548","0.0-11.0-385.0","","","","false","","","","","","","","","","null","","591.2999999998137","","1","1","null","null","arrowup","[0.15,0.85,0.325,0.675]","","",""
"sailing-trial","427","1512895","0.0-11.0-386.0","","","","false","","","","","","","","","","277.70000000018626","","15.800000000279397","","3","0","arrowright","1","arrowright","[0.15,0.85,0.325,0.675]","","",""
"sailing-trial","428","1514636","0.0-11.0-387.0","","","","false","","","","","","","","","","null","","595.5999999996275","","0","0","null","null","arrowup","[0.15,0.85,0.325,0.675]","","",""
"sailing-trial","429","1517596","0.0-11.0-388.0","","","","false","","","","","","","","","","587.1000000000931","","165.90000000037253","","0","0","arrowleft","0","arrowleft","[0.15,0.85,0.325,0.675]","","",""
"sailing-trial","430","1519483","0.0-11.0-389.0","","","","false","","","","","","","","","","null","","627.0999999996275","","3","0","null","null","arrowup","[0.15,0.85,0.325,0.675]","","",""
"sailing-trial","431","1522466","0.0-11.0-390.0","","","","false","","","","","","","","","","564.5","","49.8000000002794","","1","0","arrowleft","0","arrowright","[0.15,0.85,0.325,0.675]","","",""
"sailing-trial","432","1524214","0.0-11.0-391.0","","","","false","","","","","","","","","","null","","582.7000000001863","","2","0","null","null","arrowup","[0.15,0.85,0.325,0.675]","","",""
"sailing-trial","433","1527297","0.0-11.0-392.0","","","","false","","","","","","","","","","378.60000000009313","","55.200000000186265","","3","1","arrowright","1","arrowright","[0.15,0.85,0.325,0.675]","","",""
"sailing-trial","434","1528907","0.0-11.0-393.0","","","","false","","","","","","","","","","null","","531.7000000001863","","0","0","null","null","arrowup","[0.15,0.85,0.325,0.675]","","",""
"sailing-trial","435","1532347","0.0-11.0-394.0","","","","false","","","","","","","","","","625.1999999997206","","65.3000000002794","","2","1","arrowright","1","arrowleft","[0.15,0.85,0.325,0.675]","","",""
"sailing-trial","436","1534114","0.0-11.0-395.0","","","","false","","","","","","","","","","null","","510.8000000002794","","0","0","null","null","arrowup","[0.15,0.85,0.325,0.675]","","",""
"sailing-trial","437","1537130","0.0-11.0-396.0","","","","false","","","","","","","","","","609.6000000000931","","74.79999999981374","","2","0","arrowright","1","arrowleft","[0.15,0.85,0.325,0.675]","","",""
"sailing-trial","438","1540099","0.0-11.0-397.0","","","","false","","","","","","","","","","null","","416.70000000018626","","3","0","null","null","arrowup","[0.15,0.85,0.325,0.675]","","",""
"sailing-trial","439","1543227","0.0-11.0-398.0","","","","false","","","","","","","","","","456.10000000009313","","299.60000000009313","","2","0","arrowright","1","arrowleft","[0.15,0.85,0.325,0.675]","","",""
"sailing-trial","440","1545265","0.0-11.0-399.0","","","","false","","","","","","","","","","null","","574","","1","0","null","null","arrowup","[0.15,0.85,0.325,0.675]","","",""
"instructions","441","1547912","0.0-12.0","","","","","","","","","","2646.100000000093","","","","","","","","","","","","","","","","[{""page_index"":0,""viewing_time"":2645}]"
"survey-debrief","442","1569107","0.0-13.0","","","","","","","","","","21192","","","","","","","","","","","","","","{""difficulty"":""5"",""fun"":""3"",""clarity"":""5"",""strategy"":""Sometimes I followed a trend but since the patterns changed it was harder."",""feedback"":""""}","",""
