"trial_type","trial_index","time_elapsed","internal_node_id","value","metadata","success","timeout","failed_images","failed_audio","failed_video","browser_interaction","low_quality","rt","stimulus","response","button_pressed","island_rt","island_response","boat_rt","boat_response","boat","reward","island_key","island","boat_key","reward_probabilities","responses","num_errors","view_history"
"pavlovia","0","6","0.0-0.0","","","","","","","","","","","","","","","","","","","","","","","","","",""
"call-function","1","7","0.0-1.0","","{""task_version"":""sailing_part1_v1"",""task_condition"":""good"",""boats"":[""A"",""D"",""C"",""B""],""boats_demo"":[""H"",""F"",""E"",""G""],""islands"":[""A"",""B""],""subject_id"":""13914"",""age"":""15"",""gender"":""Female""}","","","","","","","","","","","","","","","","","","","","","","","",""
"preload","2","1474","0.0-2.0","","","true","false","[]","[]","[]","[{""event"":""fullscreenenter"",""trial"":3,""time"":2881}]","false","","","","","","","","","","","","","","","","",""
"fullscreen","3","3840","0.0-3.0","","","true","","","","","","","","","","","","","","","","","","","","","","",""
"audio-keyboard-response","4","4986","0.0-4.0-0.0","","","","","","","","","","0","audio/beep_loop.wav"," ","","","","","","","","","","","","","",""
"audio-test","5","6569","0.0-4.0-1.0","","","","","","","","","","null","audio/turtle.mp3","","3","","","","","","","","","","","","",""
"audio-test","6","9019","0.0-4.0-2.0","","","","","","","","","","null","audio/shark.mp3","","2","","","","","","","","","","","","",""
"sailing-instructions","7","39120","0.0-5.0-0.0-0.0","","","","","","","","","","","","","","null","null","null","null","null","null","","","","","","",""
"sailing-trial","8","42780","0.0-5.0-0.0-1.0-0.0","","","","false","","","","","","","","","","2516","","null","","null","null","arrowleft","0","null","null","","",""
"sailing-trial","9","44663","0.0-5.0-0.0-1.0-1.0","","","","false","","","","","","","","","","743","","null","","null","null","arrowright","1","null","null","","",""
"sailing-trial","10","48414","0.0-5.0-0.0-1.0-2.0","","","","false","","","","","","","","","","2606","","null","","null","null","arrowleft","0","null","null","","",""
"sailing-instructions","11","88530","0.0-5.0-0.0-2.0","","","","","","","","","","","","","","null","null","null","null","0","null","","","","","","",""
"sailing-trial","12","93650","0.0-5.0-0.0-3.0-0.0","","","","false","","","","","","","","","","null","","1853","","2","1","null","null","arrowleft","[1,1,1,1]","","",""
"sailing-trial","13","97566","0.0-5.0-0.0-3.0-1.0","","","","false","","","","","","","","","","null","","727","","3","1","null","null","arrowright","[1,1,1,1]","","",""
"sailing-trial","14","101195","0.0-5.0-0.0-3.0-2.0","","","","false","","","","","","","","","","null","","1045","","2","0","null","null","arrowleft","[0,0,0,0]","","",""
"sailing-instructions","15","108541","0.0-5.0-0.0-4.0","","","","","","","","","","","","","","null","null","null","null","null","null","","","","","","",""
"sailing-comprehension","16","126065","0.0-5.0-0.0-5.0","","","","","","","","","","15941.000000000015","","","","","","","","","","","","","","[""true"",""true"",""false"",""true""]","0",""
"sailing-instructions","17","185971","0.0-6.0-0.0-0.0","","","","","","","","","","","","","","null","null","null","null","null","null","","","","","","",""
"sailing-comprehension","18","197838","0.0-6.0-0.0-1.0","","","","","","","","","","10300.99999999997","","","","","","","","","","","","","","[""true"",""false"",""true""]","0",""
"sailing-instructions","19","211998","0.0-7.0-0.0-0.0","","","","","","","","","","","","","","null","null","null","null","null","null","","","","","","",""
"sailing-trial","20","216508","0.0-7.0-0.0-1.0-0.0","","","","false","","","","","","","","","","null","","2179","","0","0","null","null","arrowup","[0.2,0.8,0.2,0.8]","","",""
"sailing-trial","21","219399","0.0-7.0-0.0-1.0-1.0","","","","false","","","","","","","","","","null","","1130","","1","0","null","null","arrowup","[0.2,0.8,0.2,0.8]","","",""
"sailing-trial","22","221749","0.0-7.0-0.0-1.0-2.0","","","","false","","","","","","","","","","null","","753","","2","0","null","null","arrowup","[0.2,0.8,0.2,0.8]","","",""
"sailing-trial","23","224779","0.0-7.0-0.0-1.0-3.0","","","","false","","","","","","","","","","null","","780.9999999999709","","3","1","null","null","arrowup","[0.2,0.8,0.2,0.8]","","",""
"sailing-comprehension","24","233857","0.0-7.0-0.0-2.0","","","","","","","","","","6593","","","","","","","","","","","","","","[""true""]","1",""
"sailing-instructions","25","248923","0.0-7.0-0.1-0.1","","","","","","","","","","","","","","null","null","null","null","null","null","","","","","","",""
"sailing-trial","26","250899","0.0-7.0-0.1-1.1-0.1","","","","false","","","","","","","","","","null","","754","","0","0","null","null","arrowup","[0.2,0.8,0.2,0.8]","","",""
"sailing-trial","27","252964","0.0-7.0-0.1-1.1-1.1","","","","false","","","","","","","","","","null","","156","","1","1","null","null","arrowup","[0.2,0.8,0.2,0.8]","","",""
"sailing-trial","28","254896","0.0-7.0-0.1-1.1-2.1","","","","false","","","","","","","","","","null","","744","","2","0","null","null","arrowup","[0.2,0.8,0.2,0.8]","","",""
"sailing-trial","29","257449","0.0-7.0-0.1-1.1-3.1","","","","false","","","","","","","","","","null","","554.9999999999418","","3","1","null","null","arrowup","[0.2,0.8,0.2,0.8]","","",""
"sailing-comprehension","30","262183","0.0-7.0-0.1-2.1","","","","","","","","","","3291.999999999971","","","","","","","","","","","","","","[""false""]","0",""
"sailing-instructions","31","272290","0.0-8.0-0.0-0.0","","","","","","","","","","","","","","null","null","null","null","null","null","","","","","","",""
"sailing-comprehension","32","277832","0.0-8.0-0.0-1.0","","","","","","","","","","4472","","","","","","","","","","","","","","[""true""]","0",""
"sailing-instructions","33","301878","0.0-9.0-0.0-0.0","","","","","","","","","","","","","","null","null","null","null","null","null","","","","","","",""
"sailing-trial","34","308066","0.0-9.0-0.0-1.0-0.0","","","","false","","","","","","","","","","1627.0000000000582","","911","","1","0","arrowleft","0","arrowright","[0.2,0.8,0.2,0.8]","","",""
"sailing-trial","35","312737","0.0-9.0-0.0-1.0-1.0","","","","false","","","","","","","","","","692","","589","","0","0","arrowleft","0","arrowleft","[0.2,0.8,0.2,0.8]","","",""
"sailing-trial","36","316353","0.0-9.0-0.0-1.0-2.0","","","","false","","","","","","","","","","null","","1229","","0","1","null","null","arrowup","[0.2,0.8,0.2,0.8]","","",""
"sailing-trial","37","320544","0.0-9.0-0.0-1.0-3.0","","","","false","","","","","","","","","","535","","512","","2","0","arrowright","1","arrowleft","[0.2,0.8,0.2,0.8]","","",""
"sailing-trial","38","323920","0.0-9.0-0.0-1.0-4.0","","","","false","","","","","","","","","","null","","1156","","3","1","null","null","arrowup","[0.2,0.8,0.2,0.8]","","",""
"sailing-trial","39","329188","0.0-9.0-0.0-1.0-5.0","","","","false","","","","","","","","","","585","","1020","","3","1","arrowright","1","arrowright","[0.2,0.8,0.2,0.8]","","",""
"sailing-instructions","40","353206","0.0-10.0","","","","","","","","","","","","","","null","null","null","null","null","null","","","","","","",""
"sailing-trial","41","358910","0.0-11.0-0.0","","","","false","","","","","","","","","","1040.0000000000582","","313","","3","0","arrowright","1","arrowright","[0.15,0.85,0.325,0.675]","","",""
"sailing-trial","42","363214","0.0-11.0-1.0","","","","false","","","","","","","","","","null","","1529","","0","0","null","null","arrowup","[0.15,0.85,0.325,0.675]","","",""
"sailing-trial","43","368392","0.0-11.0-2.0","","","","false","","","","","","","","","","1033","","415.0000000000582","","2","1","arrowright","1","arrowleft","[0.15,0.85,0.325,0.675]","","",""
"sailing-trial","44","372942","0.0-11.0-3.0","","","","false","","","","","","","","","","null","","1500","","0","0","null","null","arrowup","[0.15,0.85,0.325,0.675]","","",""
"sailing-trial","45","377835","0.0-11.0-4.0","","","","false","","","","","","","","","","735","","153","","0","0","arrowleft","0","arrowleft","[0.15,0.85,0.325,0.675]","","",""
"sailing-trial","46","381594","0.0-11.0-5.0","","","","false","","","","","","","","","","null","","1394.9999999999418","","1","1","null","null","arrowup","[0.15,0.85,0.325,0.675]","","",""
"sailing-trial","47","386543","0.0-11.0-6.0","","","","false","","","","","","","","","","526.0000000000582","","452","","1","1","arrowleft","0","arrowright","[0.15,0.85,0.325,0.675]","","",""
"sailing-trial","48","389611","0.0-11.0-7.0","","","","false","","","","","","","","","","null","","921","","1","1","null","null","arrowup","[0.15,0.85,0.325,0.675]","","",""
"sailing-trial","49","393961","0.0-11.0-8.0","","","","false","","","","","","","","","","484","","379","","1","1","arrowleft","0","arrowright","[0.15,0.85,0.325,0.675]","","",""
"sailing-trial","50","396249","0.0-11.0-9.0","","","","false","","","","","","","","","","null","","607","","3","0","null","null","arrowup","[0.15,0.85,0.325,0.675]","","",""
"sailing-trial","51","400528","0.0-11.0-10.0","","","","false","","","","","","","","","","522.0000000000582","","280","","1","1","arrowleft","0","arrowright","[0.15,0.85,0.325,0.675]","","",""
"sailing-trial","52","403462","0.0-11.0-11.0","","","","false","","","","","","","","","","null","","736","","1","1","null","null","arrowup","[0.15,0.85,0.325,0.675]","","",""
"sailing-trial","53","408112","0.0-11.0-12.0","","","","false","","","","","","","","","","633","","409","","1","1","arrowleft","0","arrowright","[0.15,0.85,0.325,0.675]","","",""
"sailing-trial","54","410797","0.0-11.0-13.0","","","","false","","","","","","","","","","null","","544","","1","1","null","null","arrowup","[0.15,0.85,0.325,0.675]","","",""
"sailing-trial","55","414930","0.0-11.0-14.0","","","","false","","","","","","","","","","441","","100","","1","1","arrowleft","0","arrowright","[0.15,0.85,0.325,0.675]","","",""
"sailing-trial","56","418047","0.0-11.0-15.0","","","","false","","","","","","","","","","null","","881.0000000000582","","3","1","null","null","arrowup","[0.15,0.85,0.325,0.675]","","",""
"sailing-trial","57","422563","0.0-11.0-16.0","","","","false","","","","","","","","","","486","","441.0000000000582","","1","1","arrowleft","0","arrowright","[0.325,0.675,0.15,0.85]","","",""
"sailing-trial","58","425165","0.0-11.0-17.0","","","","false","","","","","","","","","","null","","477","","0","1","null","null","arrowup","[0.325,0.675,0.15,0.85]","","",""
"sailing-trial","59","429800","0.0-11.0-18.0","","","","false","","","","","","","","","","473","","338","","1","0","arrowleft","0","arrowright","[0.325,0.675,0.15,0.85]","","",""
"sailing-trial","60","433181","0.0-11.0-19.0","","","","false","","","","","","","","","","null","","1065.9999999999418","","1","1","null","null","arrowup","[0.325,0.675,0.15,0.85]","","",""
"sailing-trial","61","438165","0.0-11.0-20.0","","","","false","","","","","","","","","","574.9999999999418","","749","","3","1","arrowright","1","arrowright","[0.325,0.675,0.15,0.85]","","",""
"sailing-trial","62","440609","0.0-11.0-21.0","","","","false","","","","","","","","","","null","","729","","2","0","null","null","arrowup","[0.325,0.675,0.15,0.85]","","",""
"sailing-trial","63","445725","0.0-11.0-22.0","","","","false","","","","","","","","","","549.0000000000582","","1449","","3","0","arrowright","1","arrowright","[0.325,0.675,0.15,0.85]","","",""
"sailing-trial","64","448237","0.0-11.0-23.0","","","","false","","","","","","","","","","null","","797.0000000000582","","2","0","null","null","arrowup","[0.325,0.675,0.15,0.85]","","",""
"sailing-trial","65","452083","0.0-11.0-24.0","","","","false","","","","","","","","","","535.0000000000582","","320","","1","0","arrowleft","0","arrowright","[0.325,0.675,0.15,0.85]","","",""
"sailing-trial","66","454805","0.0-11.0-25.0","","","","false","","","","","","","","","","null","","838","","0","0","null","null","arrowup","[0.325,0.675,0.15,0.85]","","",""
"sailing-trial","67","459467","0.0-11.0-26.0","","","","false","","","","","","","","","","787","","322","","1","1","arrowleft","0","arrowright","[0.325,0.675,0.15,0.85]","","",""
"sailing-trial","68","461972","0.0-11.0-27.0","","","","false","","","","","","","","","","null","","543","","1","0","null","null","arrowup","[0.325,0.675,0.15,0.85]","","",""
"sailing-trial","69","466338","0.0-11.0-28.0","","","","false","","","","","","","","","","1081.9999999999418","","360.9999999999418","","0","0","arrowleft","0","arrowleft","[0.325,0.675,0.15,0.85]","","",""
"sailing-trial","70","469185","0.0-11.0-29.0","","","","false","","","","","","","","","","null","","687","","0","1","null","null","arrowup","[0.325,0.675,0.15,0.85]","","",""
"sailing-trial","71","473913","0.0-11.0-30.0","","","","false","","","","","","","","","","403","","393","","3","0","arrowright","1","arrowright","[0.325,0.675,0.15,0.85]","","",""
"sailing-trial","72","476952","0.0-11.0-31.0","","","","false","","","","","","","","","","null","","897","","1","1","null","null","arrowup","[0.325,0.675,0.15,0.85]","","",""
"sailing-trial","73","482101","0.0-11.0-32.0","","","","false","","","","","","","","","","504","","302","","1","0","arrowleft","0","arrowright","[0.325,0.675,0.15,0.85]","","",""
"sailing-trial","74","484661","0.0-11.0-33.0","","","","false","","","","","","","","","","null","","855","","1","0","null","null","arrowup","[0.325,0.675,0.15,0.85]","","",""
"sailing-trial","75","488433","0.0-11.0-34.0","","","","false","","","","","","","","","","507","","287","","2","0","arrowright","1","arrowleft","[0.15,0.85,0.325,0.675]","","",""
"sailing-trial","76","491009","0.0-11.0-35.0","","","","false","","","","","","","","","","null","","938.9999999999418","","0","0","null","null","arrowup","[0.15,0.85,0.325,0.675]","","",""
"sailing-trial","77","495128","0.0-11.0-36.0","","","","false","","","","","","","","","","755","","479","","0","0","arrowleft","0","arrowleft","[0.15,0.85,0.325,0.675]","","",""
"sailing-trial","78","498187","0.0-11.0-37.0","","","","false","","","","","","","","","","null","","834","","2","1","null","null","arrowup","[0.15,0.85,0.325,0.675]","","",""
"sailing-trial","79","502554","0.0-11.0-38.0","","","","false","","","","","","","","","","641.9999999999418","","336","","2","1","arrowright","1","arrowleft","[0.15,0.85,0.325,0.675]","","",""
"sailing-trial","80","505220","0.0-11.0-39.0","","","","false","","","","","","","","","","null","","1100","","0","0","null","null","arrowup","[0.15,0.85,0.325,0.675]","","",""
"sailing-trial","81","508821","0.0-11.0-40.0","","","","false","","","","","","","","","","488.9999999999418","","165","","2","0","arrowright","1","arrowleft","[0.15,0.85,0.325,0.675]","","",""
"sailing-trial","82","511504","0.0-11.0-41.0","","","","false","","","","","","","","","","null","","953.9999999999418","","1","0","null","null","arrowup","[0.15,0.85,0.325,0.675]","","",""
"sailing-trial","83","515173","0.0-11.0-42.0","","","","false","","","","","","","","","","588.0000000000582","","204.99999999988358","","2","0","arrowright","1","arrowleft","[0.15,0.85,0.325,0.675]","","",""
"sailing-trial","84","517739","0.0-11.0-43.0","","","","false","","","","","","","","","","null","","549.9999999999418","","1","1","null","null","arrowup","[0.15,0.85,0.325,0.675]","","",""
"sailing-trial","85","521707","0.0-11.0-44.0","","","","false","","","","","","","","","","417.0000000000582","","212","","1","1","arrowleft","0","arrowright","[0.15,0.85,0.325,0.675]","","",""
"sailing-trial","86","524054","0.0-11.0-45.0","","","","false","","","","","","","","","","null","","766.9999999999418","","2","0","null","null","arrowup","[0.15,0.85,0.325,0.675]","","",""
"sailing-trial","87","528174","0.0-11.0-46.0","","","","false","","","","","","","","","","464.9999999998836","","309","","1","1","arrowleft","0","arrowright","[0.15,0.85,0.325,0.675]","","",""
"sailing-trial","88","530718","0.0-11.0-47.0","","","","false","","","","","","","","","","null","","1003.0000000001164","","0","0","null","null","arrowup","[0.15,0.85,0.325,0.675]","","",""
"sailing-trial","89","534423","0.0-11.0-48.0","","","","false","","","","","","","","","","481","","308","","1","0","arrowleft","0","arrowright","[0.15,0.85,0.325,0.675]","","",""
"sailing-trial","90","537473","0.0-11.0-49.0","","","","false","","","","","","","","","","null","","825","","3","1","null","null","arrowup","[0.15,0.85,0.325,0.675]","","",""
"sailing-trial","91","541592","0.0-11.0-50.0","","","","false","","","","","","","","","","458","","273","","3","1","arrowright","1","arrowright","[0.325,0.675,0.15,0.85]","","",""
"sailing-trial","92","545940","0.0-11.0-51.0","","","","false","","","","","","","","","","null","","2300","","3","1","null","null","arrowup","[0.325,0.675,0.15,0.85]","","",""
"sailing-trial","93","550265","0.0-11.0-52.0","","","","false","","","","","","","","","","610","","770.9999999998836","","3","0","arrowright","1","arrowright","[0.325,0.675,0.15,0.85]","","",""
"sailing-trial","94","553242","0.0-11.0-53.0","","","","false","","","","","","","","","","null","","890","","0","1","null","null","arrowup","[0.325,0.675,0.15,0.85]","","",""
"sailing-trial","95","558528","0.0-11.0-54.0","","","","false","","","","","","","","","","685","","257","","3","0","arrowright","1","arrowright","[0.325,0.675,0.15,0.85]","","",""
"sailing-trial","96","561777","0.0-11.0-55.0","","","","false","","","","","","","","","","null","","1025","","3","1","null","null","arrowup","[0.325,0.675,0.15,0.85]","","",""
"sailing-trial","97","567128","0.0-11.0-56.0","","","","false","","","","","","","","","","489","","517","","0","0","arrowleft","0","arrowleft","[0.325,0.675,0.15,0.85]","","",""
"sailing-trial","98","570261","0.0-11.0-57.0","","","","false","","","","","","","","","","null","","932","","0","1","null","null","arrowup","[0.325,0.675,0.15,0.85]","","",""
"sailing-trial","99","574160","0.0-11.0-58.0","","","","false","","","","","","","","","","653","","32","","2","0","arrowright","1","arrowleft","[0.325,0.675,0.15,0.85]","","",""
"sailing-trial","100","577062","0.0-11.0-59.0","","","","false","","","","","","","","","","null","","890","","1","1","null","null","arrowup","[0.325,0.675,0.15,0.85]","","",""
"sailing-trial","101","581378","0.0-11.0-60.0","","","","false","","","","","","","","","","539","","456","","1","1","arrowleft","0","arrowright","[0.325,0.675,0.15,0.85]","","",""
"sailing-trial","102","584028","0.0-11.0-61.0","","","","false","","","","","","","","","","null","","599","","3","1","null","null","arrowup","[0.325,0.675,0.15,0.85]","","",""
"sailing-trial","103","588196","0.0-11.0-62.0","","","","false","","","","","","","","","","573","","303","","1","1","arrowleft","0","arrowright","[0.325,0.675,0.15,0.85]","","",""
"sailing-trial","104","590312","0.0-11.0-63.0","","","","false","","","","","","","","","","null","","636","","2","0","null","null","arrowup","[0.325,0.675,0.15,0.85]","","",""
"sailing-trial","105","593992","0.0-11.0-64.0","","","","false","","","","","","","","","","493","","284","","1","0","arrowleft","0","arrowright","[0.325,0.675,0.15,0.85]","","",""
"sailing-trial","106","597080","0.0-11.0-65.0","","","","false","","","","","","","","","","null","","1079","","1","1","null","null","arrowup","[0.325,0.675,0.15,0.85]","","",""
"sailing-trial","107","601414","0.0-11.0-66.0","","","","false","","","","","","","","","","537","","459","","1","1","arrowleft","0","arrowright","[0.325,0.675,0.15,0.85]","","",""
"sailing-trial","108","604497","0.0-11.0-67.0","","","","false","","","","","","","","","","null","","836","","1","1","null","null","arrowup","[0.325,0.675,0.15,0.85]","","",""
"sailing-trial","109","609097","0.0-11.0-68.0","","","","false","","","","","","","","","","803","","339","","1","1","arrowleft","0","arrowright","[0.325,0.675,0.15,0.85]","","",""
"sailing-trial","110","613065","0.0-11.0-69.0","","","","false","","","","","","","","","","null","","1874","","3","1","null","null","arrowup","[0.325,0.675,0.15,0.85]","","",""
"sailing-trial","111","617924","0.0-11.0-70.0","","","","false","","","","","","","","","","754","","1087","","3","0","arrowright","1","arrowright","[0.325,0.675,0.15,0.85]","","",""
"sailing-trial","112","620468","0.0-11.0-71.0","","","","false","","","","","","","","","","null","","931","","2","0","null","null","arrowup","[0.325,0.675,0.15,0.85]","","",""
"sailing-trial","113","624263","0.0-11.0-72.0","","","","false","","","","","","","","","","487.0000000001164","","226","","1","0","arrowleft","0","arrowright","[0.675,0.325,0.85,0.15]","","",""
"sailing-trial","114","627450","0.0-11.0-73.0","","","","false","","","","","","","","","","null","","932","","2","1","null","null","arrowup","[0.675,0.325,0.85,0.15]","","",""
"sailing-trial","115","631298","0.0-11.0-74.0","","","","false","","","","","","","","","","726","","242","","0","0","arrowleft","0","arrowleft","[0.675,0.325,0.85,0.15]","","",""
"sailing-trial","116","633705","0.0-11.0-75.0","","","","false","","","","","","","","","","null","","808","","0","0","null","null","arrowup","[0.675,0.325,0.85,0.15]","","",""
"sailing-trial","117","637495","0.0-11.0-76.0","","","","false","","","","","","","","","","494","","308.0000000001164","","2","0","arrowright","1","arrowleft","[0.675,0.325,0.85,0.15]","","",""
"sailing-trial","118","640367","0.0-11.0-77.0","","","","false","","","","","","","","","","null","","813","","0","1","null","null","arrowup","[0.675,0.325,0.85,0.15]","","",""
"sailing-trial","119","644201","0.0-11.0-78.0","","","","false","","","","","","","","","","465","","29","","0","1","arrowleft","0","arrowleft","[0.675,0.325,0.85,0.15]","","",""
"sailing-trial","120","646560","0.0-11.0-79.0","","","","false","","","","","","","","","","null","","676.0000000001164","","3","0","null","null","arrowup","[0.675,0.325,0.85,0.15]","","",""
"sailing-trial","121","650146","0.0-11.0-80.0","","","","false","","","","","","","","","","554","","137","","0","0","arrowleft","0","arrowleft","[0.675,0.325,0.85,0.15]","","",""
"sailing-trial","122","653102","0.0-11.0-81.0","","","","false","","","","","","","","","","null","","909","","2","1","null","null","arrowup","[0.675,0.325,0.85,0.15]","","",""
"sailing-trial","123","657087","0.0-11.0-82.0","","","","false","","","","","","","","","","395","","255","","2","1","arrowright","1","arrowleft","[0.675,0.325,0.85,0.15]","","",""
"sailing-trial","124","660435","0.0-11.0-83.0","","","","false","","","","","","","","","","null","","1313","","0","1","null","null","arrowup","[0.675,0.325,0.85,0.15]","","",""
"sailing-trial","125","664196","0.0-11.0-84.0","","","","false","","","","","","","","","","437","","308","","2","0","arrowright","1","arrowleft","[0.675,0.325,0.85,0.15]","","",""
"sailing-trial","126","666597","0.0-11.0-85.0","","","","false","","","","","","","","","","null","","867","","0","0","null","null","arrowup","[0.675,0.325,0.85,0.15]","","",""
"sailing-trial","127","670971","0.0-11.0-86.0","","","","false","","","","","","","","","","544","","193","","2","1","arrowright","1","arrowleft","[0.675,0.325,0.85,0.15]","","",""
"sailing-trial","128","674204","0.0-11.0-87.0","","","","false","","","","","","","","","","null","","785","","3","1","null","null","arrowup","[0.675,0.325,0.85,0.15]","","",""
"sailing-trial","129","678757","0.0-11.0-88.0","","","","false","","","","","","","","","","581","","369","","3","0","arrowright","1","arrowright","[0.675,0.325,0.85,0.15]","","",""
"sailing-trial","130","683756","0.0-11.0-89.0","","","","false","","","","","","","","","","null","","1959","","3","0","null","null","arrowup","[0.675,0.325,0.85,0.15]","","",""
"sailing-trial","131","688938","0.0-11.0-90.0","","","","false","","","","","","","","","","1140","","293","","1","1","arrowleft","0","arrowright","[0.675,0.325,0.85,0.15]","","",""
"sailing-trial","132","692073","0.0-11.0-91.0","","","","false","","","","","","","","","","null","","681","","2","1","null","null","arrowup","[0.675,0.325,0.85,0.15]","","",""
"sailing-trial","133","696339","0.0-11.0-92.0","","","","false","","","","","","","","","","535","","267","","1","1","arrowleft","0","arrowright","[0.15,0.85,0.325,0.675]","","",""
"sailing-trial","134","698687","0.0-11.0-93.0","","","","false","","","","","","","","","","null","","812","","3","0","null","null","arrowup","[0.15,0.85,0.325,0.675]","","",""
"sailing-trial","135","703257","0.0-11.0-94.0","","","","false","","","","","","","","","","553","","679","","1","1","arrowleft","0","arrowright","[0.15,0.85,0.325,0.675]","","",""
"sailing-trial","136","705973","0.0-11.0-95.0","","","","false","","","","","","","","","","null","","698","","1","1","null","null","arrowup","[0.15,0.85,0.325,0.675]","","",""
"sailing-trial","137","710223","0.0-11.0-96.0","","","","false","","","","","","","","","","420","","546","","1","1","arrowleft","0","arrowright","[0.15,0.85,0.325,0.675]","","",""
"sailing-trial","138","713424","0.0-11.0-97.0","","","","false","","","","","","","","","","null","","1067","","1","1","null","null","arrowup","[0.15,0.85,0.325,0.675]","","",""
"sailing-trial","139","717525","0.0-11.0-98.0","","","","false","","","","","","","","","","428","","330.0000000001164","","1","1","arrowleft","0","arrowright","[0.15,0.85,0.325,0.675]","","",""
"sailing-trial","140","720247","0.0-11.0-99.0","","","","false","","","","","","","","","","null","","971","","0","0","null","null","arrowup","[0.15,0.85,0.325,0.675]","","",""
"sailing-trial","141","725075","0.0-11.0-100.0","","","","false","","","","","","","","","","1040","","313","","1","1","arrowleft","0","arrowright","[0.15,0.85,0.325,0.675]","","",""
"sailing-trial","142","727466","0.0-11.0-101.0","","","","false","","","","","","","","","","null","","857","","0","0","null","null","arrowup","[0.15,0.85,0.325,0.675]","","",""
"sailing-trial","143","731309","0.0-11.0-102.0","","","","false","","","","","","","","","","453","","65.99999999988358","","1","1","arrowleft","0","arrowright","[0.15,0.85,0.325,0.675]","","",""
"sailing-trial","144","734241","0.0-11.0-103.0","","","","false","","","","","","","","","","null","","926","","2","1","null","null","arrowup","[0.15,0.85,0.325,0.675]","","",""
"sailing-trial","145","738160","0.0-11.0-104.0","","","","false","","","","","","","","","","407","","186","","1","1","arrowleft","0","arrowright","[0.15,0.85,0.325,0.675]","","",""
"sailing-trial","146","742278","0.0-11.0-105.0","","","","false","","","","","","","","","","null","","1075","","0","0","null","null","arrowup","[0.15,0.85,0.325,0.675]","","",""
"sailing-trial","147","746693","0.0-11.0-106.0","","","","false","","","","","","","","","","582","","222","","1","1","arrowleft","0","arrowright","[0.15,0.85,0.325,0.675]","","",""
"sailing-trial","148","749576","0.0-11.0-107.0","","","","false","","","","","","","","","","null","","761","","2","1","null","null","arrowup","[0.15,0.85,0.325,0.675]","","",""
"sailing-trial","149","754247","0.0-11.0-108.0","","","","false","","","","","","","","","","947","","434","","1","0","arrowleft","0","arrowright","[0.15,0.85,0.325,0.675]","","",""
"sailing-trial","150","756659","0.0-11.0-109.0","","","","false","","","","","","","","","","null","","745","","1","0","null","null","arrowup","[0.15,0.85,0.325,0.675]","","",""
"sailing-trial","151","760359","0.0-11.0-110.0","","","","false","","","","","","","","","","691","","142.99999999988358","","2","0","arrowright","1","arrowleft","[0.325,0.675,0.15,0.85]","","",""
"sailing-trial","152","764663","0.0-11.0-111.0","","","","false","","","","","","","","","","null","","2714.0000000001164","","2","0","null","null","arrowup","[0.325,0.675,0.15,0.85]","","",""
"sailing-trial","153","769313","0.0-11.0-112.0","","","","false","","","","","","","","","","540.0000000001164","","719.9999999998836","","3","1","arrowright","1","arrowright","[0.325,0.675,0.15,0.85]","","",""
"sailing-trial","154","772429","0.0-11.0-113.0","","","","false","","","","","","","","","","null","","882","","3","1","null","null","arrowup","[0.325,0.675,0.15,0.85]","","",""
"sailing-trial","155","778197","0.0-11.0-114.0","","","","false","","","","","","","","","","514","","1272","","3","1","arrowright","1","arrowright","[0.325,0.675,0.15,0.85]","","",""
"sailing-trial","156","780729","0.0-11.0-115.0","","","","false","","","","","","","","","","null","","377","","1","1","null","null","arrowup","[0.325,0.675,0.15,0.85]","","",""
"sailing-trial","157","785431","0.0-11.0-116.0","","","","false","","","","","","","","","","502","","478","","3","1","arrowright","1","arrowright","[0.325,0.675,0.15,0.85]","","",""
"sailing-trial","158","787372","0.0-11.0-117.0","","","","false","","","","","","","","","","null","","304","","0","0","null","null","arrowup","[0.325,0.675,0.15,0.85]","","",""
"sailing-trial","159","792748","0.0-11.0-118.0","","","","false","","","","","","","","","","534.0000000001164","","504","","3","0","arrowright","1","arrowright","[0.325,0.675,0.15,0.85]","","",""
"sailing-trial","160","795787","0.0-11.0-119.0","","","","false","","","","","","","","","","null","","1425.0000000001164","","2","0","null","null","arrowup","[0.325,0.675,0.15,0.85]","","",""
"sailing-trial","161","800298","0.0-11.0-120.0","","","","false","","","","","","","","","","990.9999999998836","","7","","1","1","arrowleft","0","arrowright","[0.325,0.675,0.15,0.85]","","",""
"sailing-trial","162","803299","0.0-11.0-121.0","","","","false","","","","","","","","","","null","","909","","1","1","null","null","arrowup","[0.325,0.675,0.15,0.85]","","",""
"sailing-trial","163","808599","0.0-11.0-122.0","","","","false","","","","","","","","","","541","","534","","1","1","arrowleft","0","arrowright","[0.325,0.675,0.15,0.85]","","",""
"sailing-trial","164","811566","0.0-11.0-123.0","","","","false","","","","","","","","","","null","","706.0000000001164","","3","1","null","null","arrowup","[0.325,0.675,0.15,0.85]","","",""
"sailing-trial","165","816732","0.0-11.0-124.0","","","","false","","","","","","","","","","1224","","63","","1","1","arrowleft","0","arrowright","[0.325,0.675,0.15,0.85]","","",""
"sailing-trial","166","820566","0.0-11.0-125.0","","","","false","","","","","","","","","","null","","1203.0000000001164","","0","1","null","null","arrowup","[0.325,0.675,0.15,0.85]","","",""
"sailing-trial","167","826151","0.0-11.0-126.0","","","","false","","","","","","","","","","1696.0000000001164","","217","","1","1","arrowleft","0","arrowright","[0.325,0.675,0.15,0.85]","","",""
"sailing-trial","168","829973","0.0-11.0-127.0","","","","false","","","","","","","","","","null","","1890.9999999998836","","1","0","null","null","arrowup","[0.325,0.675,0.15,0.85]","","",""
"sailing-trial","169","835085","0.0-11.0-128.0","","","","false","","","","","","","","","","434.0000000001164","","320.9999999998836","","1","0","arrowleft","0","arrowright","[0.325,0.675,0.15,0.85]","","",""
"sailing-trial","170","840953","0.0-11.0-129.0","","","","false","","","","","","","","","","null","","2817","","0","0","null","null","arrowup","[0.325,0.675,0.15,0.85]","","",""
"sailing-trial","171","846135","0.0-11.0-130.0","","","","false","","","","","","","","","","601","","213","","0","0","arrowleft","0","arrowleft","[0.15,0.85,0.325,0.675]","","",""
"sailing-trial","172","848756","0.0-11.0-131.0","","","","false","","","","","","","","","","null","","860","","3","0","null","null","arrowup","[0.15,0.85,0.325,0.675]","","",""
"sailing-trial","173","852953","0.0-11.0-132.0","","","","false","","","","","","","","","","428","","437","","1","1","arrowleft","0","arrowright","[0.15,0.85,0.325,0.675]","","",""
"sailing-trial","174","855116","0.0-11.0-133.0","","","","false","","","","","","","","","","null","","838","","2","0","null","null","arrowup","[0.15,0.85,0.325,0.675]","","",""
"sailing-trial","175","859254","0.0-11.0-134.0","","","","false","","","","","","","","","","462","","329","","1","1","arrowleft","0","arrowright","[0.15,0.85,0.325,0.675]","","",""
"sailing-trial","176","863012","0.0-11.0-135.0","","","","false","","","","","","","","","","null","","1616","","0","0","null","null","arrowup","[0.15,0.85,0.325,0.675]","","",""
"sailing-trial","177","867486","0.0-11.0-136.0","","","","false","","","","","","","","","","752","","375","","1","1","arrowleft","0","arrowright","[0.15,0.85,0.325,0.675]","","",""
"sailing-trial","178","869808","0.0-11.0-137.0","","","","false","","","","","","","","","","null","","781","","2","0","null","null","arrowup","[0.15,0.85,0.325,0.675]","","",""
"sailing-trial","179","873955","0.0-11.0-138.0","","","","false","","","","","","","","","","656","","145.99999999988358","","1","1","arrowleft","0","arrowright","[0.15,0.85,0.325,0.675]","","",""
"sailing-trial","180","876789","0.0-11.0-139.0","","","","false","","","","","","","","","","null","","877","","1","1","null","null","arrowup","[0.15,0.85,0.325,0.675]","","",""
"sailing-trial","181","881139","0.0-11.0-140.0","","","","false","","","","","","","","","","623.9999999998836","","272","","1","1","arrowleft","0","arrowright","[0.15,0.85,0.325,0.675]","","",""
"sailing-trial","182","882832","0.0-11.0-141.0","","","","false","","","","","","","","","","null","","345","","0","0","null","null","arrowup","[0.15,0.85,0.325,0.675]","","",""
"sailing-trial","183","886806","0.0-11.0-142.0","","","","false","","","","","","","","","","679","","65","","1","1","arrowleft","0","arrowright","[0.15,0.85,0.325,0.675]","","",""
"sailing-trial","184","889177","0.0-11.0-143.0","","","","false","","","","","","","","","","null","","843","","0","0","null","null","arrowup","[0.15,0.85,0.325,0.675]","","",""
"sailing-trial","185","893357","0.0-11.0-144.0","","","","false","","","","","","","","","","432","","167","","1","1","arrowleft","0","arrowright","[0.15,0.85,0.325,0.675]","","",""
"sailing-trial","186","896007","0.0-11.0-145.0","","","","false","","","","","","","","","","null","","621","","1","1","null","null","arrowup","[0.15,0.85,0.325,0.675]","","",""
"sailing-trial","187","900407","0.0-11.0-146.0","","","","false","","","","","","","","","","633.0000000001164","","424.9999999998836","","1","1","arrowleft","0","arrowright","[0.15,0.85,0.325,0.675]","","",""
"sailing-trial","188","903225","0.0-11.0-147.0","","","","false","","","","","","","","","","null","","819","","3","1","null","null","arrowup","[0.15,0.85,0.325,0.675]","","",""
"sailing-trial","189","907374","0.0-11.0-148.0","","","","false","","","","","","","","","","529","","260","","1","1","arrowleft","0","arrowright","[0.325,0.675,0.15,0.85]","","",""
"sailing-trial","190","910291","0.0-11.0-149.0","","","","false","","","","","","","","","","null","","475","","1","1","null","null","arrowup","[0.325,0.675,0.15,0.85]","","",""
"sailing-trial","191","915126","0.0-11.0-150.0","","","","false","","","","","","","","","","957","","118.99999999988358","","3","1","arrowright","1","arrowright","[0.325,0.675,0.15,0.85]","","",""
"sailing-trial","192","918014","0.0-11.0-151.0","","","","false","","","","","","","","","","null","","1275","","0","0","null","null","arrowup","[0.325,0.675,0.15,0.85]","","",""
"sailing-trial","193","923776","0.0-11.0-152.0","","","","false","","","","","","","","","","1029","","304","","1","1","arrowleft","0","arrowright","[0.325,0.675,0.15,0.85]","","",""
"sailing-trial","194","928826","0.0-11.0-153.0","","","","false","","","","","","","","","","null","","2926.0000000001164","","1","1","null","null","arrowup","[0.325,0.675,0.15,0.85]","","",""
"sailing-trial","195","933311","0.0-11.0-154.0","","","","false","","","","","","","","","","655.0000000001164","","359","","1","1","arrowleft","0","arrowright","[0.325,0.675,0.15,0.85]","","",""
"sailing-trial","196","935671","0.0-11.0-155.0","","","","false","","","","","","","","","","null","","847","","2","0","null","null","arrowup","[0.325,0.675,0.15,0.85]","","",""
"sailing-trial","197","940094","0.0-11.0-156.0","","","","false","","","","","","","","","","589.0000000001164","","380","","1","1","arrowleft","0","arrowright","[0.325,0.675,0.15,0.85]","","",""
"sailing-trial","198","943095","0.0-11.0-157.0","","","","false","","","","","","","","","","null","","1032.0000000001164","","0","1","null","null","arrowup","[0.325,0.675,0.15,0.85]","","",""
"sailing-trial","199","947046","0.0-11.0-158.0","","","","false","","","","","","","","","","491.0000000001164","","72","","1","1","arrowleft","0","arrowright","[0.325,0.675,0.15,0.85]","","",""
"sailing-trial","200","950059","0.0-11.0-159.0","","","","false","","","","","","","","","","null","","1512.0000000001164","","0","0","null","null","arrowup","[0.325,0.675,0.15,0.85]","","",""
"sailing-trial","201","954313","0.0-11.0-160.0","","","","false","","","","","","","","","","637","","251","","1","1","arrowleft","0","arrowright","[0.325,0.675,0.15,0.85]","","",""
"sailing-trial","202","956955","0.0-11.0-161.0","","","","false","","","","","","","","","","null","","1154","","0","0","null","null","arrowup","[0.325,0.675,0.15,0.85]","","",""
"sailing-trial","203","961129","0.0-11.0-162.0","","","","false","","","","","","","","","","564","","131","","1","1","arrowleft","0","arrowright","[0.325,0.675,0.15,0.85]","","",""
"sailing-trial","204","964240","0.0-11.0-163.0","","","","false","","","","","","","","","","null","","1745","","0","0","null","null","arrowup","[0.325,0.675,0.15,0.85]","","",""
"sailing-trial","205","968914","0.0-11.0-164.0","","","","false","","","","","","","","","","763","","825","","1","1","arrowleft","0","arrowright","[0.15,0.85,0.325,0.675]","","",""
"sailing-trial","206","971636","0.0-11.0-165.0","","","","false","","","","","","","","","","null","","1120","","0","0","null","null","arrowup","[0.15,0.85,0.325,0.675]","","",""
"sailing-trial","207","976547","0.0-11.0-166.0","","","","false","","","","","","","","","","605","","406","","1","1","arrowleft","0","arrowright","[0.15,0.85,0.325,0.675]","","",""
"sailing-trial","208","981048","0.0-11.0-167.0","","","","false","","","","","","","","","","null","","1615","","2","1","null","null","arrowup","[0.15,0.85,0.325,0.675]","","",""
"sailing-trial","209","985200","0.0-11.0-168.0","","","","false","","","","","","","","","","612","","49","","1","1","arrowleft","0","arrowright","[0.15,0.85,0.325,0.675]","","",""
"sailing-trial","210","987908","0.0-11.0-169.0","","","","false","","","","","","","","","","null","","943","","0","0","null","null","arrowup","[0.15,0.85,0.325,0.675]","","",""
"sailing-trial","211","992116","0.0-11.0-170.0","","","","false","","","","","","","","","","524","","226.99999999988358","","1","1","arrowleft","0","arrowright","[0.15,0.85,0.325,0.675]","","",""
"sailing-trial","212","994999","0.0-11.0-171.0","","","","false","","","","","","","","","","null","","887.9999999998836","","1","1","null","null","arrowup","[0.15,0.85,0.325,0.675]","","",""
"sailing-trial","213","998950","0.0-11.0-172.0","","","","false","","","","","","","","","","496","","115.99999999988358","","1","1","arrowleft","0","arrowright","[0.15,0.85,0.325,0.675]","","",""
"sailing-trial","214","1001617","0.0-11.0-173.0","","","","false","","","","","","","","","","null","","686.9999999998836","","1","1","null","null","arrowup","[0.15,0.85,0.325,0.675]","","",""
"sailing-trial","215","1006052","0.0-11.0-174.0","","","","false","","","","","","","","","","620","","393","","1","1","arrowleft","0","arrowright","[0.15,0.85,0.325,0.675]","","",""
"sailing-trial","216","1008073","0.0-11.0-175.0","","","","false","","","","","","","","","","null","","504","","1","0","null","null","arrowup","[0.15,0.85,0.325,0.675]","","",""
"sailing-trial","217","1013886","0.0-11.0-176.0","","","","false","","","","","","","","","","2370","","111","","1","1","arrowleft","0","arrowright","[0.15,0.85,0.325,0.675]","","",""
"sailing-trial","218","1016234","0.0-11.0-177.0","","","","false","","","","","","","","","","null","","324.9999999998836","","3","1","null","null","arrowup","[0.15,0.85,0.325,0.675]","","",""
"sailing-trial","219","1021070","0.0-11.0-178.0","","","","false","","","","","","","","","","676","","383","","1","1","arrowleft","0","arrowright","[0.15,0.85,0.325,0.675]","","",""
"sailing-trial","220","1022881","0.0-11.0-179.0","","","","false","","","","","","","","","","null","","461","","2","0","null","null","arrowup","[0.15,0.85,0.325,0.675]","","",""
"sailing-trial","221","1026146","0.0-11.0-180.0","","","","false","","","","","","","","","","751","","9","","1","0","arrowleft","0","arrowright","[0.85,0.15,0.675,0.325]","","",""
"sailing-trial","222","1028736","0.0-11.0-181.0","","","","false","","","","","","","","","","null","","685.9999999998836","","3","1","null","null","arrowup","[0.85,0.15,0.675,0.325]","","",""
"sailing-trial","223","1034187","0.0-11.0-182.0","","","","false","","","","","","","","","","576","","535","","1","0","arrowleft","0","arrowright","[0.85,0.15,0.675,0.325]","","",""
"sailing-trial","224","1036117","0.0-11.0-183.0","","","","false","","","","","","","","","","null","","404","","1","0","null","null","arrowup","[0.85,0.15,0.675,0.325]","","",""
"sailing-trial","225","1040455","0.0-11.0-184.0","","","","false","","","","","","","","","","560.9999999998836","","144","","3","0","arrowright","1","arrowright","[0.85,0.15,0.675,0.325]","","",""
"sailing-trial","226","1043304","0.0-11.0-185.0","","","","false","","","","","","","","","","null","","898.9999999998836","","2","1","null","null","arrowup","[0.85,0.15,0.675,0.325]","","",""
"sailing-trial","227","1048020","0.0-11.0-186.0","","","","false","","","","","","","","","","896.0000000002328","","335","","2","1","arrowright","1","arrowleft","[0.85,0.15,0.675,0.325]","","",""
"sailing-trial","228","1050380","0.0-11.0-187.0","","","","false","","","","","","","","","","null","","688","","1","0","null","null","arrowup","[0.85,0.15,0.675,0.325]","","",""
"sailing-trial","229","1054316","0.0-11.0-188.0","","","","false","","","","","","","","","","526.0000000002328","","412","","2","0","arrowright","1","arrowleft","[0.85,0.15,0.675,0.325]","","",""
"sailing-trial","230","1057121","0.0-11.0-189.0","","","","false","","","","","","","","","","null","","733","","0","1","null","null","arrowup","[0.85,0.15,0.675,0.325]","","",""
"sailing-trial","231","1061239","0.0-11.0-190.0","","","","false","","","","","","","","","","535","","244","","0","1","arrowleft","0","arrowleft","[0.85,0.15,0.675,0.325]","","",""
"sailing-trial","232","1063027","0.0-11.0-191.0","","","","false","","","","","","","","","","null","","325","","3","0","null","null","arrowup","[0.85,0.15,0.675,0.325]","","",""
"sailing-trial","233","1067340","0.0-11.0-192.0","","","","false","","","","","","","","","","497","","408","","0","1","arrowleft","0","arrowleft","[0.85,0.15,0.675,0.325]","","",""
"sailing-trial","234","1069001","0.0-11.0-193.0","","","","false","","","","","","","","","","null","","473","","2","0","null","null","arrowup","[0.85,0.15,0.675,0.325]","","",""
"sailing-trial","235","1073490","0.0-11.0-194.0","","","","false","","","","","","","","","","509","","551","","0","1","arrowleft","0","arrowleft","[0.85,0.15,0.675,0.325]","","",""
"sailing-trial","236","1076228","0.0-11.0-195.0","","","","false","","","","","","","","","","null","","926","","3","0","null","null","arrowup","[0.85,0.15,0.675,0.325]","","",""
"sailing-trial","237","1081760","0.0-11.0-196.0","","","","false","","","","","","","","","","655","","820.0000000002328","","0","0","arrowleft","0","arrowleft","[0.675,0.325,0.85,0.15]","","",""
"sailing-trial","238","1084775","0.0-11.0-197.0","","","","false","","","","","","","","","","null","","912","","0","1","null","null","arrowup","[0.675,0.325,0.85,0.15]","","",""
"sailing-trial","239","1089899","0.0-11.0-198.0","","","","false","","","","","","","","","","565","","292","","0","0","arrowleft","0","arrowleft","[0.675,0.325,0.85,0.15]","","",""
"sailing-trial","240","1093158","0.0-11.0-199.0","","","","false","","","","","","","","","","null","","1214","","1","1","null","null","arrowup","[0.675,0.325,0.85,0.15]","","",""
"sailing-trial","241","1096721","0.0-11.0-200.0","","","","false","","","","","","","","","","568","","276","","0","0","arrowleft","0","arrowleft","[0.675,0.325,0.85,0.15]","","",""
"sailing-trial","242","1098862","0.0-11.0-201.0","","","","false","","","","","","","","","","null","","540","","3","0","null","null","arrowup","[0.675,0.325,0.85,0.15]","","",""
"sailing-trial","243","1102741","0.0-11.0-202.0","","","","false","","","","","","","","","","575","","223","","0","0","arrowleft","0","arrowleft","[0.675,0.325,0.85,0.15]","","",""
"sailing-trial","244","1104916","0.0-11.0-203.0","","","","false","","","","","","","","","","null","","619","","1","0","null","null","arrowup","[0.675,0.325,0.85,0.15]","","",""
"sailing-trial","245","1110843","0.0-11.0-204.0","","","","false","","","","","","","","","","601","","442","","2","1","arrowright","1","arrowleft","[0.675,0.325,0.85,0.15]","","",""
"sailing-trial","246","1113616","0.0-11.0-205.0","","","","false","","","","","","","","","","null","","1114","","3","0","null","null","arrowup","[0.675,0.325,0.85,0.15]","","",""
"sailing-trial","247","1118878","0.0-11.0-206.0","","","","false","","","","","","","","","","1523","","319","","2","1","arrowright","1","arrowleft","[0.675,0.325,0.85,0.15]","","",""
"sailing-trial","248","1121545","0.0-11.0-207.0","","","","false","","","","","","","","","","null","","530","","2","1","null","null","arrowup","[0.675,0.325,0.85,0.15]","","",""
"sailing-trial","249","1126944","0.0-11.0-208.0","","","","false","","","","","","","","","","1271","","328","","2","1","arrowright","1","arrowleft","[0.675,0.325,0.85,0.15]","","",""
"sailing-trial","250","1129898","0.0-11.0-209.0","","","","false","","","","","","","","","","null","","1289.9999999997672","","3","0","null","null","arrowup","[0.675,0.325,0.85,0.15]","","",""
"sailing-trial","251","1133408","0.0-11.0-210.0","","","","false","","","","","","","","","","629.9999999997672","","5","","2","0","arrowright","1","arrowleft","[0.675,0.325,0.85,0.15]","","",""
"sailing-trial","252","1135677","0.0-11.0-211.0","","","","false","","","","","","","","","","null","","778.9999999997672","","1","0","null","null","arrowup","[0.675,0.325,0.85,0.15]","","",""
"sailing-trial","253","1139369","0.0-11.0-212.0","","","","false","","","","","","","","","","521","","365","","2","0","arrowright","1","arrowleft","[0.675,0.325,0.85,0.15]","","",""
"sailing-trial","254","1140925","0.0-11.0-213.0","","","","false","","","","","","","","","","null","","497","","3","0","null","null","arrowup","[0.675,0.325,0.85,0.15]","","",""
"sailing-trial","255","1144712","0.0-11.0-214.0","","","","false","","","","","","","","","","670","","284.99999999976717","","3","0","arrowright","1","arrowright","[0.675,0.325,0.85,0.15]","","",""
"sailing-trial","256","1147564","0.0-11.0-215.0","","","","false","","","","","","","","","","null","","883","","0","1","null","null","arrowup","[0.675,0.325,0.85,0.15]","","",""
"sailing-trial","257","1150594","0.0-11.0-216.0","","","","false","","","","","","","","","","7.000000000232831","","479","","0","0","arrowleft","0","arrowleft","[0.675,0.325,0.85,0.15]","","",""
"sailing-trial","258","1153215","0.0-11.0-217.0","","","","false","","","","","","","","","","null","","662","","0","1","null","null","arrowup","[0.675,0.325,0.85,0.15]","","",""
"sailing-trial","259","1160265","0.0-11.0-218.0","","","","false","","","","","","","","","","610","","2835","","0","0","arrowleft","0","arrowleft","[0.325,0.675,0.15,0.85]","","",""
"sailing-trial","260","1162838","0.0-11.0-219.0","","","","false","","","","","","","","","","null","","1060","","2","0","null","null","arrowup","[0.325,0.675,0.15,0.85]","","",""
"sailing-trial","261","1166887","0.0-11.0-220.0","","","","false","","","","","","","","","","688","","198.00000000023283","","3","0","arrowright","1","arrowright","[0.325,0.675,0.15,0.85]","","",""
"sailing-trial","262","1169308","0.0-11.0-221.0","","","","false","","","","","","","","","","null","","957","","0","0","null","null","arrowup","[0.325,0.675,0.15,0.85]","","",""
"sailing-trial","263","1173216","0.0-11.0-222.0","","","","false","","","","","","","","","","478","","117","","0","1","arrowleft","0","arrowleft","[0.325,0.675,0.15,0.85]","","",""
"sailing-trial","264","1175521","0.0-11.0-223.0","","","","false","","","","","","","","","","null","","868.9999999997672","","2","0","null","null","arrowup","[0.325,0.675,0.15,0.85]","","",""
"sailing-trial","265","1179750","0.0-11.0-224.0","","","","false","","","","","","","","","","636","","292","","1","1","arrowleft","0","arrowright","[0.325,0.675,0.15,0.85]","","",""
"sailing-trial","266","1182046","0.0-11.0-225.0","","","","false","","","","","","","","","","null","","766","","2","0","null","null","arrowup","[0.325,0.675,0.15,0.85]","","",""
"sailing-trial","267","1186028","0.0-11.0-226.0","","","","false","","","","","","","","","","524","","361","","1","0","arrowleft","0","arrowright","[0.325,0.675,0.15,0.85]","","",""
"sailing-trial","268","1188442","0.0-11.0-227.0","","","","false","","","","","","","","","","null","","880","","2","0","null","null","arrowup","[0.325,0.675,0.15,0.85]","","",""
"sailing-trial","269","1194667","0.0-11.0-228.0","","","","false","","","","","","","","","","614","","2678","","0","0","arrowleft","0","arrowleft","[0.325,0.675,0.15,0.85]","","",""
"sailing-trial","270","1196807","0.0-11.0-229.0","","","","false","","","","","","","","","","null","","699","","2","0","null","null","arrowup","[0.325,0.675,0.15,0.85]","","",""
"sailing-trial","271","1200375","0.0-11.0-230.0","","","","false","","","","","","","","","","507","","142","","3","0","arrowright","1","arrowright","[0.325,0.675,0.15,0.85]","","",""
"sailing-trial","272","1202454","0.0-11.0-231.0","","","","false","","","","","","","","","","null","","570","","2","0","null","null","arrowup","[0.325,0.675,0.15,0.85]","","",""
"sailing-trial","273","1207019","0.0-11.0-232.0","","","","false","","","","","","","","","","654","","401","","1","1","arrowleft","0","arrowright","[0.325,0.675,0.15,0.85]","","",""
"sailing-trial","274","1210936","0.0-11.0-233.0","","","","false","","","","","","","","","","null","","332","","3","1","null","null","arrowup","[0.325,0.675,0.15,0.85]","","",""
"sailing-trial","275","1217603","0.0-11.0-234.0","","","","false","","","","","","","","","","454.00000000023283","","610.9999999997672","","1","1","arrowleft","0","arrowright","[0.325,0.675,0.15,0.85]","","",""
"sailing-trial","276","1220139","0.0-11.0-235.0","","","","false","","","","","","","","","","null","","1007","","3","0","null","null","arrowup","[0.325,0.675,0.15,0.85]","","",""
"sailing-trial","277","1224177","0.0-11.0-236.0","","","","false","","","","","","","","","","648.9999999997672","","327","","0","0","arrowleft","0","arrowleft","[0.325,0.675,0.15,0.85]","","",""
"sailing-trial","278","1226528","0.0-11.0-237.0","","","","false","","","","","","","","","","null","","778","","1","0","null","null","arrowup","[0.325,0.675,0.15,0.85]","","",""
"sailing-trial","279","1230687","0.0-11.0-238.0","","","","false","","","","","","","","","","431","","252.99999999976717","","3","1","arrowright","1","arrowright","[0.15,0.85,0.325,0.675]","","",""
"sailing-trial","280","1233121","0.0-11.0-239.0","","","","false","","","","","","","","","","null","","462","","1","1","null","null","arrowup","[0.15,0.85,0.325,0.675]","","",""
"sailing-trial","281","1236821","0.0-11.0-240.0","","","","false","","","","","","","","","","0","","163","","3","1","arrowright","1","arrowright","[0.15,0.85,0.325,0.675]","","",""
"sailing-trial","282","1239022","0.0-11.0-241.0","","","","false","","","","","","","","","","null","","390","","3","1","null","null","arrowup","[0.15,0.85,0.325,0.675]","","",""
"sailing-trial","283","1243324","0.0-11.0-242.0","","","","false","","","","","","","","","","415","","654","","3","0","arrowright","1","arrowright","[0.15,0.85,0.325,0.675]","","",""
"sailing-trial","284","1246337","0.0-11.0-243.0","","","","false","","","","","","","","","","null","","1298","","1","0","null","null","arrowup","[0.15,0.85,0.325,0.675]","","",""
"sailing-trial","285","1250907","0.0-11.0-244.0","","","","false","","","","","","","","","","657","","559","","3","1","arrowright","1","arrowright","[0.15,0.85,0.325,0.675]","","",""
"sailing-trial","286","1254024","0.0-11.0-245.0","","","","false","","","","","","","","","","null","","993","","3","1","null","null","arrowup","[0.15,0.85,0.325,0.675]","","",""
"sailing-trial","287","1258874","0.0-11.0-246.0","","","","false","","","","","","","","","","565","","969","","3","1","arrowright","1","arrowright","[0.15,0.85,0.325,0.675]","","",""
"sailing-trial","288","1261163","0.0-11.0-247.0","","","","false","","","","","","","","","","null","","870","","2","0","null","null","arrowup","[0.15,0.85,0.325,0.675]","","",""
"sailing-trial","289","1264633","0.0-11.0-248.0","","","","false","","","","","","","","","","589","","166","","3","0","arrowright","1","arrowright","[0.15,0.85,0.325,0.675]","","",""
"sailing-trial","290","1266819","0.0-11.0-249.0","","","","false","","","","","","","","","","null","","962.9999999997672","","0","0","null","null","arrowup","[0.15,0.85,0.325,0.675]","","",""
"sailing-trial","291","1270908","0.0-11.0-250.0","","","","false","","","","","","","","","","603","","66.00000000023283","","3","1","arrowright","1","arrowright","[0.15,0.85,0.325,0.675]","","",""
"sailing-trial","292","1273192","0.0-11.0-251.0","","","","false","","","","","","","","","","null","","341","","3","1","null","null","arrowup","[0.15,0.85,0.325,0.675]","","",""
"sailing-trial","293","1276826","0.0-11.0-252.0","","","","false","","","","","","","","","","376","","397","","3","0","arrowright","1","arrowright","[0.15,0.85,0.325,0.675]","","",""
"sailing-trial","294","1278949","0.0-11.0-253.0","","","","false","","","","","","","","","","null","","682.0000000002328","","0","0","null","null","arrowup","[0.15,0.85,0.325,0.675]","","",""
"sailing-trial","295","1282803","0.0-11.0-254.0","","","","false","","","","","","","","","","818.9999999997672","","261","","0","0","arrowleft","0","arrowleft","[0.15,0.85,0.325,0.675]","","",""
"sailing-trial","296","1285560","0.0-11.0-255.0","","","","false","","","","","","","","","","null","","966","","1","1","null","null","arrowup","[0.15,0.85,0.325,0.675]","","",""
"sailing-trial","297","1289670","0.0-11.0-256.0","","","","false","","","","","","","","","","1060","","329.00000000023283","","1","0","arrowleft","0","arrowright","[0.675,0.325,0.85,0.15]","","",""
"sailing-trial","298","1291893","0.0-11.0-257.0","","","","false","","","","","","","","","","null","","806.9999999997672","","1","0","null","null","arrowup","[0.675,0.325,0.85,0.15]","","",""
"sailing-trial","299","1297145","0.0-11.0-258.0","","","","false","","","","","","","","","","619","","1251","","2","1","arrowright","1","arrowleft","[0.675,0.325,0.85,0.15]","","",""
"sailing-trial","300","1299677","0.0-11.0-259.0","","","","false","","","","","","","","","","null","","476.00000000023283","","0","1","null","null","arrowup","[0.675,0.325,0.85,0.15]","","",""
"sailing-trial","301","1304444","0.0-11.0-260.0","","","","false","","","","","","","","","","402","","1074","","2","1","arrowright","1","arrowleft","[0.675,0.325,0.85,0.15]","","",""
"sailing-trial","302","1306929","0.0-11.0-261.0","","","","false","","","","","","","","","","null","","486.00000000023283","","0","1","null","null","arrowup","[0.675,0.325,0.85,0.15]","","",""
"sailing-trial","303","1311112","0.0-11.0-262.0","","","","false","","","","","","","","","","534","","334","","2","1","arrowright","1","arrowleft","[0.675,0.325,0.85,0.15]","","",""
"sailing-trial","304","1313291","0.0-11.0-263.0","","","","false","","","","","","","","","","null","","685.9999999997672","","3","0","null","null","arrowup","[0.675,0.325,0.85,0.15]","","",""
"sailing-trial","305","1317100","0.0-11.0-264.0","","","","false","","","","","","","","","","583","","529.9999999997672","","2","0","arrowright","1","arrowleft","[0.675,0.325,0.85,0.15]","","",""
"sailing-trial","306","1319363","0.0-11.0-265.0","","","","false","","","","","","","","","","null","","447","","2","1","null","null","arrowup","[0.675,0.325,0.85,0.15]","","",""
"sailing-trial","307","1323131","0.0-11.0-266.0","","","","false","","","","","","","","","","348.99999999976717","","332","","2","1","arrowright","1","arrowleft","[0.675,0.325,0.85,0.15]","","",""
"sailing-trial","308","1327996","0.0-11.0-267.0","","","","false","","","","","","","","","","null","","2853","","1","1","null","null","arrowup","[0.675,0.325,0.85,0.15]","","",""
"sailing-trial","309","1332681","0.0-11.0-268.0","","","","false","","","","","","","","","","739","","427.00000000023283","","2","1","arrowright","1","arrowleft","[0.675,0.325,0.85,0.15]","","",""
"sailing-trial","310","1334573","0.0-11.0-269.0","","","","false","","","","","","","","","","null","","377","","3","0","null","null","arrowup","[0.675,0.325,0.85,0.15]","","",""
"sailing-trial","311","1339264","0.0-11.0-270.0","","","","false","","","","","","","","","","994","","362","","2","1","arrowright","1","arrowleft","[0.675,0.325,0.85,0.15]","","",""
"sailing-trial","312","1341748","0.0-11.0-271.0","","","","false","","","","","","","","","","null","","483","","2","1","null","null","arrowup","[0.675,0.325,0.85,0.15]","","",""
"sailing-trial","313","1345562","0.0-11.0-272.0","","","","false","","","","","","","","","","469.99999999976717","","204.00000000023283","","2","0","arrowright","1","arrowleft","[0.85,0.15,0.675,0.325]","","",""
"sailing-trial","314","1348347","0.0-11.0-273.0","","","","false","","","","","","","","","","null","","1033","","3","0","null","null","arrowup","[0.85,0.15,0.675,0.325]","","",""
"sailing-trial","315","1353100","0.0-11.0-274.0","","","","false","","","","","","","","","","974","","455","","0","1","arrowleft","0","arrowleft","[0.85,0.15,0.675,0.325]","","",""
"sailing-trial","316","1355668","0.0-11.0-275.0","","","","false","","","","","","","","","","null","","1022","","1","0","null","null","arrowup","[0.85,0.15,0.675,0.325]","","",""
"sailing-trial","317","1360269","0.0-11.0-276.0","","","","false","","","","","","","","","","1169","","434","","0","0","arrowleft","0","arrowleft","[0.85,0.15,0.675,0.325]","","",""
"sailing-trial","318","1363100","0.0-11.0-277.0","","","","false","","","","","","","","","","null","","767.0000000002328","","1","1","null","null","arrowup","[0.85,0.15,0.675,0.325]","","",""
"sailing-trial","319","1367217","0.0-11.0-278.0","","","","false","","","","","","","","","","432","","337","","0","1","arrowleft","0","arrowleft","[0.85,0.15,0.675,0.325]","","",""
"sailing-trial","320","1369651","0.0-11.0-279.0","","","","false","","","","","","","","","","null","","407","","2","1","null","null","arrowup","[0.85,0.15,0.675,0.325]","","",""
"sailing-trial","321","1372930","0.0-11.0-280.0","","","","false","","","","","","","","","","130","","337","","0","0","arrowleft","0","arrowleft","[0.85,0.15,0.675,0.325]","","",""
"sailing-trial","322","1375272","0.0-11.0-281.0","","","","false","","","","","","","","","","null","","778","","1","0","null","null","arrowup","[0.85,0.15,0.675,0.325]","","",""
"sailing-trial","323","1381818","0.0-11.0-282.0","","","","false","","","","","","","","","","790","","214","","2","1","arrowright","1","arrowleft","[0.85,0.15,0.675,0.325]","","",""
"sailing-trial","324","1384936","0.0-11.0-283.0","","","","false","","","","","","","","","","null","","938","","3","1","null","null","arrowup","[0.85,0.15,0.675,0.325]","","",""
"sailing-trial","325","1389086","0.0-11.0-284.0","","","","false","","","","","","","","","","579","","76","","2","1","arrowright","1","arrowleft","[0.85,0.15,0.675,0.325]","","",""
"sailing-trial","326","1391640","0.0-11.0-285.0","","","","false","","","","","","","","","","null","","998.9999999997672","","3","0","null","null","arrowup","[0.85,0.15,0.675,0.325]","","",""
"sailing-trial","327","1396466","0.0-11.0-286.0","","","","false","","","","","","","","","","1164","","672","","2","0","arrowright","1","arrowleft","[0.85,0.15,0.675,0.325]","","",""
"sailing-trial","328","1399586","0.0-11.0-287.0","","","","false","","","","","","","","","","null","","470","","3","1","null","null","arrowup","[0.85,0.15,0.675,0.325]","","",""
"sailing-trial","329","1404481","0.0-11.0-288.0","","","","false","","","","","","","","","","1605","","28","","1","0","arrowleft","0","arrowright","[0.85,0.15,0.675,0.325]","","",""
"sailing-trial","330","1408821","0.0-11.0-289.0","","","","false","","","","","","","","","","null","","2329","","0","1","null","null","arrowup","[0.85,0.15,0.675,0.325]","","",""
"sailing-trial","331","1412954","0.0-11.0-290.0","","","","false","","","","","","","","","","432","","234.99999999976717","","2","1","arrowright","1","arrowleft","[0.675,0.325,0.85,0.15]","","",""
"sailing-trial","332","1417572","0.0-11.0-291.0","","","","false","","","","","","","","","","null","","2325.000000000233","","0","1","null","null","arrowup","[0.675,0.325,0.85,0.15]","","",""
"sailing-trial","333","1421572","0.0-11.0-292.0","","","","false","","","","","","","","","","406","","29","","2","1","arrowright","1","arrowleft","[0.675,0.325,0.85,0.15]","","",""
"sailing-trial","334","1424062","0.0-11.0-293.0","","","","false","","","","","","","","","","null","","806","","3","0","null","null","arrowup","[0.675,0.325,0.85,0.15]","","",""
"sailing-trial","335","1428639","0.0-11.0-294.0","","","","false","","","","","","","","","","676","","471","","2","1","arrowright","1","arrowleft","[0.675,0.325,0.85,0.15]","","",""
"sailing-trial","336","1431673","0.0-11.0-295.0","","","","false","","","","","","","","","","null","","881","","2","1","null","null","arrowup","[0.675,0.325,0.85,0.15]","","",""
"sailing-trial","337","1437907","0.0-11.0-296.0","","","","false","","","","","","","","","","843","","67","","2","1","arrowright","1","arrowleft","[0.675,0.325,0.85,0.15]","","",""
"sailing-trial","338","1443341","0.0-11.0-297.0","","","","false","","","","","","","","","","null","","2378","","3","0","null","null","arrowup","[0.675,0.325,0.85,0.15]","","",""
"sailing-trial","339","1453043","0.0-11.0-298.0","","","","false","","","","","","","","","","5153","","194","","0","0","arrowleft","0","arrowleft","[0.675,0.325,0.85,0.15]","","",""
"sailing-trial","340","1459133","0.0-11.0-299.0","","","","false","","","","","","","","","","null","","779","","1","1","null","null","arrowup","[0.675,0.325,0.85,0.15]","","",""
"sailing-trial","341","1464429","0.0-11.0-300.0","","","","false","","","","","","","","","","680","","1229","","2","0","arrowright","1","arrowleft","[0.675,0.325,0.85,0.15]","","",""
"sailing-trial","342","1468042","0.0-11.0-301.0","","","","false","","","","","","","","","","null","","1106","","1","0","null","null","arrowup","[0.675,0.325,0.85,0.15]","","",""
"sailing-trial","343","1472981","0.0-11.0-302.0","","","","false","","","","","","","","","","1102","","915","","3","0","arrowright","1","arrowright","[0.675,0.325,0.85,0.15]","","",""
"sailing-trial","344","1475212","0.0-11.0-303.0","","","","false","","","","","","","","","","null","","513.9999999997672","","1","0","null","null","arrowup","[0.675,0.325,0.85,0.15]","","",""
"sailing-trial","345","1480003","0.0-11.0-304.0","","","","false","","","","","","","","","","527.0000000002328","","938","","1","1","arrowleft","0","arrowright","[0.675,0.325,0.85,0.15]","","",""
"sailing-trial","346","1483184","0.0-11.0-305.0","","","","false","","","","","","","","","","null","","509","","0","0","null","null","arrowup","[0.675,0.325,0.85,0.15]","","",""
"sailing-trial","347","1488104","0.0-11.0-306.0","","","","false","","","","","","","","","","1331","","169.00000000023283","","2","1","arrowright","1","arrowleft","[0.85,0.15,0.675,0.325]","","",""
"sailing-trial","348","1491956","0.0-11.0-307.0","","","","false","","","","","","","","","","null","","803","","1","0","null","null","arrowup","[0.85,0.15,0.675,0.325]","","",""
"sailing-trial","349","1497848","0.0-11.0-308.0","","","","false","","","","","","","","","","2619","","372.00000000023283","","1","0","arrowleft","0","arrowright","[0.85,0.15,0.675,0.325]","","",""
"sailing-trial","350","1500117","0.0-11.0-309.0","","","","false","","","","","","","","","","null","","774","","1","0","null","null","arrowup","[0.85,0.15,0.675,0.325]","","",""
"sailing-trial","351","1504368","0.0-11.0-310.0","","","","false","","","","","","","","","","385","","472","","2","0","arrowright","1","arrowleft","[0.85,0.15,0.675,0.325]","","",""
"sailing-trial","352","1507638","0.0-11.0-311.0","","","","false","","","","","","","","","","null","","894","","0","1","null","null","arrowup","[0.85,0.15,0.675,0.325]","","",""
"sailing-trial","353","1511320","0.0-11.0-312.0","","","","false","","","","","","","","","","509","","281","","3","0","arrowright","1","arrowright","[0.85,0.15,0.675,0.325]","","",""
"sailing-trial","354","1514123","0.0-11.0-313.0","","","","false","","","","","","","","","","null","","811","","3","1","null","null","arrowup","[0.85,0.15,0.675,0.325]","","",""
"sailing-trial","355","1518560","0.0-11.0-314.0","","","","false","","","","","","","","","","607","","464","","1","0","arrowleft","0","arrowright","[0.85,0.15,0.675,0.325]","","",""
"sailing-trial","356","1521324","0.0-11.0-315.0","","","","false","","","","","","","","","","null","","903.0000000002328","","3","1","null","null","arrowup","[0.85,0.15,0.675,0.325]","","",""
"sailing-trial","357","1525481","0.0-11.0-316.0","","","","false","","","","","","","","","","481","","359","","3","0","arrowright","1","arrowright","[0.85,0.15,0.675,0.325]","","",""
"sailing-trial","358","1528107","0.0-11.0-317.0","","","","false","","","","","","","","","","null","","711","","2","1","null","null","arrowup","[0.85,0.15,0.675,0.325]","","",""
"sailing-trial","359","1532174","0.0-11.0-318.0","","","","false","","","","","","","","","","499.00000000023283","","198.00000000023283","","3","1","arrowright","1","arrowright","[0.85,0.15,0.675,0.325]","","",""
"sailing-trial","360","1535042","0.0-11.0-319.0","","","","false","","","","","","","","","","null","","940","","2","1","null","null","arrowup","[0.85,0.15,0.675,0.325]","","",""
"sailing-trial","361","1538858","0.0-11.0-320.0","","","","false","","","","","","","","","","372","","166","","3","1","arrowright","1","arrowright","[0.85,0.15,0.675,0.325]","","",""
"sailing-trial","362","1540948","0.0-11.0-321.0","","","","false","","","","","","","","","","null","","586","","2","0","null","null","arrowup","[0.85,0.15,0.675,0.325]","","",""
"sailing-trial","363","1544118","0.0-11.0-322.0","","","","false","","","","","","","","","","531","","167","","3","0","arrowright","1","arrowright","[0.675,0.325,0.85,0.15]","","",""
"sailing-trial","364","1545657","0.0-11.0-323.0","","","","false","","","","","","","","","","null","","228.99999999976717","","3","0","null","null","arrowup","[0.675,0.325,0.85,0.15]","","",""
"sailing-trial","365","1550994","0.0-11.0-324.0","","","","false","","","","","","","","","","689.0000000002328","","206","","2","1","arrowright","1","arrowleft","[0.675,0.325,0.85,0.15]","","",""
"sailing-trial","366","1553281","0.0-11.0-325.0","","","","false","","","","","","","","","","null","","795.0000000002328","","0","0","null","null","arrowup","[0.675,0.325,0.85,0.15]","","",""
"sailing-trial","367","1557594","0.0-11.0-326.0","","","","false","","","","","","","","","","474.99999999976717","","461","","2","1","arrowright","1","arrowleft","[0.675,0.325,0.85,0.15]","","",""
"sailing-trial","368","1560094","0.0-11.0-327.0","","","","false","","","","","","","","","","null","","88","","2","1","null","null","arrowup","[0.675,0.325,0.85,0.15]","","",""
"sailing-trial","369","1564610","0.0-11.0-328.0","","","","false","","","","","","","","","","480","","594","","2","1","arrowright","1","arrowleft","[0.675,0.325,0.85,0.15]","","",""
"sailing-trial","370","1566671","0.0-11.0-329.0","","","","false","","","","","","","","","","null","","458","","1","0","null","null","arrowup","[0.675,0.325,0.85,0.15]","","",""
"sailing-trial","371","1571562","0.0-11.0-330.0","","","","false","","","","","","","","","","665","","432","","2","1","arrowright","1","arrowleft","[0.675,0.325,0.85,0.15]","","",""
"sailing-trial","372","1574279","0.0-11.0-331.0","","","","false","","","","","","","","","","null","","401","","2","1","null","null","arrowup","[0.675,0.325,0.85,0.15]","","",""
"sailing-trial","373","1578546","0.0-11.0-332.0","","","","false","","","","","","","","","","219","","50","","2","1","arrowright","1","arrowleft","[0.675,0.325,0.85,0.15]","","",""
"sailing-trial","374","1582096","0.0-11.0-333.0","","","","false","","","","","","","","","","null","","503","","3","0","null","null","arrowup","[0.675,0.325,0.85,0.15]","","",""
"sailing-trial","375","1588279","0.0-11.0-334.0","","","","false","","","","","","","","","","1628","","1188","","3","1","arrowright","1","arrowright","[0.675,0.325,0.85,0.15]","","",""
"sailing-trial","376","1591880","0.0-11.0-335.0","","","","false","","","","","","","","","","null","","1329","","2","1","null","null","arrowup","[0.675,0.325,0.85,0.15]","","",""
"sailing-trial","377","1597180","0.0-11.0-336.0","","","","false","","","","","","","","","","1015","","11","","2","1","arrowright","1","arrowleft","[0.675,0.325,0.85,0.15]","","",""
"sailing-trial","378","1599946","0.0-11.0-337.0","","","","false","","","","","","","","","","null","","718","","2","1","null","null","arrowup","[0.675,0.325,0.85,0.15]","","",""
"sailing-trial","379","1604393","0.0-11.0-338.0","","","","false","","","","","","","","","","564","","750","","2","0","arrowright","1","arrowleft","[0.15,0.85,0.325,0.675]","","",""
"sailing-trial","380","1606982","0.0-11.0-339.0","","","","false","","","","","","","","","","null","","791","","2","1","null","null","arrowup","[0.15,0.85,0.325,0.675]","","",""
"sailing-trial","381","1611533","0.0-11.0-340.0","","","","false","","","","","","","","","","480","","659","","3","1","arrowright","1","arrowright","[0.15,0.85,0.325,0.675]","","",""
"sailing-trial","382","1614082","0.0-11.0-341.0","","","","false","","","","","","","","","","null","","508","","2","1","null","null","arrowup","[0.15,0.85,0.325,0.675]","","",""
"sailing-trial","383","1618272","0.0-11.0-342.0","","","","false","","","","","","","","","","597","","881","","2","0","arrowright","1","arrowleft","[0.15,0.85,0.325,0.675]","","",""
"sailing-trial","384","1620419","0.0-11.0-343.0","","","","false","","","","","","","","","","null","","544","","0","0","null","null","arrowup","[0.15,0.85,0.325,0.675]","","",""
"sailing-trial","385","1625300","0.0-11.0-344.0","","","","false","","","","","","","","","","499.00000000023283","","935","","3","1","arrowright","1","arrowright","[0.15,0.85,0.325,0.675]","","",""
"sailing-trial","386","1627413","0.0-11.0-345.0","","","","false","","","","","","","","","","null","","522","","2","0","null","null","arrowup","[0.15,0.85,0.325,0.675]","","",""
"sailing-trial","387","1630982","0.0-11.0-346.0","","","","false","","","","","","","","","","518","","150.99999999976717","","0","0","arrowleft","0","arrowleft","[0.15,0.85,0.325,0.675]","","",""
"sailing-trial","388","1633484","0.0-11.0-347.0","","","","false","","","","","","","","","","null","","558","","1","1","null","null","arrowup","[0.15,0.85,0.325,0.675]","","",""
"sailing-trial","389","1638019","0.0-11.0-348.0","","","","false","","","","","","","","","","687","","250.99999999976717","","1","1","arrowleft","0","arrowright","[0.15,0.85,0.325,0.675]","","",""
"sailing-trial","390","1640110","0.0-11.0-349.0","","","","false","","","","","","","","","","null","","358","","0","0","null","null","arrowup","[0.15,0.85,0.325,0.675]","","",""
"sailing-trial","391","1644802","0.0-11.0-350.0","","","","false","","","","","","","","","","847.0000000002328","","366","","1","1","arrowleft","0","arrowright","[0.15,0.85,0.325,0.675]","","",""
"sailing-trial","392","1647153","0.0-11.0-351.0","","","","false","","","","","","","","","","null","","997","","2","0","null","null","arrowup","[0.15,0.85,0.325,0.675]","","",""
"sailing-trial","393","1651119","0.0-11.0-352.0","","","","false","","","","","","","","","","503","","113.99999999976717","","3","1","arrowright","1","arrowright","[0.15,0.85,0.325,0.675]","","",""
"sailing-trial","394","1653269","0.0-11.0-353.0","","","","false","","","","","","","","","","null","","287","","3","1","null","null","arrowup","[0.15,0.85,0.325,0.675]","","",""
"sailing-trial","395","1656770","0.0-11.0-354.0","","","","false","","","","","","","","","","305","","22","","3","1","arrowright","1","arrowright","[0.15,0.85,0.325,0.675]","","",""
"sailing-trial","396","1658948","0.0-11.0-355.0","","","","false","","","","","","","","","","null","","628","","3","0","null","null","arrowup","[0.15,0.85,0.325,0.675]","","",""
"sailing-trial","397","1662520","0.0-11.0-356.0","","","","false","","","","","","","","","","457","","36","","3","1","arrowright","1","arrowright","[0.15,0.85,0.325,0.675]","","",""
"sailing-trial","398","1665103","0.0-11.0-357.0","","","","false","","","","","","","","","","null","","699","","2","1","null","null","arrowup","[0.15,0.85,0.325,0.675]","","",""
"sailing-trial","399","1667998","0.0-11.0-358.0","","","","false","","","","","","","","","","308","","95","","3","0","arrowright","1","arrowright","[0.15,0.85,0.325,0.675]","","",""
"sailing-trial","400","1670121","0.0-11.0-359.0","","","","false","","","","","","","","","","null","","405","","3","1","null","null","arrowup","[0.15,0.85,0.325,0.675]","","",""
"sailing-trial","401","1673888","0.0-11.0-360.0","","","","false","","","","","","","","","","322","","302","","3","1","arrowright","1","arrowright","[0.15,0.85,0.325,0.675]","","",""
"sailing-trial","402","1676538","0.0-11.0-361.0","","","","false","","","","","","","","","","null","","707.9999999997672","","0","1","null","null","arrowup","[0.15,0.85,0.325,0.675]","","",""
"sailing-trial","403","1682740","0.0-11.0-362.0","","","","false","","","","","","","","","","632","","1726","","3","1","arrowright","1","arrowright","[0.325,0.675,0.15,0.85]","","",""
"sailing-trial","404","1684381","0.0-11.0-363.0","","","","false","","","","","","","","","","null","","387","","2","0","null","null","arrowup","[0.325,0.675,0.15,0.85]","","",""
"sailing-trial","405","1688040","0.0-11.0-364.0","","","","false","","","","","","","","","","445.99999999976717","","76","","3","1","arrowright","1","arrowright","[0.325,0.675,0.15,0.85]","","",""
"sailing-trial","406","1691574","0.0-11.0-365.0","","","","false","","","","","","","","","","null","","487","","3","0","null","null","arrowup","[0.325,0.675,0.15,0.85]","","",""
"sailing-trial","407","1698712","0.0-11.0-366.0","","","","false","","","","","","","","","","4049","","520","","3","0","arrowright","1","arrowright","[0.325,0.675,0.15,0.85]","","",""
"sailing-trial","408","1701274","0.0-11.0-367.0","","","","false","","","","","","","","","","null","","829","","3","1","null","null","arrowup","[0.325,0.675,0.15,0.85]","","",""
"sailing-trial","409","1705440","0.0-11.0-368.0","","","","false","","","","","","","","","","515","","281","","3","1","arrowright","1","arrowright","[0.325,0.675,0.15,0.85]","","",""
"sailing-trial","410","1707538","0.0-11.0-369.0","","","","false","","","","","","","","","","null","","531","","2","0","null","null","arrowup","[0.325,0.675,0.15,0.85]","","",""
"sailing-trial","411","1711809","0.0-11.0-370.0","","","","false","","","","","","","","","","676","","266","","3","1","arrowright","1","arrowright","[0.325,0.675,0.15,0.85]","","",""
"sailing-trial","412","1714491","0.0-11.0-371.0","","","","false","","","","","","","","","","null","","685","","3","1","null","null","arrowup","[0.325,0.675,0.15,0.85]","","",""
"sailing-trial","413","1721013","0.0-11.0-372.0","","","","false","","","","","","","","","","862.0000000002328","","2909","","3","0","arrowright","1","arrowright","[0.325,0.675,0.15,0.85]","","",""
"sailing-trial","414","1723456","0.0-11.0-373.0","","","","false","","","","","","","","","","null","","822.0000000002328","","3","0","null","null","arrowup","[0.325,0.675,0.15,0.85]","","",""
"sailing-trial","415","1727526","0.0-11.0-374.0","","","","false","","","","","","","","","","473","","282","","3","1","arrowright","1","arrowright","[0.325,0.675,0.15,0.85]","","",""
"sailing-trial","416","1729379","0.0-11.0-375.0","","","","false","","","","","","","","","","null","","400","","2","0","null","null","arrowup","[0.325,0.675,0.15,0.85]","","",""
"sailing-trial","417","1733009","0.0-11.0-376.0","","","","false","","","","","","","","","","434","","87","","3","1","arrowright","1","arrowright","[0.325,0.675,0.15,0.85]","","",""
"sailing-trial","418","1735128","0.0-11.0-377.0","","","","false","","","","","","","","","","null","","389","","3","1","null","null","arrowup","[0.325,0.675,0.15,0.85]","","",""
"sailing-trial","419","1738048","0.0-11.0-378.0","","","","false","","","","","","","","","","286","","50","","3","0","arrowright","1","arrowright","[0.325,0.675,0.15,0.85]","","",""
"sailing-trial","420","1739684","0.0-11.0-379.0","","","","false","","","","","","","","","","null","","454","","0","0","null","null","arrowup","[0.325,0.675,0.15,0.85]","","",""
"sailing-trial","421","1743676","0.0-11.0-380.0","","","","false","","","","","","","","","","392","","517","","1","0","arrowleft","0","arrowright","[0.325,0.675,0.15,0.85]","","",""
"sailing-trial","422","1746160","0.0-11.0-381.0","","","","false","","","","","","","","","","null","","942","","1","0","null","null","arrowup","[0.325,0.675,0.15,0.85]","","",""
"sailing-trial","423","1750094","0.0-11.0-382.0","","","","false","","","","","","","","","","541","","327","","2","0","arrowright","1","arrowleft","[0.15,0.85,0.325,0.675]","","",""
"sailing-trial","424","1751756","0.0-11.0-383.0","","","","false","","","","","","","","","","null","","450.99999999976717","","0","0","null","null","arrowup","[0.15,0.85,0.325,0.675]","","",""
"sailing-trial","425","1755513","0.0-11.0-384.0","","","","false","","","","","","","","","","307","","331","","3","1","arrowright","1","arrowright","[0.15,0.85,0.325,0.675]","","",""
"sailing-trial","426","1758313","0.0-11.0-385.0","","","","false","","","","","","","","","","null","","339","","1","1","null","null","arrowup","[0.15,0.85,0.325,0.675]","","",""
"sailing-trial","427","1761896","0.0-11.0-386.0","","","","false","","","","","","","","","","65","","48","","3","1","arrowright","1","arrowright","[0.15,0.85,0.325,0.675]","","",""
"sailing-trial","428","1763829","0.0-11.0-387.0","","","","false","","","","","","","","","","null","","464","","2","0","null","null","arrowup","[0.15,0.85,0.325,0.675]","","",""
"sailing-trial","429","1767930","0.0-11.0-388.0","","","","false","","","","","","","","","","450","","344","","3","1","arrowright","1","arrowright","[0.15,0.85,0.325,0.675]","","",""
"sailing-trial","430","1769535","0.0-11.0-389.0","","","","false","","","","","","","","","","null","","334","","2","0","null","null","arrowup","[0.15,0.85,0.325,0.675]","","",""
"sailing-trial","431","1772981","0.0-11.0-390.0","","","","false","","","","","","","","","","113","","51.99999999976717","","3","1","arrowright","1","arrowright","[0.15,0.85,0.325,0.675]","","",""
"sailing-trial","432","1774764","0.0-11.0-391.0","","","","false","","","","","","","","","","null","","93","","1","1","null","null","arrowup","[0.15,0.85,0.325,0.675]","","",""
"sailing-trial","433","1777349","0.0-11.0-392.0","","","","false","","","","","","","","","","44","","18","","3","0","arrowright","1","arrowright","[0.15,0.85,0.325,0.675]","","",""
"sailing-trial","434","1779416","0.0-11.0-393.0","","","","false","","","","","","","","","","null","","343","","2","1","null","null","arrowup","[0.15,0.85,0.325,0.675]","","",""
"sailing-trial","435","1782948","0.0-11.0-394.0","","","","false","","","","","","","","","","97","","46.00000000023283","","3","1","arrowright","1","arrowright","[0.15,0.85,0.325,0.675]","","",""
"sailing-trial","436","1785032","0.0-11.0-395.0","","","","false","","","","","","","","","","null","","399","","0","0","null","null","arrowup","[0.15,0.85,0.325,0.675]","","",""
"sailing-trial","437","1789517","0.0-11.0-396.0","","","","false","","","","","","","","","","553","","659.9999999997672","","3","1","arrowright","1","arrowright","[0.15,0.85,0.325,0.675]","","",""
"sailing-trial","438","1791533","0.0-11.0-397.0","","","","false","","","","","","","","","","null","","318","","3","1","null","null","arrowup","[0.15,0.85,0.325,0.675]","","",""
"sailing-trial","439","1795667","0.0-11.0-398.0","","","","false","","","","","","","","","","400.00000000023283","","284.00000000023283","","3","1","arrowright","1","arrowright","[0.15,0.85,0.325,0.675]","","",""
"sailing-trial","440","1798133","0.0-11.0-399.0","","","","false","","","","","","","","","","null","","358","","3","1","null","null","arrowup","[0.15,0.85,0.325,0.675]","","",""
"instructions","441","1801162","0.0-12.0","","","","","","","","","","3027.999999999767","","","","","","","","","","","","","","","","[{""page_index"":0,""viewing_time"":3026.999999999767}]"
"survey-debrief","442","1870439","0.0-13.0","","","","","","","","","","69272.99999999977","","","","","","","","","","","","","","{""difficulty"":""4"",""fun"":""2"",""clarity"":""5"",""strategy"":"""",""feedback"":""""}","",""
