"trial_type","trial_index","time_elapsed","internal_node_id","value","metadata","success","timeout","failed_images","failed_audio","failed_video","browser_interaction","low_quality","rt","stimulus","response","button_pressed","island_rt","island_response","boat_rt","boat_response","boat","reward","island_key","island","boat_key","reward_probabilities","responses","num_errors","view_history"
"pavlovia","0","3","0.0-0.0","","","","","","","","","","","","","","","","","","","","","","","","","",""
"call-function","1","4","0.0-1.0","","{""task_version"":""sailing_part1_v1"",""task_condition"":""good"",""boats"":[""C"",""A"",""B"",""D""],""boats_demo"":[""F"",""E"",""G"",""H""],""islands"":[""A"",""B""],""subject_id"":""14782"",""age"":""22"",""gender"":""Female""}","","","","","","","","","","","","","","","","","","","","","","","",""
"preload","2","1058","0.0-2.0","","","true","false","[]","[]","[]","[{""event"":""fullscreenenter"",""trial"":3,""time"":2646}]","false","","","","","","","","","","","","","","","","",""
"fullscreen","3","3632","0.0-3.0","","","true","","","","","","","","","","","","","","","","","","","","","","",""
"audio-keyboard-response","4","5073","0.0-4.0-0.0","","","","","","","","","","1429.3333333333333","audio/beep_loop.wav"," ","","","","","","","","","","","","","",""
"audio-test","5","6656","0.0-4.0-1.0","","","","","","","","","","null","audio/turtle.mp3","","3","","","","","","","","","","","","",""
"audio-test","6","8713","0.0-4.0-2.0","","","","","","","","","","null","audio/shark.mp3","","2","","","","","","","","","","","","",""
"sailing-instructions","7","40801","0.0-5.0-0.0-0.0","","","","","","","","","","","","","","null","null","null","null","null","null","","","","","","",""
"sailing-trial","8","44133","0.0-5.0-0.0-1.0-0.0","","","","false","","","","","","","","","","2220.60000000149","","null","","null","null","arrowleft","0","null","null","","",""
"sailing-trial","9","45966","0.0-5.0-0.0-1.0-1.0","","","","false","","","","","","","","","","725.6999999955297","","null","","null","null","arrowright","1","null","null","","",""
"sailing-trial","10","48882","0.0-5.0-0.0-1.0-2.0","","","","false","","","","","","","","","","1807.6000000014901","","null","","null","null","arrowright","1","null","null","","",""
"sailing-instructions","11","91625","0.0-5.0-0.0-2.0","","","","","","","","","","","","","","null","null","null","null","0","null","","","","","","",""
"sailing-trial","12","96053","0.0-5.0-0.0-3.0-0.0","","","","false","","","","","","","","","","null","","1471.1000000014901","","2","1","null","null","arrowleft","[1,1,1,1]","","",""
"sailing-trial","13","99204","0.0-5.0-0.0-3.0-1.0","","","","false","","","","","","","","","","null","","716.7999999970198","","3","1","null","null","arrowright","[1,1,1,1]","","",""
"sailing-trial","14","101839","0.0-5.0-0.0-3.0-2.0","","","","false","","","","","","","","","","null","","958.5","","3","0","null","null","arrowright","[0,0,0,0]","","",""
"sailing-instructions","15","109286","0.0-5.0-0.0-4.0","","","","","","","","","","","","","","null","null","null","null","null","null","","","","","","",""
"sailing-comprehension","16","129843","0.0-5.0-0.0-5.0","","","","","","","","","","9764.20000000298","","","","","","","","","","","","","","[""true"",""false"",""false"",""true""]","1",""
"sailing-instructions","17","158876","0.0-5.0-0.1-0.1","","","","","","","","","","","","","","null","null","null","null","null","null","","","","","","",""
"sailing-trial","18","162320","0.0-5.0-0.1-1.1-0.1","","","","false","","","","","","","","","","2333.8000000044703","","null","","null","null","arrowleft","0","null","null","","",""
"sailing-trial","19","164271","0.0-5.0-0.1-1.1-1.1","","","","false","","","","","","","","","","844.7000000029802","","null","","null","null","arrowright","1","null","null","","",""
"sailing-trial","20","166487","0.0-5.0-0.1-1.1-2.1","","","","false","","","","","","","","","","1100.6999999955297","","null","","null","null","arrowright","1","null","null","","",""
"sailing-instructions","21","206734","0.0-5.0-0.1-2.1","","","","","","","","","","","","","","null","null","null","null","0","null","","","","","","",""
"sailing-trial","22","211751","0.0-5.0-0.1-3.1-0.1","","","","false","","","","","","","","","","null","","1795.1000000014901","","2","1","null","null","arrowleft","[1,1,1,1]","","",""
"sailing-trial","23","215003","0.0-5.0-0.1-3.1-1.1","","","","false","","","","","","","","","","null","","346.3999999985099","","3","1","null","null","arrowright","[1,1,1,1]","","",""
"sailing-trial","24","218417","0.0-5.0-0.1-3.1-2.1","","","","false","","","","","","","","","","null","","338.20000000298023","","2","0","null","null","arrowleft","[0,0,0,0]","","",""
"sailing-instructions","25","226433","0.0-5.0-0.1-4.1","","","","","","","","","","","","","","null","null","null","null","null","null","","","","","","",""
"sailing-comprehension","26","240578","0.0-5.0-0.1-5.1","","","","","","","","","","12610.39999999851","","","","","","","","","","","","","","[""true"",""true"",""false"",""true""]","0",""
"sailing-instructions","27","301267","0.0-6.0-0.0-0.0","","","","","","","","","","","","","","null","null","null","null","null","null","","","","","","",""
"sailing-comprehension","28","313582","0.0-6.0-0.0-1.0","","","","","","","","","","10941.5","","","","","","","","","","","","","","[""true"",""false"",""true""]","0",""
"sailing-instructions","29","327410","0.0-7.0-0.0-0.0","","","","","","","","","","","","","","null","null","null","null","null","null","","","","","","",""
"sailing-trial","30","332249","0.0-7.0-0.0-1.0-0.0","","","","false","","","","","","","","","","null","","2288.5999999940395","","0","1","null","null","arrowup","[0.2,0.8,0.2,0.8]","","",""
"sailing-trial","31","336115","0.0-7.0-0.0-1.0-1.0","","","","false","","","","","","","","","","null","","1509.6000000014901","","1","1","null","null","arrowup","[0.2,0.8,0.2,0.8]","","",""
"sailing-trial","32","339432","0.0-7.0-0.0-1.0-2.0","","","","false","","","","","","","","","","null","","1120.1999999955297","","2","1","null","null","arrowup","[0.2,0.8,0.2,0.8]","","",""
"sailing-trial","33","342349","0.0-7.0-0.0-1.0-3.0","","","","false","","","","","","","","","","null","","698.5","","3","1","null","null","arrowup","[0.2,0.8,0.2,0.8]","","",""
"sailing-comprehension","34","357254","0.0-7.0-0.0-2.0","","","","","","","","","","12878.59999999404","","","","","","","","","","","","","","[""true""]","1",""
"sailing-instructions","35","371790","0.0-7.0-0.1-0.1","","","","","","","","","","","","","","null","null","null","null","null","null","","","","","","",""
"sailing-trial","36","375346","0.0-7.0-0.1-1.1-0.1","","","","false","","","","","","","","","","null","","1292.5","","0","0","null","null","arrowup","[0.2,0.8,0.2,0.8]","","",""
"sailing-trial","37","377195","0.0-7.0-0.1-1.1-1.1","","","","false","","","","","","","","","","null","","489.20000000298023","","1","0","null","null","arrowup","[0.2,0.8,0.2,0.8]","","",""
"sailing-trial","38","378869","0.0-7.0-0.1-1.1-2.1","","","","false","","","","","","","","","","null","","352.20000000298023","","2","0","null","null","arrowup","[0.2,0.8,0.2,0.8]","","",""
"sailing-trial","39","380847","0.0-7.0-0.1-1.1-3.1","","","","false","","","","","","","","","","null","","142.89999999850988","","3","1","null","null","arrowup","[0.2,0.8,0.2,0.8]","","",""
"sailing-comprehension","40","386984","0.0-7.0-0.1-2.1","","","","","","","","","","5246.20000000298","","","","","","","","","","","","","","[""false""]","0",""
"sailing-instructions","41","398533","0.0-8.0-0.0-0.0","","","","","","","","","","","","","","null","null","null","null","null","null","","","","","","",""
"sailing-comprehension","42","402906","0.0-8.0-0.0-1.0","","","","","","","","","","3850.7999999970198","","","","","","","","","","","","","","[""true""]","0",""
"sailing-instructions","43","425512","0.0-9.0-0.0-0.0","","","","","","","","","","","","","","null","null","null","null","null","null","","","","","","",""
"sailing-trial","44","431052","0.0-9.0-0.0-1.0-0.0","","","","false","","","","","","","","","","758.3999999985099","","1372.5","","2","0","arrowright","1","arrowleft","[0.2,0.8,0.2,0.8]","","",""
"sailing-trial","45","435228","0.0-9.0-0.0-1.0-1.0","","","","false","","","","","","","","","","922.5","","110.19999999552965","","3","1","arrowright","1","arrowright","[0.2,0.8,0.2,0.8]","","",""
"sailing-trial","46","438335","0.0-9.0-0.0-1.0-2.0","","","","false","","","","","","","","","","null","","1222.1000000014901","","0","0","null","null","arrowup","[0.2,0.8,0.2,0.8]","","",""
"sailing-trial","47","441913","0.0-9.0-0.0-1.0-3.0","","","","false","","","","","","","","","","604","","18","","3","1","arrowright","1","arrowright","[0.2,0.8,0.2,0.8]","","",""
"sailing-trial","48","445012","0.0-9.0-0.0-1.0-4.0","","","","false","","","","","","","","","","null","","1149.2000000029802","","3","1","null","null","arrowup","[0.2,0.8,0.2,0.8]","","",""
"sailing-trial","49","449050","0.0-9.0-0.0-1.0-5.0","","","","false","","","","","","","","","","632.7999999970198","","945.7000000029802","","3","0","arrowright","1","arrowright","[0.2,0.8,0.2,0.8]","","",""
"sailing-instructions","50","473042","0.0-10.0","","","","","","","","","","","","","","null","null","null","null","null","null","","","","","","",""
"sailing-trial","51","477148","0.0-11.0-0.0","","","","false","","","","","","","","","","987.8999999985099","","232.5","","3","0","arrowright","1","arrowright","[0.325,0.675,0.85,0.15]","","",""
"sailing-trial","52","479915","0.0-11.0-1.0","","","","false","","","","","","","","","","null","","994.6999999955297","","0","0","null","null","arrowup","[0.325,0.675,0.85,0.15]","","",""
"sailing-trial","53","483067","0.0-11.0-2.0","","","","false","","","","","","","","","","552.2000000029802","","146.39999999850988","","2","0","arrowright","1","arrowleft","[0.325,0.675,0.85,0.15]","","",""
"sailing-trial","54","485661","0.0-11.0-3.0","","","","false","","","","","","","","","","null","","800.5","","1","1","null","null","arrowup","[0.325,0.675,0.85,0.15]","","",""
"sailing-trial","55","489212","0.0-11.0-4.0","","","","false","","","","","","","","","","443.3999999985099","","244.60000000149012","","1","1","arrowleft","0","arrowright","[0.325,0.675,0.85,0.15]","","",""
"sailing-trial","56","492278","0.0-11.0-5.0","","","","false","","","","","","","","","","null","","1254.1000000014901","","2","1","null","null","arrowup","[0.325,0.675,0.85,0.15]","","",""
"sailing-trial","57","496443","0.0-11.0-6.0","","","","false","","","","","","","","","","813","","435.5","","1","1","arrowleft","0","arrowright","[0.325,0.675,0.85,0.15]","","",""
"sailing-trial","58","498911","0.0-11.0-7.0","","","","false","","","","","","","","","","null","","540.2999999970198","","0","1","null","null","arrowup","[0.325,0.675,0.85,0.15]","","",""
"sailing-trial","59","502178","0.0-11.0-8.0","","","","false","","","","","","","","","","395.1000000014901","","5.9000000059604645","","1","1","arrowleft","0","arrowright","[0.325,0.675,0.85,0.15]","","",""
"sailing-trial","60","503994","0.0-11.0-9.0","","","","false","","","","","","","","","","null","","663.8999999985099","","3","0","null","null","arrowup","[0.325,0.675,0.85,0.15]","","",""
"sailing-trial","61","507811","0.0-11.0-10.0","","","","false","","","","","","","","","","644","","226.89999999850988","","1","1","arrowleft","0","arrowright","[0.325,0.675,0.85,0.15]","","",""
"sailing-trial","62","509861","0.0-11.0-11.0","","","","false","","","","","","","","","","null","","516.1000000014901","","1","1","null","null","arrowup","[0.325,0.675,0.85,0.15]","","",""
"sailing-trial","63","513151","0.0-11.0-12.0","","","","false","","","","","","","","","","463.5","","355.30000000447035","","1","0","arrowleft","0","arrowright","[0.325,0.675,0.85,0.15]","","",""
"sailing-trial","64","515628","0.0-11.0-13.0","","","","false","","","","","","","","","","null","","649.3000000044703","","2","1","null","null","arrowup","[0.325,0.675,0.85,0.15]","","",""
"sailing-trial","65","519009","0.0-11.0-14.0","","","","false","","","","","","","","","","464.30000000447035","","37.20000000298023","","0","1","arrowleft","0","arrowleft","[0.325,0.675,0.85,0.15]","","",""
"sailing-trial","66","521477","0.0-11.0-15.0","","","","false","","","","","","","","","","null","","518.5999999940395","","2","1","null","null","arrowup","[0.325,0.675,0.85,0.15]","","",""
"sailing-trial","67","524252","0.0-11.0-16.0","","","","false","","","","","","","","","","407.3999999985099","","49.29999999701977","","0","0","arrowleft","0","arrowleft","[0.325,0.675,0.85,0.15]","","",""
"sailing-trial","68","526444","0.0-11.0-17.0","","","","false","","","","","","","","","","null","","885.5","","0","0","null","null","arrowup","[0.325,0.675,0.85,0.15]","","",""
"sailing-trial","69","530159","0.0-11.0-18.0","","","","false","","","","","","","","","","500.30000000447035","","339.6000000014901","","2","1","arrowright","1","arrowleft","[0.15,0.85,0.675,0.325]","","",""
"sailing-trial","70","532560","0.0-11.0-19.0","","","","false","","","","","","","","","","null","","590.5","","2","1","null","null","arrowup","[0.15,0.85,0.675,0.325]","","",""
"sailing-trial","71","536459","0.0-11.0-20.0","","","","false","","","","","","","","","","533.0999999940395","","174.89999999850988","","2","1","arrowright","1","arrowleft","[0.15,0.85,0.675,0.325]","","",""
"sailing-trial","72","538844","0.0-11.0-21.0","","","","false","","","","","","","","","","null","","600.6000000014901","","3","1","null","null","arrowup","[0.15,0.85,0.675,0.325]","","",""
"sailing-trial","73","542493","0.0-11.0-22.0","","","","false","","","","","","","","","","503","","258.80000000447035","","2","1","arrowright","1","arrowleft","[0.15,0.85,0.675,0.325]","","",""
"sailing-trial","74","544254","0.0-11.0-23.0","","","","false","","","","","","","","","","null","","472","","0","0","null","null","arrowup","[0.15,0.85,0.675,0.325]","","",""
"sailing-trial","75","547843","0.0-11.0-24.0","","","","false","","","","","","","","","","532.7999999970198","","284.6000000014901","","2","1","arrowright","1","arrowleft","[0.15,0.85,0.675,0.325]","","",""
"sailing-trial","76","550077","0.0-11.0-25.0","","","","false","","","","","","","","","","null","","470.1000000014901","","0","1","null","null","arrowup","[0.15,0.85,0.675,0.325]","","",""
"sailing-trial","77","554252","0.0-11.0-26.0","","","","false","","","","","","","","","","483.3999999985099","","1413.7999999970198","","2","0","arrowright","1","arrowleft","[0.15,0.85,0.675,0.325]","","",""
"sailing-trial","78","556419","0.0-11.0-27.0","","","","false","","","","","","","","","","null","","836.8000000044703","","2","0","null","null","arrowup","[0.15,0.85,0.675,0.325]","","",""
"sailing-trial","79","559809","0.0-11.0-28.0","","","","false","","","","","","","","","","515","","84.79999999701977","","2","1","arrowright","1","arrowleft","[0.15,0.85,0.675,0.325]","","",""
"sailing-trial","80","562092","0.0-11.0-29.0","","","","false","","","","","","","","","","null","","541","","2","1","null","null","arrowup","[0.15,0.85,0.675,0.325]","","",""
"sailing-trial","81","565441","0.0-11.0-30.0","","","","false","","","","","","","","","","497.8999999985099","","136.20000000298023","","2","1","arrowright","1","arrowleft","[0.15,0.85,0.675,0.325]","","",""
"sailing-trial","82","567876","0.0-11.0-31.0","","","","false","","","","","","","","","","null","","640","","1","1","null","null","arrowup","[0.15,0.85,0.675,0.325]","","",""
"sailing-trial","83","571259","0.0-11.0-32.0","","","","false","","","","","","","","","","524","","55.900000005960464","","2","1","arrowright","1","arrowleft","[0.15,0.85,0.675,0.325]","","",""
"sailing-trial","84","573483","0.0-11.0-33.0","","","","false","","","","","","","","","","null","","1014.7999999970198","","3","0","null","null","arrowup","[0.15,0.85,0.675,0.325]","","",""
"sailing-trial","85","577575","0.0-11.0-34.0","","","","false","","","","","","","","","","557","","668.8999999985099","","2","1","arrowright","1","arrowleft","[0.675,0.325,0.15,0.85]","","",""
"sailing-trial","86","579612","0.0-11.0-35.0","","","","false","","","","","","","","","","null","","729.8000000044703","","0","0","null","null","arrowup","[0.675,0.325,0.15,0.85]","","",""
"sailing-trial","87","583007","0.0-11.0-36.0","","","","false","","","","","","","","","","553.3999999985099","","73.29999999701977","","2","1","arrowright","1","arrowleft","[0.675,0.325,0.15,0.85]","","",""
"sailing-trial","88","585442","0.0-11.0-37.0","","","","false","","","","","","","","","","null","","515.6000000014901","","3","1","null","null","arrowup","[0.675,0.325,0.15,0.85]","","",""
"sailing-trial","89","588492","0.0-11.0-38.0","","","","false","","","","","","","","","","536.7999999970198","","224.89999999850988","","2","0","arrowright","1","arrowleft","[0.675,0.325,0.15,0.85]","","",""
"sailing-trial","90","590925","0.0-11.0-39.0","","","","false","","","","","","","","","","null","","567.7999999970198","","3","1","null","null","arrowup","[0.675,0.325,0.15,0.85]","","",""
"sailing-trial","91","593722","0.0-11.0-40.0","","","","false","","","","","","","","","","530","","80.20000000298023","","2","0","arrowright","1","arrowleft","[0.675,0.325,0.15,0.85]","","",""
"sailing-trial","92","595495","0.0-11.0-41.0","","","","false","","","","","","","","","","null","","617.8999999985099","","1","0","null","null","arrowup","[0.675,0.325,0.15,0.85]","","",""
"sailing-trial","93","599107","0.0-11.0-42.0","","","","false","","","","","","","","","","379.6000000014901","","369.8999999985099","","3","1","arrowright","1","arrowright","[0.675,0.325,0.15,0.85]","","",""
"sailing-trial","94","600686","0.0-11.0-43.0","","","","false","","","","","","","","","","null","","533.6999999955297","","2","0","null","null","arrowup","[0.675,0.325,0.15,0.85]","","",""
"sailing-trial","95","604423","0.0-11.0-44.0","","","","false","","","","","","","","","","591.1000000014901","","293.70000000298023","","3","1","arrowright","1","arrowright","[0.675,0.325,0.15,0.85]","","",""
"sailing-trial","96","606757","0.0-11.0-45.0","","","","false","","","","","","","","","","null","","458.5","","3","1","null","null","arrowup","[0.675,0.325,0.15,0.85]","","",""
"sailing-trial","97","609822","0.0-11.0-46.0","","","","false","","","","","","","","","","539.1999999955297","","163.79999999701977","","3","0","arrowright","1","arrowright","[0.675,0.325,0.15,0.85]","","",""
"sailing-trial","98","612108","0.0-11.0-47.0","","","","false","","","","","","","","","","null","","528.8000000044703","","1","1","null","null","arrowup","[0.675,0.325,0.15,0.85]","","",""
"sailing-trial","99","615003","0.0-11.0-48.0","","","","false","","","","","","","","","","631.7999999970198","","36.5","","3","0","arrowright","1","arrowright","[0.675,0.325,0.15,0.85]","","",""
"sailing-trial","100","617475","0.0-11.0-49.0","","","","false","","","","","","","","","","null","","660.2999999970198","","0","1","null","null","arrowup","[0.675,0.325,0.15,0.85]","","",""
"sailing-trial","101","620323","0.0-11.0-50.0","","","","false","","","","","","","","","","395.40000000596046","","157.60000000149012","","2","0","arrowright","1","arrowleft","[0.675,0.325,0.15,0.85]","","",""
"sailing-trial","102","622188","0.0-11.0-51.0","","","","false","","","","","","","","","","null","","703.2999999970198","","2","0","null","null","arrowup","[0.675,0.325,0.15,0.85]","","",""
"sailing-trial","103","625557","0.0-11.0-52.0","","","","false","","","","","","","","","","401.79999999701977","","172","","0","1","arrowleft","0","arrowleft","[0.85,0.15,0.325,0.675]","","",""
"sailing-trial","104","627758","0.0-11.0-53.0","","","","false","","","","","","","","","","null","","911.3000000044703","","2","0","null","null","arrowup","[0.85,0.15,0.325,0.675]","","",""
"sailing-trial","105","631106","0.0-11.0-54.0","","","","false","","","","","","","","","","476.20000000298023","","218.10000000149012","","0","1","arrowleft","0","arrowleft","[0.85,0.15,0.325,0.675]","","",""
"sailing-trial","106","633740","0.0-11.0-55.0","","","","false","","","","","","","","","","null","","872.8999999985099","","0","1","null","null","arrowup","[0.85,0.15,0.325,0.675]","","",""
"sailing-trial","107","636905","0.0-11.0-56.0","","","","false","","","","","","","","","","644.5","","304.3999999985099","","0","0","arrowleft","0","arrowleft","[0.85,0.15,0.325,0.675]","","",""
"sailing-trial","108","640057","0.0-11.0-57.0","","","","false","","","","","","","","","","null","","1533.2000000029802","","0","1","null","null","arrowup","[0.85,0.15,0.325,0.675]","","",""
"sailing-trial","109","643059","0.0-11.0-58.0","","","","false","","","","","","","","","","593.6999999955297","","40.70000000298023","","1","0","arrowleft","0","arrowright","[0.85,0.15,0.325,0.675]","","",""
"sailing-trial","110","645316","0.0-11.0-59.0","","","","false","","","","","","","","","","null","","961.3999999985099","","1","0","null","null","arrowup","[0.85,0.15,0.325,0.675]","","",""
"sailing-trial","111","648457","0.0-11.0-60.0","","","","false","","","","","","","","","","266.3999999985099","","36.5","","0","1","arrowleft","0","arrowleft","[0.85,0.15,0.325,0.675]","","",""
"sailing-trial","112","651056","0.0-11.0-61.0","","","","false","","","","","","","","","","null","","586.7000000029802","","3","1","null","null","arrowup","[0.85,0.15,0.325,0.675]","","",""
"sailing-trial","113","654790","0.0-11.0-62.0","","","","false","","","","","","","","","","668.1000000014901","","178.60000000149012","","0","1","arrowleft","0","arrowleft","[0.85,0.15,0.325,0.675]","","",""
"sailing-trial","114","657257","0.0-11.0-63.0","","","","false","","","","","","","","","","null","","717.5999999940395","","0","1","null","null","arrowup","[0.85,0.15,0.325,0.675]","","",""
"sailing-trial","115","661406","0.0-11.0-64.0","","","","false","","","","","","","","","","512.8000000044703","","648.1999999955297","","0","1","arrowleft","0","arrowleft","[0.85,0.15,0.325,0.675]","","",""
"sailing-trial","116","664023","0.0-11.0-65.0","","","","false","","","","","","","","","","null","","951.7999999970198","","3","1","null","null","arrowup","[0.85,0.15,0.325,0.675]","","",""
"sailing-trial","117","668625","0.0-11.0-66.0","","","","false","","","","","","","","","","429.3999999985099","","454.1000000014901","","0","0","arrowleft","0","arrowleft","[0.85,0.15,0.325,0.675]","","",""
"sailing-trial","118","671257","0.0-11.0-67.0","","","","false","","","","","","","","","","null","","738.7999999970198","","0","1","null","null","arrowup","[0.85,0.15,0.325,0.675]","","",""
"sailing-trial","119","674889","0.0-11.0-68.0","","","","false","","","","","","","","","","480","","327.19999999552965","","1","1","arrowleft","0","arrowright","[0.675,0.325,0.15,0.85]","","",""
"sailing-trial","120","677339","0.0-11.0-69.0","","","","false","","","","","","","","","","null","","655.1000000014901","","2","1","null","null","arrowup","[0.675,0.325,0.15,0.85]","","",""
"sailing-trial","121","680804","0.0-11.0-70.0","","","","false","","","","","","","","","","404.19999999552965","","176.20000000298023","","1","1","arrowleft","0","arrowright","[0.675,0.325,0.15,0.85]","","",""
"sailing-trial","122","683237","0.0-11.0-71.0","","","","false","","","","","","","","","","null","","626.3999999985099","","0","1","null","null","arrowup","[0.675,0.325,0.15,0.85]","","",""
"sailing-trial","123","686321","0.0-11.0-72.0","","","","false","","","","","","","","","","449.70000000298023","","319.19999999552965","","1","0","arrowleft","0","arrowright","[0.675,0.325,0.15,0.85]","","",""
"sailing-trial","124","689071","0.0-11.0-73.0","","","","false","","","","","","","","","","null","","927.1999999955297","","0","1","null","null","arrowup","[0.675,0.325,0.15,0.85]","","",""
"sailing-trial","125","692538","0.0-11.0-74.0","","","","false","","","","","","","","","","447","","154.20000000298023","","0","1","arrowleft","0","arrowleft","[0.675,0.325,0.15,0.85]","","",""
"sailing-trial","126","694589","0.0-11.0-75.0","","","","false","","","","","","","","","","null","","814.3999999985099","","0","0","null","null","arrowup","[0.675,0.325,0.15,0.85]","","",""
"sailing-trial","127","698104","0.0-11.0-76.0","","","","false","","","","","","","","","","476.5","","130.5","","0","1","arrowleft","0","arrowleft","[0.675,0.325,0.15,0.85]","","",""
"sailing-trial","128","700005","0.0-11.0-77.0","","","","false","","","","","","","","","","null","","619.8999999985099","","2","0","null","null","arrowup","[0.675,0.325,0.15,0.85]","","",""
"sailing-trial","129","703371","0.0-11.0-78.0","","","","false","","","","","","","","","","389.29999999701977","","168.60000000149012","","0","1","arrowleft","0","arrowleft","[0.675,0.325,0.15,0.85]","","",""
"sailing-trial","130","705301","0.0-11.0-79.0","","","","false","","","","","","","","","","null","","701.2000000029802","","1","0","null","null","arrowup","[0.675,0.325,0.15,0.85]","","",""
"sailing-trial","131","708672","0.0-11.0-80.0","","","","false","","","","","","","","","","344.1000000014901","","283.19999999552965","","0","1","arrowleft","0","arrowleft","[0.675,0.325,0.15,0.85]","","",""
"sailing-trial","132","711021","0.0-11.0-81.0","","","","false","","","","","","","","","","null","","588.1999999955297","","1","1","null","null","arrowup","[0.675,0.325,0.15,0.85]","","",""
"sailing-trial","133","714095","0.0-11.0-82.0","","","","false","","","","","","","","","","316.8999999985099","","358.3999999985099","","0","0","arrowleft","0","arrowleft","[0.675,0.325,0.15,0.85]","","",""
"sailing-trial","134","716786","0.0-11.0-83.0","","","","false","","","","","","","","","","null","","919.8999999985099","","2","1","null","null","arrowup","[0.675,0.325,0.15,0.85]","","",""
"sailing-trial","135","719928","0.0-11.0-84.0","","","","false","","","","","","","","","","563.6000000014901","","17.5","","1","0","arrowleft","0","arrowright","[0.675,0.325,0.15,0.85]","","",""
"sailing-trial","136","722522","0.0-11.0-85.0","","","","false","","","","","","","","","","null","","876.6000000014901","","0","1","null","null","arrowup","[0.675,0.325,0.15,0.85]","","",""
"sailing-trial","137","725954","0.0-11.0-86.0","","","","false","","","","","","","","","","515","","99.70000000298023","","3","1","arrowright","1","arrowright","[0.85,0.15,0.325,0.675]","","",""
"sailing-trial","138","728337","0.0-11.0-87.0","","","","false","","","","","","","","","","null","","816.3999999985099","","0","1","null","null","arrowup","[0.85,0.15,0.325,0.675]","","",""
"sailing-trial","139","731703","0.0-11.0-88.0","","","","false","","","","","","","","","","381.5","","181.5","","3","1","arrowright","1","arrowright","[0.85,0.15,0.325,0.675]","","",""
"sailing-trial","140","734408","0.0-11.0-89.0","","","","false","","","","","","","","","","null","","969.6999999955297","","0","1","null","null","arrowup","[0.85,0.15,0.325,0.675]","","",""
"sailing-trial","141","738320","0.0-11.0-90.0","","","","false","","","","","","","","","","494.69999999552965","","98.10000000149012","","3","1","arrowright","1","arrowright","[0.85,0.15,0.325,0.675]","","",""
"sailing-trial","142","740621","0.0-11.0-91.0","","","","false","","","","","","","","","","null","","671.2000000029802","","3","1","null","null","arrowup","[0.85,0.15,0.325,0.675]","","",""
"sailing-trial","143","744485","0.0-11.0-92.0","","","","false","","","","","","","","","","738.8999999985099","","858.4000000059605","","3","0","arrowright","1","arrowright","[0.85,0.15,0.325,0.675]","","",""
"sailing-trial","144","746440","0.0-11.0-93.0","","","","false","","","","","","","","","","null","","691.9000000059605","","2","0","null","null","arrowup","[0.85,0.15,0.325,0.675]","","",""
"sailing-trial","145","749510","0.0-11.0-94.0","","","","false","","","","","","","","","","586.3999999985099","","16.200000002980232","","1","0","arrowleft","0","arrowright","[0.85,0.15,0.325,0.675]","","",""
"sailing-trial","146","751549","0.0-11.0-95.0","","","","false","","","","","","","","","","null","","747.5","","1","0","null","null","arrowup","[0.85,0.15,0.325,0.675]","","",""
"sailing-trial","147","754473","0.0-11.0-96.0","","","","false","","","","","","","","","","496.80000000447035","","25","","2","0","arrowright","1","arrowleft","[0.85,0.15,0.325,0.675]","","",""
"sailing-trial","148","756786","0.0-11.0-97.0","","","","false","","","","","","","","","","null","","579.6000000014901","","3","1","null","null","arrowup","[0.85,0.15,0.325,0.675]","","",""
"sailing-trial","149","760470","0.0-11.0-98.0","","","","false","","","","","","","","","","737.3999999985099","","169.39999999850988","","0","1","arrowleft","0","arrowleft","[0.85,0.15,0.325,0.675]","","",""
"sailing-trial","150","763054","0.0-11.0-99.0","","","","false","","","","","","","","","","null","","634","","3","1","null","null","arrowup","[0.85,0.15,0.325,0.675]","","",""
"sailing-trial","151","766904","0.0-11.0-100.0","","","","false","","","","","","","","","","555","","367.20000000298023","","0","1","arrowleft","0","arrowleft","[0.85,0.15,0.325,0.675]","","",""
"sailing-trial","152","769403","0.0-11.0-101.0","","","","false","","","","","","","","","","null","","689.5999999940395","","0","1","null","null","arrowup","[0.85,0.15,0.325,0.675]","","",""
"sailing-trial","153","773170","0.0-11.0-102.0","","","","false","","","","","","","","","","751.1999999955297","","257.79999999701977","","0","1","arrowleft","0","arrowleft","[0.15,0.85,0.675,0.325]","","",""
"sailing-trial","154","775157","0.0-11.0-103.0","","","","false","","","","","","","","","","null","","710.2000000029802","","0","0","null","null","arrowup","[0.15,0.85,0.675,0.325]","","",""
"sailing-trial","155","778367","0.0-11.0-104.0","","","","false","","","","","","","","","","513.6000000014901","","198.10000000149012","","0","0","arrowleft","0","arrowleft","[0.15,0.85,0.675,0.325]","","",""
"sailing-trial","156","781003","0.0-11.0-105.0","","","","false","","","","","","","","","","null","","842.8000000044703","","1","1","null","null","arrowup","[0.15,0.85,0.675,0.325]","","",""
"sailing-trial","157","784603","0.0-11.0-106.0","","","","false","","","","","","","","","","686","","96.60000000149012","","1","1","arrowleft","0","arrowright","[0.15,0.85,0.675,0.325]","","",""
"sailing-trial","158","786466","0.0-11.0-107.0","","","","false","","","","","","","","","","null","","664.1000000014901","","2","0","null","null","arrowup","[0.15,0.85,0.675,0.325]","","",""
"sailing-trial","159","789819","0.0-11.0-108.0","","","","false","","","","","","","","","","578.1999999955297","","17.100000001490116","","1","1","arrowleft","0","arrowright","[0.15,0.85,0.675,0.325]","","",""
"sailing-trial","160","792186","0.0-11.0-109.0","","","","false","","","","","","","","","","null","","577.5","","1","1","null","null","arrowup","[0.15,0.85,0.675,0.325]","","",""
"sailing-trial","161","795736","0.0-11.0-110.0","","","","false","","","","","","","","","","606.1999999955297","","235.59999999403954","","1","1","arrowleft","0","arrowright","[0.15,0.85,0.675,0.325]","","",""
"sailing-trial","162","798353","0.0-11.0-111.0","","","","false","","","","","","","","","","null","","631.6999999955297","","1","1","null","null","arrowup","[0.15,0.85,0.675,0.325]","","",""
"sailing-trial","163","802068","0.0-11.0-112.0","","","","false","","","","","","","","","","541.2999999970198","","394.80000000447035","","1","1","arrowleft","0","arrowright","[0.15,0.85,0.675,0.325]","","",""
"sailing-trial","164","804068","0.0-11.0-113.0","","","","false","","","","","","","","","","null","","677.5","","3","0","null","null","arrowup","[0.15,0.85,0.675,0.325]","","",""
"sailing-trial","165","807897","0.0-11.0-114.0","","","","false","","","","","","","","","","502.1000000014901","","162.79999999701977","","1","0","arrowleft","0","arrowright","[0.15,0.85,0.675,0.325]","","",""
"sailing-trial","166","810313","0.0-11.0-115.0","","","","false","","","","","","","","","","null","","1103.8999999985099","","2","0","null","null","arrowup","[0.15,0.85,0.675,0.325]","","",""
"sailing-trial","167","813383","0.0-11.0-116.0","","","","false","","","","","","","","","","369.20000000298023","","252.69999999552965","","0","0","arrowleft","0","arrowleft","[0.15,0.85,0.675,0.325]","","",""
"sailing-trial","168","815836","0.0-11.0-117.0","","","","false","","","","","","","","","","null","","601.8000000044703","","2","1","null","null","arrowup","[0.15,0.85,0.675,0.325]","","",""
"sailing-trial","169","819003","0.0-11.0-118.0","","","","false","","","","","","","","","","116.40000000596046","","162.30000000447035","","2","1","arrowright","1","arrowleft","[0.15,0.85,0.675,0.325]","","",""
"sailing-trial","170","821452","0.0-11.0-119.0","","","","false","","","","","","","","","","null","","681.6999999955297","","1","1","null","null","arrowup","[0.15,0.85,0.675,0.325]","","",""
"sailing-trial","171","824802","0.0-11.0-120.0","","","","false","","","","","","","","","","491.09999999403954","","69.90000000596046","","2","1","arrowright","1","arrowleft","[0.15,0.85,0.675,0.325]","","",""
"sailing-trial","172","827202","0.0-11.0-121.0","","","","false","","","","","","","","","","null","","617.5","","1","1","null","null","arrowup","[0.15,0.85,0.675,0.325]","","",""
"sailing-trial","173","830635","0.0-11.0-122.0","","","","false","","","","","","","","","","569.2000000029802","","139.10000000149012","","2","1","arrowright","1","arrowleft","[0.15,0.85,0.675,0.325]","","",""
"sailing-trial","174","833069","0.0-11.0-123.0","","","","false","","","","","","","","","","null","","538.3999999985099","","1","1","null","null","arrowup","[0.15,0.85,0.675,0.325]","","",""
"sailing-trial","175","836617","0.0-11.0-124.0","","","","false","","","","","","","","","","509","","234.09999999403954","","2","1","arrowright","1","arrowleft","[0.15,0.85,0.675,0.325]","","",""
"sailing-trial","176","838876","0.0-11.0-125.0","","","","false","","","","","","","","","","null","","932.8000000044703","","0","0","null","null","arrowup","[0.15,0.85,0.675,0.325]","","",""
"sailing-trial","177","841994","0.0-11.0-126.0","","","","false","","","","","","","","","","523","","135.20000000298023","","3","0","arrowright","1","arrowright","[0.325,0.675,0.85,0.15]","","",""
"sailing-trial","178","844350","0.0-11.0-127.0","","","","false","","","","","","","","","","null","","586","","1","1","null","null","arrowup","[0.325,0.675,0.85,0.15]","","",""
"sailing-trial","179","847273","0.0-11.0-128.0","","","","false","","","","","","","","","","423.5","","32.5","","2","0","arrowright","1","arrowleft","[0.325,0.675,0.85,0.15]","","",""
"sailing-trial","180","849701","0.0-11.0-129.0","","","","false","","","","","","","","","","null","","667.7999999970198","","2","1","null","null","arrowup","[0.325,0.675,0.85,0.15]","","",""
"sailing-trial","181","853452","0.0-11.0-130.0","","","","false","","","","","","","","","","574.3999999985099","","390.69999999552965","","3","1","arrowright","1","arrowright","[0.325,0.675,0.85,0.15]","","",""
"sailing-trial","182","855818","0.0-11.0-131.0","","","","false","","","","","","","","","","null","","587.1999999955297","","2","1","null","null","arrowup","[0.325,0.675,0.85,0.15]","","",""
"sailing-trial","183","859167","0.0-11.0-132.0","","","","false","","","","","","","","","","550.3000000044703","","416.5","","3","0","arrowright","1","arrowright","[0.325,0.675,0.85,0.15]","","",""
"sailing-trial","184","861616","0.0-11.0-133.0","","","","false","","","","","","","","","","null","","633.0999999940395","","0","1","null","null","arrowup","[0.325,0.675,0.85,0.15]","","",""
"sailing-trial","185","865150","0.0-11.0-134.0","","","","false","","","","","","","","","","719.1000000014901","","1.7000000029802322","","2","1","arrowright","1","arrowleft","[0.325,0.675,0.85,0.15]","","",""
"sailing-trial","186","867467","0.0-11.0-135.0","","","","false","","","","","","","","","","null","","569","","2","1","null","null","arrowup","[0.325,0.675,0.85,0.15]","","",""
"sailing-trial","187","870849","0.0-11.0-136.0","","","","false","","","","","","","","","","520.4000000059605","","86.60000000149012","","2","1","arrowright","1","arrowleft","[0.325,0.675,0.85,0.15]","","",""
"sailing-trial","188","872682","0.0-11.0-137.0","","","","false","","","","","","","","","","null","","573.5","","0","0","null","null","arrowup","[0.325,0.675,0.85,0.15]","","",""
"sailing-trial","189","875783","0.0-11.0-138.0","","","","false","","","","","","","","","","491.3999999985099","","99","","3","0","arrowright","1","arrowright","[0.325,0.675,0.85,0.15]","","",""
"sailing-trial","190","878106","0.0-11.0-139.0","","","","false","","","","","","","","","","null","","914.1000000014901","","3","0","null","null","arrowup","[0.325,0.675,0.85,0.15]","","",""
"sailing-trial","191","881958","0.0-11.0-140.0","","","","false","","","","","","","","","","855.7000000029802","","417.20000000298023","","0","0","arrowleft","0","arrowleft","[0.325,0.675,0.85,0.15]","","",""
"sailing-trial","192","883997","0.0-11.0-141.0","","","","false","","","","","","","","","","null","","590.6000000014901","","3","0","null","null","arrowup","[0.325,0.675,0.85,0.15]","","",""
"sailing-trial","193","887984","0.0-11.0-142.0","","","","false","","","","","","","","","","692.9000000059605","","557.1000000014901","","1","1","arrowleft","0","arrowright","[0.325,0.675,0.85,0.15]","","",""
"sailing-trial","194","890599","0.0-11.0-143.0","","","","false","","","","","","","","","","null","","818.6000000014901","","0","1","null","null","arrowup","[0.325,0.675,0.85,0.15]","","",""
"sailing-trial","195","894600","0.0-11.0-144.0","","","","false","","","","","","","","","","739.1000000014901","","346.30000000447035","","1","1","arrowleft","0","arrowright","[0.325,0.675,0.85,0.15]","","",""
"sailing-trial","196","897099","0.0-11.0-145.0","","","","false","","","","","","","","","","null","","601.7000000029802","","2","1","null","null","arrowup","[0.325,0.675,0.85,0.15]","","",""
"sailing-trial","197","899965","0.0-11.0-146.0","","","","false","","","","","","","","","","634.3000000044703","","8.199999995529652","","1","0","arrowleft","0","arrowright","[0.85,0.15,0.325,0.675]","","",""
"sailing-trial","198","902549","0.0-11.0-147.0","","","","false","","","","","","","","","","null","","827.1000000014901","","1","1","null","null","arrowup","[0.85,0.15,0.325,0.675]","","",""
"sailing-trial","199","905948","0.0-11.0-148.0","","","","false","","","","","","","","","","540.7999999970198","","55","","0","1","arrowleft","0","arrowleft","[0.85,0.15,0.325,0.675]","","",""
"sailing-trial","200","908332","0.0-11.0-149.0","","","","false","","","","","","","","","","null","","587","","3","1","null","null","arrowup","[0.85,0.15,0.325,0.675]","","",""
"sailing-trial","201","912549","0.0-11.0-150.0","","","","false","","","","","","","","","","768.0999999940395","","767.3999999985099","","0","1","arrowleft","0","arrowleft","[0.85,0.15,0.325,0.675]","","",""
"sailing-trial","202","914354","0.0-11.0-151.0","","","","false","","","","","","","","","","null","","569.3000000044703","","2","0","null","null","arrowup","[0.85,0.15,0.325,0.675]","","",""
"sailing-trial","203","917882","0.0-11.0-152.0","","","","false","","","","","","","","","","448.20000000298023","","282","","0","1","arrowleft","0","arrowleft","[0.85,0.15,0.325,0.675]","","",""
"sailing-trial","204","920216","0.0-11.0-153.0","","","","false","","","","","","","","","","null","","576.4000000059605","","3","1","null","null","arrowup","[0.85,0.15,0.325,0.675]","","",""
"sailing-trial","205","923699","0.0-11.0-154.0","","","","false","","","","","","","","","","496.20000000298023","","237.19999999552965","","0","1","arrowleft","0","arrowleft","[0.85,0.15,0.325,0.675]","","",""
"sailing-trial","206","926283","0.0-11.0-155.0","","","","false","","","","","","","","","","null","","698.2999999970198","","3","1","null","null","arrowup","[0.85,0.15,0.325,0.675]","","",""
"sailing-trial","207","929750","0.0-11.0-156.0","","","","false","","","","","","","","","","537.5","","255.60000000149012","","0","1","arrowleft","0","arrowleft","[0.85,0.15,0.325,0.675]","","",""
"sailing-trial","208","932232","0.0-11.0-157.0","","","","false","","","","","","","","","","null","","816","","3","1","null","null","arrowup","[0.85,0.15,0.325,0.675]","","",""
"sailing-trial","209","935664","0.0-11.0-158.0","","","","false","","","","","","","","","","520.6999999955297","","177.20000000298023","","0","1","arrowleft","0","arrowleft","[0.85,0.15,0.325,0.675]","","",""
"sailing-trial","210","937624","0.0-11.0-159.0","","","","false","","","","","","","","","","null","","710.1000000014901","","2","0","null","null","arrowup","[0.85,0.15,0.325,0.675]","","",""
"sailing-trial","211","941379","0.0-11.0-160.0","","","","false","","","","","","","","","","736.5","","266.70000000298023","","1","1","arrowleft","0","arrowright","[0.85,0.15,0.325,0.675]","","",""
"sailing-trial","212","943194","0.0-11.0-161.0","","","","false","","","","","","","","","","null","","573.6000000014901","","1","0","null","null","arrowup","[0.85,0.15,0.325,0.675]","","",""
"sailing-trial","213","946548","0.0-11.0-162.0","","","","false","","","","","","","","","","499.5","","83.30000000447035","","1","1","arrowleft","0","arrowright","[0.675,0.325,0.15,0.85]","","",""
"sailing-trial","214","948753","0.0-11.0-163.0","","","","false","","","","","","","","","","null","","901.3999999985099","","2","0","null","null","arrowup","[0.675,0.325,0.15,0.85]","","",""
"sailing-trial","215","952081","0.0-11.0-164.0","","","","false","","","","","","","","","","539.5","","19.5","","1","1","arrowleft","0","arrowright","[0.675,0.325,0.15,0.85]","","",""
"sailing-trial","216","954415","0.0-11.0-165.0","","","","false","","","","","","","","","","null","","555","","3","1","null","null","arrowup","[0.675,0.325,0.15,0.85]","","",""
"sailing-trial","217","957931","0.0-11.0-166.0","","","","false","","","","","","","","","","452","","354.19999999552965","","1","1","arrowleft","0","arrowright","[0.675,0.325,0.15,0.85]","","",""
"sailing-trial","218","960215","0.0-11.0-167.0","","","","false","","","","","","","","","","null","","636.5999999940395","","0","1","null","null","arrowup","[0.675,0.325,0.15,0.85]","","",""
"sailing-trial","219","963290","0.0-11.0-168.0","","","","false","","","","","","","","","","570.5","","220.79999999701977","","1","0","arrowleft","0","arrowright","[0.675,0.325,0.15,0.85]","","",""
"sailing-trial","220","965294","0.0-11.0-169.0","","","","false","","","","","","","","","","null","","586","","2","0","null","null","arrowup","[0.675,0.325,0.15,0.85]","","",""
"sailing-trial","221","968697","0.0-11.0-170.0","","","","false","","","","","","","","","","253.29999999701977","","389.90000000596046","","0","1","arrowleft","0","arrowleft","[0.675,0.325,0.15,0.85]","","",""
"sailing-trial","222","970687","0.0-11.0-171.0","","","","false","","","","","","","","","","null","","636.5","","1","0","null","null","arrowup","[0.675,0.325,0.15,0.85]","","",""
"sailing-trial","223","973746","0.0-11.0-172.0","","","","false","","","","","","","","","","521.7999999970198","","252.40000000596046","","0","0","arrowleft","0","arrowleft","[0.675,0.325,0.15,0.85]","","",""
"sailing-trial","224","975462","0.0-11.0-173.0","","","","false","","","","","","","","","","null","","570.2999999970198","","1","0","null","null","arrowup","[0.675,0.325,0.15,0.85]","","",""
"sailing-trial","225","978275","0.0-11.0-174.0","","","","false","","","","","","","","","","494.90000000596046","","94.10000000149012","","3","0","arrowright","1","arrowright","[0.675,0.325,0.15,0.85]","","",""
"sailing-trial","226","980697","0.0-11.0-175.0","","","","false","","","","","","","","","","null","","607.7999999970198","","3","1","null","null","arrowup","[0.675,0.325,0.15,0.85]","","",""
"sailing-trial","227","983533","0.0-11.0-176.0","","","","false","","","","","","","","","","570.1000000014901","","7.299999997019768","","2","0","arrowright","1","arrowleft","[0.675,0.325,0.15,0.85]","","",""
"sailing-trial","228","985160","0.0-11.0-177.0","","","","false","","","","","","","","","","null","","545.8999999985099","","1","0","null","null","arrowup","[0.675,0.325,0.15,0.85]","","",""
"sailing-trial","229","988334","0.0-11.0-178.0","","","","false","","","","","","","","","","520.6000000014901","","403.1000000014901","","3","0","arrowright","1","arrowright","[0.675,0.325,0.15,0.85]","","",""
"sailing-trial","230","990056","0.0-11.0-179.0","","","","false","","","","","","","","","","null","","555.5","","3","0","null","null","arrowup","[0.675,0.325,0.15,0.85]","","",""
"sailing-trial","231","993763","0.0-11.0-180.0","","","","false","","","","","","","","","","662.7000000029802","","309","","3","1","arrowright","1","arrowright","[0.675,0.325,0.15,0.85]","","",""
"sailing-trial","232","995502","0.0-11.0-181.0","","","","false","","","","","","","","","","null","","514","","1","0","null","null","arrowup","[0.675,0.325,0.15,0.85]","","",""
"sailing-trial","233","998913","0.0-11.0-182.0","","","","false","","","","","","","","","","657.7999999970198","","12","","3","1","arrowright","1","arrowright","[0.85,0.15,0.325,0.675]","","",""
"sailing-trial","234","1001079","0.0-11.0-183.0","","","","false","","","","","","","","","","null","","491.1000000014901","","3","1","null","null","arrowup","[0.85,0.15,0.325,0.675]","","",""
"sailing-trial","235","1004546","0.0-11.0-184.0","","","","false","","","","","","","","","","420","","278.29999999701977","","3","1","arrowright","1","arrowright","[0.85,0.15,0.325,0.675]","","",""
"sailing-trial","236","1006401","0.0-11.0-185.0","","","","false","","","","","","","","","","null","","575.2999999970198","","3","0","null","null","arrowup","[0.85,0.15,0.325,0.675]","","",""
"sailing-trial","237","1010345","0.0-11.0-186.0","","","","false","","","","","","","","","","913.3999999985099","","425","","3","1","arrowright","1","arrowright","[0.85,0.15,0.325,0.675]","","",""
"sailing-trial","238","1011998","0.0-11.0-187.0","","","","false","","","","","","","","","","null","","575.9000000059605","","1","0","null","null","arrowup","[0.85,0.15,0.325,0.675]","","",""
"sailing-trial","239","1014926","0.0-11.0-188.0","","","","false","","","","","","","","","","535.8999999985099","","115.39999999850988","","3","0","arrowright","1","arrowright","[0.85,0.15,0.325,0.675]","","",""
"sailing-trial","240","1017363","0.0-11.0-189.0","","","","false","","","","","","","","","","null","","830.1000000014901","","0","1","null","null","arrowup","[0.85,0.15,0.325,0.675]","","",""
"sailing-trial","241","1020544","0.0-11.0-190.0","","","","false","","","","","","","","","","518","","3.7000000029802322","","2","1","arrowright","1","arrowleft","[0.85,0.15,0.325,0.675]","","",""
"sailing-trial","242","1022062","0.0-11.0-191.0","","","","false","","","","","","","","","","null","","403.79999999701977","","2","0","null","null","arrowup","[0.85,0.15,0.325,0.675]","","",""
"sailing-trial","243","1024705","0.0-11.0-192.0","","","","false","","","","","","","","","","422.20000000298023","","80.20000000298023","","1","0","arrowleft","0","arrowright","[0.85,0.15,0.325,0.675]","","",""
"sailing-trial","244","1026790","0.0-11.0-193.0","","","","false","","","","","","","","","","null","","868","","2","0","null","null","arrowup","[0.85,0.15,0.325,0.675]","","",""
"sailing-trial","245","1030277","0.0-11.0-194.0","","","","false","","","","","","","","","","452","","332.1000000014901","","0","1","arrowleft","0","arrowleft","[0.85,0.15,0.325,0.675]","","",""
"sailing-trial","246","1032580","0.0-11.0-195.0","","","","false","","","","","","","","","","null","","510.79999999701977","","1","1","null","null","arrowup","[0.85,0.15,0.325,0.675]","","",""
"sailing-trial","247","1036129","0.0-11.0-196.0","","","","false","","","","","","","","","","452.69999999552965","","265.69999999552965","","0","1","arrowleft","0","arrowleft","[0.85,0.15,0.325,0.675]","","",""
"sailing-trial","248","1038311","0.0-11.0-197.0","","","","false","","","","","","","","","","null","","558.8999999985099","","0","1","null","null","arrowup","[0.85,0.15,0.325,0.675]","","",""
"sailing-trial","249","1041003","0.0-11.0-198.0","","","","false","","","","","","","","","","489.29999999701977","","40.30000000447035","","0","0","arrowleft","0","arrowleft","[0.325,0.675,0.85,0.15]","","",""
"sailing-trial","250","1043041","0.0-11.0-199.0","","","","false","","","","","","","","","","null","","679.6999999955297","","3","0","null","null","arrowup","[0.325,0.675,0.85,0.15]","","",""
"sailing-trial","251","1046161","0.0-11.0-200.0","","","","false","","","","","","","","","","109.09999999403954","","154.60000000149012","","2","1","arrowright","1","arrowleft","[0.325,0.675,0.85,0.15]","","",""
"sailing-trial","252","1048093","0.0-11.0-201.0","","","","false","","","","","","","","","","null","","586.3999999985099","","3","0","null","null","arrowup","[0.325,0.675,0.85,0.15]","","",""
"sailing-trial","253","1050926","0.0-11.0-202.0","","","","false","","","","","","","","","","560.8000000044703","","19.799999997019768","","3","0","arrowright","1","arrowright","[0.325,0.675,0.85,0.15]","","",""
"sailing-trial","254","1052903","0.0-11.0-203.0","","","","false","","","","","","","","","","null","","783.8999999985099","","1","0","null","null","arrowup","[0.325,0.675,0.85,0.15]","","",""
"sailing-trial","255","1056344","0.0-11.0-204.0","","","","false","","","","","","","","","","474.3999999985099","","264.1000000014901","","1","1","arrowleft","0","arrowright","[0.325,0.675,0.85,0.15]","","",""
"sailing-trial","256","1058327","0.0-11.0-205.0","","","","false","","","","","","","","","","null","","745.6999999955297","","0","0","null","null","arrowup","[0.325,0.675,0.85,0.15]","","",""
"sailing-trial","257","1061695","0.0-11.0-206.0","","","","false","","","","","","","","","","445.3999999985099","","130.5","","1","1","arrowleft","0","arrowright","[0.325,0.675,0.85,0.15]","","",""
"sailing-trial","258","1063644","0.0-11.0-207.0","","","","false","","","","","","","","","","null","","592.8000000044703","","0","0","null","null","arrowup","[0.325,0.675,0.85,0.15]","","",""
"sailing-trial","259","1066512","0.0-11.0-208.0","","","","false","","","","","","","","","","278.40000000596046","","7.5","","1","1","arrowleft","0","arrowright","[0.325,0.675,0.85,0.15]","","",""
"sailing-trial","260","1068595","0.0-11.0-209.0","","","","false","","","","","","","","","","null","","312.6000000014901","","2","1","null","null","arrowup","[0.325,0.675,0.85,0.15]","","",""
"sailing-trial","261","1072136","0.0-11.0-210.0","","","","false","","","","","","","","","","767.5","","512.6000000014901","","1","0","arrowleft","0","arrowright","[0.325,0.675,0.85,0.15]","","",""
"sailing-trial","262","1074662","0.0-11.0-211.0","","","","false","","","","","","","","","","null","","765.5999999940395","","1","1","null","null","arrowup","[0.325,0.675,0.85,0.15]","","",""
"sailing-trial","263","1078476","0.0-11.0-212.0","","","","false","","","","","","","","","","662.4000000059605","","378.3999999985099","","0","1","arrowleft","0","arrowleft","[0.325,0.675,0.85,0.15]","","",""
"sailing-trial","264","1080828","0.0-11.0-213.0","","","","false","","","","","","","","","","null","","753.6999999955297","","2","1","null","null","arrowup","[0.325,0.675,0.85,0.15]","","",""
"sailing-trial","265","1083834","0.0-11.0-214.0","","","","false","","","","","","","","","","349.69999999552965","","347.29999999701977","","0","0","arrowleft","0","arrowleft","[0.325,0.675,0.85,0.15]","","",""
"sailing-trial","266","1087730","0.0-11.0-215.0","","","","false","","","","","","","","","","null","","2587","","0","0","null","null","arrowup","[0.325,0.675,0.85,0.15]","","",""
"sailing-trial","267","1091461","0.0-11.0-216.0","","","","false","","","","","","","","","","470.1000000014901","","309","","1","1","arrowleft","0","arrowright","[0.325,0.675,0.85,0.15]","","",""
"sailing-trial","268","1093776","0.0-11.0-217.0","","","","false","","","","","","","","","","null","","992.5999999940395","","3","0","null","null","arrowup","[0.325,0.675,0.85,0.15]","","",""
"sailing-trial","269","1096720","0.0-11.0-218.0","","","","false","","","","","","","","","","574.7999999970198","","185.5","","1","0","arrowleft","0","arrowright","[0.675,0.325,0.15,0.85]","","",""
"sailing-trial","270","1099094","0.0-11.0-219.0","","","","false","","","","","","","","","","null","","650.1000000014901","","2","1","null","null","arrowup","[0.675,0.325,0.15,0.85]","","",""
"sailing-trial","271","1102277","0.0-11.0-220.0","","","","false","","","","","","","","","","218","","138.79999999701977","","0","1","arrowleft","0","arrowleft","[0.675,0.325,0.15,0.85]","","",""
"sailing-trial","272","1104611","0.0-11.0-221.0","","","","false","","","","","","","","","","null","","543.5","","3","1","null","null","arrowup","[0.675,0.325,0.15,0.85]","","",""
"sailing-trial","273","1107944","0.0-11.0-222.0","","","","false","","","","","","","","","","444.3999999985099","","157.60000000149012","","0","1","arrowleft","0","arrowleft","[0.675,0.325,0.15,0.85]","","",""
"sailing-trial","274","1109567","0.0-11.0-223.0","","","","false","","","","","","","","","","null","","593.0999999940395","","1","0","null","null","arrowup","[0.675,0.325,0.15,0.85]","","",""
"sailing-trial","275","1113077","0.0-11.0-224.0","","","","false","","","","","","","","","","629.5","","247.89999999850988","","0","1","arrowleft","0","arrowleft","[0.675,0.325,0.15,0.85]","","",""
"sailing-trial","276","1115428","0.0-11.0-225.0","","","","false","","","","","","","","","","null","","588.5","","3","1","null","null","arrowup","[0.675,0.325,0.15,0.85]","","",""
"sailing-trial","277","1118710","0.0-11.0-226.0","","","","false","","","","","","","","","","446.6000000014901","","87.30000000447035","","0","1","arrowleft","0","arrowleft","[0.675,0.325,0.15,0.85]","","",""
"sailing-trial","278","1121227","0.0-11.0-227.0","","","","false","","","","","","","","","","null","","733.3999999985099","","3","1","null","null","arrowup","[0.675,0.325,0.15,0.85]","","",""
"sailing-trial","279","1124958","0.0-11.0-228.0","","","","false","","","","","","","","","","486.19999999552965","","39.5","","0","1","arrowleft","0","arrowleft","[0.675,0.325,0.15,0.85]","","",""
"sailing-trial","280","1128677","0.0-11.0-229.0","","","","false","","","","","","","","","","null","","939.5","","1","0","null","null","arrowup","[0.675,0.325,0.15,0.85]","","",""
"sailing-trial","281","1131976","0.0-11.0-230.0","","","","false","","","","","","","","","","453.09999999403954","","176.59999999403954","","1","1","arrowleft","0","arrowright","[0.675,0.325,0.15,0.85]","","",""
"sailing-trial","282","1134139","0.0-11.0-231.0","","","","false","","","","","","","","","","null","","716.5","","2","0","null","null","arrowup","[0.675,0.325,0.15,0.85]","","",""
"sailing-trial","283","1137294","0.0-11.0-232.0","","","","false","","","","","","","","","","601.8999999985099","","33.5","","2","0","arrowright","1","arrowleft","[0.675,0.325,0.15,0.85]","","",""
"sailing-trial","284","1139305","0.0-11.0-233.0","","","","false","","","","","","","","","","null","","716.3000000044703","","2","0","null","null","arrowup","[0.675,0.325,0.15,0.85]","","",""
"sailing-trial","285","1142399","0.0-11.0-234.0","","","","false","","","","","","","","","","624.1999999955297","","203.10000000149012","","1","0","arrowleft","0","arrowright","[0.85,0.15,0.325,0.675]","","",""
"sailing-trial","286","1145312","0.0-11.0-235.0","","","","false","","","","","","","","","","null","","884.2999999970198","","2","0","null","null","arrowup","[0.85,0.15,0.325,0.675]","","",""
"sailing-trial","287","1148775","0.0-11.0-236.0","","","","false","","","","","","","","","","665","","25.200000002980232","","0","1","arrowleft","0","arrowleft","[0.85,0.15,0.325,0.675]","","",""
"sailing-trial","288","1150908","0.0-11.0-237.0","","","","false","","","","","","","","","","null","","768.7999999970198","","2","0","null","null","arrowup","[0.85,0.15,0.325,0.675]","","",""
"sailing-trial","289","1153977","0.0-11.0-238.0","","","","false","","","","","","","","","","573.1000000014901","","81","","2","0","arrowright","1","arrowleft","[0.85,0.15,0.325,0.675]","","",""
"sailing-trial","290","1156226","0.0-11.0-239.0","","","","false","","","","","","","","","","null","","441","","3","1","null","null","arrowup","[0.85,0.15,0.325,0.675]","","",""
"sailing-trial","291","1159774","0.0-11.0-240.0","","","","false","","","","","","","","","","686.7999999970198","","97.79999999701977","","3","1","arrowright","1","arrowright","[0.85,0.15,0.325,0.675]","","",""
"sailing-trial","292","1162342","0.0-11.0-241.0","","","","false","","","","","","","","","","null","","828.5","","0","1","null","null","arrowup","[0.85,0.15,0.325,0.675]","","",""
"sailing-trial","293","1165426","0.0-11.0-242.0","","","","false","","","","","","","","","","714.5999999940395","","252","","3","0","arrowright","1","arrowright","[0.85,0.15,0.325,0.675]","","",""
"sailing-trial","294","1167857","0.0-11.0-243.0","","","","false","","","","","","","","","","null","","885.1999999955297","","1","1","null","null","arrowup","[0.85,0.15,0.325,0.675]","","",""
"sailing-trial","295","1171144","0.0-11.0-244.0","","","","false","","","","","","","","","","591.5","","90","","2","0","arrowright","1","arrowleft","[0.85,0.15,0.325,0.675]","","",""
"sailing-trial","296","1173392","0.0-11.0-245.0","","","","false","","","","","","","","","","null","","469.79999999701977","","3","1","null","null","arrowup","[0.85,0.15,0.325,0.675]","","",""
"sailing-trial","297","1176421","0.0-11.0-246.0","","","","false","","","","","","","","","","748.5","","149.70000000298023","","3","0","arrowright","1","arrowright","[0.85,0.15,0.325,0.675]","","",""
"sailing-trial","298","1177965","0.0-11.0-247.0","","","","false","","","","","","","","","","null","","519","","1","0","null","null","arrowup","[0.85,0.15,0.325,0.675]","","",""
"sailing-trial","299","1181624","0.0-11.0-248.0","","","","false","","","","","","","","","","633.6999999955297","","350","","0","1","arrowleft","0","arrowleft","[0.85,0.15,0.325,0.675]","","",""
"sailing-trial","300","1184140","0.0-11.0-249.0","","","","false","","","","","","","","","","null","","724.6000000014901","","3","1","null","null","arrowup","[0.85,0.15,0.325,0.675]","","",""
"sailing-trial","301","1186872","0.0-11.0-250.0","","","","false","","","","","","","","","","444.40000000596046","","37.20000000298023","","0","0","arrowleft","0","arrowleft","[0.15,0.85,0.675,0.325]","","",""
"sailing-trial","302","1188802","0.0-11.0-251.0","","","","false","","","","","","","","","","null","","848.8999999985099","","2","0","null","null","arrowup","[0.15,0.85,0.675,0.325]","","",""
"sailing-trial","303","1193025","0.0-11.0-252.0","","","","false","","","","","","","","","","1120","","315.1000000014901","","1","1","arrowleft","0","arrowright","[0.15,0.85,0.675,0.325]","","",""
"sailing-trial","304","1195457","0.0-11.0-253.0","","","","false","","","","","","","","","","null","","612","","1","1","null","null","arrowup","[0.15,0.85,0.675,0.325]","","",""
"sailing-trial","305","1198941","0.0-11.0-254.0","","","","false","","","","","","","","","","489.70000000298023","","269.5","","1","1","arrowleft","0","arrowright","[0.15,0.85,0.675,0.325]","","",""
"sailing-trial","306","1200758","0.0-11.0-255.0","","","","false","","","","","","","","","","null","","618.3000000044703","","0","0","null","null","arrowup","[0.15,0.85,0.675,0.325]","","",""
"sailing-trial","307","1204273","0.0-11.0-256.0","","","","false","","","","","","","","","","449.19999999552965","","289.8999999985099","","1","1","arrowleft","0","arrowright","[0.15,0.85,0.675,0.325]","","",""
"sailing-trial","308","1206035","0.0-11.0-257.0","","","","false","","","","","","","","","","null","","385.40000000596046","","0","0","null","null","arrowup","[0.15,0.85,0.675,0.325]","","",""
"sailing-trial","309","1209324","0.0-11.0-258.0","","","","false","","","","","","","","","","439.20000000298023","","150.30000000447035","","1","1","arrowleft","0","arrowright","[0.15,0.85,0.675,0.325]","","",""
"sailing-trial","310","1211839","0.0-11.0-259.0","","","","false","","","","","","","","","","null","","763.2999999970198","","1","1","null","null","arrowup","[0.15,0.85,0.675,0.325]","","",""
"sailing-trial","311","1215357","0.0-11.0-260.0","","","","false","","","","","","","","","","760.2999999970198","","58.399999998509884","","1","1","arrowleft","0","arrowright","[0.15,0.85,0.675,0.325]","","",""
"sailing-trial","312","1217052","0.0-11.0-261.0","","","","false","","","","","","","","","","null","","283.8999999985099","","1","0","null","null","arrowup","[0.15,0.85,0.675,0.325]","","",""
"sailing-trial","313","1219961","0.0-11.0-262.0","","","","false","","","","","","","","","","428.19999999552965","","184.89999999850988","","1","0","arrowleft","0","arrowright","[0.15,0.85,0.675,0.325]","","",""
"sailing-trial","314","1221698","0.0-11.0-263.0","","","","false","","","","","","","","","","null","","616","","3","0","null","null","arrowup","[0.15,0.85,0.675,0.325]","","",""
"sailing-trial","315","1224844","0.0-11.0-264.0","","","","false","","","","","","","","","","482.79999999701977","","522.8999999985099","","0","0","arrowleft","0","arrowleft","[0.15,0.85,0.675,0.325]","","",""
"sailing-trial","316","1227057","0.0-11.0-265.0","","","","false","","","","","","","","","","null","","578.6000000014901","","2","1","null","null","arrowup","[0.15,0.85,0.675,0.325]","","",""
"sailing-trial","317","1230248","0.0-11.0-266.0","","","","false","","","","","","","","","","579.5","","325.90000000596046","","3","0","arrowright","1","arrowright","[0.15,0.85,0.675,0.325]","","",""
"sailing-trial","318","1232099","0.0-11.0-267.0","","","","false","","","","","","","","","","null","","800.8999999985099","","3","0","null","null","arrowup","[0.15,0.85,0.675,0.325]","","",""
"sailing-trial","319","1235004","0.0-11.0-268.0","","","","false","","","","","","","","","","596.1999999955297","","95.10000000149012","","2","0","arrowright","1","arrowleft","[0.15,0.85,0.675,0.325]","","",""
"sailing-trial","320","1237640","0.0-11.0-269.0","","","","false","","","","","","","","","","null","","625.8999999985099","","2","1","null","null","arrowup","[0.15,0.85,0.675,0.325]","","",""
"sailing-trial","321","1240924","0.0-11.0-270.0","","","","false","","","","","","","","","","370.5","","189.59999999403954","","2","1","arrowright","1","arrowleft","[0.15,0.85,0.675,0.325]","","",""
"sailing-trial","322","1242834","0.0-11.0-271.0","","","","false","","","","","","","","","","null","","555.5","","0","0","null","null","arrowup","[0.15,0.85,0.675,0.325]","","",""
"sailing-trial","323","1246090","0.0-11.0-272.0","","","","false","","","","","","","","","","419.19999999552965","","86.20000000298023","","2","1","arrowright","1","arrowleft","[0.325,0.675,0.85,0.15]","","",""
"sailing-trial","324","1247727","0.0-11.0-273.0","","","","false","","","","","","","","","","null","","464.70000000298023","","0","0","null","null","arrowup","[0.325,0.675,0.85,0.15]","","",""
"sailing-trial","325","1250547","0.0-11.0-274.0","","","","false","","","","","","","","","","505.8999999985099","","203.60000000149012","","2","0","arrowright","1","arrowleft","[0.325,0.675,0.85,0.15]","","",""
"sailing-trial","326","1252182","0.0-11.0-275.0","","","","false","","","","","","","","","","null","","607.1000000014901","","1","0","null","null","arrowup","[0.325,0.675,0.85,0.15]","","",""
"sailing-trial","327","1255022","0.0-11.0-276.0","","","","false","","","","","","","","","","508.5","","115.29999999701977","","3","0","arrowright","1","arrowright","[0.325,0.675,0.85,0.15]","","",""
"sailing-trial","328","1256741","0.0-11.0-277.0","","","","false","","","","","","","","","","null","","677.8999999985099","","0","0","null","null","arrowup","[0.325,0.675,0.85,0.15]","","",""
"sailing-trial","329","1260373","0.0-11.0-278.0","","","","false","","","","","","","","","","478.5","","377","","1","1","arrowleft","0","arrowright","[0.325,0.675,0.85,0.15]","","",""
"sailing-trial","330","1261993","0.0-11.0-279.0","","","","false","","","","","","","","","","null","","521.2999999970198","","0","0","null","null","arrowup","[0.325,0.675,0.85,0.15]","","",""
"sailing-trial","331","1265455","0.0-11.0-280.0","","","","false","","","","","","","","","","486.8999999985099","","253.89999999850988","","1","1","arrowleft","0","arrowright","[0.325,0.675,0.85,0.15]","","",""
"sailing-trial","332","1267341","0.0-11.0-281.0","","","","false","","","","","","","","","","null","","637.1000000014901","","3","0","null","null","arrowup","[0.325,0.675,0.85,0.15]","","",""
"sailing-trial","333","1271447","0.0-11.0-282.0","","","","false","","","","","","","","","","452.29999999701977","","1487.5999999940395","","1","0","arrowleft","0","arrowright","[0.325,0.675,0.85,0.15]","","",""
"sailing-trial","334","1273673","0.0-11.0-283.0","","","","false","","","","","","","","","","null","","523.3999999985099","","1","1","null","null","arrowup","[0.325,0.675,0.85,0.15]","","",""
"sailing-trial","335","1276755","0.0-11.0-284.0","","","","false","","","","","","","","","","538.6000000014901","","282","","0","0","arrowleft","0","arrowleft","[0.325,0.675,0.85,0.15]","","",""
"sailing-trial","336","1279156","0.0-11.0-285.0","","","","false","","","","","","","","","","null","","487.80000000447035","","2","1","null","null","arrowup","[0.325,0.675,0.85,0.15]","","",""
"sailing-trial","337","1282444","0.0-11.0-286.0","","","","false","","","","","","","","","","771.3000000044703","","377.1000000014901","","1","0","arrowleft","0","arrowright","[0.325,0.675,0.85,0.15]","","",""
"sailing-trial","338","1284052","0.0-11.0-287.0","","","","false","","","","","","","","","","null","","547.2999999970198","","3","0","null","null","arrowup","[0.325,0.675,0.85,0.15]","","",""
"sailing-trial","339","1286941","0.0-11.0-288.0","","","","false","","","","","","","","","","493.30000000447035","","307.6000000014901","","0","0","arrowleft","0","arrowleft","[0.325,0.675,0.85,0.15]","","",""
"sailing-trial","340","1288829","0.0-11.0-289.0","","","","false","","","","","","","","","","null","","520.8999999985099","","3","0","null","null","arrowup","[0.325,0.675,0.85,0.15]","","",""
"sailing-trial","341","1291511","0.0-11.0-290.0","","","","false","","","","","","","","","","380.79999999701977","","28.399999998509884","","3","0","arrowright","1","arrowright","[0.325,0.675,0.85,0.15]","","",""
"sailing-trial","342","1293168","0.0-11.0-291.0","","","","false","","","","","","","","","","null","","348.69999999552965","","3","0","null","null","arrowup","[0.325,0.675,0.85,0.15]","","",""
"sailing-trial","343","1296472","0.0-11.0-292.0","","","","false","","","","","","","","","","450","","9","","1","1","arrowleft","0","arrowright","[0.325,0.675,0.85,0.15]","","",""
"sailing-trial","344","1298670","0.0-11.0-293.0","","","","false","","","","","","","","","","null","","397","","2","1","null","null","arrowup","[0.325,0.675,0.85,0.15]","","",""
"sailing-trial","345","1301544","0.0-11.0-294.0","","","","false","","","","","","","","","","475.80000000447035","","210.5","","1","0","arrowleft","0","arrowright","[0.15,0.85,0.675,0.325]","","",""
"sailing-trial","346","1303605","0.0-11.0-295.0","","","","false","","","","","","","","","","null","","496.1000000014901","","0","1","null","null","arrowup","[0.15,0.85,0.675,0.325]","","",""
"sailing-trial","347","1306955","0.0-11.0-296.0","","","","false","","","","","","","","","","398.79999999701977","","157.89999999850988","","2","1","arrowright","1","arrowleft","[0.15,0.85,0.675,0.325]","","",""
"sailing-trial","348","1308972","0.0-11.0-297.0","","","","false","","","","","","","","","","null","","431.19999999552965","","2","1","null","null","arrowup","[0.15,0.85,0.675,0.325]","","",""
"sailing-trial","349","1311852","0.0-11.0-298.0","","","","false","","","","","","","","","","770","","83.70000000298023","","3","0","arrowright","1","arrowright","[0.15,0.85,0.675,0.325]","","",""
"sailing-trial","350","1313838","0.0-11.0-299.0","","","","false","","","","","","","","","","null","","416.80000000447035","","0","1","null","null","arrowup","[0.15,0.85,0.675,0.325]","","",""
"sailing-trial","351","1316635","0.0-11.0-300.0","","","","false","","","","","","","","","","419.29999999701977","","173.89999999850988","","2","0","arrowright","1","arrowleft","[0.15,0.85,0.675,0.325]","","",""
"sailing-trial","352","1318671","0.0-11.0-301.0","","","","false","","","","","","","","","","null","","333.70000000298023","","1","1","null","null","arrowup","[0.15,0.85,0.675,0.325]","","",""
"sailing-trial","353","1321494","0.0-11.0-302.0","","","","false","","","","","","","","","","283.90000000596046","","168.40000000596046","","3","0","arrowright","1","arrowright","[0.15,0.85,0.675,0.325]","","",""
"sailing-trial","354","1324088","0.0-11.0-303.0","","","","false","","","","","","","","","","null","","844.0999999940395","","1","1","null","null","arrowup","[0.15,0.85,0.675,0.325]","","",""
"sailing-trial","355","1328305","0.0-11.0-304.0","","","","false","","","","","","","","","","338.3999999985099","","1074.5","","1","1","arrowleft","0","arrowright","[0.15,0.85,0.675,0.325]","","",""
"sailing-trial","356","1330870","0.0-11.0-305.0","","","","false","","","","","","","","","","null","","861.2000000029802","","1","1","null","null","arrowup","[0.15,0.85,0.675,0.325]","","",""
"sailing-trial","357","1334554","0.0-11.0-306.0","","","","false","","","","","","","","","","559.3000000044703","","367.6000000014901","","1","1","arrowleft","0","arrowright","[0.15,0.85,0.675,0.325]","","",""
"sailing-trial","358","1336770","0.0-11.0-307.0","","","","false","","","","","","","","","","null","","529.8000000044703","","3","1","null","null","arrowup","[0.15,0.85,0.675,0.325]","","",""
"sailing-trial","359","1339837","0.0-11.0-308.0","","","","false","","","","","","","","","","329.8999999985099","","30.200000002980232","","1","1","arrowleft","0","arrowright","[0.15,0.85,0.675,0.325]","","",""
"sailing-trial","360","1341334","0.0-11.0-309.0","","","","false","","","","","","","","","","null","","368.80000000447035","","3","0","null","null","arrowup","[0.15,0.85,0.675,0.325]","","",""
"sailing-trial","361","1344438","0.0-11.0-310.0","","","","false","","","","","","","","","","556","","471.29999999701977","","0","0","arrowleft","0","arrowleft","[0.15,0.85,0.675,0.325]","","",""
"sailing-trial","362","1346050","0.0-11.0-311.0","","","","false","","","","","","","","","","null","","410.29999999701977","","1","0","null","null","arrowup","[0.15,0.85,0.675,0.325]","","",""
"sailing-trial","363","1349126","0.0-11.0-312.0","","","","false","","","","","","","","","","848.7000000029802","","27","","0","0","arrowleft","0","arrowleft","[0.325,0.675,0.85,0.15]","","",""
"sailing-trial","364","1350767","0.0-11.0-313.0","","","","false","","","","","","","","","","null","","253.5","","3","0","null","null","arrowup","[0.325,0.675,0.85,0.15]","","",""
"sailing-trial","365","1354069","0.0-11.0-314.0","","","","false","","","","","","","","","","515","","175.40000000596046","","1","1","arrowleft","0","arrowright","[0.325,0.675,0.85,0.15]","","",""
"sailing-trial","366","1356037","0.0-11.0-315.0","","","","false","","","","","","","","","","null","","278.1000000014901","","2","1","null","null","arrowup","[0.325,0.675,0.85,0.15]","","",""
"sailing-trial","367","1358703","0.0-11.0-316.0","","","","false","","","","","","","","","","317","","51.599999994039536","","1","0","arrowleft","0","arrowright","[0.325,0.675,0.85,0.15]","","",""
"sailing-trial","368","1360703","0.0-11.0-317.0","","","","false","","","","","","","","","","null","","258.90000000596046","","0","1","null","null","arrowup","[0.325,0.675,0.85,0.15]","","",""
"sailing-trial","369","1363468","0.0-11.0-318.0","","","","false","","","","","","","","","","391.5","","152.30000000447035","","0","0","arrowleft","0","arrowleft","[0.325,0.675,0.85,0.15]","","",""
"sailing-trial","370","1365652","0.0-11.0-319.0","","","","false","","","","","","","","","","null","","33.600000001490116","","2","1","null","null","arrowup","[0.325,0.675,0.85,0.15]","","",""
"sailing-trial","371","1368569","0.0-11.0-320.0","","","","false","","","","","","","","","","103.80000000447035","","127","","2","1","arrowright","1","arrowleft","[0.325,0.675,0.85,0.15]","","",""
"sailing-trial","372","1370233","0.0-11.0-321.0","","","","false","","","","","","","","","","null","","585.6000000014901","","1","0","null","null","arrowup","[0.325,0.675,0.85,0.15]","","",""
"sailing-trial","373","1373401","0.0-11.0-322.0","","","","false","","","","","","","","","","440.6000000014901","","154.69999999552965","","2","1","arrowright","1","arrowleft","[0.325,0.675,0.85,0.15]","","",""
"sailing-trial","374","1375303","0.0-11.0-323.0","","","","false","","","","","","","","","","null","","166.89999999850988","","2","1","null","null","arrowup","[0.325,0.675,0.85,0.15]","","",""
"sailing-trial","375","1378202","0.0-11.0-324.0","","","","false","","","","","","","","","","89.20000000298023","","139.10000000149012","","2","1","arrowright","1","arrowleft","[0.325,0.675,0.85,0.15]","","",""
"sailing-trial","376","1379607","0.0-11.0-325.0","","","","false","","","","","","","","","","null","","99.5","","0","0","null","null","arrowup","[0.325,0.675,0.85,0.15]","","",""
"sailing-trial","377","1383086","0.0-11.0-326.0","","","","false","","","","","","","","","","371.59999999403954","","124.80000000447035","","2","1","arrowright","1","arrowleft","[0.325,0.675,0.85,0.15]","","",""
"sailing-trial","378","1384887","0.0-11.0-327.0","","","","false","","","","","","","","","","null","","97.09999999403954","","2","1","null","null","arrowup","[0.325,0.675,0.85,0.15]","","",""
"sailing-trial","379","1388218","0.0-11.0-328.0","","","","false","","","","","","","","","","206.89999999850988","","201.79999999701977","","2","1","arrowright","1","arrowleft","[0.325,0.675,0.85,0.15]","","",""
"sailing-trial","380","1389525","0.0-11.0-329.0","","","","false","","","","","","","","","","null","","53.29999999701977","","1","0","null","null","arrowup","[0.325,0.675,0.85,0.15]","","",""
"sailing-trial","381","1392735","0.0-11.0-330.0","","","","false","","","","","","","","","","502.8999999985099","","83","","2","1","arrowright","1","arrowleft","[0.325,0.675,0.85,0.15]","","",""
"sailing-trial","382","1394099","0.0-11.0-331.0","","","","false","","","","","","","","","","null","","157.20000000298023","","2","0","null","null","arrowup","[0.325,0.675,0.85,0.15]","","",""
"sailing-trial","383","1397200","0.0-11.0-332.0","","","","false","","","","","","","","","","357.8999999985099","","91.30000000447035","","2","1","arrowright","1","arrowleft","[0.15,0.85,0.675,0.325]","","",""
"sailing-trial","384","1398529","0.0-11.0-333.0","","","","false","","","","","","","","","","null","","153.79999999701977","","2","0","null","null","arrowup","[0.15,0.85,0.675,0.325]","","",""
"sailing-trial","385","1401569","0.0-11.0-334.0","","","","false","","","","","","","","","","272.5","","191.79999999701977","","2","1","arrowright","1","arrowleft","[0.15,0.85,0.675,0.325]","","",""
"sailing-trial","386","1402906","0.0-11.0-335.0","","","","false","","","","","","","","","","null","","32","","2","0","null","null","arrowup","[0.15,0.85,0.675,0.325]","","",""
"sailing-trial","387","1406700","0.0-11.0-336.0","","","","false","","","","","","","","","","612","","230.10000000149012","","2","1","arrowright","1","arrowleft","[0.15,0.85,0.675,0.325]","","",""
"sailing-trial","388","1408635","0.0-11.0-337.0","","","","false","","","","","","","","","","null","","350","","0","1","null","null","arrowup","[0.15,0.85,0.675,0.325]","","",""
"sailing-trial","389","1411304","0.0-11.0-338.0","","","","false","","","","","","","","","","393.19999999552965","","169.79999999701977","","2","0","arrowright","1","arrowleft","[0.15,0.85,0.675,0.325]","","",""
"sailing-trial","390","1414036","0.0-11.0-339.0","","","","false","","","","","","","","","","null","","814.8999999985099","","1","1","null","null","arrowup","[0.15,0.85,0.675,0.325]","","",""
"sailing-trial","391","1417101","0.0-11.0-340.0","","","","false","","","","","","","","","","605.5","","257.1000000014901","","3","0","arrowright","1","arrowright","[0.15,0.85,0.675,0.325]","","",""
"sailing-trial","392","1420134","0.0-11.0-341.0","","","","false","","","","","","","","","","null","","1427.1999999955297","","1","1","null","null","arrowup","[0.15,0.85,0.675,0.325]","","",""
"sailing-trial","393","1423034","0.0-11.0-342.0","","","","false","","","","","","","","","","215.39999999850988","","47.899999998509884","","1","1","arrowleft","0","arrowright","[0.15,0.85,0.675,0.325]","","",""
"sailing-trial","394","1424969","0.0-11.0-343.0","","","","false","","","","","","","","","","null","","783.7000000029802","","3","0","null","null","arrowup","[0.15,0.85,0.675,0.325]","","",""
"sailing-trial","395","1427985","0.0-11.0-344.0","","","","false","","","","","","","","","","381.20000000298023","","54.79999999701977","","1","1","arrowleft","0","arrowright","[0.15,0.85,0.675,0.325]","","",""
"sailing-trial","396","1429527","0.0-11.0-345.0","","","","false","","","","","","","","","","null","","185.10000000149012","","3","0","null","null","arrowup","[0.15,0.85,0.675,0.325]","","",""
"sailing-trial","397","1432551","0.0-11.0-346.0","","","","false","","","","","","","","","","472.3999999985099","","14.600000001490116","","1","1","arrowleft","0","arrowright","[0.15,0.85,0.675,0.325]","","",""
"sailing-trial","398","1433854","0.0-11.0-347.0","","","","false","","","","","","","","","","null","","142.10000000149012","","3","0","null","null","arrowup","[0.15,0.85,0.675,0.325]","","",""
"sailing-trial","399","1437252","0.0-11.0-348.0","","","","false","","","","","","","","","","392.80000000447035","","133.20000000298023","","1","1","arrowleft","0","arrowright","[0.15,0.85,0.675,0.325]","","",""
"sailing-trial","400","1438525","0.0-11.0-349.0","","","","false","","","","","","","","","","null","","208.09999999403954","","3","0","null","null","arrowup","[0.15,0.85,0.675,0.325]","","",""
"sailing-trial","401","1441360","0.0-11.0-350.0","","","","false","","","","","","","","","","356.1000000014901","","135.60000000149012","","1","0","arrowleft","0","arrowright","[0.325,0.675,0.85,0.15]","","",""
"sailing-trial","402","1443318","0.0-11.0-351.0","","","","false","","","","","","","","","","null","","315.5","","2","1","null","null","arrowup","[0.325,0.675,0.85,0.15]","","",""
"sailing-trial","403","1446535","0.0-11.0-352.0","","","","false","","","","","","","","","","623.1999999955297","","46.30000000447035","","0","1","arrowleft","0","arrowleft","[0.325,0.675,0.85,0.15]","","",""
"sailing-trial","404","1448368","0.0-11.0-353.0","","","","false","","","","","","","","","","null","","97.5","","0","1","null","null","arrowup","[0.325,0.675,0.85,0.15]","","",""
"sailing-trial","405","1450516","0.0-11.0-354.0","","","","false","","","","","","","","","","60.79999999701977","","17.100000001490116","","0","0","arrowleft","0","arrowleft","[0.325,0.675,0.85,0.15]","","",""
"sailing-trial","406","1452349","0.0-11.0-355.0","","","","false","","","","","","","","","","null","","285.1000000014901","","2","1","null","null","arrowup","[0.325,0.675,0.85,0.15]","","",""
"sailing-trial","407","1455867","0.0-11.0-356.0","","","","false","","","","","","","","","","776.6000000014901","","119.5","","2","1","arrowright","1","arrowleft","[0.325,0.675,0.85,0.15]","","",""
"sailing-trial","408","1457650","0.0-11.0-357.0","","","","false","","","","","","","","","","null","","82.60000000149012","","1","1","null","null","arrowup","[0.325,0.675,0.85,0.15]","","",""
"sailing-trial","409","1460949","0.0-11.0-358.0","","","","false","","","","","","","","","","104.90000000596046","","183.29999999701977","","2","1","arrowright","1","arrowleft","[0.325,0.675,0.85,0.15]","","",""
"sailing-trial","410","1463000","0.0-11.0-359.0","","","","false","","","","","","","","","","null","","333","","1","1","null","null","arrowup","[0.325,0.675,0.85,0.15]","","",""
"sailing-trial","411","1465700","0.0-11.0-360.0","","","","false","","","","","","","","","","138.30000000447035","","13.199999995529652","","2","1","arrowright","1","arrowleft","[0.325,0.675,0.85,0.15]","","",""
"sailing-trial","412","1467618","0.0-11.0-361.0","","","","false","","","","","","","","","","null","","337.8999999985099","","3","0","null","null","arrowup","[0.325,0.675,0.85,0.15]","","",""
"sailing-trial","413","1470451","0.0-11.0-362.0","","","","false","","","","","","","","","","506.6000000014901","","130.5","","2","0","arrowright","1","arrowleft","[0.325,0.675,0.85,0.15]","","",""
"sailing-trial","414","1471821","0.0-11.0-363.0","","","","false","","","","","","","","","","null","","328.5","","1","0","null","null","arrowup","[0.325,0.675,0.85,0.15]","","",""
"sailing-trial","415","1474698","0.0-11.0-364.0","","","","false","","","","","","","","","","457","","37.5","","3","0","arrowright","1","arrowright","[0.325,0.675,0.85,0.15]","","",""
"sailing-trial","416","1476683","0.0-11.0-365.0","","","","false","","","","","","","","","","null","","127.20000000298023","","0","1","null","null","arrowup","[0.325,0.675,0.85,0.15]","","",""
"sailing-trial","417","1479534","0.0-11.0-366.0","","","","false","","","","","","","","","","1.6000000014901161","","163","","1","1","arrowleft","0","arrowright","[0.15,0.85,0.675,0.325]","","",""
"sailing-trial","418","1480962","0.0-11.0-367.0","","","","false","","","","","","","","","","null","","150.60000000149012","","3","0","null","null","arrowup","[0.15,0.85,0.675,0.325]","","",""
"sailing-trial","419","1483900","0.0-11.0-368.0","","","","false","","","","","","","","","","220","","62.19999999552965","","1","1","arrowleft","0","arrowright","[0.15,0.85,0.675,0.325]","","",""
"sailing-trial","420","1485265","0.0-11.0-369.0","","","","false","","","","","","","","","","null","","191.89999999850988","","0","0","null","null","arrowup","[0.15,0.85,0.675,0.325]","","",""
"sailing-trial","421","1488550","0.0-11.0-370.0","","","","false","","","","","","","","","","485.5","","225","","1","1","arrowleft","0","arrowright","[0.15,0.85,0.675,0.325]","","",""
"sailing-trial","422","1490433","0.0-11.0-371.0","","","","false","","","","","","","","","","null","","26.299999997019768","","1","1","null","null","arrowup","[0.15,0.85,0.675,0.325]","","",""
"sailing-trial","423","1493982","0.0-11.0-372.0","","","","false","","","","","","","","","","96.30000000447035","","286.80000000447035","","1","1","arrowleft","0","arrowright","[0.15,0.85,0.675,0.325]","","",""
"sailing-trial","424","1495550","0.0-11.0-373.0","","","","false","","","","","","","","","","null","","3.2000000029802322","","2","1","null","null","arrowup","[0.15,0.85,0.675,0.325]","","",""
"sailing-trial","425","1498515","0.0-11.0-374.0","","","","false","","","","","","","","","","127.89999999850988","","235.30000000447035","","1","1","arrowleft","0","arrowright","[0.15,0.85,0.675,0.325]","","",""
"sailing-trial","426","1500225","0.0-11.0-375.0","","","","false","","","","","","","","","","null","","276.1000000014901","","0","0","null","null","arrowup","[0.15,0.85,0.675,0.325]","","",""
"sailing-trial","427","1502696","0.0-11.0-376.0","","","","false","","","","","","","","","","265","","126.79999999701977","","1","0","arrowleft","0","arrowright","[0.15,0.85,0.675,0.325]","","",""
"sailing-trial","428","1504449","0.0-11.0-377.0","","","","false","","","","","","","","","","null","","232.70000000298023","","0","0","null","null","arrowup","[0.15,0.85,0.675,0.325]","","",""
"sailing-trial","429","1506820","0.0-11.0-378.0","","","","false","","","","","","","","","","70.10000000149012","","116.60000000149012","","0","0","arrowleft","0","arrowleft","[0.15,0.85,0.675,0.325]","","",""
"sailing-trial","430","1508240","0.0-11.0-379.0","","","","false","","","","","","","","","","null","","55.29999999701977","","3","0","null","null","arrowup","[0.15,0.85,0.675,0.325]","","",""
"sailing-trial","431","1511430","0.0-11.0-380.0","","","","false","","","","","","","","","","211.69999999552965","","46.600000001490116","","3","1","arrowright","1","arrowright","[0.15,0.85,0.675,0.325]","","",""
"sailing-trial","432","1512740","0.0-11.0-381.0","","","","false","","","","","","","","","","null","","54.70000000298023","","2","0","null","null","arrowup","[0.15,0.85,0.675,0.325]","","",""
"sailing-trial","433","1515599","0.0-11.0-382.0","","","","false","","","","","","","","","","157.69999999552965","","108.5","","3","1","arrowright","1","arrowright","[0.15,0.85,0.675,0.325]","","",""
"sailing-trial","434","1517116","0.0-11.0-383.0","","","","false","","","","","","","","","","null","","181","","0","0","null","null","arrowup","[0.15,0.85,0.675,0.325]","","",""
"sailing-trial","435","1519443","0.0-11.0-384.0","","","","false","","","","","","","","","","12.700000002980232","","214.59999999403954","","3","0","arrowright","1","arrowright","[0.325,0.675,0.85,0.15]","","",""
"sailing-trial","436","1520678","0.0-11.0-385.0","","","","false","","","","","","","","","","null","","177.29999999701977","","3","0","null","null","arrowup","[0.325,0.675,0.85,0.15]","","",""
"sailing-trial","437","1523631","0.0-11.0-386.0","","","","false","","","","","","","","","","265.6000000014901","","88.69999999552965","","1","1","arrowleft","0","arrowright","[0.325,0.675,0.85,0.15]","","",""
"sailing-trial","438","1524896","0.0-11.0-387.0","","","","false","","","","","","","","","","null","","137","","0","0","null","null","arrowup","[0.325,0.675,0.85,0.15]","","",""
"sailing-trial","439","1528133","0.0-11.0-388.0","","","","false","","","","","","","","","","279.20000000298023","","36","","2","1","arrowright","1","arrowleft","[0.325,0.675,0.85,0.15]","","",""
"sailing-trial","440","1529674","0.0-11.0-389.0","","","","false","","","","","","","","","","null","","298.3999999985099","","3","0","null","null","arrowup","[0.325,0.675,0.85,0.15]","","",""
"sailing-trial","441","1532414","0.0-11.0-390.0","","","","false","","","","","","","","","","159.89999999850988","","27","","2","1","arrowright","1","arrowleft","[0.325,0.675,0.85,0.15]","","",""
"sailing-trial","442","1534215","0.0-11.0-391.0","","","","false","","","","","","","","","","null","","34.69999999552965","","1","1","null","null","arrowup","[0.325,0.675,0.85,0.15]","","",""
"sailing-trial","443","1536591","0.0-11.0-392.0","","","","false","","","","","","","","","","22.700000002980232","","243.79999999701977","","2","0","arrowright","1","arrowleft","[0.325,0.675,0.85,0.15]","","",""
"sailing-trial","444","1538422","0.0-11.0-393.0","","","","false","","","","","","","","","","null","","305.29999999701977","","0","0","null","null","arrowup","[0.325,0.675,0.85,0.15]","","",""
"sailing-trial","445","1541580","0.0-11.0-394.0","","","","false","","","","","","","","","","110","","237.29999999701977","","1","1","arrowleft","0","arrowright","[0.325,0.675,0.85,0.15]","","",""
"sailing-trial","446","1543257","0.0-11.0-395.0","","","","false","","","","","","","","","","null","","660.4000000059605","","0","0","null","null","arrowup","[0.325,0.675,0.85,0.15]","","",""
"sailing-trial","447","1546713","0.0-11.0-396.0","","","","false","","","","","","","","","","609.7999999970198","","202.5","","1","1","arrowleft","0","arrowright","[0.325,0.675,0.85,0.15]","","",""
"sailing-trial","448","1548582","0.0-11.0-397.0","","","","false","","","","","","","","","","null","","297.8999999985099","","1","1","null","null","arrowup","[0.325,0.675,0.85,0.15]","","",""
"sailing-trial","449","1551915","0.0-11.0-398.0","","","","false","","","","","","","","","","635.5999999940395","","126.69999999552965","","1","1","arrowleft","0","arrowright","[0.325,0.675,0.85,0.15]","","",""
"sailing-trial","450","1553980","0.0-11.0-399.0","","","","false","","","","","","","","","","null","","293.30000000447035","","1","1","null","null","arrowup","[0.325,0.675,0.85,0.15]","","",""
"instructions","451","1558676","0.0-12.0","","","","","","","","","","4694.69999999553","","","","","","","","","","","","","","","","[{""page_index"":0,""viewing_time"":4693.89999999851}]"
"survey-debrief","452","1616826","0.0-13.0","","","","","","","","","","58148.60000000149","","","","","","","","","","","","","","{""difficulty"":""3"",""fun"":""1"",""clarity"":""5"",""strategy"":""If I went to a shop on an island multiple times in a row and there was treasure, I was more inclined to pick it again. But as soon as there was no treasure, I went for a different shop or island."",""feedback"":""""}","",""
