"trial_type","trial_index","time_elapsed","internal_node_id","value","metadata","success","timeout","failed_images","failed_audio","failed_video","browser_interaction","low_quality","rt","stimulus","response","button_pressed","island_rt","island_response","boat_rt","boat_response","boat","reward","island_key","island","boat_key","reward_probabilities","responses","num_errors","view_history"
"pavlovia","0","3","0.0-0.0","","","","","","","","","","","","","","","","","","","","","","","","","",""
"call-function","1","3","0.0-1.0","","{""task_version"":""sailing_part1_v1"",""task_condition"":""good"",""boats"":[""B"",""D"",""A"",""C""],""boats_demo"":[""H"",""G"",""E"",""F""],""islands"":[""A"",""B""],""subject_id"":""13865"",""age"":""12"",""gender"":""Female""}","","","","","","","","","","","","","","","","","","","","","","","",""
"preload","2","9160","0.0-2.0","","","true","false","[]","[]","[]","[{""event"":""fullscreenenter"",""trial"":3,""time"":16304}]","false","","","","","","","","","","","","","","","","",""
"fullscreen","3","17286","0.0-3.0","","","true","","","","","","","","","","","","","","","","","","","","","","",""
"audio-keyboard-response","4","21509","0.0-4.0-0.0","","","","","","","","","","2709.3333333333335","audio/beep_loop.wav"," ","","","","","","","","","","","","","",""
"audio-test","5","25933","0.0-4.0-1.0","","","","","","","","","","null","audio/turtle.mp3","","3","","","","","","","","","","","","",""
"audio-test","6","33203","0.0-4.0-2.0","","","","","","","","","","null","audio/shark.mp3","","2","","","","","","","","","","","","",""
"sailing-instructions","7","84125","0.0-5.0-0.0-0.0","","","","","","","","","","","","","","null","null","null","null","null","null","","","","","","",""
"sailing-trial","8","94103","0.0-5.0-0.0-1.0-0.0","","","","false","","","","","","","","","","5887.699999988079","","null","","null","null","arrowleft","0","null","null","","",""
"sailing-trial","9","97852","0.0-5.0-0.0-1.0-1.0","","","","false","","","","","","","","","","2630.199999988079","","null","","null","null","arrowright","1","null","null","","",""
"sailing-trial","10","101086","0.0-5.0-0.0-1.0-2.0","","","","false","","","","","","","","","","2088.7999999821186","","null","","null","null","arrowleft","0","null","null","","",""
"sailing-instructions","11","157977","0.0-5.0-0.0-2.0","","","","","","","","","","","","","","null","null","null","null","0","null","","","","","","",""
"sailing-trial","12","165685","0.0-5.0-0.0-3.0-0.0","","","","false","","","","","","","","","","null","","3383","","2","1","null","null","arrowleft","[1,1,1,1]","","",""
"sailing-trial","13","171003","0.0-5.0-0.0-3.0-1.0","","","","false","","","","","","","","","","null","","1863.0999999940395","","3","1","null","null","arrowright","[1,1,1,1]","","",""
"sailing-trial","14","175486","0.0-5.0-0.0-3.0-2.0","","","","false","","","","","","","","","","null","","896.0999999940395","","2","0","null","null","arrowleft","[0,0,0,0]","","",""
"sailing-instructions","15","186100","0.0-5.0-0.0-4.0","","","","","","","","","","","","","","null","null","null","null","null","null","","","","","","",""
"sailing-comprehension","16","218825","0.0-5.0-0.0-5.0","","","","","","","","","","26667.09999999404","","","","","","","","","","","","","","[""true"",""true"",""false"",""true""]","0",""
"sailing-instructions","17","300367","0.0-6.0-0.0-0.0","","","","","","","","","","","","","","null","null","null","null","null","null","","","","","","",""
"sailing-comprehension","18","321008","0.0-6.0-0.0-1.0","","","","","","","","","","18950.90000000596","","","","","","","","","","","","","","[""true"",""false"",""true""]","0",""
"sailing-instructions","19","336817","0.0-7.0-0.0-0.0","","","","","","","","","","","","","","null","null","null","null","null","null","","","","","","",""
"sailing-trial","20","343209","0.0-7.0-0.0-1.0-0.0","","","","false","","","","","","","","","","null","","3349.5999999940395","","0","0","null","null","arrowup","[0.2,0.8,0.2,0.8]","","",""
"sailing-trial","21","348360","0.0-7.0-0.0-1.0-1.0","","","","false","","","","","","","","","","null","","2371.5","","1","1","null","null","arrowup","[0.2,0.8,0.2,0.8]","","",""
"sailing-trial","22","352106","0.0-7.0-0.0-1.0-2.0","","","","false","","","","","","","","","","null","","1885.9000000059605","","2","0","null","null","arrowup","[0.2,0.8,0.2,0.8]","","",""
"sailing-trial","23","354987","0.0-7.0-0.0-1.0-3.0","","","","false","","","","","","","","","","null","","1008.9000000059605","","3","1","null","null","arrowup","[0.2,0.8,0.2,0.8]","","",""
"sailing-comprehension","24","366964","0.0-7.0-0.0-2.0","","","","","","","","","","9935.5","","","","","","","","","","","","","","[""false""]","0",""
"sailing-instructions","25","377144","0.0-8.0-0.0-0.0","","","","","","","","","","","","","","null","null","null","null","null","null","","","","","","",""
"sailing-comprehension","26","385483","0.0-8.0-0.0-1.0","","","","","","","","","","6755.699999988079","","","","","","","","","","","","","","[""true""]","0",""
"sailing-instructions","27","500513","0.0-9.0-0.0-0.0","","","","","","","","","","","","","","null","null","null","null","null","null","","","","","","",""
"sailing-trial","28","507656","0.0-9.0-0.0-1.0-0.0","","","","false","","","","","","","","","","1817.4000000059605","","995.7999999821186","","3","1","arrowright","1","arrowright","[0.2,0.8,0.2,0.8]","","",""
"sailing-trial","29","514319","0.0-9.0-0.0-1.0-1.0","","","","false","","","","","","","","","","3181.699999988079","","36.80000001192093","","3","0","arrowright","1","arrowright","[0.2,0.8,0.2,0.8]","","",""
"sailing-trial","30","518151","0.0-9.0-0.0-1.0-2.0","","","","false","","","","","","","","","","null","","1962.199999988079","","0","0","null","null","arrowup","[0.2,0.8,0.2,0.8]","","",""
"sailing-trial","31","523115","0.0-9.0-0.0-1.0-3.0","","","","false","","","","","","","","","","907","","967.0999999940395","","0","0","arrowleft","0","arrowleft","[0.2,0.8,0.2,0.8]","","",""
"sailing-trial","32","526668","0.0-9.0-0.0-1.0-4.0","","","","false","","","","","","","","","","null","","1387.8999999761581","","3","1","null","null","arrowup","[0.2,0.8,0.2,0.8]","","",""
"sailing-trial","33","531068","0.0-9.0-0.0-1.0-5.0","","","","false","","","","","","","","","","728.7000000178814","","111.7000000178814","","3","1","arrowright","1","arrowright","[0.2,0.8,0.2,0.8]","","",""
"sailing-instructions","34","576693","0.0-10.0","","","","","","","","","","","","","","null","null","null","null","null","null","","","","","","",""
"sailing-trial","35","584172","0.0-11.0-0.0","","","","false","","","","","","","","","","3290.300000011921","","258.80000001192093","","2","1","arrowright","1","arrowleft","[0.15,0.85,0.325,0.675]","","",""
"sailing-trial","36","587571","0.0-11.0-1.0","","","","false","","","","","","","","","","null","","1604.699999988079","","2","1","null","null","arrowup","[0.15,0.85,0.325,0.675]","","",""
"sailing-trial","37","590986","0.0-11.0-2.0","","","","false","","","","","","","","","","651.4000000059605","","121.30000001192093","","2","0","arrowright","1","arrowleft","[0.15,0.85,0.325,0.675]","","",""
"sailing-trial","38","594584","0.0-11.0-3.0","","","","false","","","","","","","","","","null","","1614.5999999940395","","3","1","null","null","arrowup","[0.15,0.85,0.325,0.675]","","",""
"sailing-trial","39","598966","0.0-11.0-4.0","","","","false","","","","","","","","","","526.0999999940395","","1125.800000011921","","0","0","arrowleft","0","arrowleft","[0.15,0.85,0.325,0.675]","","",""
"sailing-trial","40","603550","0.0-11.0-5.0","","","","false","","","","","","","","","","null","","1098.5","","1","1","null","null","arrowup","[0.15,0.85,0.325,0.675]","","",""
"sailing-trial","41","608116","0.0-11.0-6.0","","","","false","","","","","","","","","","814.6000000238419","","66.59999999403954","","2","1","arrowright","1","arrowleft","[0.15,0.85,0.325,0.675]","","",""
"sailing-trial","42","610311","0.0-11.0-7.0","","","","false","","","","","","","","","","null","","1107.3999999761581","","0","0","null","null","arrowup","[0.15,0.85,0.325,0.675]","","",""
"sailing-trial","43","616130","0.0-11.0-8.0","","","","false","","","","","","","","","","2184.800000011921","","639.5999999940395","","1","1","arrowleft","0","arrowright","[0.15,0.85,0.325,0.675]","","",""
"sailing-trial","44","619380","0.0-11.0-9.0","","","","false","","","","","","","","","","null","","1544.5999999940395","","3","1","null","null","arrowup","[0.15,0.85,0.325,0.675]","","",""
"sailing-trial","45","623075","0.0-11.0-10.0","","","","false","","","","","","","","","","604.3000000119209","","810.5","","2","0","arrowright","1","arrowleft","[0.15,0.85,0.325,0.675]","","",""
"sailing-trial","46","626361","0.0-11.0-11.0","","","","false","","","","","","","","","","null","","1565.9000000059605","","2","1","null","null","arrowup","[0.15,0.85,0.325,0.675]","","",""
"sailing-trial","47","633460","0.0-11.0-12.0","","","","false","","","","","","","","","","564","","546.5","","1","1","arrowleft","0","arrowright","[0.15,0.85,0.325,0.675]","","",""
"sailing-trial","48","638635","0.0-11.0-13.0","","","","false","","","","","","","","","","null","","3378.0999999940395","","3","1","null","null","arrowup","[0.15,0.85,0.325,0.675]","","",""
"sailing-trial","49","644124","0.0-11.0-14.0","","","","false","","","","","","","","","","594.7000000178814","","887.8999999761581","","2","1","arrowright","1","arrowleft","[0.15,0.85,0.325,0.675]","","",""
"sailing-trial","50","647409","0.0-11.0-15.0","","","","false","","","","","","","","","","null","","1581.9000000059605","","1","1","null","null","arrowup","[0.15,0.85,0.325,0.675]","","",""
"sailing-trial","51","651287","0.0-11.0-16.0","","","","false","","","","","","","","","","441.89999997615814","","52.80000001192093","","2","0","arrowright","1","arrowleft","[0.325,0.675,0.15,0.85]","","",""
"sailing-trial","52","654485","0.0-11.0-17.0","","","","false","","","","","","","","","","null","","1125.4000000059605","","2","0","null","null","arrowup","[0.325,0.675,0.15,0.85]","","",""
"sailing-trial","53","658254","0.0-11.0-18.0","","","","false","","","","","","","","","","674.5","","32.89999997615814","","1","1","arrowleft","0","arrowright","[0.325,0.675,0.15,0.85]","","",""
"sailing-trial","54","661268","0.0-11.0-19.0","","","","false","","","","","","","","","","null","","1060.5999999940395","","1","1","null","null","arrowup","[0.325,0.675,0.15,0.85]","","",""
"sailing-trial","55","666545","0.0-11.0-20.0","","","","false","","","","","","","","","","547.3000000119209","","1179","","1","1","arrowleft","0","arrowright","[0.325,0.675,0.15,0.85]","","",""
"sailing-trial","56","669134","0.0-11.0-21.0","","","","false","","","","","","","","","","null","","1256.1000000238419","","2","0","null","null","arrowup","[0.325,0.675,0.15,0.85]","","",""
"sailing-trial","57","673100","0.0-11.0-22.0","","","","false","","","","","","","","","","890.4000000059605","","238.59999999403954","","1","1","arrowleft","0","arrowright","[0.325,0.675,0.15,0.85]","","",""
"sailing-trial","58","675500","0.0-11.0-23.0","","","","false","","","","","","","","","","null","","711.8999999761581","","0","1","null","null","arrowup","[0.325,0.675,0.15,0.85]","","",""
"sailing-trial","59","679049","0.0-11.0-24.0","","","","false","","","","","","","","","","370.80000001192093","","550.2000000178814","","1","1","arrowleft","0","arrowright","[0.325,0.675,0.15,0.85]","","",""
"sailing-trial","60","681782","0.0-11.0-25.0","","","","false","","","","","","","","","","null","","755.2000000178814","","0","1","null","null","arrowup","[0.325,0.675,0.15,0.85]","","",""
"sailing-trial","61","686195","0.0-11.0-26.0","","","","false","","","","","","","","","","423.89999997615814","","631.9000000059605","","1","0","arrowleft","0","arrowright","[0.325,0.675,0.15,0.85]","","",""
"sailing-trial","62","688210","0.0-11.0-27.0","","","","false","","","","","","","","","","null","","741.6999999880791","","2","0","null","null","arrowup","[0.325,0.675,0.15,0.85]","","",""
"sailing-trial","63","691909","0.0-11.0-28.0","","","","false","","","","","","","","","","401.60000002384186","","379","","1","0","arrowleft","0","arrowright","[0.325,0.675,0.15,0.85]","","",""
"sailing-trial","64","695140","0.0-11.0-29.0","","","","false","","","","","","","","","","null","","1899.800000011921","","0","0","null","null","arrowup","[0.325,0.675,0.15,0.85]","","",""
"sailing-trial","65","699094","0.0-11.0-30.0","","","","false","","","","","","","","","","443.40000000596046","","520.7999999821186","","1","1","arrowleft","0","arrowright","[0.325,0.675,0.15,0.85]","","",""
"sailing-trial","66","701324","0.0-11.0-31.0","","","","false","","","","","","","","","","null","","1004.5","","2","0","null","null","arrowup","[0.325,0.675,0.15,0.85]","","",""
"sailing-trial","67","704976","0.0-11.0-32.0","","","","false","","","","","","","","","","528.5999999940395","","74.69999998807907","","1","1","arrowleft","0","arrowright","[0.15,0.85,0.325,0.675]","","",""
"sailing-trial","68","708960","0.0-11.0-33.0","","","","false","","","","","","","","","","null","","1404.699999988079","","1","1","null","null","arrowup","[0.15,0.85,0.325,0.675]","","",""
"sailing-trial","69","713390","0.0-11.0-34.0","","","","false","","","","","","","","","","391.30000001192093","","336.7999999821186","","1","1","arrowleft","0","arrowright","[0.15,0.85,0.325,0.675]","","",""
"sailing-trial","70","715793","0.0-11.0-35.0","","","","false","","","","","","","","","","null","","1053.5","","2","0","null","null","arrowup","[0.15,0.85,0.325,0.675]","","",""
"sailing-trial","71","721089","0.0-11.0-36.0","","","","false","","","","","","","","","","1077.2999999821186","","195","","1","1","arrowleft","0","arrowright","[0.15,0.85,0.325,0.675]","","",""
"sailing-trial","72","724687","0.0-11.0-37.0","","","","false","","","","","","","","","","null","","1472.7000000178814","","0","1","null","null","arrowup","[0.15,0.85,0.325,0.675]","","",""
"sailing-trial","73","729751","0.0-11.0-38.0","","","","false","","","","","","","","","","791.4000000059605","","877.6999999880791","","0","0","arrowleft","0","arrowleft","[0.15,0.85,0.325,0.675]","","",""
"sailing-trial","74","732502","0.0-11.0-39.0","","","","false","","","","","","","","","","null","","990.5","","0","1","null","null","arrowup","[0.15,0.85,0.325,0.675]","","",""
"sailing-trial","75","737646","0.0-11.0-40.0","","","","false","","","","","","","","","","709.4000000059605","","1057.9000000059605","","1","1","arrowleft","0","arrowright","[0.15,0.85,0.325,0.675]","","",""
"sailing-trial","76","740545","0.0-11.0-41.0","","","","false","","","","","","","","","","null","","1259.7000000178814","","3","0","null","null","arrowup","[0.15,0.85,0.325,0.675]","","",""
"sailing-trial","77","744567","0.0-11.0-42.0","","","","false","","","","","","","","","","718.7999999821186","","511.10000002384186","","1","1","arrowleft","0","arrowright","[0.15,0.85,0.325,0.675]","","",""
"sailing-trial","78","747749","0.0-11.0-43.0","","","","false","","","","","","","","","","null","","1270.1000000238419","","1","1","null","null","arrowup","[0.15,0.85,0.325,0.675]","","",""
"sailing-trial","79","751271","0.0-11.0-44.0","","","","false","","","","","","","","","","749.4000000059605","","377.7000000178814","","1","0","arrowleft","0","arrowright","[0.15,0.85,0.325,0.675]","","",""
"sailing-trial","80","755094","0.0-11.0-45.0","","","","false","","","","","","","","","","null","","1648.5999999940395","","3","0","null","null","arrowup","[0.15,0.85,0.325,0.675]","","",""
"sailing-trial","81","759112","0.0-11.0-46.0","","","","false","","","","","","","","","","522.5","","316.69999998807907","","1","1","arrowleft","0","arrowright","[0.15,0.85,0.325,0.675]","","",""
"sailing-trial","82","761911","0.0-11.0-47.0","","","","false","","","","","","","","","","null","","1101.199999988079","","2","1","null","null","arrowup","[0.15,0.85,0.325,0.675]","","",""
"sailing-trial","83","765176","0.0-11.0-48.0","","","","false","","","","","","","","","","696.5","","268.7999999821186","","1","0","arrowleft","0","arrowright","[0.85,0.15,0.675,0.325]","","",""
"sailing-trial","84","768715","0.0-11.0-49.0","","","","false","","","","","","","","","","null","","1084.800000011921","","2","1","null","null","arrowup","[0.85,0.15,0.675,0.325]","","",""
"sailing-trial","85","774193","0.0-11.0-50.0","","","","false","","","","","","","","","","448.2999999821186","","1083","","2","1","arrowright","1","arrowleft","[0.85,0.15,0.675,0.325]","","",""
"sailing-trial","86","777225","0.0-11.0-51.0","","","","false","","","","","","","","","","null","","1252","","2","1","null","null","arrowup","[0.85,0.15,0.675,0.325]","","",""
"sailing-trial","87","781457","0.0-11.0-52.0","","","","false","","","","","","","","","","1233.300000011921","","99.30000001192093","","2","1","arrowright","1","arrowleft","[0.85,0.15,0.675,0.325]","","",""
"sailing-trial","88","783888","0.0-11.0-53.0","","","","false","","","","","","","","","","null","","1092.7000000178814","","1","0","null","null","arrowup","[0.85,0.15,0.675,0.325]","","",""
"sailing-trial","89","788288","0.0-11.0-54.0","","","","false","","","","","","","","","","1032","","19.099999994039536","","2","0","arrowright","1","arrowleft","[0.85,0.15,0.675,0.325]","","",""
"sailing-trial","90","791755","0.0-11.0-55.0","","","","false","","","","","","","","","","null","","1545.2999999821186","","0","1","null","null","arrowup","[0.85,0.15,0.675,0.325]","","",""
"sailing-trial","91","797904","0.0-11.0-56.0","","","","false","","","","","","","","","","1129.4000000059605","","0.800000011920929","","2","1","arrowright","1","arrowleft","[0.85,0.15,0.675,0.325]","","",""
"sailing-trial","92","800802","0.0-11.0-57.0","","","","false","","","","","","","","","","null","","1087.800000011921","","2","1","null","null","arrowup","[0.85,0.15,0.675,0.325]","","",""
"sailing-trial","93","804202","0.0-11.0-58.0","","","","false","","","","","","","","","","452.7000000178814","","179","","2","1","arrowright","1","arrowleft","[0.85,0.15,0.675,0.325]","","",""
"sailing-trial","94","810645","0.0-11.0-59.0","","","","false","","","","","","","","","","null","","2640.5999999940395","","2","1","null","null","arrowup","[0.85,0.15,0.675,0.325]","","",""
"sailing-trial","95","816499","0.0-11.0-60.0","","","","false","","","","","","","","","","1583.1000000238419","","673","","2","1","arrowright","1","arrowleft","[0.85,0.15,0.675,0.325]","","",""
"sailing-trial","96","820726","0.0-11.0-61.0","","","","false","","","","","","","","","","null","","1216.2999999821186","","0","0","null","null","arrowup","[0.85,0.15,0.675,0.325]","","",""
"sailing-trial","97","828400","0.0-11.0-62.0","","","","false","","","","","","","","","","722.9000000059605","","2128.2999999821186","","2","1","arrowright","1","arrowleft","[0.85,0.15,0.675,0.325]","","",""
"sailing-trial","98","832587","0.0-11.0-63.0","","","","false","","","","","","","","","","null","","1176","","0","0","null","null","arrowup","[0.85,0.15,0.675,0.325]","","",""
"sailing-trial","99","836867","0.0-11.0-64.0","","","","false","","","","","","","","","","668.2000000178814","","428.7000000178814","","0","1","arrowleft","0","arrowleft","[0.85,0.15,0.675,0.325]","","",""
"sailing-trial","100","839777","0.0-11.0-65.0","","","","false","","","","","","","","","","null","","1006","","0","1","null","null","arrowup","[0.85,0.15,0.675,0.325]","","",""
"sailing-trial","101","844178","0.0-11.0-66.0","","","","false","","","","","","","","","","959.2999999821186","","526.5","","0","1","arrowleft","0","arrowleft","[0.675,0.325,0.85,0.15]","","",""
"sailing-trial","102","848569","0.0-11.0-67.0","","","","false","","","","","","","","","","null","","1369.1000000238419","","1","0","null","null","arrowup","[0.675,0.325,0.85,0.15]","","",""
"sailing-trial","103","854588","0.0-11.0-68.0","","","","false","","","","","","","","","","1407.5999999940395","","587.0999999940395","","0","0","arrowleft","0","arrowleft","[0.675,0.325,0.85,0.15]","","",""
"sailing-trial","104","859027","0.0-11.0-69.0","","","","false","","","","","","","","","","null","","1416.300000011921","","3","0","null","null","arrowup","[0.675,0.325,0.85,0.15]","","",""
"sailing-trial","105","864149","0.0-11.0-70.0","","","","false","","","","","","","","","","1095.9000000059605","","630.2000000178814","","0","1","arrowleft","0","arrowleft","[0.675,0.325,0.85,0.15]","","",""
"sailing-trial","106","868226","0.0-11.0-71.0","","","","false","","","","","","","","","","null","","1059.300000011921","","0","0","null","null","arrowup","[0.675,0.325,0.85,0.15]","","",""
"sailing-trial","107","873435","0.0-11.0-72.0","","","","false","","","","","","","","","","1699.4000000059605","","294.69999998807907","","0","1","arrowleft","0","arrowleft","[0.675,0.325,0.85,0.15]","","",""
"sailing-trial","108","876702","0.0-11.0-73.0","","","","false","","","","","","","","","","null","","1409.1000000238419","","3","1","null","null","arrowup","[0.675,0.325,0.85,0.15]","","",""
"sailing-trial","109","881862","0.0-11.0-74.0","","","","false","","","","","","","","","","765.5999999940395","","1083.800000011921","","0","0","arrowleft","0","arrowleft","[0.675,0.325,0.85,0.15]","","",""
"sailing-trial","110","886069","0.0-11.0-75.0","","","","false","","","","","","","","","","null","","1172.2000000178814","","3","0","null","null","arrowup","[0.675,0.325,0.85,0.15]","","",""
"sailing-trial","111","890165","0.0-11.0-76.0","","","","false","","","","","","","","","","437.80000001192093","","365.59999999403954","","1","1","arrowleft","0","arrowright","[0.675,0.325,0.85,0.15]","","",""
"sailing-trial","112","894064","0.0-11.0-77.0","","","","false","","","","","","","","","","null","","2104.4000000059605","","2","0","null","null","arrowup","[0.675,0.325,0.85,0.15]","","",""
"sailing-trial","113","899016","0.0-11.0-78.0","","","","false","","","","","","","","","","832.9000000059605","","93.59999999403954","","1","0","arrowleft","0","arrowright","[0.675,0.325,0.85,0.15]","","",""
"sailing-trial","114","902646","0.0-11.0-79.0","","","","false","","","","","","","","","","null","","959.5","","2","1","null","null","arrowup","[0.675,0.325,0.85,0.15]","","",""
"sailing-trial","115","907236","0.0-11.0-80.0","","","","false","","","","","","","","","","880.4000000059605","","339.39999997615814","","1","0","arrowleft","0","arrowright","[0.675,0.325,0.85,0.15]","","",""
"sailing-trial","116","909365","0.0-11.0-81.0","","","","false","","","","","","","","","","null","","932.8000000119209","","3","0","null","null","arrowup","[0.675,0.325,0.85,0.15]","","",""
"sailing-trial","117","913559","0.0-11.0-82.0","","","","false","","","","","","","","","","621.3000000119209","","605.1999999880791","","2","1","arrowright","1","arrowleft","[0.15,0.85,0.325,0.675]","","",""
"sailing-trial","118","915703","0.0-11.0-83.0","","","","false","","","","","","","","","","null","","868.4000000059605","","0","0","null","null","arrowup","[0.15,0.85,0.325,0.675]","","",""
"sailing-trial","119","919296","0.0-11.0-84.0","","","","false","","","","","","","","","","493.40000000596046","","4.199999988079071","","2","0","arrowright","1","arrowleft","[0.15,0.85,0.325,0.675]","","",""
"sailing-trial","120","922307","0.0-11.0-85.0","","","","false","","","","","","","","","","null","","1090.9000000059605","","1","1","null","null","arrowup","[0.15,0.85,0.325,0.675]","","",""
"sailing-trial","121","925956","0.0-11.0-86.0","","","","false","","","","","","","","","","466.69999998807907","","493.90000000596046","","2","0","arrowright","1","arrowleft","[0.15,0.85,0.325,0.675]","","",""
"sailing-trial","122","928321","0.0-11.0-87.0","","","","false","","","","","","","","","","null","","973.9000000059605","","2","0","null","null","arrowup","[0.15,0.85,0.325,0.675]","","",""
"sailing-trial","123","932655","0.0-11.0-88.0","","","","false","","","","","","","","","","162","","309.59999999403954","","1","1","arrowleft","0","arrowright","[0.15,0.85,0.325,0.675]","","",""
"sailing-trial","124","935384","0.0-11.0-89.0","","","","false","","","","","","","","","","null","","961.6999999880791","","3","0","null","null","arrowup","[0.15,0.85,0.325,0.675]","","",""
"sailing-trial","125","939720","0.0-11.0-90.0","","","","false","","","","","","","","","","522.3000000119209","","300.59999999403954","","1","1","arrowleft","0","arrowright","[0.15,0.85,0.325,0.675]","","",""
"sailing-trial","126","943800","0.0-11.0-91.0","","","","false","","","","","","","","","","null","","1069.300000011921","","3","0","null","null","arrowup","[0.15,0.85,0.325,0.675]","","",""
"sailing-trial","127","948084","0.0-11.0-92.0","","","","false","","","","","","","","","","522.3000000119209","","76.30000001192093","","1","1","arrowleft","0","arrowright","[0.15,0.85,0.325,0.675]","","",""
"sailing-trial","128","951009","0.0-11.0-93.0","","","","false","","","","","","","","","","null","","1428.300000011921","","0","0","null","null","arrowup","[0.15,0.85,0.325,0.675]","","",""
"sailing-trial","129","956683","0.0-11.0-94.0","","","","false","","","","","","","","","","622.5999999940395","","12.400000005960464","","1","1","arrowleft","0","arrowright","[0.15,0.85,0.325,0.675]","","",""
"sailing-trial","130","960629","0.0-11.0-95.0","","","","false","","","","","","","","","","null","","930.5","","2","0","null","null","arrowup","[0.15,0.85,0.325,0.675]","","",""
"sailing-trial","131","966180","0.0-11.0-96.0","","","","false","","","","","","","","","","1139.7000000178814","","153.7000000178814","","1","1","arrowleft","0","arrowright","[0.15,0.85,0.325,0.675]","","",""
"sailing-trial","132","969512","0.0-11.0-97.0","","","","false","","","","","","","","","","null","","1950.1000000238419","","2","0","null","null","arrowup","[0.15,0.85,0.325,0.675]","","",""
"sailing-trial","133","974345","0.0-11.0-98.0","","","","false","","","","","","","","","","1041","","340.5","","1","1","arrowleft","0","arrowright","[0.15,0.85,0.325,0.675]","","",""
"sailing-trial","134","978394","0.0-11.0-99.0","","","","false","","","","","","","","","","null","","2155.4000000059605","","1","1","null","null","arrowup","[0.15,0.85,0.325,0.675]","","",""
"sailing-trial","135","983026","0.0-11.0-100.0","","","","false","","","","","","","","","","584.6999999880791","","448.80000001192093","","1","1","arrowleft","0","arrowright","[0.15,0.85,0.325,0.675]","","",""
"sailing-trial","136","985336","0.0-11.0-101.0","","","","false","","","","","","","","","","null","","918.9000000059605","","2","0","null","null","arrowup","[0.15,0.85,0.325,0.675]","","",""
"sailing-trial","137","990689","0.0-11.0-102.0","","","","false","","","","","","","","","","947.2000000178814","","352.40000000596046","","1","0","arrowleft","0","arrowright","[0.15,0.85,0.325,0.675]","","",""
"sailing-trial","138","994607","0.0-11.0-103.0","","","","false","","","","","","","","","","null","","1767.9000000059605","","1","1","null","null","arrowup","[0.15,0.85,0.325,0.675]","","",""
"sailing-trial","139","998518","0.0-11.0-104.0","","","","false","","","","","","","","","","761.1999999880791","","340.5","","1","0","arrowleft","0","arrowright","[0.15,0.85,0.325,0.675]","","",""
"sailing-trial","140","1002871","0.0-11.0-105.0","","","","false","","","","","","","","","","null","","1030.5","","2","1","null","null","arrowup","[0.15,0.85,0.325,0.675]","","",""
"sailing-trial","141","1006393","0.0-11.0-106.0","","","","false","","","","","","","","","","720.5","","431.59999999403954","","2","0","arrowright","1","arrowleft","[0.325,0.675,0.15,0.85]","","",""
"sailing-trial","142","1010417","0.0-11.0-107.0","","","","false","","","","","","","","","","null","","1004.8000000119209","","2","0","null","null","arrowup","[0.325,0.675,0.15,0.85]","","",""
"sailing-trial","143","1015616","0.0-11.0-108.0","","","","false","","","","","","","","","","626.5","","508.90000000596046","","0","0","arrowleft","0","arrowleft","[0.325,0.675,0.15,0.85]","","",""
"sailing-trial","144","1018544","0.0-11.0-109.0","","","","false","","","","","","","","","","null","","1187.199999988079","","1","0","null","null","arrowup","[0.325,0.675,0.15,0.85]","","",""
"sailing-trial","145","1023367","0.0-11.0-110.0","","","","false","","","","","","","","","","1247.199999988079","","422","","3","1","arrowright","1","arrowright","[0.325,0.675,0.15,0.85]","","",""
"sailing-trial","146","1027399","0.0-11.0-111.0","","","","false","","","","","","","","","","null","","2564.899999976158","","0","0","null","null","arrowup","[0.325,0.675,0.15,0.85]","","",""
"sailing-trial","147","1031431","0.0-11.0-112.0","","","","false","","","","","","","","","","536","","19","","3","1","arrowright","1","arrowright","[0.325,0.675,0.15,0.85]","","",""
"sailing-trial","148","1034976","0.0-11.0-113.0","","","","false","","","","","","","","","","null","","2228.300000011921","","0","0","null","null","arrowup","[0.325,0.675,0.15,0.85]","","",""
"sailing-trial","149","1038812","0.0-11.0-114.0","","","","false","","","","","","","","","","560.3999999761581","","138.80000001192093","","3","1","arrowright","1","arrowright","[0.325,0.675,0.15,0.85]","","",""
"sailing-trial","150","1041460","0.0-11.0-115.0","","","","false","","","","","","","","","","null","","954.5999999940395","","2","0","null","null","arrowup","[0.325,0.675,0.15,0.85]","","",""
"sailing-trial","151","1045527","0.0-11.0-116.0","","","","false","","","","","","","","","","470.80000001192093","","363.09999999403954","","3","1","arrowright","1","arrowright","[0.325,0.675,0.15,0.85]","","",""
"sailing-trial","152","1048760","0.0-11.0-117.0","","","","false","","","","","","","","","","null","","1106.800000011921","","3","1","null","null","arrowup","[0.325,0.675,0.15,0.85]","","",""
"sailing-trial","153","1052528","0.0-11.0-118.0","","","","false","","","","","","","","","","564.2999999821186","","373.5","","3","1","arrowright","1","arrowright","[0.325,0.675,0.15,0.85]","","",""
"sailing-trial","154","1055674","0.0-11.0-119.0","","","","false","","","","","","","","","","null","","1164.5999999940395","","0","1","null","null","arrowup","[0.325,0.675,0.15,0.85]","","",""
"sailing-trial","155","1059458","0.0-11.0-120.0","","","","false","","","","","","","","","","884.9000000059605","","74.90000000596046","","3","1","arrowright","1","arrowright","[0.325,0.675,0.15,0.85]","","",""
"sailing-trial","156","1061821","0.0-11.0-121.0","","","","false","","","","","","","","","","null","","948.2000000178814","","2","0","null","null","arrowup","[0.325,0.675,0.15,0.85]","","",""
"sailing-trial","157","1064803","0.0-11.0-122.0","","","","false","","","","","","","","","","571.2999999821186","","78","","3","0","arrowright","1","arrowright","[0.85,0.15,0.675,0.325]","","",""
"sailing-trial","158","1067506","0.0-11.0-123.0","","","","false","","","","","","","","","","null","","885.9000000059605","","0","1","null","null","arrowup","[0.85,0.15,0.675,0.325]","","",""
"sailing-trial","159","1071315","0.0-11.0-124.0","","","","false","","","","","","","","","","459.80000001192093","","1028.7000000178814","","3","0","arrowright","1","arrowright","[0.85,0.15,0.675,0.325]","","",""
"sailing-trial","160","1074471","0.0-11.0-125.0","","","","false","","","","","","","","","","null","","1762.4000000059605","","1","0","null","null","arrowup","[0.85,0.15,0.675,0.325]","","",""
"sailing-trial","161","1078495","0.0-11.0-126.0","","","","false","","","","","","","","","","597.2000000178814","","751.5","","3","0","arrowright","1","arrowright","[0.85,0.15,0.675,0.325]","","",""
"sailing-trial","162","1080984","0.0-11.0-127.0","","","","false","","","","","","","","","","null","","1106.2000000178814","","1","0","null","null","arrowup","[0.85,0.15,0.675,0.325]","","",""
"sailing-trial","163","1084268","0.0-11.0-128.0","","","","false","","","","","","","","","","358.40000000596046","","37.599999994039536","","0","1","arrowleft","0","arrowleft","[0.85,0.15,0.675,0.325]","","",""
"sailing-trial","164","1087661","0.0-11.0-129.0","","","","false","","","","","","","","","","null","","998.3000000119209","","2","0","null","null","arrowup","[0.85,0.15,0.675,0.325]","","",""
"sailing-trial","165","1091617","0.0-11.0-130.0","","","","false","","","","","","","","","","540.7000000178814","","373.40000000596046","","0","1","arrowleft","0","arrowleft","[0.85,0.15,0.675,0.325]","","",""
"sailing-trial","166","1094696","0.0-11.0-131.0","","","","false","","","","","","","","","","null","","1482","","1","0","null","null","arrowup","[0.85,0.15,0.675,0.325]","","",""
"sailing-trial","167","1098347","0.0-11.0-132.0","","","","false","","","","","","","","","","563.5999999940395","","92.59999999403954","","0","1","arrowleft","0","arrowleft","[0.85,0.15,0.675,0.325]","","",""
"sailing-trial","168","1101229","0.0-11.0-133.0","","","","false","","","","","","","","","","null","","828.2000000178814","","0","1","null","null","arrowup","[0.85,0.15,0.675,0.325]","","",""
"sailing-trial","169","1105012","0.0-11.0-134.0","","","","false","","","","","","","","","","520.1999999880791","","35.5","","0","1","arrowleft","0","arrowleft","[0.85,0.15,0.675,0.325]","","",""
"sailing-trial","170","1107406","0.0-11.0-135.0","","","","false","","","","","","","","","","null","","1068.3999999761581","","1","0","null","null","arrowup","[0.85,0.15,0.675,0.325]","","",""
"sailing-trial","171","1112409","0.0-11.0-136.0","","","","false","","","","","","","","","","482.5","","448.09999999403954","","0","0","arrowleft","0","arrowleft","[0.85,0.15,0.675,0.325]","","",""
"sailing-trial","172","1115365","0.0-11.0-137.0","","","","false","","","","","","","","","","null","","1569.4000000059605","","1","0","null","null","arrowup","[0.85,0.15,0.675,0.325]","","",""
"sailing-trial","173","1124448","0.0-11.0-138.0","","","","false","","","","","","","","","","431.90000000596046","","533.0999999940395","","0","1","arrowleft","0","arrowleft","[0.85,0.15,0.675,0.325]","","",""
"sailing-trial","174","1130240","0.0-11.0-139.0","","","","false","","","","","","","","","","null","","1133.2999999821186","","3","1","null","null","arrowup","[0.85,0.15,0.675,0.325]","","",""
"sailing-trial","175","1134773","0.0-11.0-140.0","","","","false","","","","","","","","","","1213.9000000059605","","6.4000000059604645","","0","1","arrowleft","0","arrowleft","[0.85,0.15,0.675,0.325]","","",""
"sailing-trial","176","1140039","0.0-11.0-141.0","","","","false","","","","","","","","","","null","","3588.0999999940395","","2","1","null","null","arrowup","[0.85,0.15,0.675,0.325]","","",""
"sailing-trial","177","1146869","0.0-11.0-142.0","","","","false","","","","","","","","","","715.6999999880791","","2471","","0","1","arrowleft","0","arrowleft","[0.85,0.15,0.675,0.325]","","",""
"sailing-trial","178","1151751","0.0-11.0-143.0","","","","false","","","","","","","","","","null","","2576.600000023842","","0","1","null","null","arrowup","[0.85,0.15,0.675,0.325]","","",""
"sailing-trial","179","1157382","0.0-11.0-144.0","","","","false","","","","","","","","","","1382.7999999821186","","228","","0","0","arrowleft","0","arrowleft","[0.675,0.325,0.85,0.15]","","",""
"sailing-trial","180","1161440","0.0-11.0-145.0","","","","false","","","","","","","","","","null","","1033.0999999940395","","1","0","null","null","arrowup","[0.675,0.325,0.85,0.15]","","",""
"sailing-trial","181","1166363","0.0-11.0-146.0","","","","false","","","","","","","","","","663.8000000119209","","243.2000000178814","","0","0","arrowleft","0","arrowleft","[0.675,0.325,0.85,0.15]","","",""
"sailing-trial","182","1169363","0.0-11.0-147.0","","","","false","","","","","","","","","","null","","895.3000000119209","","1","1","null","null","arrowup","[0.675,0.325,0.85,0.15]","","",""
"sailing-trial","183","1173014","0.0-11.0-148.0","","","","false","","","","","","","","","","183.40000000596046","","208.09999999403954","","0","1","arrowleft","0","arrowleft","[0.675,0.325,0.85,0.15]","","",""
"sailing-trial","184","1177042","0.0-11.0-149.0","","","","false","","","","","","","","","","null","","2431.9000000059605","","0","0","null","null","arrowup","[0.675,0.325,0.85,0.15]","","",""
"sailing-trial","185","1181544","0.0-11.0-150.0","","","","false","","","","","","","","","","1273.2000000178814","","231.30000001192093","","0","1","arrowleft","0","arrowleft","[0.675,0.325,0.85,0.15]","","",""
"sailing-trial","186","1185058","0.0-11.0-151.0","","","","false","","","","","","","","","","null","","2118.300000011921","","3","0","null","null","arrowup","[0.675,0.325,0.85,0.15]","","",""
"sailing-trial","187","1188592","0.0-11.0-152.0","","","","false","","","","","","","","","","622.2999999821186","","108.19999998807907","","0","1","arrowleft","0","arrowleft","[0.675,0.325,0.85,0.15]","","",""
"sailing-trial","188","1191208","0.0-11.0-153.0","","","","false","","","","","","","","","","null","","776.7999999821186","","0","1","null","null","arrowup","[0.675,0.325,0.85,0.15]","","",""
"sailing-trial","189","1195241","0.0-11.0-154.0","","","","false","","","","","","","","","","738","","317.39999997615814","","0","1","arrowleft","0","arrowleft","[0.675,0.325,0.85,0.15]","","",""
"sailing-trial","190","1198157","0.0-11.0-155.0","","","","false","","","","","","","","","","null","","1101.5","","2","1","null","null","arrowup","[0.675,0.325,0.85,0.15]","","",""
"sailing-trial","191","1202436","0.0-11.0-156.0","","","","false","","","","","","","","","","1311.7000000178814","","736.2999999821186","","0","0","arrowleft","0","arrowleft","[0.675,0.325,0.85,0.15]","","",""
"sailing-trial","192","1205793","0.0-11.0-157.0","","","","false","","","","","","","","","","null","","1448.5","","1","1","null","null","arrowup","[0.675,0.325,0.85,0.15]","","",""
"sailing-trial","193","1209671","0.0-11.0-158.0","","","","false","","","","","","","","","","700.7999999821186","","318.5","","0","1","arrowleft","0","arrowleft","[0.675,0.325,0.85,0.15]","","",""
"sailing-trial","194","1211852","0.0-11.0-159.0","","","","false","","","","","","","","","","null","","836.3000000119209","","1","0","null","null","arrowup","[0.675,0.325,0.85,0.15]","","",""
"sailing-trial","195","1217281","0.0-11.0-160.0","","","","false","","","","","","","","","","1389","","355.2999999821186","","0","0","arrowleft","0","arrowleft","[0.675,0.325,0.85,0.15]","","",""
"sailing-trial","196","1220200","0.0-11.0-161.0","","","","false","","","","","","","","","","null","","1066.300000011921","","3","0","null","null","arrowup","[0.675,0.325,0.85,0.15]","","",""
"sailing-trial","197","1223973","0.0-11.0-162.0","","","","false","","","","","","","","","","597.1000000238419","","363.40000000596046","","0","1","arrowleft","0","arrowleft","[0.325,0.675,0.15,0.85]","","",""
"sailing-trial","198","1226267","0.0-11.0-163.0","","","","false","","","","","","","","","","null","","998.7999999821186","","0","0","null","null","arrowup","[0.325,0.675,0.15,0.85]","","",""
"sailing-trial","199","1231116","0.0-11.0-164.0","","","","false","","","","","","","","","","1361.199999988079","","337.90000000596046","","3","1","arrowright","1","arrowright","[0.325,0.675,0.15,0.85]","","",""
"sailing-trial","200","1233294","0.0-11.0-165.0","","","","false","","","","","","","","","","null","","1117.0999999940395","","0","0","null","null","arrowup","[0.325,0.675,0.15,0.85]","","",""
"sailing-trial","201","1236891","0.0-11.0-166.0","","","","false","","","","","","","","","","477.09999999403954","","406","","1","1","arrowleft","0","arrowright","[0.325,0.675,0.15,0.85]","","",""
"sailing-trial","202","1239730","0.0-11.0-167.0","","","","false","","","","","","","","","","null","","1262","","1","1","null","null","arrowup","[0.325,0.675,0.15,0.85]","","",""
"sailing-trial","203","1242995","0.0-11.0-168.0","","","","false","","","","","","","","","","208.59999999403954","","541.5","","2","0","arrowright","1","arrowleft","[0.325,0.675,0.15,0.85]","","",""
"sailing-trial","204","1244777","0.0-11.0-169.0","","","","false","","","","","","","","","","null","","592.3000000119209","","0","0","null","null","arrowup","[0.325,0.675,0.15,0.85]","","",""
"sailing-trial","205","1248578","0.0-11.0-170.0","","","","false","","","","","","","","","","540.9000000059605","","144","","2","0","arrowright","1","arrowleft","[0.325,0.675,0.15,0.85]","","",""
"sailing-trial","206","1251346","0.0-11.0-171.0","","","","false","","","","","","","","","","null","","791.4000000059605","","3","1","null","null","arrowup","[0.325,0.675,0.15,0.85]","","",""
"sailing-trial","207","1254826","0.0-11.0-172.0","","","","false","","","","","","","","","","387.30000001192093","","73.5","","3","1","arrowright","1","arrowright","[0.325,0.675,0.15,0.85]","","",""
"sailing-trial","208","1257426","0.0-11.0-173.0","","","","false","","","","","","","","","","null","","1532","","1","0","null","null","arrowup","[0.325,0.675,0.15,0.85]","","",""
"sailing-trial","209","1260742","0.0-11.0-174.0","","","","false","","","","","","","","","","500.30000001192093","","9.599999994039536","","3","1","arrowright","1","arrowright","[0.325,0.675,0.15,0.85]","","",""
"sailing-trial","210","1262963","0.0-11.0-175.0","","","","false","","","","","","","","","","null","","463.10000002384186","","3","1","null","null","arrowup","[0.325,0.675,0.15,0.85]","","",""
"sailing-trial","211","1266223","0.0-11.0-176.0","","","","false","","","","","","","","","","450.90000000596046","","153.30000001192093","","3","1","arrowright","1","arrowright","[0.325,0.675,0.15,0.85]","","",""
"sailing-trial","212","1269056","0.0-11.0-177.0","","","","false","","","","","","","","","","null","","1185.5","","1","1","null","null","arrowup","[0.325,0.675,0.15,0.85]","","",""
"sailing-trial","213","1272827","0.0-11.0-178.0","","","","false","","","","","","","","","","601.9000000059605","","345.5","","3","1","arrowright","1","arrowright","[0.325,0.675,0.15,0.85]","","",""
"sailing-trial","214","1274936","0.0-11.0-179.0","","","","false","","","","","","","","","","null","","724.0999999940395","","0","0","null","null","arrowup","[0.325,0.675,0.15,0.85]","","",""
"sailing-trial","215","1278971","0.0-11.0-180.0","","","","false","","","","","","","","","","705.5999999940395","","77.30000001192093","","3","1","arrowright","1","arrowright","[0.325,0.675,0.15,0.85]","","",""
"sailing-trial","216","1282633","0.0-11.0-181.0","","","","false","","","","","","","","","","null","","658.7999999821186","","0","0","null","null","arrowup","[0.325,0.675,0.15,0.85]","","",""
"sailing-trial","217","1285952","0.0-11.0-182.0","","","","false","","","","","","","","","","516.8000000119209","","250.2999999821186","","3","1","arrowright","1","arrowright","[0.325,0.675,0.15,0.85]","","",""
"sailing-trial","218","1289633","0.0-11.0-183.0","","","","false","","","","","","","","","","null","","628.2999999821186","","3","0","null","null","arrowup","[0.325,0.675,0.15,0.85]","","",""
"sailing-trial","219","1293534","0.0-11.0-184.0","","","","false","","","","","","","","","","516.4000000059605","","308.40000000596046","","3","1","arrowright","1","arrowright","[0.15,0.85,0.325,0.675]","","",""
"sailing-trial","220","1296698","0.0-11.0-185.0","","","","false","","","","","","","","","","null","","1816.800000011921","","0","0","null","null","arrowup","[0.15,0.85,0.325,0.675]","","",""
"sailing-trial","221","1299764","0.0-11.0-186.0","","","","false","","","","","","","","","","464.39999997615814","","100.09999999403954","","3","0","arrowright","1","arrowright","[0.15,0.85,0.325,0.675]","","",""
"sailing-trial","222","1302048","0.0-11.0-187.0","","","","false","","","","","","","","","","null","","1232","","0","0","null","null","arrowup","[0.15,0.85,0.325,0.675]","","",""
"sailing-trial","223","1305615","0.0-11.0-188.0","","","","false","","","","","","","","","","690","","153.59999999403954","","3","1","arrowright","1","arrowright","[0.15,0.85,0.325,0.675]","","",""
"sailing-trial","224","1314696","0.0-11.0-189.0","","","","false","","","","","","","","","","null","","6908.699999988079","","3","1","null","null","arrowup","[0.15,0.85,0.325,0.675]","","",""
"sailing-trial","225","1318662","0.0-11.0-190.0","","","","false","","","","","","","","","","702.8000000119209","","252.40000000596046","","3","1","arrowright","1","arrowright","[0.15,0.85,0.325,0.675]","","",""
"sailing-trial","226","1321188","0.0-11.0-191.0","","","","false","","","","","","","","","","null","","774.4000000059605","","3","0","null","null","arrowup","[0.15,0.85,0.325,0.675]","","",""
"sailing-trial","227","1323952","0.0-11.0-192.0","","","","false","","","","","","","","","","382.7000000178814","","47","","3","0","arrowright","1","arrowright","[0.15,0.85,0.325,0.675]","","",""
"sailing-trial","228","1326744","0.0-11.0-193.0","","","","false","","","","","","","","","","null","","1255.300000011921","","3","1","null","null","arrowup","[0.15,0.85,0.325,0.675]","","",""
"sailing-trial","229","1330525","0.0-11.0-194.0","","","","false","","","","","","","","","","148","","232.30000001192093","","3","1","arrowright","1","arrowright","[0.15,0.85,0.325,0.675]","","",""
"sailing-trial","230","1333391","0.0-11.0-195.0","","","","false","","","","","","","","","","null","","1031.4000000059605","","1","1","null","null","arrowup","[0.15,0.85,0.325,0.675]","","",""
"sailing-trial","231","1337073","0.0-11.0-196.0","","","","false","","","","","","","","","","370.69999998807907","","311.7000000178814","","1","1","arrowleft","0","arrowright","[0.15,0.85,0.325,0.675]","","",""
"sailing-trial","232","1342405","0.0-11.0-197.0","","","","false","","","","","","","","","","null","","1698.300000011921","","2","1","null","null","arrowup","[0.15,0.85,0.325,0.675]","","",""
"sailing-trial","233","1347838","0.0-11.0-198.0","","","","false","","","","","","","","","","1112.4000000059605","","888.9000000059605","","1","1","arrowleft","0","arrowright","[0.15,0.85,0.325,0.675]","","",""
"sailing-trial","234","1350237","0.0-11.0-199.0","","","","false","","","","","","","","","","null","","1016.0999999940395","","0","0","null","null","arrowup","[0.15,0.85,0.325,0.675]","","",""
"sailing-trial","235","1355401","0.0-11.0-200.0","","","","false","","","","","","","","","","448.90000000596046","","670.0999999940395","","3","0","arrowright","1","arrowright","[0.15,0.85,0.325,0.675]","","",""
"sailing-trial","236","1358887","0.0-11.0-201.0","","","","false","","","","","","","","","","null","","1555.5","","1","1","null","null","arrowup","[0.15,0.85,0.325,0.675]","","",""
"sailing-trial","237","1363533","0.0-11.0-202.0","","","","false","","","","","","","","","","563.8000000119209","","44.400000005960464","","1","0","arrowleft","0","arrowright","[0.15,0.85,0.325,0.675]","","",""
"sailing-trial","238","1366616","0.0-11.0-203.0","","","","false","","","","","","","","","","null","","1324.5999999940395","","2","0","null","null","arrowup","[0.15,0.85,0.325,0.675]","","",""
"sailing-trial","239","1372527","0.0-11.0-204.0","","","","false","","","","","","","","","","1823.800000011921","","76.90000000596046","","1","0","arrowleft","0","arrowright","[0.325,0.675,0.15,0.85]","","",""
"sailing-trial","240","1375448","0.0-11.0-205.0","","","","false","","","","","","","","","","null","","762.1999999880791","","3","1","null","null","arrowup","[0.325,0.675,0.15,0.85]","","",""
"sailing-trial","241","1380395","0.0-11.0-206.0","","","","false","","","","","","","","","","869.9000000059605","","62.599999994039536","","1","0","arrowleft","0","arrowright","[0.325,0.675,0.15,0.85]","","",""
"sailing-trial","242","1383380","0.0-11.0-207.0","","","","false","","","","","","","","","","null","","1074.800000011921","","1","1","null","null","arrowup","[0.325,0.675,0.15,0.85]","","",""
"sailing-trial","243","1389462","0.0-11.0-208.0","","","","false","","","","","","","","","","500.2999999821186","","33.5","","1","1","arrowleft","0","arrowright","[0.325,0.675,0.15,0.85]","","",""
"sailing-trial","244","1391649","0.0-11.0-209.0","","","","false","","","","","","","","","","null","","863.5","","2","0","null","null","arrowup","[0.325,0.675,0.15,0.85]","","",""
"sailing-trial","245","1394859","0.0-11.0-210.0","","","","false","","","","","","","","","","987.1000000238419","","38.19999998807907","","1","0","arrowleft","0","arrowright","[0.325,0.675,0.15,0.85]","","",""
"sailing-trial","246","1397560","0.0-11.0-211.0","","","","false","","","","","","","","","","null","","911","","0","1","null","null","arrowup","[0.325,0.675,0.15,0.85]","","",""
"sailing-trial","247","1402758","0.0-11.0-212.0","","","","false","","","","","","","","","","779.6999999880791","","36","","1","1","arrowleft","0","arrowright","[0.325,0.675,0.15,0.85]","","",""
"sailing-trial","248","1409090","0.0-11.0-213.0","","","","false","","","","","","","","","","null","","4345.100000023842","","1","1","null","null","arrowup","[0.325,0.675,0.15,0.85]","","",""
"sailing-trial","249","1415339","0.0-11.0-214.0","","","","false","","","","","","","","","","726.0999999940395","","133.2000000178814","","1","1","arrowleft","0","arrowright","[0.325,0.675,0.15,0.85]","","",""
"sailing-trial","250","1419754","0.0-11.0-215.0","","","","false","","","","","","","","","","null","","2192.9000000059605","","3","1","null","null","arrowup","[0.325,0.675,0.15,0.85]","","",""
"sailing-trial","251","1423803","0.0-11.0-216.0","","","","false","","","","","","","","","","668.8999999761581","","168.7000000178814","","1","1","arrowleft","0","arrowright","[0.325,0.675,0.15,0.85]","","",""
"sailing-trial","252","1427136","0.0-11.0-217.0","","","","false","","","","","","","","","","null","","1002.6999999880791","","1","1","null","null","arrowup","[0.325,0.675,0.15,0.85]","","",""
"sailing-trial","253","1431034","0.0-11.0-218.0","","","","false","","","","","","","","","","798.5999999940395","","80.09999999403954","","1","1","arrowleft","0","arrowright","[0.325,0.675,0.15,0.85]","","",""
"sailing-trial","254","1436882","0.0-11.0-219.0","","","","false","","","","","","","","","","null","","4663.0999999940395","","2","0","null","null","arrowup","[0.325,0.675,0.15,0.85]","","",""
"sailing-trial","255","1441183","0.0-11.0-220.0","","","","false","","","","","","","","","","849.7000000178814","","109.69999998807907","","1","1","arrowleft","0","arrowright","[0.15,0.85,0.325,0.675]","","",""
"sailing-trial","256","1447356","0.0-11.0-221.0","","","","false","","","","","","","","","","null","","5112.5999999940395","","3","0","null","null","arrowup","[0.15,0.85,0.325,0.675]","","",""
"sailing-trial","257","1451430","0.0-11.0-222.0","","","","false","","","","","","","","","","747.5","","390.60000002384186","","1","1","arrowleft","0","arrowright","[0.15,0.85,0.325,0.675]","","",""
"sailing-trial","258","1453995","0.0-11.0-223.0","","","","false","","","","","","","","","","null","","771.3000000119209","","0","1","null","null","arrowup","[0.15,0.85,0.325,0.675]","","",""
"sailing-trial","259","1458776","0.0-11.0-224.0","","","","false","","","","","","","","","","439.2999999821186","","313.30000001192093","","1","0","arrowleft","0","arrowright","[0.15,0.85,0.325,0.675]","","",""
"sailing-trial","260","1464759","0.0-11.0-225.0","","","","false","","","","","","","","","","null","","3714.2999999821186","","3","0","null","null","arrowup","[0.15,0.85,0.325,0.675]","","",""
"sailing-trial","261","1468226","0.0-11.0-226.0","","","","false","","","","","","","","","","727.5999999940395","","78.09999999403954","","1","1","arrowleft","0","arrowright","[0.15,0.85,0.325,0.675]","","",""
"sailing-trial","262","1472389","0.0-11.0-227.0","","","","false","","","","","","","","","","null","","1150.0999999940395","","0","0","null","null","arrowup","[0.15,0.85,0.325,0.675]","","",""
"sailing-trial","263","1476107","0.0-11.0-228.0","","","","false","","","","","","","","","","82.89999997615814","","243.2999999821186","","1","1","arrowleft","0","arrowright","[0.15,0.85,0.325,0.675]","","",""
"sailing-trial","264","1478957","0.0-11.0-229.0","","","","false","","","","","","","","","","null","","906.8000000119209","","1","1","null","null","arrowup","[0.15,0.85,0.325,0.675]","","",""
"sailing-trial","265","1482189","0.0-11.0-230.0","","","","false","","","","","","","","","","333","","58.69999998807907","","3","1","arrowright","1","arrowright","[0.15,0.85,0.325,0.675]","","",""
"sailing-trial","266","1484238","0.0-11.0-231.0","","","","false","","","","","","","","","","null","","136.10000002384186","","1","0","null","null","arrowup","[0.15,0.85,0.325,0.675]","","",""
"sailing-trial","267","1486652","0.0-11.0-232.0","","","","false","","","","","","","","","","163.30000001192093","","150.2000000178814","","3","0","arrowright","1","arrowright","[0.15,0.85,0.325,0.675]","","",""
"sailing-trial","268","1490170","0.0-11.0-233.0","","","","false","","","","","","","","","","null","","1315","","1","1","null","null","arrowup","[0.15,0.85,0.325,0.675]","","",""
"sailing-trial","269","1493087","0.0-11.0-234.0","","","","false","","","","","","","","","","1.4000000059604645","","119.90000000596046","","2","1","arrowright","1","arrowleft","[0.15,0.85,0.325,0.675]","","",""
"sailing-trial","270","1495201","0.0-11.0-235.0","","","","false","","","","","","","","","","null","","653.0999999940395","","3","0","null","null","arrowup","[0.15,0.85,0.325,0.675]","","",""
"sailing-trial","271","1497950","0.0-11.0-236.0","","","","false","","","","","","","","","","200.7000000178814","","102.19999998807907","","2","0","arrowright","1","arrowleft","[0.15,0.85,0.325,0.675]","","",""
"sailing-trial","272","1500252","0.0-11.0-237.0","","","","false","","","","","","","","","","null","","994.2999999821186","","0","0","null","null","arrowup","[0.15,0.85,0.325,0.675]","","",""
"sailing-trial","273","1503267","0.0-11.0-238.0","","","","false","","","","","","","","","","116.30000001192093","","251.69999998807907","","3","1","arrowright","1","arrowright","[0.15,0.85,0.325,0.675]","","",""
"sailing-trial","274","1505667","0.0-11.0-239.0","","","","false","","","","","","","","","","null","","145.59999999403954","","2","1","null","null","arrowup","[0.15,0.85,0.325,0.675]","","",""
"sailing-trial","275","1507887","0.0-11.0-240.0","","","","false","","","","","","","","","","19.19999998807907","","89.5","","1","0","arrowleft","0","arrowright","[0.325,0.675,0.15,0.85]","","",""
"sailing-trial","276","1509341","0.0-11.0-241.0","","","","false","","","","","","","","","","null","","384.90000000596046","","2","0","null","null","arrowup","[0.325,0.675,0.15,0.85]","","",""
"sailing-trial","277","1512782","0.0-11.0-242.0","","","","false","","","","","","","","","","519.1999999880791","","377.80000001192093","","3","1","arrowright","1","arrowright","[0.325,0.675,0.15,0.85]","","",""
"sailing-trial","278","1514612","0.0-11.0-243.0","","","","false","","","","","","","","","","null","","649.2000000178814","","0","0","null","null","arrowup","[0.325,0.675,0.15,0.85]","","",""
"sailing-trial","279","1516846","0.0-11.0-244.0","","","","false","","","","","","","","","","28","","132.2000000178814","","3","0","arrowright","1","arrowright","[0.325,0.675,0.15,0.85]","","",""
"sailing-trial","280","1518256","0.0-11.0-245.0","","","","false","","","","","","","","","","null","","315","","1","0","null","null","arrowup","[0.325,0.675,0.15,0.85]","","",""
"sailing-trial","281","1521430","0.0-11.0-246.0","","","","false","","","","","","","","","","567.0999999940395","","46.900000005960464","","3","1","arrowright","1","arrowright","[0.325,0.675,0.15,0.85]","","",""
"sailing-trial","282","1523062","0.0-11.0-247.0","","","","false","","","","","","","","","","null","","518.5999999940395","","1","0","null","null","arrowup","[0.325,0.675,0.15,0.85]","","",""
"sailing-trial","283","1526147","0.0-11.0-248.0","","","","false","","","","","","","","","","219.90000000596046","","53.400000005960464","","3","1","arrowright","1","arrowright","[0.325,0.675,0.15,0.85]","","",""
"sailing-trial","284","1528129","0.0-11.0-249.0","","","","false","","","","","","","","","","null","","223.80000001192093","","3","1","null","null","arrowup","[0.325,0.675,0.15,0.85]","","",""
"sailing-trial","285","1531444","0.0-11.0-250.0","","","","false","","","","","","","","","","288.09999999403954","","141.90000000596046","","3","1","arrowright","1","arrowright","[0.325,0.675,0.15,0.85]","","",""
"sailing-trial","286","1533511","0.0-11.0-251.0","","","","false","","","","","","","","","","null","","204.59999999403954","","3","1","null","null","arrowup","[0.325,0.675,0.15,0.85]","","",""
"sailing-trial","287","1537259","0.0-11.0-252.0","","","","false","","","","","","","","","","347.7999999821186","","258.09999999403954","","3","1","arrowright","1","arrowright","[0.325,0.675,0.15,0.85]","","",""
"sailing-trial","288","1539278","0.0-11.0-253.0","","","","false","","","","","","","","","","null","","184.5","","3","1","null","null","arrowup","[0.325,0.675,0.15,0.85]","","",""
"sailing-trial","289","1542893","0.0-11.0-254.0","","","","false","","","","","","","","","","121.09999999403954","","58","","3","1","arrowright","1","arrowright","[0.325,0.675,0.15,0.85]","","",""
"sailing-trial","290","1545039","0.0-11.0-255.0","","","","false","","","","","","","","","","null","","806.8000000119209","","2","0","null","null","arrowup","[0.325,0.675,0.15,0.85]","","",""
"sailing-trial","291","1547937","0.0-11.0-256.0","","","","false","","","","","","","","","","34.599999994039536","","131.80000001192093","","3","1","arrowright","1","arrowright","[0.15,0.85,0.325,0.675]","","",""
"sailing-trial","292","1549534","0.0-11.0-257.0","","","","false","","","","","","","","","","null","","343.7000000178814","","0","0","null","null","arrowup","[0.15,0.85,0.325,0.675]","","",""
"sailing-trial","293","1552672","0.0-11.0-258.0","","","","false","","","","","","","","","","367.2000000178814","","208.90000000596046","","3","1","arrowright","1","arrowright","[0.15,0.85,0.325,0.675]","","",""
"sailing-trial","294","1553904","0.0-11.0-259.0","","","","false","","","","","","","","","","null","","141.5","","2","0","null","null","arrowup","[0.15,0.85,0.325,0.675]","","",""
"sailing-trial","295","1556618","0.0-11.0-260.0","","","","false","","","","","","","","","","82","","92.09999999403954","","0","0","arrowleft","0","arrowleft","[0.15,0.85,0.325,0.675]","","",""
"sailing-trial","296","1558036","0.0-11.0-261.0","","","","false","","","","","","","","","","null","","239.90000000596046","","2","0","null","null","arrowup","[0.15,0.85,0.325,0.675]","","",""
"sailing-trial","297","1561604","0.0-11.0-262.0","","","","false","","","","","","","","","","409.2000000178814","","372","","3","1","arrowright","1","arrowright","[0.15,0.85,0.325,0.675]","","",""
"sailing-trial","298","1562885","0.0-11.0-263.0","","","","false","","","","","","","","","","null","","59.10000002384186","","0","0","null","null","arrowup","[0.15,0.85,0.325,0.675]","","",""
"sailing-trial","299","1566007","0.0-11.0-264.0","","","","false","","","","","","","","","","119.40000000596046","","276.90000000596046","","3","1","arrowright","1","arrowright","[0.15,0.85,0.325,0.675]","","",""
"sailing-trial","300","1567868","0.0-11.0-265.0","","","","false","","","","","","","","","","null","","143.39999997615814","","2","1","null","null","arrowup","[0.15,0.85,0.325,0.675]","","",""
"sailing-trial","301","1570517","0.0-11.0-266.0","","","","false","","","","","","","","","","86.40000000596046","","210.90000000596046","","3","0","arrowright","1","arrowright","[0.15,0.85,0.325,0.675]","","",""
"sailing-trial","302","1572859","0.0-11.0-267.0","","","","false","","","","","","","","","","null","","335.10000002384186","","1","1","null","null","arrowup","[0.15,0.85,0.325,0.675]","","",""
"sailing-trial","303","1575843","0.0-11.0-268.0","","","","false","","","","","","","","","","280.7000000178814","","178.90000000596046","","3","0","arrowright","1","arrowright","[0.15,0.85,0.325,0.675]","","",""
"sailing-trial","304","1577359","0.0-11.0-269.0","","","","false","","","","","","","","","","null","","173.59999999403954","","1","0","null","null","arrowup","[0.15,0.85,0.325,0.675]","","",""
"sailing-trial","305","1580152","0.0-11.0-270.0","","","","false","","","","","","","","","","287.30000001192093","","311.40000000596046","","3","0","arrowright","1","arrowright","[0.15,0.85,0.325,0.675]","","",""
"sailing-trial","306","1582338","0.0-11.0-271.0","","","","false","","","","","","","","","","null","","377.09999999403954","","2","1","null","null","arrowup","[0.15,0.85,0.325,0.675]","","",""
"sailing-trial","307","1585209","0.0-11.0-272.0","","","","false","","","","","","","","","","146.5","","486.90000000596046","","3","0","arrowright","1","arrowright","[0.15,0.85,0.325,0.675]","","",""
"sailing-trial","308","1586374","0.0-11.0-273.0","","","","false","","","","","","","","","","null","","113.30000001192093","","0","0","null","null","arrowup","[0.15,0.85,0.325,0.675]","","",""
"sailing-trial","309","1589374","0.0-11.0-274.0","","","","false","","","","","","","","","","708.3000000119209","","167.09999999403954","","1","0","arrowleft","0","arrowright","[0.325,0.675,0.15,0.85]","","",""
"sailing-trial","310","1591862","0.0-11.0-275.0","","","","false","","","","","","","","","","null","","720.7000000178814","","1","1","null","null","arrowup","[0.325,0.675,0.15,0.85]","","",""
"sailing-trial","311","1594712","0.0-11.0-276.0","","","","false","","","","","","","","","","94.19999998807907","","141.80000001192093","","3","1","arrowright","1","arrowright","[0.325,0.675,0.15,0.85]","","",""
"sailing-trial","312","1596922","0.0-11.0-277.0","","","","false","","","","","","","","","","null","","974.0999999940395","","2","0","null","null","arrowup","[0.325,0.675,0.15,0.85]","","",""
"sailing-trial","313","1600277","0.0-11.0-278.0","","","","false","","","","","","","","","","739.3999999761581","","61","","3","1","arrowright","1","arrowright","[0.325,0.675,0.15,0.85]","","",""
"sailing-trial","314","1602226","0.0-11.0-279.0","","","","false","","","","","","","","","","null","","149.7999999821186","","3","1","null","null","arrowup","[0.325,0.675,0.15,0.85]","","",""
"sailing-trial","315","1605125","0.0-11.0-280.0","","","","false","","","","","","","","","","554.4000000059605","","147.09999999403954","","3","0","arrowright","1","arrowright","[0.325,0.675,0.15,0.85]","","",""
"sailing-trial","316","1607026","0.0-11.0-281.0","","","","false","","","","","","","","","","null","","526.3000000119209","","0","0","null","null","arrowup","[0.325,0.675,0.15,0.85]","","",""
"sailing-trial","317","1610564","0.0-11.0-282.0","","","","false","","","","","","","","","","874.9000000059605","","176.2000000178814","","1","1","arrowleft","0","arrowright","[0.325,0.675,0.15,0.85]","","",""
"sailing-trial","318","1613231","0.0-11.0-283.0","","","","false","","","","","","","","","","null","","679.2999999821186","","3","1","null","null","arrowup","[0.325,0.675,0.15,0.85]","","",""
"sailing-trial","319","1616624","0.0-11.0-284.0","","","","false","","","","","","","","","","354.90000000596046","","221.2999999821186","","3","1","arrowright","1","arrowright","[0.325,0.675,0.15,0.85]","","",""
"sailing-trial","320","1618507","0.0-11.0-285.0","","","","false","","","","","","","","","","null","","158.2000000178814","","3","1","null","null","arrowup","[0.325,0.675,0.15,0.85]","","",""
"sailing-trial","321","1622050","0.0-11.0-286.0","","","","false","","","","","","","","","","882.3000000119209","","75.80000001192093","","1","0","arrowleft","0","arrowright","[0.325,0.675,0.15,0.85]","","",""
"sailing-trial","322","1623735","0.0-11.0-287.0","","","","false","","","","","","","","","","null","","385.10000002384186","","3","0","null","null","arrowup","[0.325,0.675,0.15,0.85]","","",""
"sailing-trial","323","1627171","0.0-11.0-288.0","","","","false","","","","","","","","","","552.4000000059605","","277.5","","3","1","arrowright","1","arrowright","[0.325,0.675,0.15,0.85]","","",""
"sailing-trial","324","1629521","0.0-11.0-289.0","","","","false","","","","","","","","","","null","","238","","1","1","null","null","arrowup","[0.325,0.675,0.15,0.85]","","",""
"sailing-trial","325","1632555","0.0-11.0-290.0","","","","false","","","","","","","","","","810.1999999880791","","103.59999999403954","","3","0","arrowright","1","arrowright","[0.325,0.675,0.15,0.85]","","",""
"sailing-trial","326","1634687","0.0-11.0-291.0","","","","false","","","","","","","","","","null","","319.30000001192093","","0","1","null","null","arrowup","[0.325,0.675,0.15,0.85]","","",""
"sailing-trial","327","1638369","0.0-11.0-292.0","","","","false","","","","","","","","","","806.3000000119209","","300.2000000178814","","0","1","arrowleft","0","arrowleft","[0.325,0.675,0.15,0.85]","","",""
"sailing-trial","328","1641130","0.0-11.0-293.0","","","","false","","","","","","","","","","null","","805.5999999940395","","2","0","null","null","arrowup","[0.325,0.675,0.15,0.85]","","",""
"sailing-trial","329","1644303","0.0-11.0-294.0","","","","false","","","","","","","","","","252.5","","102.80000001192093","","0","1","arrowleft","0","arrowleft","[0.85,0.15,0.675,0.325]","","",""
"sailing-trial","330","1646205","0.0-11.0-295.0","","","","false","","","","","","","","","","null","","120.30000001192093","","1","0","null","null","arrowup","[0.85,0.15,0.675,0.325]","","",""
"sailing-trial","331","1649333","0.0-11.0-296.0","","","","false","","","","","","","","","","236.40000000596046","","203.80000001192093","","0","1","arrowleft","0","arrowleft","[0.85,0.15,0.675,0.325]","","",""
"sailing-trial","332","1651776","0.0-11.0-297.0","","","","false","","","","","","","","","","null","","204.59999999403954","","3","0","null","null","arrowup","[0.85,0.15,0.675,0.325]","","",""
"sailing-trial","333","1655561","0.0-11.0-298.0","","","","false","","","","","","","","","","0.09999999403953552","","1008.2999999821186","","0","1","arrowleft","0","arrowleft","[0.85,0.15,0.675,0.325]","","",""
"sailing-trial","334","1657479","0.0-11.0-299.0","","","","false","","","","","","","","","","null","","201","","3","0","null","null","arrowup","[0.85,0.15,0.675,0.325]","","",""
"sailing-trial","335","1661280","0.0-11.0-300.0","","","","false","","","","","","","","","","762.6999999880791","","154.7000000178814","","0","1","arrowleft","0","arrowleft","[0.85,0.15,0.675,0.325]","","",""
"sailing-trial","336","1665988","0.0-11.0-301.0","","","","false","","","","","","","","","","null","","1273","","0","1","null","null","arrowup","[0.85,0.15,0.675,0.325]","","",""
"sailing-trial","337","1669328","0.0-11.0-302.0","","","","false","","","","","","","","","","488.59999999403954","","232.69999998807907","","0","1","arrowleft","0","arrowleft","[0.85,0.15,0.675,0.325]","","",""
"sailing-trial","338","1675254","0.0-11.0-303.0","","","","false","","","","","","","","","","null","","3547.0999999940395","","3","0","null","null","arrowup","[0.85,0.15,0.675,0.325]","","",""
"sailing-trial","339","1678458","0.0-11.0-304.0","","","","false","","","","","","","","","","385.5","","196","","0","1","arrowleft","0","arrowleft","[0.85,0.15,0.675,0.325]","","",""
"sailing-trial","340","1680211","0.0-11.0-305.0","","","","false","","","","","","","","","","null","","220.09999999403954","","3","0","null","null","arrowup","[0.85,0.15,0.675,0.325]","","",""
"sailing-trial","341","1684074","0.0-11.0-306.0","","","","false","","","","","","","","","","907.0999999940395","","189.2999999821186","","0","1","arrowleft","0","arrowleft","[0.85,0.15,0.675,0.325]","","",""
"sailing-trial","342","1685892","0.0-11.0-307.0","","","","false","","","","","","","","","","null","","134.40000000596046","","3","1","null","null","arrowup","[0.85,0.15,0.675,0.325]","","",""
"sailing-trial","343","1689122","0.0-11.0-308.0","","","","false","","","","","","","","","","489.5","","54.29999998211861","","0","1","arrowleft","0","arrowleft","[0.85,0.15,0.675,0.325]","","",""
"sailing-trial","344","1691438","0.0-11.0-309.0","","","","false","","","","","","","","","","null","","569.9000000059605","","0","1","null","null","arrowup","[0.85,0.15,0.675,0.325]","","",""
"sailing-trial","345","1694633","0.0-11.0-310.0","","","","false","","","","","","","","","","384.5","","201.40000000596046","","0","1","arrowleft","0","arrowleft","[0.85,0.15,0.675,0.325]","","",""
"sailing-trial","346","1696391","0.0-11.0-311.0","","","","false","","","","","","","","","","null","","148.7999999821186","","2","1","null","null","arrowup","[0.85,0.15,0.675,0.325]","","",""
"sailing-trial","347","1699539","0.0-11.0-312.0","","","","false","","","","","","","","","","243.69999998807907","","163.5","","0","1","arrowleft","0","arrowleft","[0.675,0.325,0.85,0.15]","","",""
"sailing-trial","348","1700782","0.0-11.0-313.0","","","","false","","","","","","","","","","null","","146.59999999403954","","0","0","null","null","arrowup","[0.675,0.325,0.85,0.15]","","",""
"sailing-trial","349","1704099","0.0-11.0-314.0","","","","false","","","","","","","","","","904.0999999940395","","62","","0","0","arrowleft","0","arrowleft","[0.675,0.325,0.85,0.15]","","",""
"sailing-trial","350","1707018","0.0-11.0-315.0","","","","false","","","","","","","","","","null","","346.69999998807907","","3","1","null","null","arrowup","[0.675,0.325,0.85,0.15]","","",""
"sailing-trial","351","1710236","0.0-11.0-316.0","","","","false","","","","","","","","","","369.90000000596046","","141.5","","0","1","arrowleft","0","arrowleft","[0.675,0.325,0.85,0.15]","","",""
"sailing-trial","352","1712569","0.0-11.0-317.0","","","","false","","","","","","","","","","null","","800.6999999880791","","0","1","null","null","arrowup","[0.675,0.325,0.85,0.15]","","",""
"sailing-trial","353","1715466","0.0-11.0-318.0","","","","false","","","","","","","","","","236","","108.90000000596046","","0","1","arrowleft","0","arrowleft","[0.675,0.325,0.85,0.15]","","",""
"sailing-trial","354","1717982","0.0-11.0-319.0","","","","false","","","","","","","","","","null","","690","","1","1","null","null","arrowup","[0.675,0.325,0.85,0.15]","","",""
"sailing-trial","355","1722448","0.0-11.0-320.0","","","","false","","","","","","","","","","150.90000000596046","","433.40000000596046","","0","1","arrowleft","0","arrowleft","[0.675,0.325,0.85,0.15]","","",""
"sailing-trial","356","1724225","0.0-11.0-321.0","","","","false","","","","","","","","","","null","","154.59999999403954","","1","0","null","null","arrowup","[0.675,0.325,0.85,0.15]","","",""
"sailing-trial","357","1727746","0.0-11.0-322.0","","","","false","","","","","","","","","","558.4000000059605","","602.2000000178814","","0","0","arrowleft","0","arrowleft","[0.675,0.325,0.85,0.15]","","",""
"sailing-trial","358","1729632","0.0-11.0-323.0","","","","false","","","","","","","","","","null","","309","","1","1","null","null","arrowup","[0.675,0.325,0.85,0.15]","","",""
"sailing-trial","359","1732989","0.0-11.0-324.0","","","","false","","","","","","","","","","727.3000000119209","","67.7999999821186","","0","1","arrowleft","0","arrowleft","[0.675,0.325,0.85,0.15]","","",""
"sailing-trial","360","1735278","0.0-11.0-325.0","","","","false","","","","","","","","","","null","","280.59999999403954","","2","1","null","null","arrowup","[0.675,0.325,0.85,0.15]","","",""
"sailing-trial","361","1738744","0.0-11.0-326.0","","","","false","","","","","","","","","","235.7000000178814","","211.40000000596046","","0","1","arrowleft","0","arrowleft","[0.675,0.325,0.85,0.15]","","",""
"sailing-trial","362","1740765","0.0-11.0-327.0","","","","false","","","","","","","","","","null","","292.2000000178814","","2","1","null","null","arrowup","[0.675,0.325,0.85,0.15]","","",""
"sailing-trial","363","1743758","0.0-11.0-328.0","","","","false","","","","","","","","","","571.5","","31.599999994039536","","0","0","arrowleft","0","arrowleft","[0.85,0.15,0.675,0.325]","","",""
"sailing-trial","364","1745628","0.0-11.0-329.0","","","","false","","","","","","","","","","null","","1.9000000059604645","","0","1","null","null","arrowup","[0.85,0.15,0.675,0.325]","","",""
"sailing-trial","365","1749134","0.0-11.0-330.0","","","","false","","","","","","","","","","226.2999999821186","","105.19999998807907","","0","1","arrowleft","0","arrowleft","[0.85,0.15,0.675,0.325]","","",""
"sailing-trial","366","1750523","0.0-11.0-331.0","","","","false","","","","","","","","","","null","","200.2999999821186","","3","0","null","null","arrowup","[0.85,0.15,0.675,0.325]","","",""
"sailing-trial","367","1753524","0.0-11.0-332.0","","","","false","","","","","","","","","","377.90000000596046","","15.5","","0","1","arrowleft","0","arrowleft","[0.85,0.15,0.675,0.325]","","",""
"sailing-trial","368","1755474","0.0-11.0-333.0","","","","false","","","","","","","","","","null","","363","","2","1","null","null","arrowup","[0.85,0.15,0.675,0.325]","","",""
"sailing-trial","369","1758606","0.0-11.0-334.0","","","","false","","","","","","","","","","62.5","","245.30000001192093","","0","1","arrowleft","0","arrowleft","[0.85,0.15,0.675,0.325]","","",""
"sailing-trial","370","1762922","0.0-11.0-335.0","","","","false","","","","","","","","","","null","","2605.0999999940395","","2","1","null","null","arrowup","[0.85,0.15,0.675,0.325]","","",""
"sailing-trial","371","1767054","0.0-11.0-336.0","","","","false","","","","","","","","","","1197.199999988079","","135.60000002384186","","0","1","arrowleft","0","arrowleft","[0.85,0.15,0.675,0.325]","","",""
"sailing-trial","372","1768235","0.0-11.0-337.0","","","","false","","","","","","","","","","null","","139.7000000178814","","3","0","null","null","arrowup","[0.85,0.15,0.675,0.325]","","",""
"sailing-trial","373","1772280","0.0-11.0-338.0","","","","false","","","","","","","","","","1135.5999999940395","","225.19999998807907","","0","1","arrowleft","0","arrowleft","[0.85,0.15,0.675,0.325]","","",""
"sailing-trial","374","1774105","0.0-11.0-339.0","","","","false","","","","","","","","","","null","","191.09999999403954","","3","1","null","null","arrowup","[0.85,0.15,0.675,0.325]","","",""
"sailing-trial","375","1777365","0.0-11.0-340.0","","","","false","","","","","","","","","","573.0999999940395","","157.2000000178814","","0","1","arrowleft","0","arrowleft","[0.85,0.15,0.675,0.325]","","",""
"sailing-trial","376","1778584","0.0-11.0-341.0","","","","false","","","","","","","","","","null","","43","","3","0","null","null","arrowup","[0.85,0.15,0.675,0.325]","","",""
"sailing-trial","377","1781918","0.0-11.0-342.0","","","","false","","","","","","","","","","519.9000000059605","","196.59999999403954","","0","1","arrowleft","0","arrowleft","[0.85,0.15,0.675,0.325]","","",""
"sailing-trial","378","1783862","0.0-11.0-343.0","","","","false","","","","","","","","","","null","","376.19999998807907","","2","0","null","null","arrowup","[0.85,0.15,0.675,0.325]","","",""
"sailing-trial","379","1786966","0.0-11.0-344.0","","","","false","","","","","","","","","","184","","79.90000000596046","","0","1","arrowleft","0","arrowleft","[0.85,0.15,0.675,0.325]","","",""
"sailing-trial","380","1789981","0.0-11.0-345.0","","","","false","","","","","","","","","","null","","552.0999999940395","","2","1","null","null","arrowup","[0.85,0.15,0.675,0.325]","","",""
"sailing-trial","381","1793048","0.0-11.0-346.0","","","","false","","","","","","","","","","407.2999999821186","","112","","0","1","arrowleft","0","arrowleft","[0.675,0.325,0.85,0.15]","","",""
"sailing-trial","382","1794898","0.0-11.0-347.0","","","","false","","","","","","","","","","null","","232.69999998807907","","3","1","null","null","arrowup","[0.675,0.325,0.85,0.15]","","",""
"sailing-trial","383","1797930","0.0-11.0-348.0","","","","false","","","","","","","","","","54","","114.69999998807907","","0","1","arrowleft","0","arrowleft","[0.675,0.325,0.85,0.15]","","",""
"sailing-trial","384","1800030","0.0-11.0-349.0","","","","false","","","","","","","","","","null","","207.7000000178814","","2","1","null","null","arrowup","[0.675,0.325,0.85,0.15]","","",""
"sailing-trial","385","1802229","0.0-11.0-350.0","","","","false","","","","","","","","","","29.900000005960464","","50.900000005960464","","0","0","arrowleft","0","arrowleft","[0.675,0.325,0.85,0.15]","","",""
"sailing-trial","386","1804573","0.0-11.0-351.0","","","","false","","","","","","","","","","null","","1283.800000011921","","1","0","null","null","arrowup","[0.675,0.325,0.85,0.15]","","",""
"sailing-trial","387","1807328","0.0-11.0-352.0","","","","false","","","","","","","","","","458.2000000178814","","110.7999999821186","","0","0","arrowleft","0","arrowleft","[0.675,0.325,0.85,0.15]","","",""
"sailing-trial","388","1809262","0.0-11.0-353.0","","","","false","","","","","","","","","","null","","378","","0","1","null","null","arrowup","[0.675,0.325,0.85,0.15]","","",""
"sailing-trial","389","1813776","0.0-11.0-354.0","","","","false","","","","","","","","","","1394.8999999761581","","275.09999999403954","","0","1","arrowleft","0","arrowleft","[0.675,0.325,0.85,0.15]","","",""
"sailing-trial","390","1815159","0.0-11.0-355.0","","","","false","","","","","","","","","","null","","127.80000001192093","","1","0","null","null","arrowup","[0.675,0.325,0.85,0.15]","","",""
"sailing-trial","391","1819906","0.0-11.0-356.0","","","","false","","","","","","","","","","2134.199999988079","","84.5","","0","0","arrowleft","0","arrowleft","[0.675,0.325,0.85,0.15]","","",""
"sailing-trial","392","1822558","0.0-11.0-357.0","","","","false","","","","","","","","","","null","","757.2000000178814","","2","1","null","null","arrowup","[0.675,0.325,0.85,0.15]","","",""
"sailing-trial","393","1826168","0.0-11.0-358.0","","","","false","","","","","","","","","","497.80000001192093","","646.5","","0","0","arrowleft","0","arrowleft","[0.675,0.325,0.85,0.15]","","",""
"sailing-trial","394","1829308","0.0-11.0-359.0","","","","false","","","","","","","","","","null","","1505.5","","2","1","null","null","arrowup","[0.675,0.325,0.85,0.15]","","",""
"sailing-trial","395","1832368","0.0-11.0-360.0","","","","false","","","","","","","","","","584.2999999821186","","33.5","","3","0","arrowright","1","arrowright","[0.675,0.325,0.85,0.15]","","",""
"sailing-trial","396","1833865","0.0-11.0-361.0","","","","false","","","","","","","","","","null","","272.5","","0","0","null","null","arrowup","[0.675,0.325,0.85,0.15]","","",""
"sailing-trial","397","1836422","0.0-11.0-362.0","","","","false","","","","","","","","","","312.7000000178814","","176.7999999821186","","2","0","arrowright","1","arrowleft","[0.325,0.675,0.15,0.85]","","",""
"sailing-trial","398","1839720","0.0-11.0-363.0","","","","false","","","","","","","","","","null","","1759.5","","3","1","null","null","arrowup","[0.325,0.675,0.15,0.85]","","",""
"sailing-trial","399","1842803","0.0-11.0-364.0","","","","false","","","","","","","","","","266.80000001192093","","32.400000005960464","","0","0","arrowleft","0","arrowleft","[0.325,0.675,0.15,0.85]","","",""
"sailing-trial","400","1845619","0.0-11.0-365.0","","","","false","","","","","","","","","","null","","1247.5","","3","1","null","null","arrowup","[0.325,0.675,0.15,0.85]","","",""
"sailing-trial","401","1848565","0.0-11.0-366.0","","","","false","","","","","","","","","","78.59999999403954","","105.09999999403954","","0","1","arrowleft","0","arrowleft","[0.325,0.675,0.15,0.85]","","",""
"sailing-trial","402","1850718","0.0-11.0-367.0","","","","false","","","","","","","","","","null","","470.40000000596046","","1","1","null","null","arrowup","[0.325,0.675,0.15,0.85]","","",""
"sailing-trial","403","1854466","0.0-11.0-368.0","","","","false","","","","","","","","","","289.30000001192093","","1212.699999988079","","0","0","arrowleft","0","arrowleft","[0.325,0.675,0.15,0.85]","","",""
"sailing-trial","404","1856077","0.0-11.0-369.0","","","","false","","","","","","","","","","null","","5.799999982118607","","3","1","null","null","arrowup","[0.325,0.675,0.15,0.85]","","",""
"sailing-trial","405","1858480","0.0-11.0-370.0","","","","false","","","","","","","","","","85.89999997615814","","52","","0","0","arrowleft","0","arrowleft","[0.325,0.675,0.15,0.85]","","",""
"sailing-trial","406","1862380","0.0-11.0-371.0","","","","false","","","","","","","","","","null","","1377.7000000178814","","3","0","null","null","arrowup","[0.325,0.675,0.15,0.85]","","",""
"sailing-trial","407","1864758","0.0-11.0-372.0","","","","false","","","","","","","","","","81","","31.900000005960464","","0","0","arrowleft","0","arrowleft","[0.325,0.675,0.15,0.85]","","",""
"sailing-trial","408","1865880","0.0-11.0-373.0","","","","false","","","","","","","","","","null","","45.5","","2","0","null","null","arrowup","[0.325,0.675,0.15,0.85]","","",""
"sailing-trial","409","1868145","0.0-11.0-374.0","","","","false","","","","","","","","","","0.09999999403953552","","55.19999998807907","","0","0","arrowleft","0","arrowleft","[0.325,0.675,0.15,0.85]","","",""
"sailing-trial","410","1870346","0.0-11.0-375.0","","","","false","","","","","","","","","","null","","676.2999999821186","","1","1","null","null","arrowup","[0.325,0.675,0.15,0.85]","","",""
"sailing-trial","411","1873642","0.0-11.0-376.0","","","","false","","","","","","","","","","301","","151.5","","1","0","arrowleft","0","arrowright","[0.325,0.675,0.15,0.85]","","",""
"sailing-trial","412","1877039","0.0-11.0-377.0","","","","false","","","","","","","","","","null","","1242.3999999761581","","1","1","null","null","arrowup","[0.325,0.675,0.15,0.85]","","",""
"sailing-trial","413","1881860","0.0-11.0-378.0","","","","false","","","","","","","","","","1546.1000000238419","","20.19999998807907","","3","1","arrowright","1","arrowright","[0.325,0.675,0.15,0.85]","","",""
"sailing-trial","414","1887822","0.0-11.0-379.0","","","","false","","","","","","","","","","null","","3393.300000011921","","0","0","null","null","arrowup","[0.325,0.675,0.15,0.85]","","",""
"sailing-trial","415","1891751","0.0-11.0-380.0","","","","false","","","","","","","","","","856.8000000119209","","166","","2","0","arrowright","1","arrowleft","[0.325,0.675,0.15,0.85]","","",""
"sailing-trial","416","1893823","0.0-11.0-381.0","","","","false","","","","","","","","","","null","","955.5","","2","0","null","null","arrowup","[0.325,0.675,0.15,0.85]","","",""
"sailing-trial","417","1897206","0.0-11.0-382.0","","","","false","","","","","","","","","","253.69999998807907","","279.80000001192093","","1","1","arrowleft","0","arrowright","[0.15,0.85,0.325,0.675]","","",""
"sailing-trial","418","1898588","0.0-11.0-383.0","","","","false","","","","","","","","","","null","","222.89999997615814","","1","0","null","null","arrowup","[0.15,0.85,0.325,0.675]","","",""
"sailing-trial","419","1902290","0.0-11.0-384.0","","","","false","","","","","","","","","","844","","127.69999998807907","","1","1","arrowleft","0","arrowright","[0.15,0.85,0.325,0.675]","","",""
"sailing-trial","420","1903449","0.0-11.0-385.0","","","","false","","","","","","","","","","null","","68.30000001192093","","0","0","null","null","arrowup","[0.15,0.85,0.325,0.675]","","",""
"sailing-trial","421","1906648","0.0-11.0-386.0","","","","false","","","","","","","","","","617.0999999940395","","232.30000001192093","","3","0","arrowright","1","arrowright","[0.15,0.85,0.325,0.675]","","",""
"sailing-trial","422","1908986","0.0-11.0-387.0","","","","false","","","","","","","","","","null","","1023.2999999821186","","0","0","null","null","arrowup","[0.15,0.85,0.325,0.675]","","",""
"sailing-trial","423","1912161","0.0-11.0-388.0","","","","false","","","","","","","","","","249.19999998807907","","38.60000002384186","","1","1","arrowleft","0","arrowright","[0.15,0.85,0.325,0.675]","","",""
"sailing-trial","424","1913919","0.0-11.0-389.0","","","","false","","","","","","","","","","null","","129.80000001192093","","1","0","null","null","arrowup","[0.15,0.85,0.325,0.675]","","",""
"sailing-trial","425","1917602","0.0-11.0-390.0","","","","false","","","","","","","","","","521.8000000119209","","440.09999999403954","","1","1","arrowleft","0","arrowright","[0.15,0.85,0.325,0.675]","","",""
"sailing-trial","426","1919401","0.0-11.0-391.0","","","","false","","","","","","","","","","null","","420.5","","1","0","null","null","arrowup","[0.15,0.85,0.325,0.675]","","",""
"sailing-trial","427","1926693","0.0-11.0-392.0","","","","false","","","","","","","","","","3455.600000023842","","45.599999994039536","","1","1","arrowleft","0","arrowright","[0.15,0.85,0.325,0.675]","","",""
"sailing-trial","428","1931592","0.0-11.0-393.0","","","","false","","","","","","","","","","null","","3719.5999999940395","","3","0","null","null","arrowup","[0.15,0.85,0.325,0.675]","","",""
"sailing-trial","429","1936663","0.0-11.0-394.0","","","","false","","","","","","","","","","941.2000000178814","","126.5","","1","0","arrowleft","0","arrowright","[0.15,0.85,0.325,0.675]","","",""
"sailing-trial","430","1939724","0.0-11.0-395.0","","","","false","","","","","","","","","","null","","249.19999998807907","","0","0","null","null","arrowup","[0.15,0.85,0.325,0.675]","","",""
"sailing-trial","431","1942146","0.0-11.0-396.0","","","","false","","","","","","","","","","188.59999999403954","","50.099999994039536","","0","0","arrowleft","0","arrowleft","[0.15,0.85,0.325,0.675]","","",""
"sailing-trial","432","1947608","0.0-11.0-397.0","","","","false","","","","","","","","","","null","","1126.0999999940395","","3","1","null","null","arrowup","[0.15,0.85,0.325,0.675]","","",""
"sailing-trial","433","1952482","0.0-11.0-398.0","","","","false","","","","","","","","","","1946.0999999940395","","253.5","","1","1","arrowleft","0","arrowright","[0.15,0.85,0.325,0.675]","","",""
"sailing-trial","434","1957026","0.0-11.0-399.0","","","","false","","","","","","","","","","null","","726.3000000119209","","1","1","null","null","arrowup","[0.15,0.85,0.325,0.675]","","",""
"instructions","435","1962045","0.0-12.0","","","","","","","","","","5017.899999976158","","","","","","","","","","","","","","","","[{""page_index"":0,""viewing_time"":5017.0999999940395}]"
"survey-debrief","436","2005240","0.0-13.0","","","","","","","","","","43193.40000000596","","","","","","","","","","","","","","{""difficulty"":""3"",""fun"":""1"",""clarity"":""5"",""strategy"":""nope"",""feedback"":""no""}","",""
