"trial_type","trial_index","time_elapsed","internal_node_id","value","metadata","success","timeout","failed_images","failed_audio","failed_video","browser_interaction","low_quality","rt","stimulus","response","button_pressed","island_rt","island_response","boat_rt","boat_response","boat","reward","island_key","island","boat_key","reward_probabilities","responses","num_errors","view_history"
"pavlovia","0","4","0.0-0.0","","","","","","","","","","","","","","","","","","","","","","","","","",""
"call-function","1","5","0.0-1.0","","{""task_version"":""sailing_part1_v1"",""task_condition"":""good"",""boats"":[""D"",""A"",""C"",""B""],""boats_demo"":[""E"",""F"",""H"",""G""],""islands"":[""A"",""B""],""subject_id"":""14781"",""age"":""22"",""gender"":""Female""}","","","","","","","","","","","","","","","","","","","","","","","",""
"preload","2","2066","0.0-2.0","","","true","false","[]","[]","[]","[{""event"":""fullscreenenter"",""trial"":3,""time"":9724}]","false","","","","","","","","","","","","","","","","",""
"fullscreen","3","10713","0.0-3.0","","","true","","","","","","","","","","","","","","","","","","","","","","",""
"audio-keyboard-response","4","13259","0.0-4.0-0.0","","","","","","","","","","2474.666666666667","audio/beep_loop.wav"," ","","","","","","","","","","","","","",""
"audio-test","5","14838","0.0-4.0-1.0","","","","","","","","","","null","audio/turtle.mp3","","3","","","","","","","","","","","","",""
"audio-test","6","16906","0.0-4.0-2.0","","","","","","","","","","null","audio/shark.mp3","","2","","","","","","","","","","","","",""
"sailing-instructions","7","48933","0.0-5.0-0.0-0.0","","","","","","","","","","","","","","null","null","null","null","null","null","","","","","","",""
"sailing-trial","8","52322","0.0-5.0-0.0-1.0-0.0","","","","false","","","","","","","","","","2274.100000000559","","null","","null","null","arrowleft","0","null","null","","",""
"sailing-trial","9","54102","0.0-5.0-0.0-1.0-1.0","","","","false","","","","","","","","","","673.8999999994412","","null","","null","null","arrowright","1","null","null","","",""
"sailing-trial","10","57030","0.0-5.0-0.0-1.0-2.0","","","","false","","","","","","","","","","1811.8999999994412","","null","","null","null","arrowleft","0","null","null","","",""
"sailing-instructions","11","99341","0.0-5.0-0.0-2.0","","","","","","","","","","","","","","null","null","null","null","0","null","","","","","","",""
"sailing-trial","12","105334","0.0-5.0-0.0-3.0-0.0","","","","false","","","","","","","","","","null","","2033.7999999998137","","2","1","null","null","arrowleft","[1,1,1,1]","","",""
"sailing-trial","13","108599","0.0-5.0-0.0-3.0-1.0","","","","false","","","","","","","","","","null","","577.4000000003725","","3","1","null","null","arrowright","[1,1,1,1]","","",""
"sailing-trial","14","112457","0.0-5.0-0.0-3.0-2.0","","","","false","","","","","","","","","","null","","994.8999999994412","","2","0","null","null","arrowleft","[0,0,0,0]","","",""
"sailing-instructions","15","119900","0.0-5.0-0.0-4.0","","","","","","","","","","","","","","null","null","null","null","null","null","","","","","","",""
"sailing-comprehension","16","139786","0.0-5.0-0.0-5.0","","","","","","","","","","15002.700000000186","","","","","","","","","","","","","","[""true"",""true"",""false"",""true""]","0",""
"sailing-instructions","17","296108","0.0-6.0-0.0-0.0","","","","","","","","","","","","","","null","null","null","null","null","null","","","","","","",""
"sailing-comprehension","18","318783","0.0-6.0-0.0-1.0","","","","","","","","","","14952.799999999814","","","","","","","","","","","","","","[""true"",""true"",""true""]","1",""
"sailing-instructions","19","431327","0.0-6.0-0.1-0.1","","","","","","","","","","","","","","null","null","null","null","null","null","","","","","","",""
"sailing-comprehension","20","437572","0.0-6.0-0.1-1.1","","","","","","","","","","5162.200000000186","","","","","","","","","","","","","","[""true"",""false"",""true""]","0",""
"sailing-instructions","21","453158","0.0-7.0-0.0-0.0","","","","","","","","","","","","","","null","null","null","null","null","null","","","","","","",""
"sailing-trial","22","474437","0.0-7.0-0.0-1.0-0.0","","","","false","","","","","","","","","","null","","18711.5","","0","1","null","null","arrowup","[0.2,0.8,0.2,0.8]","","",""
"sailing-trial","23","482353","0.0-7.0-0.0-1.0-1.0","","","","false","","","","","","","","","","null","","3590.0999999996275","","1","1","null","null","arrowup","[0.2,0.8,0.2,0.8]","","",""
"sailing-trial","24","487189","0.0-7.0-0.0-1.0-2.0","","","","false","","","","","","","","","","null","","2187.4000000003725","","2","0","null","null","arrowup","[0.2,0.8,0.2,0.8]","","",""
"sailing-trial","25","490166","0.0-7.0-0.0-1.0-3.0","","","","false","","","","","","","","","","null","","1153.5999999996275","","3","1","null","null","arrowup","[0.2,0.8,0.2,0.8]","","",""
"sailing-comprehension","26","497065","0.0-7.0-0.0-2.0","","","","","","","","","","5601","","","","","","","","","","","","","","[""false""]","0",""
"sailing-instructions","27","515386","0.0-8.0-0.0-0.0","","","","","","","","","","","","","","null","null","null","null","null","null","","","","","","",""
"sailing-comprehension","28","521552","0.0-8.0-0.0-1.0","","","","","","","","","","3684.899999999441","","","","","","","","","","","","","","[""true""]","0",""
"sailing-instructions","29","560334","0.0-9.0-0.0-0.0","","","","","","","","","","","","","","null","null","null","null","null","null","","","","","","",""
"sailing-trial","30","567281","0.0-9.0-0.0-1.0-0.0","","","","false","","","","","","","","","","1822.2999999998137","","749.3999999994412","","0","1","arrowleft","0","arrowleft","[0.2,0.8,0.2,0.8]","","",""
"sailing-trial","31","571645","0.0-9.0-0.0-1.0-1.0","","","","false","","","","","","","","","","1145.7000000001863","","118.09999999962747","","0","0","arrowleft","0","arrowleft","[0.2,0.8,0.2,0.8]","","",""
"sailing-trial","32","575303","0.0-9.0-0.0-1.0-2.0","","","","false","","","","","","","","","","null","","1199.9000000003725","","0","0","null","null","arrowup","[0.2,0.8,0.2,0.8]","","",""
"sailing-trial","33","579080","0.0-9.0-0.0-1.0-3.0","","","","false","","","","","","","","","","890.7000000001863","","30.199999999254942","","2","0","arrowright","1","arrowleft","[0.2,0.8,0.2,0.8]","","",""
"sailing-trial","34","583596","0.0-9.0-0.0-1.0-4.0","","","","false","","","","","","","","","","null","","2429.9000000003725","","3","1","null","null","arrowup","[0.2,0.8,0.2,0.8]","","",""
"sailing-trial","35","588473","0.0-9.0-0.0-1.0-5.0","","","","false","","","","","","","","","","719.7000000001863","","1154.1000000005588","","3","1","arrowright","1","arrowright","[0.2,0.8,0.2,0.8]","","",""
"sailing-instructions","36","615519","0.0-10.0","","","","","","","","","","","","","","null","null","null","null","null","null","","","","","","",""
"sailing-trial","37","621376","0.0-11.0-0.0","","","","false","","","","","","","","","","2078.7000000001863","","700.3999999994412","","0","0","arrowleft","0","arrowleft","[0.325,0.675,0.15,0.85]","","",""
"sailing-trial","38","624900","0.0-11.0-1.0","","","","false","","","","","","","","","","null","","1311.2000000001863","","1","1","null","null","arrowup","[0.325,0.675,0.15,0.85]","","",""
"sailing-trial","39","629108","0.0-11.0-2.0","","","","false","","","","","","","","","","921.8000000007451","","606.9000000003725","","2","0","arrowright","1","arrowleft","[0.325,0.675,0.15,0.85]","","",""
"sailing-trial","40","631975","0.0-11.0-3.0","","","","false","","","","","","","","","","null","","911.1000000005588","","1","1","null","null","arrowup","[0.325,0.675,0.15,0.85]","","",""
"sailing-trial","41","635744","0.0-11.0-4.0","","","","false","","","","","","","","","","606","","16.399999999441206","","1","1","arrowleft","0","arrowright","[0.325,0.675,0.15,0.85]","","",""
"sailing-trial","42","638625","0.0-11.0-5.0","","","","false","","","","","","","","","","null","","963.5999999996275","","1","1","null","null","arrowup","[0.325,0.675,0.15,0.85]","","",""
"sailing-trial","43","642473","0.0-11.0-6.0","","","","false","","","","","","","","","","726.2999999998137","","30.700000000186265","","1","0","arrowleft","0","arrowright","[0.325,0.675,0.15,0.85]","","",""
"sailing-trial","44","645715","0.0-11.0-7.0","","","","false","","","","","","","","","","null","","1622.5","","2","0","null","null","arrowup","[0.325,0.675,0.15,0.85]","","",""
"sailing-trial","45","649882","0.0-11.0-8.0","","","","false","","","","","","","","","","915.2000000001863","","49.299999999813735","","3","0","arrowright","1","arrowright","[0.325,0.675,0.15,0.85]","","",""
"sailing-trial","46","652495","0.0-11.0-9.0","","","","false","","","","","","","","","","null","","1074.5","","1","0","null","null","arrowup","[0.325,0.675,0.15,0.85]","","",""
"sailing-trial","47","656684","0.0-11.0-10.0","","","","false","","","","","","","","","","741.4000000003725","","409.3999999994412","","0","1","arrowleft","0","arrowleft","[0.325,0.675,0.15,0.85]","","",""
"sailing-trial","48","659699","0.0-11.0-11.0","","","","false","","","","","","","","","","null","","1110.5","","0","1","null","null","arrowup","[0.325,0.675,0.15,0.85]","","",""
"sailing-trial","49","663506","0.0-11.0-12.0","","","","false","","","","","","","","","","534.8000000007451","","460.70000000018626","","0","0","arrowleft","0","arrowleft","[0.325,0.675,0.15,0.85]","","",""
"sailing-trial","50","666723","0.0-11.0-13.0","","","","false","","","","","","","","","","null","","1253.6000000005588","","1","1","null","null","arrowup","[0.325,0.675,0.15,0.85]","","",""
"sailing-trial","51","670771","0.0-11.0-14.0","","","","false","","","","","","","","","","923.0999999996275","","581.3999999994412","","1","0","arrowleft","0","arrowright","[0.325,0.675,0.15,0.85]","","",""
"sailing-trial","52","672872","0.0-11.0-15.0","","","","false","","","","","","","","","","null","","676","","1","0","null","null","arrowup","[0.325,0.675,0.15,0.85]","","",""
"sailing-trial","53","676559","0.0-11.0-16.0","","","","false","","","","","","","","","","603.5999999996275","","330.40000000037253","","0","0","arrowleft","0","arrowleft","[0.15,0.85,0.325,0.675]","","",""
"sailing-trial","54","679601","0.0-11.0-17.0","","","","false","","","","","","","","","","null","","1365.5","","3","0","null","null","arrowup","[0.15,0.85,0.325,0.675]","","",""
"sailing-trial","55","683357","0.0-11.0-18.0","","","","false","","","","","","","","","","551.6000000005588","","135.79999999981374","","2","1","arrowright","1","arrowleft","[0.15,0.85,0.325,0.675]","","",""
"sailing-trial","56","685961","0.0-11.0-19.0","","","","false","","","","","","","","","","null","","1048","","1","0","null","null","arrowup","[0.15,0.85,0.325,0.675]","","",""
"sailing-trial","57","689257","0.0-11.0-20.0","","","","false","","","","","","","","","","574.0999999996275","","128.09999999962747","","2","0","arrowright","1","arrowleft","[0.15,0.85,0.325,0.675]","","",""
"sailing-trial","58","693742","0.0-11.0-21.0","","","","false","","","","","","","","","","null","","2618.600000000559","","1","1","null","null","arrowup","[0.15,0.85,0.325,0.675]","","",""
"sailing-trial","59","697207","0.0-11.0-22.0","","","","false","","","","","","","","","","649.0999999996275","","355.79999999981374","","0","0","arrowleft","0","arrowleft","[0.15,0.85,0.325,0.675]","","",""
"sailing-trial","60","700129","0.0-11.0-23.0","","","","false","","","","","","","","","","null","","949.2999999998137","","0","1","null","null","arrowup","[0.15,0.85,0.325,0.675]","","",""
"sailing-trial","61","703823","0.0-11.0-24.0","","","","false","","","","","","","","","","726.5","","501.8999999994412","","2","0","arrowright","1","arrowleft","[0.15,0.85,0.325,0.675]","","",""
"sailing-trial","62","706537","0.0-11.0-25.0","","","","false","","","","","","","","","","null","","825.9000000003725","","1","1","null","null","arrowup","[0.15,0.85,0.325,0.675]","","",""
"sailing-trial","63","710345","0.0-11.0-26.0","","","","false","","","","","","","","","","538.1999999992549","","202.19999999925494","","1","1","arrowleft","0","arrowright","[0.15,0.85,0.325,0.675]","","",""
"sailing-trial","64","714291","0.0-11.0-27.0","","","","false","","","","","","","","","","null","","2582.5999999996275","","0","0","null","null","arrowup","[0.15,0.85,0.325,0.675]","","",""
"sailing-trial","65","718323","0.0-11.0-28.0","","","","false","","","","","","","","","","520.2000000001863","","468.90000000037253","","1","1","arrowleft","0","arrowright","[0.15,0.85,0.325,0.675]","","",""
"sailing-trial","66","722098","0.0-11.0-29.0","","","","false","","","","","","","","","","null","","2206.7999999998137","","0","0","null","null","arrowup","[0.15,0.85,0.325,0.675]","","",""
"sailing-trial","67","726512","0.0-11.0-30.0","","","","false","","","","","","","","","","752.4000000003725","","479.1000000005588","","1","1","arrowleft","0","arrowright","[0.15,0.85,0.325,0.675]","","",""
"sailing-trial","68","729425","0.0-11.0-31.0","","","","false","","","","","","","","","","null","","774.0999999996275","","1","1","null","null","arrowup","[0.15,0.85,0.325,0.675]","","",""
"sailing-trial","69","736033","0.0-11.0-32.0","","","","false","","","","","","","","","","873.9000000003725","","416.09999999962747","","1","1","arrowleft","0","arrowright","[0.325,0.675,0.15,0.85]","","",""
"sailing-trial","70","738735","0.0-11.0-33.0","","","","false","","","","","","","","","","null","","1206.800000000745","","2","0","null","null","arrowup","[0.325,0.675,0.15,0.85]","","",""
"sailing-trial","71","743042","0.0-11.0-34.0","","","","false","","","","","","","","","","877.5","","453.59999999962747","","1","1","arrowleft","0","arrowright","[0.325,0.675,0.15,0.85]","","",""
"sailing-trial","72","745908","0.0-11.0-35.0","","","","false","","","","","","","","","","null","","1498.5","","0","0","null","null","arrowup","[0.325,0.675,0.15,0.85]","","",""
"sailing-trial","73","750231","0.0-11.0-36.0","","","","false","","","","","","","","","","531.3000000007451","","786.5","","1","1","arrowleft","0","arrowright","[0.325,0.675,0.15,0.85]","","",""
"sailing-trial","74","753395","0.0-11.0-37.0","","","","false","","","","","","","","","","null","","1338.0999999996275","","1","1","null","null","arrowup","[0.325,0.675,0.15,0.85]","","",""
"sailing-trial","75","757489","0.0-11.0-38.0","","","","false","","","","","","","","","","568.5","","452","","1","1","arrowleft","0","arrowright","[0.325,0.675,0.15,0.85]","","",""
"sailing-trial","76","760011","0.0-11.0-39.0","","","","false","","","","","","","","","","null","","1101.7000000001863","","0","0","null","null","arrowup","[0.325,0.675,0.15,0.85]","","",""
"sailing-trial","77","764083","0.0-11.0-40.0","","","","false","","","","","","","","","","623.2999999998137","","351.90000000037253","","1","1","arrowleft","0","arrowright","[0.325,0.675,0.15,0.85]","","",""
"sailing-trial","78","766881","0.0-11.0-41.0","","","","false","","","","","","","","","","null","","927.5","","1","1","null","null","arrowup","[0.325,0.675,0.15,0.85]","","",""
"sailing-trial","79","770674","0.0-11.0-42.0","","","","false","","","","","","","","","","723.5999999996275","","149","","1","1","arrowleft","0","arrowright","[0.325,0.675,0.15,0.85]","","",""
"sailing-trial","80","773520","0.0-11.0-43.0","","","","false","","","","","","","","","","null","","771.2999999998137","","3","1","null","null","arrowup","[0.325,0.675,0.15,0.85]","","",""
"sailing-trial","81","777684","0.0-11.0-44.0","","","","false","","","","","","","","","","651.3999999994412","","793.8000000007451","","1","0","arrowleft","0","arrowright","[0.325,0.675,0.15,0.85]","","",""
"sailing-trial","82","780542","0.0-11.0-45.0","","","","false","","","","","","","","","","null","","903.5","","3","1","null","null","arrowup","[0.325,0.675,0.15,0.85]","","",""
"sailing-trial","83","784318","0.0-11.0-46.0","","","","false","","","","","","","","","","503.69999999925494","","280.40000000037253","","3","1","arrowright","1","arrowright","[0.325,0.675,0.15,0.85]","","",""
"sailing-trial","84","786805","0.0-11.0-47.0","","","","false","","","","","","","","","","null","","1084.9000000003725","","0","0","null","null","arrowup","[0.325,0.675,0.15,0.85]","","",""
"sailing-trial","85","790725","0.0-11.0-48.0","","","","false","","","","","","","","","","487.8999999994412","","198","","3","1","arrowright","1","arrowright","[0.325,0.675,0.15,0.85]","","",""
"sailing-trial","86","793838","0.0-11.0-49.0","","","","false","","","","","","","","","","null","","1123.7999999998137","","1","1","null","null","arrowup","[0.325,0.675,0.15,0.85]","","",""
"sailing-trial","87","797520","0.0-11.0-50.0","","","","false","","","","","","","","","","339.8999999994412","","241.09999999962747","","3","1","arrowright","1","arrowright","[0.15,0.85,0.325,0.675]","","",""
"sailing-trial","88","800235","0.0-11.0-51.0","","","","false","","","","","","","","","","null","","778.7999999998137","","3","1","null","null","arrowup","[0.15,0.85,0.325,0.675]","","",""
"sailing-trial","89","804826","0.0-11.0-52.0","","","","false","","","","","","","","","","1190.2000000001863","","313","","3","1","arrowright","1","arrowright","[0.15,0.85,0.325,0.675]","","",""
"sailing-trial","90","807991","0.0-11.0-53.0","","","","false","","","","","","","","","","null","","1042.2999999998137","","1","1","null","null","arrowup","[0.15,0.85,0.325,0.675]","","",""
"sailing-trial","91","811768","0.0-11.0-54.0","","","","false","","","","","","","","","","508","","320.79999999981374","","3","1","arrowright","1","arrowright","[0.15,0.85,0.325,0.675]","","",""
"sailing-trial","92","815259","0.0-11.0-55.0","","","","false","","","","","","","","","","null","","2171.5999999996275","","2","0","null","null","arrowup","[0.15,0.85,0.325,0.675]","","",""
"sailing-trial","93","819831","0.0-11.0-56.0","","","","false","","","","","","","","","","521.7000000001863","","30.40000000037253","","3","0","arrowright","1","arrowright","[0.15,0.85,0.325,0.675]","","",""
"sailing-trial","94","824066","0.0-11.0-57.0","","","","false","","","","","","","","","","null","","2357.899999999441","","0","1","null","null","arrowup","[0.15,0.85,0.325,0.675]","","",""
"sailing-trial","95","829814","0.0-11.0-58.0","","","","false","","","","","","","","","","459.70000000018626","","107.09999999962747","","3","1","arrowright","1","arrowright","[0.15,0.85,0.325,0.675]","","",""
"sailing-trial","96","834378","0.0-11.0-59.0","","","","false","","","","","","","","","","null","","2734.9000000003725","","3","1","null","null","arrowup","[0.15,0.85,0.325,0.675]","","",""
"sailing-trial","97","838941","0.0-11.0-60.0","","","","false","","","","","","","","","","611.7000000001863","","768.9000000003725","","3","1","arrowright","1","arrowright","[0.15,0.85,0.325,0.675]","","",""
"sailing-trial","98","841395","0.0-11.0-61.0","","","","false","","","","","","","","","","null","","1145.1000000005588","","2","0","null","null","arrowup","[0.15,0.85,0.325,0.675]","","",""
"sailing-trial","99","844968","0.0-11.0-62.0","","","","false","","","","","","","","","","647.6000000005588","","117.3999999994412","","3","1","arrowright","1","arrowright","[0.15,0.85,0.325,0.675]","","",""
"sailing-trial","100","847931","0.0-11.0-63.0","","","","false","","","","","","","","","","null","","1175.7999999998137","","2","1","null","null","arrowup","[0.15,0.85,0.325,0.675]","","",""
"sailing-trial","101","853239","0.0-11.0-64.0","","","","false","","","","","","","","","","1652.5999999996275","","647","","3","1","arrowright","1","arrowright","[0.15,0.85,0.325,0.675]","","",""
"sailing-trial","102","856015","0.0-11.0-65.0","","","","false","","","","","","","","","","null","","1079.9000000003725","","0","0","null","null","arrowup","[0.15,0.85,0.325,0.675]","","",""
"sailing-trial","103","860465","0.0-11.0-66.0","","","","false","","","","","","","","","","1417.4000000003725","","207.20000000018626","","3","1","arrowright","1","arrowright","[0.15,0.85,0.325,0.675]","","",""
"sailing-trial","104","863383","0.0-11.0-67.0","","","","false","","","","","","","","","","null","","1541.7999999998137","","2","0","null","null","arrowup","[0.15,0.85,0.325,0.675]","","",""
"sailing-trial","105","868335","0.0-11.0-68.0","","","","false","","","","","","","","","","830.0999999996275","","177.59999999962747","","3","0","arrowright","1","arrowright","[0.15,0.85,0.325,0.675]","","",""
"sailing-trial","106","871056","0.0-11.0-69.0","","","","false","","","","","","","","","","null","","850.6999999992549","","1","1","null","null","arrowup","[0.15,0.85,0.325,0.675]","","",""
"sailing-trial","107","874982","0.0-11.0-70.0","","","","false","","","","","","","","","","497.59999999962747","","351.09999999962747","","1","1","arrowleft","0","arrowright","[0.15,0.85,0.325,0.675]","","",""
"sailing-trial","108","878131","0.0-11.0-71.0","","","","false","","","","","","","","","","null","","1021","","2","1","null","null","arrowup","[0.15,0.85,0.325,0.675]","","",""
"sailing-trial","109","882759","0.0-11.0-72.0","","","","false","","","","","","","","","","722.7999999998137","","438.79999999981374","","1","1","arrowleft","0","arrowright","[0.15,0.85,0.325,0.675]","","",""
"sailing-trial","110","885539","0.0-11.0-73.0","","","","false","","","","","","","","","","null","","804.6999999992549","","2","1","null","null","arrowup","[0.15,0.85,0.325,0.675]","","",""
"sailing-trial","111","889112","0.0-11.0-74.0","","","","false","","","","","","","","","","670.1000000005588","","43.19999999925494","","1","1","arrowleft","0","arrowright","[0.325,0.675,0.15,0.85]","","",""
"sailing-trial","112","891894","0.0-11.0-75.0","","","","false","","","","","","","","","","null","","763.2999999998137","","3","1","null","null","arrowup","[0.325,0.675,0.15,0.85]","","",""
"sailing-trial","113","895322","0.0-11.0-76.0","","","","false","","","","","","","","","","570.9000000003725","","100.09999999962747","","1","0","arrowleft","0","arrowright","[0.325,0.675,0.15,0.85]","","",""
"sailing-trial","114","897492","0.0-11.0-77.0","","","","false","","","","","","","","","","null","","735.0999999996275","","0","0","null","null","arrowup","[0.325,0.675,0.15,0.85]","","",""
"sailing-trial","115","901642","0.0-11.0-78.0","","","","false","","","","","","","","","","432.19999999925494","","406.3999999994412","","3","1","arrowright","1","arrowright","[0.325,0.675,0.15,0.85]","","",""
"sailing-trial","116","904075","0.0-11.0-79.0","","","","false","","","","","","","","","","null","","581.1000000005588","","0","1","null","null","arrowup","[0.325,0.675,0.15,0.85]","","",""
"sailing-trial","117","907701","0.0-11.0-80.0","","","","false","","","","","","","","","","487.29999999981374","","244.6000000005588","","3","1","arrowright","1","arrowright","[0.325,0.675,0.15,0.85]","","",""
"sailing-trial","118","910796","0.0-11.0-81.0","","","","false","","","","","","","","","","null","","1698.1000000005588","","0","0","null","null","arrowup","[0.325,0.675,0.15,0.85]","","",""
"sailing-trial","119","914591","0.0-11.0-82.0","","","","false","","","","","","","","","","547.2999999998137","","74.5","","3","1","arrowright","1","arrowright","[0.325,0.675,0.15,0.85]","","",""
"sailing-trial","120","917339","0.0-11.0-83.0","","","","false","","","","","","","","","","null","","894.2000000001863","","0","1","null","null","arrowup","[0.325,0.675,0.15,0.85]","","",""
"sailing-trial","121","921077","0.0-11.0-84.0","","","","false","","","","","","","","","","498.20000000018626","","20.5","","3","1","arrowright","1","arrowright","[0.325,0.675,0.15,0.85]","","",""
"sailing-trial","122","922905","0.0-11.0-85.0","","","","false","","","","","","","","","","null","","681.7000000001863","","3","0","null","null","arrowup","[0.325,0.675,0.15,0.85]","","",""
"sailing-trial","123","926750","0.0-11.0-86.0","","","","false","","","","","","","","","","642.6000000005588","","386.79999999981374","","3","0","arrowright","1","arrowright","[0.325,0.675,0.15,0.85]","","",""
"sailing-trial","124","928987","0.0-11.0-87.0","","","","false","","","","","","","","","","null","","834.2999999998137","","2","0","null","null","arrowup","[0.325,0.675,0.15,0.85]","","",""
"sailing-trial","125","932440","0.0-11.0-88.0","","","","false","","","","","","","","","","457.70000000018626","","372.59999999962747","","1","0","arrowleft","0","arrowright","[0.325,0.675,0.15,0.85]","","",""
"sailing-trial","126","935644","0.0-11.0-89.0","","","","false","","","","","","","","","","null","","1361.2000000001863","","1","1","null","null","arrowup","[0.325,0.675,0.15,0.85]","","",""
"sailing-trial","127","939403","0.0-11.0-90.0","","","","false","","","","","","","","","","661.4000000003725","","153.59999999962747","","1","1","arrowleft","0","arrowright","[0.325,0.675,0.15,0.85]","","",""
"sailing-trial","128","941559","0.0-11.0-91.0","","","","false","","","","","","","","","","null","","884","","0","0","null","null","arrowup","[0.325,0.675,0.15,0.85]","","",""
"sailing-trial","129","945644","0.0-11.0-92.0","","","","false","","","","","","","","","","911.5999999996275","","247.09999999962747","","3","1","arrowright","1","arrowright","[0.15,0.85,0.325,0.675]","","",""
"sailing-trial","130","949008","0.0-11.0-93.0","","","","false","","","","","","","","","","null","","1540.199999999255","","1","1","null","null","arrowup","[0.15,0.85,0.325,0.675]","","",""
"sailing-trial","131","953805","0.0-11.0-94.0","","","","false","","","","","","","","","","860.2000000001863","","143.30000000074506","","3","0","arrowright","1","arrowright","[0.15,0.85,0.325,0.675]","","",""
"sailing-trial","132","957263","0.0-11.0-95.0","","","","false","","","","","","","","","","null","","1203.5","","1","1","null","null","arrowup","[0.15,0.85,0.325,0.675]","","",""
"sailing-trial","133","961397","0.0-11.0-96.0","","","","false","","","","","","","","","","361.20000000018626","","434.5","","3","1","arrowright","1","arrowright","[0.15,0.85,0.325,0.675]","","",""
"sailing-trial","134","964608","0.0-11.0-97.0","","","","false","","","","","","","","","","null","","1438.6000000005588","","2","0","null","null","arrowup","[0.15,0.85,0.325,0.675]","","",""
"sailing-trial","135","969226","0.0-11.0-98.0","","","","false","","","","","","","","","","1037","","317.3999999994412","","1","1","arrowleft","0","arrowright","[0.15,0.85,0.325,0.675]","","",""
"sailing-trial","136","973705","0.0-11.0-99.0","","","","false","","","","","","","","","","null","","2012","","1","1","null","null","arrowup","[0.15,0.85,0.325,0.675]","","",""
"sailing-trial","137","978309","0.0-11.0-100.0","","","","false","","","","","","","","","","1179.5","","69.1000000005588","","1","1","arrowleft","0","arrowright","[0.15,0.85,0.325,0.675]","","",""
"sailing-trial","138","982267","0.0-11.0-101.0","","","","false","","","","","","","","","","null","","944.7999999998137","","0","0","null","null","arrowup","[0.15,0.85,0.325,0.675]","","",""
"sailing-trial","139","986396","0.0-11.0-102.0","","","","false","","","","","","","","","","521.9000000003725","","60.200000000186265","","3","1","arrowright","1","arrowright","[0.15,0.85,0.325,0.675]","","",""
"sailing-trial","140","989510","0.0-11.0-103.0","","","","false","","","","","","","","","","null","","1217.2999999998137","","2","1","null","null","arrowup","[0.15,0.85,0.325,0.675]","","",""
"sailing-trial","141","994702","0.0-11.0-104.0","","","","false","","","","","","","","","","582.0999999996275","","354.09999999962747","","1","1","arrowleft","0","arrowright","[0.15,0.85,0.325,0.675]","","",""
"sailing-trial","142","998283","0.0-11.0-105.0","","","","false","","","","","","","","","","null","","1655.7000000001863","","3","1","null","null","arrowup","[0.15,0.85,0.325,0.675]","","",""
"sailing-trial","143","1002490","0.0-11.0-106.0","","","","false","","","","","","","","","","1392","","80","","3","0","arrowright","1","arrowright","[0.15,0.85,0.325,0.675]","","",""
"sailing-trial","144","1005956","0.0-11.0-107.0","","","","false","","","","","","","","","","null","","1428.2000000001863","","1","1","null","null","arrowup","[0.15,0.85,0.325,0.675]","","",""
"sailing-trial","145","1011068","0.0-11.0-108.0","","","","false","","","","","","","","","","1978.2999999998137","","310.29999999981374","","3","1","arrowright","1","arrowright","[0.325,0.675,0.15,0.85]","","",""
"sailing-trial","146","1013528","0.0-11.0-109.0","","","","false","","","","","","","","","","null","","1219.7000000001863","","2","0","null","null","arrowup","[0.325,0.675,0.15,0.85]","","",""
"sailing-trial","147","1018277","0.0-11.0-110.0","","","","false","","","","","","","","","","1091.0999999996275","","667.1999999992549","","0","1","arrowleft","0","arrowleft","[0.325,0.675,0.15,0.85]","","",""
"sailing-trial","148","1020761","0.0-11.0-111.0","","","","false","","","","","","","","","","null","","1107.199999999255","","0","0","null","null","arrowup","[0.325,0.675,0.15,0.85]","","",""
"sailing-trial","149","1024716","0.0-11.0-112.0","","","","false","","","","","","","","","","527.4000000003725","","470.79999999981374","","3","1","arrowright","1","arrowright","[0.325,0.675,0.15,0.85]","","",""
"sailing-trial","150","1029208","0.0-11.0-113.0","","","","false","","","","","","","","","","null","","1485.1000000005588","","0","0","null","null","arrowup","[0.325,0.675,0.15,0.85]","","",""
"sailing-trial","151","1033942","0.0-11.0-114.0","","","","false","","","","","","","","","","526.2000000001863","","28.299999999813735","","3","1","arrowright","1","arrowright","[0.325,0.675,0.15,0.85]","","",""
"sailing-trial","152","1036724","0.0-11.0-115.0","","","","false","","","","","","","","","","null","","1170.9000000003725","","0","1","null","null","arrowup","[0.325,0.675,0.15,0.85]","","",""
"sailing-trial","153","1045832","0.0-11.0-116.0","","","","false","","","","","","","","","","1173.5","","4552.0999999996275","","3","1","arrowright","1","arrowright","[0.325,0.675,0.15,0.85]","","",""
"sailing-trial","154","1050324","0.0-11.0-117.0","","","","false","","","","","","","","","","null","","1484.0999999996275","","2","0","null","null","arrowup","[0.325,0.675,0.15,0.85]","","",""
"sailing-trial","155","1054214","0.0-11.0-118.0","","","","false","","","","","","","","","","824.5","","13.100000000558794","","3","1","arrowright","1","arrowright","[0.325,0.675,0.15,0.85]","","",""
"sailing-trial","156","1058213","0.0-11.0-119.0","","","","false","","","","","","","","","","null","","1620.7000000001863","","3","1","null","null","arrowup","[0.325,0.675,0.15,0.85]","","",""
"sailing-trial","157","1065340","0.0-11.0-120.0","","","","false","","","","","","","","","","3711.2999999998137","","217.3999999994412","","3","1","arrowright","1","arrowright","[0.325,0.675,0.15,0.85]","","",""
"sailing-trial","158","1069310","0.0-11.0-121.0","","","","false","","","","","","","","","","null","","2559.5999999996275","","0","0","null","null","arrowup","[0.325,0.675,0.15,0.85]","","",""
"sailing-trial","159","1076367","0.0-11.0-122.0","","","","false","","","","","","","","","","2695.2000000001863","","1478.4000000003725","","3","1","arrowright","1","arrowright","[0.325,0.675,0.15,0.85]","","",""
"sailing-trial","160","1079959","0.0-11.0-123.0","","","","false","","","","","","","","","","null","","591.5999999996275","","0","0","null","null","arrowup","[0.325,0.675,0.15,0.85]","","",""
"sailing-trial","161","1084300","0.0-11.0-124.0","","","","false","","","","","","","","","","363.29999999981374","","342.3999999994412","","3","0","arrowright","1","arrowright","[0.15,0.85,0.325,0.675]","","",""
"sailing-trial","162","1089993","0.0-11.0-125.0","","","","false","","","","","","","","","","null","","1340.4000000003725","","2","1","null","null","arrowup","[0.15,0.85,0.325,0.675]","","",""
"sailing-trial","163","1094253","0.0-11.0-126.0","","","","false","","","","","","","","","","536.5","","830.7000000001863","","3","1","arrowright","1","arrowright","[0.15,0.85,0.325,0.675]","","",""
"sailing-trial","164","1097067","0.0-11.0-127.0","","","","false","","","","","","","","","","null","","1004.5999999996275","","1","1","null","null","arrowup","[0.15,0.85,0.325,0.675]","","",""
"sailing-trial","165","1100958","0.0-11.0-128.0","","","","false","","","","","","","","","","826.3999999994412","","114","","1","1","arrowleft","0","arrowright","[0.15,0.85,0.325,0.675]","","",""
"sailing-trial","166","1103704","0.0-11.0-129.0","","","","false","","","","","","","","","","null","","1209.8999999994412","","1","0","null","null","arrowup","[0.15,0.85,0.325,0.675]","","",""
"sailing-trial","167","1108747","0.0-11.0-130.0","","","","false","","","","","","","","","","1246.0999999996275","","910.2000000001863","","1","1","arrowleft","0","arrowright","[0.15,0.85,0.325,0.675]","","",""
"sailing-trial","168","1112835","0.0-11.0-131.0","","","","false","","","","","","","","","","null","","1797","","3","1","null","null","arrowup","[0.15,0.85,0.325,0.675]","","",""
"sailing-trial","169","1117224","0.0-11.0-132.0","","","","false","","","","","","","","","","714.7999999998137","","426.79999999981374","","3","1","arrowright","1","arrowright","[0.15,0.85,0.325,0.675]","","",""
"sailing-trial","170","1120473","0.0-11.0-133.0","","","","false","","","","","","","","","","null","","1376.0999999996275","","1","1","null","null","arrowup","[0.15,0.85,0.325,0.675]","","",""
"sailing-trial","171","1124150","0.0-11.0-134.0","","","","false","","","","","","","","","","686.7000000001863","","180.69999999925494","","3","1","arrowright","1","arrowright","[0.15,0.85,0.325,0.675]","","",""
"sailing-trial","172","1127698","0.0-11.0-135.0","","","","false","","","","","","","","","","null","","1713.2999999998137","","1","1","null","null","arrowup","[0.15,0.85,0.325,0.675]","","",""
"sailing-trial","173","1132741","0.0-11.0-136.0","","","","false","","","","","","","","","","1605","","510.5","","3","1","arrowright","1","arrowright","[0.15,0.85,0.325,0.675]","","",""
"sailing-trial","174","1138938","0.0-11.0-137.0","","","","false","","","","","","","","","","null","","4532.299999999814","","2","0","null","null","arrowup","[0.15,0.85,0.325,0.675]","","",""
"sailing-trial","175","1144569","0.0-11.0-138.0","","","","false","","","","","","","","","","1352.7999999998137","","648.2000000001863","","3","1","arrowright","1","arrowright","[0.15,0.85,0.325,0.675]","","",""
"sailing-trial","176","1148709","0.0-11.0-139.0","","","","false","","","","","","","","","","null","","1131.2999999998137","","2","0","null","null","arrowup","[0.15,0.85,0.325,0.675]","","",""
"sailing-trial","177","1153825","0.0-11.0-140.0","","","","false","","","","","","","","","","748.5999999996275","","629.9000000003725","","3","1","arrowright","1","arrowright","[0.325,0.675,0.15,0.85]","","",""
"sailing-trial","178","1158768","0.0-11.0-141.0","","","","false","","","","","","","","","","null","","1938.4000000003725","","2","0","null","null","arrowup","[0.325,0.675,0.15,0.85]","","",""
"sailing-trial","179","1163568","0.0-11.0-142.0","","","","false","","","","","","","","","","1418","","499.70000000018626","","3","1","arrowright","1","arrowright","[0.325,0.675,0.15,0.85]","","",""
"sailing-trial","180","1168298","0.0-11.0-143.0","","","","false","","","","","","","","","","null","","2800.4000000003725","","1","1","null","null","arrowup","[0.325,0.675,0.15,0.85]","","",""
"sailing-trial","181","1172184","0.0-11.0-144.0","","","","false","","","","","","","","","","647.2000000001863","","222.5","","1","0","arrowleft","0","arrowright","[0.325,0.675,0.15,0.85]","","",""
"sailing-trial","182","1175390","0.0-11.0-145.0","","","","false","","","","","","","","","","null","","1390.9000000003725","","3","1","null","null","arrowup","[0.325,0.675,0.15,0.85]","","",""
"sailing-trial","183","1178913","0.0-11.0-146.0","","","","false","","","","","","","","","","530.7000000001863","","268.40000000037253","","3","1","arrowright","1","arrowright","[0.325,0.675,0.15,0.85]","","",""
"sailing-trial","184","1181214","0.0-11.0-147.0","","","","false","","","","","","","","","","null","","943.2999999998137","","0","0","null","null","arrowup","[0.325,0.675,0.15,0.85]","","",""
"sailing-trial","185","1186638","0.0-11.0-148.0","","","","false","","","","","","","","","","800.7999999998137","","1067.7999999998137","","3","1","arrowright","1","arrowright","[0.325,0.675,0.15,0.85]","","",""
"sailing-trial","186","1189778","0.0-11.0-149.0","","","","false","","","","","","","","","","null","","2074.2999999998137","","2","0","null","null","arrowup","[0.325,0.675,0.15,0.85]","","",""
"sailing-trial","187","1192867","0.0-11.0-150.0","","","","false","","","","","","","","","","621.5","","416.59999999962747","","3","0","arrowright","1","arrowright","[0.325,0.675,0.15,0.85]","","",""
"sailing-trial","188","1198009","0.0-11.0-151.0","","","","false","","","","","","","","","","null","","2111.5999999996275","","2","0","null","null","arrowup","[0.325,0.675,0.15,0.85]","","",""
"sailing-trial","189","1201992","0.0-11.0-152.0","","","","false","","","","","","","","","","860.1000000005588","","377","","1","1","arrowleft","0","arrowright","[0.325,0.675,0.15,0.85]","","",""
"sailing-trial","190","1205450","0.0-11.0-153.0","","","","false","","","","","","","","","","null","","2184.0999999996275","","0","0","null","null","arrowup","[0.325,0.675,0.15,0.85]","","",""
"sailing-trial","191","1211085","0.0-11.0-154.0","","","","false","","","","","","","","","","1114.5","","1260.6000000005588","","3","1","arrowright","1","arrowright","[0.325,0.675,0.15,0.85]","","",""
"sailing-trial","192","1213405","0.0-11.0-155.0","","","","false","","","","","","","","","","null","","1149.9000000003725","","0","0","null","null","arrowup","[0.325,0.675,0.15,0.85]","","",""
"sailing-trial","193","1217073","0.0-11.0-156.0","","","","false","","","","","","","","","","688.0999999996275","","65.40000000037253","","3","1","arrowright","1","arrowright","[0.325,0.675,0.15,0.85]","","",""
"sailing-trial","194","1220613","0.0-11.0-157.0","","","","false","","","","","","","","","","null","","1793","","2","0","null","null","arrowup","[0.325,0.675,0.15,0.85]","","",""
"sailing-trial","195","1224212","0.0-11.0-158.0","","","","false","","","","","","","","","","607","","133.79999999981374","","1","0","arrowleft","0","arrowright","[0.675,0.325,0.85,0.15]","","",""
"sailing-trial","196","1228672","0.0-11.0-159.0","","","","false","","","","","","","","","","null","","2684.2999999998137","","0","1","null","null","arrowup","[0.675,0.325,0.85,0.15]","","",""
"sailing-trial","197","1234732","0.0-11.0-160.0","","","","false","","","","","","","","","","382.90000000037253","","2385.699999999255","","3","1","arrowright","1","arrowright","[0.675,0.325,0.85,0.15]","","",""
"sailing-trial","198","1239929","0.0-11.0-161.0","","","","false","","","","","","","","","","null","","2903.4000000003725","","0","1","null","null","arrowup","[0.675,0.325,0.85,0.15]","","",""
"sailing-trial","199","1246536","0.0-11.0-162.0","","","","false","","","","","","","","","","4258.200000000186","","19.700000000186265","","3","0","arrowright","1","arrowright","[0.675,0.325,0.85,0.15]","","",""
"sailing-trial","200","1250776","0.0-11.0-163.0","","","","false","","","","","","","","","","null","","1239.7000000001863","","3","0","null","null","arrowup","[0.675,0.325,0.85,0.15]","","",""
"sailing-trial","201","1258090","0.0-11.0-164.0","","","","false","","","","","","","","","","4296.9000000003725","","91.90000000037253","","3","0","arrowright","1","arrowright","[0.675,0.325,0.85,0.15]","","",""
"sailing-trial","202","1261579","0.0-11.0-165.0","","","","false","","","","","","","","","","null","","983.4000000003725","","3","0","null","null","arrowup","[0.675,0.325,0.85,0.15]","","",""
"sailing-trial","203","1265387","0.0-11.0-166.0","","","","false","","","","","","","","","","618.3999999994412","","460.6000000005588","","3","0","arrowright","1","arrowright","[0.675,0.325,0.85,0.15]","","",""
"sailing-trial","204","1280394","0.0-11.0-167.0","","","","true","","","","","","","","","","null","","null","","null","null","null","null","null","[0.675,0.325,0.85,0.15]","","",""
"sailing-trial","205","1285824","0.0-11.0-168.0","","","","false","","","","","","","","","","1380.1000000005588","","22.299999999813735","","3","0","arrowright","1","arrowright","[0.675,0.325,0.85,0.15]","","",""
"sailing-trial","206","1288878","0.0-11.0-169.0","","","","false","","","","","","","","","","null","","1825.5","","1","0","null","null","arrowup","[0.675,0.325,0.85,0.15]","","",""
"sailing-trial","207","1292934","0.0-11.0-170.0","","","","false","","","","","","","","","","746.5","","198.70000000018626","","3","1","arrowright","1","arrowright","[0.675,0.325,0.85,0.15]","","",""
"sailing-trial","208","1296148","0.0-11.0-171.0","","","","false","","","","","","","","","","null","","1153.5","","0","1","null","null","arrowup","[0.675,0.325,0.85,0.15]","","",""
"sailing-trial","209","1300078","0.0-11.0-172.0","","","","false","","","","","","","","","","911.2999999998137","","255.3999999994412","","1","0","arrowleft","0","arrowright","[0.675,0.325,0.85,0.15]","","",""
"sailing-trial","210","1304273","0.0-11.0-173.0","","","","false","","","","","","","","","","null","","1807","","3","1","null","null","arrowup","[0.675,0.325,0.85,0.15]","","",""
"sailing-trial","211","1309766","0.0-11.0-174.0","","","","false","","","","","","","","","","2308.7999999998137","","156.59999999962747","","3","1","arrowright","1","arrowright","[0.15,0.85,0.325,0.675]","","",""
"sailing-trial","212","1312706","0.0-11.0-175.0","","","","false","","","","","","","","","","null","","1579.7000000001863","","0","0","null","null","arrowup","[0.15,0.85,0.325,0.675]","","",""
"sailing-trial","213","1316153","0.0-11.0-176.0","","","","false","","","","","","","","","","550.7999999998137","","273.59999999962747","","3","1","arrowright","1","arrowright","[0.15,0.85,0.325,0.675]","","",""
"sailing-trial","214","1319801","0.0-11.0-177.0","","","","false","","","","","","","","","","null","","1455.7000000001863","","0","1","null","null","arrowup","[0.15,0.85,0.325,0.675]","","",""
"sailing-trial","215","1323658","0.0-11.0-178.0","","","","false","","","","","","","","","","632.7999999998137","","109.79999999981374","","3","1","arrowright","1","arrowright","[0.15,0.85,0.325,0.675]","","",""
"sailing-trial","216","1327477","0.0-11.0-179.0","","","","false","","","","","","","","","","null","","2006.9000000003725","","3","0","null","null","arrowup","[0.15,0.85,0.325,0.675]","","",""
"sailing-trial","217","1331485","0.0-11.0-180.0","","","","false","","","","","","","","","","1443.800000000745","","7.1000000005587935","","1","1","arrowleft","0","arrowright","[0.15,0.85,0.325,0.675]","","",""
"sailing-trial","218","1337126","0.0-11.0-181.0","","","","false","","","","","","","","","","null","","2641.4000000003725","","3","0","null","null","arrowup","[0.15,0.85,0.325,0.675]","","",""
"sailing-trial","219","1341826","0.0-11.0-182.0","","","","false","","","","","","","","","","818.1999999992549","","103","","3","1","arrowright","1","arrowright","[0.15,0.85,0.325,0.675]","","",""
"sailing-trial","220","1344756","0.0-11.0-183.0","","","","false","","","","","","","","","","null","","974.8999999994412","","1","1","null","null","arrowup","[0.15,0.85,0.325,0.675]","","",""
"sailing-trial","221","1349732","0.0-11.0-184.0","","","","false","","","","","","","","","","1169.2999999998137","","899.2999999998137","","1","1","arrowleft","0","arrowright","[0.15,0.85,0.325,0.675]","","",""
"sailing-trial","222","1354729","0.0-11.0-185.0","","","","false","","","","","","","","","","null","","3132.5","","3","1","null","null","arrowup","[0.15,0.85,0.325,0.675]","","",""
"sailing-trial","223","1358558","0.0-11.0-186.0","","","","false","","","","","","","","","","788.8999999994412","","241.5","","3","1","arrowright","1","arrowright","[0.15,0.85,0.325,0.675]","","",""
"sailing-trial","224","1360879","0.0-11.0-187.0","","","","false","","","","","","","","","","null","","989.7999999998137","","2","0","null","null","arrowup","[0.15,0.85,0.325,0.675]","","",""
"sailing-trial","225","1364964","0.0-11.0-188.0","","","","false","","","","","","","","","","776.2999999998137","","332.40000000037253","","1","1","arrowleft","0","arrowright","[0.15,0.85,0.325,0.675]","","",""
"sailing-trial","226","1367811","0.0-11.0-189.0","","","","false","","","","","","","","","","null","","910.9000000003725","","3","1","null","null","arrowup","[0.15,0.85,0.325,0.675]","","",""
"sailing-trial","227","1371691","0.0-11.0-190.0","","","","false","","","","","","","","","","636.7000000001863","","508.79999999981374","","3","1","arrowright","1","arrowright","[0.15,0.85,0.325,0.675]","","",""
"sailing-trial","228","1374839","0.0-11.0-191.0","","","","false","","","","","","","","","","null","","931.8000000007451","","3","1","null","null","arrowup","[0.15,0.85,0.325,0.675]","","",""
"sailing-trial","229","1383702","0.0-11.0-192.0","","","","false","","","","","","","","","","2554.9000000003725","","1002.0999999996275","","3","1","arrowright","1","arrowright","[0.15,0.85,0.325,0.675]","","",""
"sailing-trial","230","1386371","0.0-11.0-193.0","","","","false","","","","","","","","","","null","","1279","","0","0","null","null","arrowup","[0.15,0.85,0.325,0.675]","","",""
"sailing-trial","231","1393973","0.0-11.0-194.0","","","","false","","","","","","","","","","3119.7000000001863","","420.29999999981374","","3","1","arrowright","1","arrowright","[0.325,0.675,0.15,0.85]","","",""
"sailing-trial","232","1397562","0.0-11.0-195.0","","","","false","","","","","","","","","","null","","2215.7000000001863","","2","0","null","null","arrowup","[0.325,0.675,0.15,0.85]","","",""
"sailing-trial","233","1402386","0.0-11.0-196.0","","","","false","","","","","","","","","","591.8999999994412","","1317.0999999996275","","3","1","arrowright","1","arrowright","[0.325,0.675,0.15,0.85]","","",""
"sailing-trial","234","1404730","0.0-11.0-197.0","","","","false","","","","","","","","","","null","","984.8999999994412","","1","0","null","null","arrowup","[0.325,0.675,0.15,0.85]","","",""
"sailing-trial","235","1407852","0.0-11.0-198.0","","","","false","","","","","","","","","","648.9000000003725","","228.29999999981374","","3","0","arrowright","1","arrowright","[0.325,0.675,0.15,0.85]","","",""
"sailing-trial","236","1410625","0.0-11.0-199.0","","","","false","","","","","","","","","","null","","1075.5","","2","0","null","null","arrowup","[0.325,0.675,0.15,0.85]","","",""
"sailing-trial","237","1414155","0.0-11.0-200.0","","","","false","","","","","","","","","","552","","71.79999999981374","","1","1","arrowleft","0","arrowright","[0.325,0.675,0.15,0.85]","","",""
"sailing-trial","238","1417718","0.0-11.0-201.0","","","","false","","","","","","","","","","null","","1438","","3","1","null","null","arrowup","[0.325,0.675,0.15,0.85]","","",""
"sailing-trial","239","1421260","0.0-11.0-202.0","","","","false","","","","","","","","","","531","","69.29999999981374","","3","1","arrowright","1","arrowright","[0.325,0.675,0.15,0.85]","","",""
"sailing-trial","240","1424109","0.0-11.0-203.0","","","","false","","","","","","","","","","null","","749.8999999994412","","3","1","null","null","arrowup","[0.325,0.675,0.15,0.85]","","",""
"sailing-trial","241","1427752","0.0-11.0-204.0","","","","false","","","","","","","","","","613.0999999996275","","122","","1","1","arrowleft","0","arrowright","[0.325,0.675,0.15,0.85]","","",""
"sailing-trial","242","1430149","0.0-11.0-205.0","","","","false","","","","","","","","","","null","","930.6000000005588","","2","0","null","null","arrowup","[0.325,0.675,0.15,0.85]","","",""
"sailing-trial","243","1433760","0.0-11.0-206.0","","","","false","","","","","","","","","","717.5","","62.799999999813735","","1","1","arrowleft","0","arrowright","[0.325,0.675,0.15,0.85]","","",""
"sailing-trial","244","1437824","0.0-11.0-207.0","","","","false","","","","","","","","","","null","","2146.5999999996275","","1","1","null","null","arrowup","[0.325,0.675,0.15,0.85]","","",""
"sailing-trial","245","1441082","0.0-11.0-208.0","","","","false","","","","","","","","","","596.2999999998137","","198.20000000018626","","1","0","arrowleft","0","arrowright","[0.325,0.675,0.15,0.85]","","",""
"sailing-trial","246","1443691","0.0-11.0-209.0","","","","false","","","","","","","","","","null","","1223.7999999998137","","2","0","null","null","arrowup","[0.325,0.675,0.15,0.85]","","",""
"sailing-trial","247","1450292","0.0-11.0-210.0","","","","false","","","","","","","","","","807.7000000001863","","2732.5","","3","1","arrowright","1","arrowright","[0.325,0.675,0.15,0.85]","","",""
"sailing-trial","248","1453639","0.0-11.0-211.0","","","","false","","","","","","","","","","null","","881.3000000007451","","1","1","null","null","arrowup","[0.325,0.675,0.15,0.85]","","",""
"sailing-trial","249","1458701","0.0-11.0-212.0","","","","false","","","","","","","","","","694.2999999998137","","718.9000000003725","","3","1","arrowright","1","arrowright","[0.325,0.675,0.15,0.85]","","",""
"sailing-trial","250","1461040","0.0-11.0-213.0","","","","false","","","","","","","","","","null","","999","","0","0","null","null","arrowup","[0.325,0.675,0.15,0.85]","","",""
"sailing-trial","251","1465667","0.0-11.0-214.0","","","","false","","","","","","","","","","528.0999999996275","","66.19999999925494","","3","0","arrowright","1","arrowright","[0.85,0.15,0.675,0.325]","","",""
"sailing-trial","252","1468351","0.0-11.0-215.0","","","","false","","","","","","","","","","null","","1554.699999999255","","1","0","null","null","arrowup","[0.85,0.15,0.675,0.325]","","",""
"sailing-trial","253","1473375","0.0-11.0-216.0","","","","false","","","","","","","","","","861","","147.70000000018626","","3","0","arrowright","1","arrowright","[0.85,0.15,0.675,0.325]","","",""
"sailing-trial","254","1477182","0.0-11.0-217.0","","","","false","","","","","","","","","","null","","1583.5999999996275","","0","1","null","null","arrowup","[0.85,0.15,0.675,0.325]","","",""
"sailing-trial","255","1481188","0.0-11.0-218.0","","","","false","","","","","","","","","","778.3999999994412","","182.20000000018626","","3","1","arrowright","1","arrowright","[0.85,0.15,0.675,0.325]","","",""
"sailing-trial","256","1484821","0.0-11.0-219.0","","","","false","","","","","","","","","","null","","1521.5999999996275","","3","1","null","null","arrowup","[0.85,0.15,0.675,0.325]","","",""
"sailing-trial","257","1491346","0.0-11.0-220.0","","","","false","","","","","","","","","","733.0999999996275","","309.5","","3","1","arrowright","1","arrowright","[0.85,0.15,0.675,0.325]","","",""
"sailing-trial","258","1494260","0.0-11.0-221.0","","","","false","","","","","","","","","","null","","985","","2","1","null","null","arrowup","[0.85,0.15,0.675,0.325]","","",""
"sailing-trial","259","1499111","0.0-11.0-222.0","","","","false","","","","","","","","","","570.7999999998137","","258.19999999925494","","1","0","arrowleft","0","arrowright","[0.85,0.15,0.675,0.325]","","",""
"sailing-trial","260","1503273","0.0-11.0-223.0","","","","false","","","","","","","","","","null","","1489.7000000001863","","2","0","null","null","arrowup","[0.85,0.15,0.675,0.325]","","",""
"sailing-trial","261","1506693","0.0-11.0-224.0","","","","false","","","","","","","","","","665.5","","392.79999999981374","","3","0","arrowright","1","arrowright","[0.85,0.15,0.675,0.325]","","",""
"sailing-trial","262","1511183","0.0-11.0-225.0","","","","false","","","","","","","","","","null","","3401.2999999998137","","1","0","null","null","arrowup","[0.85,0.15,0.675,0.325]","","",""
"sailing-trial","263","1519943","0.0-11.0-226.0","","","","false","","","","","","","","","","2832.699999999255","","2237.100000000559","","1","1","arrowleft","0","arrowright","[0.85,0.15,0.675,0.325]","","",""
"sailing-trial","264","1526236","0.0-11.0-227.0","","","","false","","","","","","","","","","null","","4670.4000000003725","","1","1","null","null","arrowup","[0.85,0.15,0.675,0.325]","","",""
"sailing-trial","265","1532393","0.0-11.0-228.0","","","","false","","","","","","","","","","1002.4000000003725","","2957.0999999996275","","3","0","arrowright","1","arrowright","[0.85,0.15,0.675,0.325]","","",""
"sailing-trial","266","1535529","0.0-11.0-229.0","","","","false","","","","","","","","","","null","","890.1000000005588","","0","1","null","null","arrowup","[0.85,0.15,0.675,0.325]","","",""
"sailing-trial","267","1546865","0.0-11.0-230.0","","","","false","","","","","","","","","","7009.700000000186","","292.30000000074506","","1","0","arrowleft","0","arrowright","[0.85,0.15,0.675,0.325]","","",""
"sailing-trial","268","1552165","0.0-11.0-231.0","","","","false","","","","","","","","","","null","","2289.199999999255","","2","0","null","null","arrowup","[0.85,0.15,0.675,0.325]","","",""
"sailing-trial","269","1557997","0.0-11.0-232.0","","","","false","","","","","","","","","","2128.2999999998137","","327.5","","3","1","arrowright","1","arrowright","[0.85,0.15,0.675,0.325]","","",""
"sailing-trial","270","1562279","0.0-11.0-233.0","","","","false","","","","","","","","","","null","","1854.0999999996275","","1","1","null","null","arrowup","[0.85,0.15,0.675,0.325]","","",""
"sailing-trial","271","1568329","0.0-11.0-234.0","","","","false","","","","","","","","","","1923","","119.5","","3","0","arrowright","1","arrowright","[0.675,0.325,0.85,0.15]","","",""
"sailing-trial","272","1583336","0.0-11.0-235.0","","","","true","","","","","","","","","","null","","null","","null","null","null","null","null","[0.675,0.325,0.85,0.15]","","",""
"sailing-trial","273","1588957","0.0-11.0-236.0","","","","false","","","","","","","","","","1151.2999999998137","","449.80000000074506","","3","0","arrowright","1","arrowright","[0.675,0.325,0.85,0.15]","","",""
"sailing-trial","274","1591091","0.0-11.0-237.0","","","","false","","","","","","","","","","null","","862.5","","3","0","null","null","arrowup","[0.675,0.325,0.85,0.15]","","",""
"sailing-trial","275","1594323","0.0-11.0-238.0","","","","false","","","","","","","","","","742.4000000003725","","200.20000000018626","","3","0","arrowright","1","arrowright","[0.675,0.325,0.85,0.15]","","",""
"sailing-trial","276","1597172","0.0-11.0-239.0","","","","false","","","","","","","","","","null","","1167.2000000001863","","2","1","null","null","arrowup","[0.675,0.325,0.85,0.15]","","",""
"sailing-trial","277","1600164","0.0-11.0-240.0","","","","false","","","","","","","","","","424.40000000037253","","190.70000000018626","","1","0","arrowleft","0","arrowright","[0.675,0.325,0.85,0.15]","","",""
"sailing-trial","278","1602474","0.0-11.0-241.0","","","","false","","","","","","","","","","null","","1265.7000000001863","","3","0","null","null","arrowup","[0.675,0.325,0.85,0.15]","","",""
"sailing-trial","279","1606098","0.0-11.0-242.0","","","","false","","","","","","","","","","595.7999999998137","","34.5","","3","1","arrowright","1","arrowright","[0.675,0.325,0.85,0.15]","","",""
"sailing-trial","280","1608485","0.0-11.0-243.0","","","","false","","","","","","","","","","null","","1018.8999999994412","","1","0","null","null","arrowup","[0.675,0.325,0.85,0.15]","","",""
"sailing-trial","281","1612653","0.0-11.0-244.0","","","","false","","","","","","","","","","1024.0999999996275","","797.9000000003725","","1","0","arrowleft","0","arrowright","[0.675,0.325,0.85,0.15]","","",""
"sailing-trial","282","1617884","0.0-11.0-245.0","","","","false","","","","","","","","","","null","","3472.2999999998137","","0","0","null","null","arrowup","[0.675,0.325,0.85,0.15]","","",""
"sailing-trial","283","1624139","0.0-11.0-246.0","","","","false","","","","","","","","","","3226.800000000745","","79.70000000018626","","3","0","arrowright","1","arrowright","[0.675,0.325,0.85,0.15]","","",""
"sailing-trial","284","1632513","0.0-11.0-247.0","","","","false","","","","","","","","","","null","","6005.4000000003725","","0","1","null","null","arrowup","[0.675,0.325,0.85,0.15]","","",""
"sailing-trial","285","1639193","0.0-11.0-248.0","","","","false","","","","","","","","","","4058.2999999998137","","87.70000000018626","","3","0","arrowright","1","arrowright","[0.675,0.325,0.85,0.15]","","",""
"sailing-trial","286","1643232","0.0-11.0-249.0","","","","false","","","","","","","","","","null","","2593.100000000559","","1","0","null","null","arrowup","[0.675,0.325,0.85,0.15]","","",""
"sailing-trial","287","1651492","0.0-11.0-250.0","","","","false","","","","","","","","","","3343.4000000003725","","34.80000000074506","","3","1","arrowright","1","arrowright","[0.85,0.15,0.675,0.325]","","",""
"sailing-trial","288","1655687","0.0-11.0-251.0","","","","false","","","","","","","","","","null","","2640.399999999441","","2","1","null","null","arrowup","[0.85,0.15,0.675,0.325]","","",""
"sailing-trial","289","1658115","0.0-11.0-252.0","","","","false","","","","","","","","","","39.09999999962747","","169.40000000037253","","3","0","arrowright","1","arrowright","[0.85,0.15,0.675,0.325]","","",""
"sailing-trial","290","1660665","0.0-11.0-253.0","","","","false","","","","","","","","","","null","","1156.0999999996275","","3","0","null","null","arrowup","[0.85,0.15,0.675,0.325]","","",""
"sailing-trial","291","1663755","0.0-11.0-254.0","","","","false","","","","","","","","","","640.1999999992549","","178.79999999981374","","3","0","arrowright","1","arrowright","[0.85,0.15,0.675,0.325]","","",""
"sailing-trial","292","1666407","0.0-11.0-255.0","","","","false","","","","","","","","","","null","","1043.4000000003725","","2","1","null","null","arrowup","[0.85,0.15,0.675,0.325]","","",""
"sailing-trial","293","1670089","0.0-11.0-256.0","","","","false","","","","","","","","","","95.59999999962747","","681","","0","1","arrowleft","0","arrowleft","[0.85,0.15,0.675,0.325]","","",""
"sailing-trial","294","1672510","0.0-11.0-257.0","","","","false","","","","","","","","","","null","","948.5","","1","0","null","null","arrowup","[0.85,0.15,0.675,0.325]","","",""
"sailing-trial","295","1676612","0.0-11.0-258.0","","","","false","","","","","","","","","","620.7999999998137","","579.5","","0","1","arrowleft","0","arrowleft","[0.85,0.15,0.675,0.325]","","",""
"sailing-trial","296","1679345","0.0-11.0-259.0","","","","false","","","","","","","","","","null","","811.4000000003725","","3","1","null","null","arrowup","[0.85,0.15,0.675,0.325]","","",""
"sailing-trial","297","1682083","0.0-11.0-260.0","","","","false","","","","","","","","","","347.69999999925494","","33.5","","0","0","arrowleft","0","arrowleft","[0.85,0.15,0.675,0.325]","","",""
"sailing-trial","298","1684131","0.0-11.0-261.0","","","","false","","","","","","","","","","null","","981","","2","0","null","null","arrowup","[0.85,0.15,0.675,0.325]","","",""
"sailing-trial","299","1688886","0.0-11.0-262.0","","","","false","","","","","","","","","","672.2999999998137","","74.40000000037253","","3","0","arrowright","1","arrowright","[0.85,0.15,0.675,0.325]","","",""
"sailing-trial","300","1692988","0.0-11.0-263.0","","","","false","","","","","","","","","","null","","2950.899999999441","","3","0","null","null","arrowup","[0.85,0.15,0.675,0.325]","","",""
"sailing-trial","301","1696788","0.0-11.0-264.0","","","","false","","","","","","","","","","549.6000000005588","","453.59999999962747","","2","1","arrowright","1","arrowleft","[0.85,0.15,0.675,0.325]","","",""
"sailing-trial","302","1698992","0.0-11.0-265.0","","","","false","","","","","","","","","","null","","1028.7999999998137","","3","0","null","null","arrowup","[0.85,0.15,0.675,0.325]","","",""
"sailing-trial","303","1704400","0.0-11.0-266.0","","","","false","","","","","","","","","","562.7000000001863","","837","","2","0","arrowright","1","arrowleft","[0.15,0.85,0.325,0.675]","","",""
"sailing-trial","304","1706570","0.0-11.0-267.0","","","","false","","","","","","","","","","null","","1035.4000000003725","","3","0","null","null","arrowup","[0.15,0.85,0.325,0.675]","","",""
"sailing-trial","305","1709652","0.0-11.0-268.0","","","","false","","","","","","","","","","527.5","","103.30000000074506","","2","0","arrowright","1","arrowleft","[0.15,0.85,0.325,0.675]","","",""
"sailing-trial","306","1712211","0.0-11.0-269.0","","","","false","","","","","","","","","","null","","1024.6000000005588","","1","1","null","null","arrowup","[0.15,0.85,0.325,0.675]","","",""
"sailing-trial","307","1715173","0.0-11.0-270.0","","","","false","","","","","","","","","","568.6999999992549","","92.90000000037253","","2","0","arrowright","1","arrowleft","[0.15,0.85,0.325,0.675]","","",""
"sailing-trial","308","1717306","0.0-11.0-271.0","","","","false","","","","","","","","","","null","","1122.1000000005588","","2","0","null","null","arrowup","[0.15,0.85,0.325,0.675]","","",""
"sailing-trial","309","1720379","0.0-11.0-272.0","","","","false","","","","","","","","","","788.3999999994412","","104.1000000005588","","3","0","arrowright","1","arrowright","[0.15,0.85,0.325,0.675]","","",""
"sailing-trial","310","1722459","0.0-11.0-273.0","","","","false","","","","","","","","","","null","","1058.7000000001863","","0","0","null","null","arrowup","[0.15,0.85,0.325,0.675]","","",""
"sailing-trial","311","1725739","0.0-11.0-274.0","","","","false","","","","","","","","","","629.9000000003725","","79","","1","1","arrowleft","0","arrowright","[0.15,0.85,0.325,0.675]","","",""
"sailing-trial","312","1727763","0.0-11.0-275.0","","","","false","","","","","","","","","","null","","708.5999999996275","","2","0","null","null","arrowup","[0.15,0.85,0.325,0.675]","","",""
"sailing-trial","313","1731162","0.0-11.0-276.0","","","","false","","","","","","","","","","851.6999999992549","","146.20000000018626","","3","0","arrowright","1","arrowright","[0.15,0.85,0.325,0.675]","","",""
"sailing-trial","314","1733418","0.0-11.0-277.0","","","","false","","","","","","","","","","null","","899.3999999994412","","0","0","null","null","arrowup","[0.15,0.85,0.325,0.675]","","",""
"sailing-trial","315","1736449","0.0-11.0-278.0","","","","false","","","","","","","","","","793.1999999992549","","153","","3","0","arrowright","1","arrowright","[0.15,0.85,0.325,0.675]","","",""
"sailing-trial","316","1739149","0.0-11.0-279.0","","","","false","","","","","","","","","","null","","1660","","0","0","null","null","arrowup","[0.15,0.85,0.325,0.675]","","",""
"sailing-trial","317","1745660","0.0-11.0-280.0","","","","false","","","","","","","","","","2391.7000000001863","","75.6000000005588","","3","0","arrowright","1","arrowright","[0.15,0.85,0.325,0.675]","","",""
"sailing-trial","318","1748139","0.0-11.0-281.0","","","","false","","","","","","","","","","null","","849.5","","1","1","null","null","arrowup","[0.15,0.85,0.325,0.675]","","",""
"sailing-trial","319","1752881","0.0-11.0-282.0","","","","false","","","","","","","","","","987.7999999998137","","252.40000000037253","","3","1","arrowright","1","arrowright","[0.15,0.85,0.325,0.675]","","",""
"sailing-trial","320","1755748","0.0-11.0-283.0","","","","false","","","","","","","","","","null","","1206.9000000003725","","1","1","null","null","arrowup","[0.15,0.85,0.325,0.675]","","",""
"sailing-trial","321","1761428","0.0-11.0-284.0","","","","false","","","","","","","","","","1213.2000000001863","","443.5","","3","0","arrowright","1","arrowright","[0.85,0.15,0.675,0.325]","","",""
"sailing-trial","322","1765288","0.0-11.0-285.0","","","","false","","","","","","","","","","null","","2573.2000000001863","","1","0","null","null","arrowup","[0.85,0.15,0.675,0.325]","","",""
"sailing-trial","323","1771702","0.0-11.0-286.0","","","","false","","","","","","","","","","1690.0999999996275","","708.3999999994412","","1","0","arrowleft","0","arrowright","[0.85,0.15,0.675,0.325]","","",""
"sailing-trial","324","1774054","0.0-11.0-287.0","","","","false","","","","","","","","","","null","","136.09999999962747","","1","1","null","null","arrowup","[0.85,0.15,0.675,0.325]","","",""
"sailing-trial","325","1778069","0.0-11.0-288.0","","","","false","","","","","","","","","","627.2000000001863","","450.30000000074506","","1","0","arrowleft","0","arrowright","[0.85,0.15,0.675,0.325]","","",""
"sailing-trial","326","1780174","0.0-11.0-289.0","","","","false","","","","","","","","","","null","","1016.7000000001863","","1","0","null","null","arrowup","[0.85,0.15,0.675,0.325]","","",""
"sailing-trial","327","1785810","0.0-11.0-290.0","","","","false","","","","","","","","","","452.20000000018626","","10.400000000372529","","3","1","arrowright","1","arrowright","[0.85,0.15,0.675,0.325]","","",""
"sailing-trial","328","1789474","0.0-11.0-291.0","","","","false","","","","","","","","","","null","","1619.7999999998137","","1","0","null","null","arrowup","[0.85,0.15,0.675,0.325]","","",""
"sailing-trial","329","1792046","0.0-11.0-292.0","","","","false","","","","","","","","","","261.59999999962747","","150.70000000018626","","3","0","arrowright","1","arrowright","[0.85,0.15,0.675,0.325]","","",""
"sailing-trial","330","1795839","0.0-11.0-293.0","","","","false","","","","","","","","","","null","","1993.5","","0","1","null","null","arrowup","[0.85,0.15,0.675,0.325]","","",""
"sailing-trial","331","1798312","0.0-11.0-294.0","","","","false","","","","","","","","","","52.10000000055879","","261.8999999994412","","3","0","arrowright","1","arrowright","[0.85,0.15,0.675,0.325]","","",""
"sailing-trial","332","1800962","0.0-11.0-295.0","","","","false","","","","","","","","","","null","","1212.7000000001863","","3","0","null","null","arrowup","[0.85,0.15,0.675,0.325]","","",""
"sailing-trial","333","1803999","0.0-11.0-296.0","","","","false","","","","","","","","","","770","","203.29999999981374","","3","0","arrowright","1","arrowright","[0.85,0.15,0.675,0.325]","","",""
"sailing-trial","334","1806666","0.0-11.0-297.0","","","","false","","","","","","","","","","null","","1077.5","","2","1","null","null","arrowup","[0.85,0.15,0.675,0.325]","","",""
"sailing-trial","335","1810360","0.0-11.0-298.0","","","","false","","","","","","","","","","437.3999999994412","","432.59999999962747","","0","1","arrowleft","0","arrowleft","[0.85,0.15,0.675,0.325]","","",""
"sailing-trial","336","1813275","0.0-11.0-299.0","","","","false","","","","","","","","","","null","","1124.7999999998137","","0","1","null","null","arrowup","[0.85,0.15,0.675,0.325]","","",""
"sailing-trial","337","1816823","0.0-11.0-300.0","","","","false","","","","","","","","","","598.8999999994412","","885.7000000001863","","2","0","arrowright","1","arrowleft","[0.85,0.15,0.675,0.325]","","",""
"sailing-trial","338","1819238","0.0-11.0-301.0","","","","false","","","","","","","","","","null","","893","","0","1","null","null","arrowup","[0.85,0.15,0.675,0.325]","","",""
"sailing-trial","339","1822081","0.0-11.0-302.0","","","","false","","","","","","","","","","158.5","","497.90000000037253","","0","0","arrowleft","0","arrowleft","[0.85,0.15,0.675,0.325]","","",""
"sailing-trial","340","1825045","0.0-11.0-303.0","","","","false","","","","","","","","","","null","","1881.5","","2","0","null","null","arrowup","[0.85,0.15,0.675,0.325]","","",""
"sailing-trial","341","1829316","0.0-11.0-304.0","","","","false","","","","","","","","","","988.1000000005588","","818.1999999992549","","1","0","arrowleft","0","arrowright","[0.85,0.15,0.675,0.325]","","",""
"sailing-trial","342","1831340","0.0-11.0-305.0","","","","false","","","","","","","","","","null","","905.0999999996275","","1","0","null","null","arrowup","[0.85,0.15,0.675,0.325]","","",""
"sailing-trial","343","1833950","0.0-11.0-306.0","","","","false","","","","","","","","","","300.29999999981374","","59","","3","0","arrowright","1","arrowright","[0.675,0.325,0.85,0.15]","","",""
"sailing-trial","344","1836678","0.0-11.0-307.0","","","","false","","","","","","","","","","null","","968.4000000003725","","0","1","null","null","arrowup","[0.675,0.325,0.85,0.15]","","",""
"sailing-trial","345","1839031","0.0-11.0-308.0","","","","false","","","","","","","","","","92.09999999962747","","120.5","","0","0","arrowleft","0","arrowleft","[0.675,0.325,0.85,0.15]","","",""
"sailing-trial","346","1841049","0.0-11.0-309.0","","","","false","","","","","","","","","","null","","744.2000000001863","","3","0","null","null","arrowup","[0.675,0.325,0.85,0.15]","","",""
"sailing-trial","347","1844234","0.0-11.0-310.0","","","","false","","","","","","","","","","533.7000000001863","","117.79999999981374","","2","1","arrowright","1","arrowleft","[0.675,0.325,0.85,0.15]","","",""
"sailing-trial","348","1846557","0.0-11.0-311.0","","","","false","","","","","","","","","","null","","246.40000000037253","","2","1","null","null","arrowup","[0.675,0.325,0.85,0.15]","","",""
"sailing-trial","349","1849622","0.0-11.0-312.0","","","","false","","","","","","","","","","56.59999999962747","","49.90000000037253","","2","1","arrowright","1","arrowleft","[0.675,0.325,0.85,0.15]","","",""
"sailing-trial","350","1852201","0.0-11.0-313.0","","","","false","","","","","","","","","","null","","1007.7000000001863","","2","1","null","null","arrowup","[0.675,0.325,0.85,0.15]","","",""
"sailing-trial","351","1855015","0.0-11.0-314.0","","","","false","","","","","","","","","","138.70000000018626","","20.800000000745058","","0","1","arrowleft","0","arrowleft","[0.675,0.325,0.85,0.15]","","",""
"sailing-trial","352","1857412","0.0-11.0-315.0","","","","false","","","","","","","","","","null","","1005.9000000003725","","3","0","null","null","arrowup","[0.675,0.325,0.85,0.15]","","",""
"sailing-trial","353","1859797","0.0-11.0-316.0","","","","false","","","","","","","","","","205.40000000037253","","15.200000000186265","","2","0","arrowright","1","arrowleft","[0.675,0.325,0.85,0.15]","","",""
"sailing-trial","354","1861849","0.0-11.0-317.0","","","","false","","","","","","","","","","null","","426.29999999981374","","2","1","null","null","arrowup","[0.675,0.325,0.85,0.15]","","",""
"sailing-trial","355","1864595","0.0-11.0-318.0","","","","false","","","","","","","","","","42.40000000037253","","109.8999999994412","","0","1","arrowleft","0","arrowleft","[0.675,0.325,0.85,0.15]","","",""
"sailing-trial","356","1867404","0.0-11.0-319.0","","","","false","","","","","","","","","","null","","1801.4000000003725","","0","0","null","null","arrowup","[0.675,0.325,0.85,0.15]","","",""
"sailing-trial","357","1869840","0.0-11.0-320.0","","","","false","","","","","","","","","","235.19999999925494","","125.20000000018626","","0","0","arrowleft","0","arrowleft","[0.675,0.325,0.85,0.15]","","",""
"sailing-trial","358","1872035","0.0-11.0-321.0","","","","false","","","","","","","","","","null","","1126.6000000005588","","1","0","null","null","arrowup","[0.675,0.325,0.85,0.15]","","",""
"sailing-trial","359","1875837","0.0-11.0-322.0","","","","false","","","","","","","","","","687.5","","30.699999999254942","","2","1","arrowright","1","arrowleft","[0.15,0.85,0.325,0.675]","","",""
"sailing-trial","360","1878383","0.0-11.0-323.0","","","","false","","","","","","","","","","null","","889.5999999996275","","3","1","null","null","arrowup","[0.15,0.85,0.325,0.675]","","",""
"sailing-trial","361","1881145","0.0-11.0-324.0","","","","false","","","","","","","","","","43.10000000055879","","161.29999999981374","","2","1","arrowright","1","arrowleft","[0.15,0.85,0.325,0.675]","","",""
"sailing-trial","362","1883019","0.0-11.0-325.0","","","","false","","","","","","","","","","null","","866.5","","0","0","null","null","arrowup","[0.15,0.85,0.325,0.675]","","",""
"sailing-trial","363","1885991","0.0-11.0-326.0","","","","false","","","","","","","","","","557","","244.09999999962747","","2","0","arrowright","1","arrowleft","[0.15,0.85,0.325,0.675]","","",""
"sailing-trial","364","1888125","0.0-11.0-327.0","","","","false","","","","","","","","","","null","","999.5999999996275","","2","0","null","null","arrowup","[0.15,0.85,0.325,0.675]","","",""
"sailing-trial","365","1891683","0.0-11.0-328.0","","","","false","","","","","","","","","","751.5","","273.40000000037253","","2","1","arrowright","1","arrowleft","[0.15,0.85,0.325,0.675]","","",""
"sailing-trial","366","1893775","0.0-11.0-329.0","","","","false","","","","","","","","","","null","","987.7999999998137","","3","0","null","null","arrowup","[0.15,0.85,0.325,0.675]","","",""
"sailing-trial","367","1896829","0.0-11.0-330.0","","","","false","","","","","","","","","","503","","218.29999999981374","","2","0","arrowright","1","arrowleft","[0.15,0.85,0.325,0.675]","","",""
"sailing-trial","368","1899277","0.0-11.0-331.0","","","","false","","","","","","","","","","null","","918.6000000005588","","2","1","null","null","arrowup","[0.15,0.85,0.325,0.675]","","",""
"sailing-trial","369","1902642","0.0-11.0-332.0","","","","false","","","","","","","","","","128.70000000018626","","592.7999999998137","","1","1","arrowleft","0","arrowright","[0.15,0.85,0.325,0.675]","","",""
"sailing-trial","370","1905238","0.0-11.0-333.0","","","","false","","","","","","","","","","null","","1035.2999999998137","","3","1","null","null","arrowup","[0.15,0.85,0.325,0.675]","","",""
"sailing-trial","371","1908158","0.0-11.0-334.0","","","","false","","","","","","","","","","56.799999999813735","","698.5999999996275","","0","0","arrowleft","0","arrowleft","[0.15,0.85,0.325,0.675]","","",""
"sailing-trial","372","1910260","0.0-11.0-335.0","","","","false","","","","","","","","","","null","","796.7999999998137","","3","0","null","null","arrowup","[0.15,0.85,0.325,0.675]","","",""
"sailing-trial","373","1912586","0.0-11.0-336.0","","","","false","","","","","","","","","","179.20000000018626","","87","","2","0","arrowright","1","arrowleft","[0.15,0.85,0.325,0.675]","","",""
"sailing-trial","374","1915157","0.0-11.0-337.0","","","","false","","","","","","","","","","null","","990.7999999998137","","1","1","null","null","arrowup","[0.15,0.85,0.325,0.675]","","",""
"sailing-trial","375","1918219","0.0-11.0-338.0","","","","false","","","","","","","","","","76.90000000037253","","820.8000000007451","","0","0","arrowleft","0","arrowleft","[0.15,0.85,0.325,0.675]","","",""
"sailing-trial","376","1920411","0.0-11.0-339.0","","","","false","","","","","","","","","","null","","968.1999999992549","","2","0","null","null","arrowup","[0.15,0.85,0.325,0.675]","","",""
"sailing-trial","377","1923440","0.0-11.0-340.0","","","","false","","","","","","","","","","254.1000000005588","","77.40000000037253","","2","1","arrowright","1","arrowleft","[0.15,0.85,0.325,0.675]","","",""
"sailing-trial","378","1925770","0.0-11.0-341.0","","","","false","","","","","","","","","","null","","1039.4000000003725","","2","0","null","null","arrowup","[0.15,0.85,0.325,0.675]","","",""
"sailing-trial","379","1930213","0.0-11.0-342.0","","","","false","","","","","","","","","","218","","361.40000000037253","","0","0","arrowleft","0","arrowleft","[0.325,0.675,0.15,0.85]","","",""
"sailing-trial","380","1933067","0.0-11.0-343.0","","","","false","","","","","","","","","","null","","1013.7000000001863","","3","1","null","null","arrowup","[0.325,0.675,0.15,0.85]","","",""
"sailing-trial","381","1935960","0.0-11.0-344.0","","","","false","","","","","","","","","","131.20000000018626","","314.09999999962747","","0","0","arrowleft","0","arrowleft","[0.325,0.675,0.15,0.85]","","",""
"sailing-trial","382","1937554","0.0-11.0-345.0","","","","false","","","","","","","","","","null","","134.1000000005588","","0","0","null","null","arrowup","[0.325,0.675,0.15,0.85]","","",""
"sailing-trial","383","1940434","0.0-11.0-346.0","","","","false","","","","","","","","","","560.5","","167.1000000005588","","2","0","arrowright","1","arrowleft","[0.325,0.675,0.15,0.85]","","",""
"sailing-trial","384","1942538","0.0-11.0-347.0","","","","false","","","","","","","","","","null","","959.6999999992549","","0","0","null","null","arrowup","[0.325,0.675,0.15,0.85]","","",""
"sailing-trial","385","1945764","0.0-11.0-348.0","","","","false","","","","","","","","","","263.79999999981374","","145.20000000018626","","3","1","arrowright","1","arrowright","[0.325,0.675,0.15,0.85]","","",""
"sailing-trial","386","1948812","0.0-11.0-349.0","","","","false","","","","","","","","","","null","","784.2000000001863","","3","1","null","null","arrowup","[0.325,0.675,0.15,0.85]","","",""
"sailing-trial","387","1951305","0.0-11.0-350.0","","","","false","","","","","","","","","","86","","15.100000000558794","","3","0","arrowright","1","arrowright","[0.325,0.675,0.15,0.85]","","",""
"sailing-trial","388","1953434","0.0-11.0-351.0","","","","false","","","","","","","","","","null","","1053.3999999994412","","0","0","null","null","arrowup","[0.325,0.675,0.15,0.85]","","",""
"sailing-trial","389","1957171","0.0-11.0-352.0","","","","false","","","","","","","","","","1129.7999999998137","","68","","1","1","arrowleft","0","arrowright","[0.325,0.675,0.15,0.85]","","",""
"sailing-trial","390","1959716","0.0-11.0-353.0","","","","false","","","","","","","","","","null","","907.0999999996275","","3","1","null","null","arrowup","[0.325,0.675,0.15,0.85]","","",""
"sailing-trial","391","1963054","0.0-11.0-354.0","","","","false","","","","","","","","","","642.7999999998137","","134.1000000005588","","1","1","arrowleft","0","arrowright","[0.325,0.675,0.15,0.85]","","",""
"sailing-trial","392","1965230","0.0-11.0-355.0","","","","false","","","","","","","","","","null","","1085.2000000001863","","2","0","null","null","arrowup","[0.325,0.675,0.15,0.85]","","",""
"sailing-trial","393","1967695","0.0-11.0-356.0","","","","false","","","","","","","","","","214.59999999962747","","119.5","","2","0","arrowright","1","arrowleft","[0.325,0.675,0.15,0.85]","","",""
"sailing-trial","394","1970366","0.0-11.0-357.0","","","","false","","","","","","","","","","null","","962.6999999992549","","0","1","null","null","arrowup","[0.325,0.675,0.15,0.85]","","",""
"sailing-trial","395","1972927","0.0-11.0-358.0","","","","false","","","","","","","","","","235.5","","160.79999999981374","","1","0","arrowleft","0","arrowright","[0.325,0.675,0.15,0.85]","","",""
"sailing-trial","396","1975512","0.0-11.0-359.0","","","","false","","","","","","","","","","null","","935.8999999994412","","3","1","null","null","arrowup","[0.325,0.675,0.15,0.85]","","",""
"sailing-trial","397","1978124","0.0-11.0-360.0","","","","false","","","","","","","","","","172.29999999981374","","336","","3","0","arrowright","1","arrowright","[0.15,0.85,0.325,0.675]","","",""
"sailing-trial","398","1981659","0.0-11.0-361.0","","","","false","","","","","","","","","","null","","526","","0","0","null","null","arrowup","[0.15,0.85,0.325,0.675]","","",""
"sailing-trial","399","1985356","0.0-11.0-362.0","","","","false","","","","","","","","","","652.1000000005588","","308.79999999981374","","3","1","arrowright","1","arrowright","[0.15,0.85,0.325,0.675]","","",""
"sailing-trial","400","1987971","0.0-11.0-363.0","","","","false","","","","","","","","","","null","","749","","3","1","null","null","arrowup","[0.15,0.85,0.325,0.675]","","",""
"sailing-trial","401","1992294","0.0-11.0-364.0","","","","false","","","","","","","","","","181.29999999981374","","92.29999999981374","","3","0","arrowright","1","arrowright","[0.15,0.85,0.325,0.675]","","",""
"sailing-trial","402","1995456","0.0-11.0-365.0","","","","false","","","","","","","","","","null","","1354.8999999994412","","2","0","null","null","arrowup","[0.15,0.85,0.325,0.675]","","",""
"sailing-trial","403","1998340","0.0-11.0-366.0","","","","false","","","","","","","","","","341.40000000037253","","90.70000000018626","","3","0","arrowright","1","arrowright","[0.15,0.85,0.325,0.675]","","",""
"sailing-trial","404","2001880","0.0-11.0-367.0","","","","false","","","","","","","","","","null","","1099.9000000003725","","2","1","null","null","arrowup","[0.15,0.85,0.325,0.675]","","",""
"sailing-trial","405","2004744","0.0-11.0-368.0","","","","false","","","","","","","","","","31.59999999962747","","20","","1","1","arrowleft","0","arrowright","[0.15,0.85,0.325,0.675]","","",""
"sailing-trial","406","2009575","0.0-11.0-369.0","","","","false","","","","","","","","","","null","","1966.0999999996275","","3","1","null","null","arrowup","[0.15,0.85,0.325,0.675]","","",""
"sailing-trial","407","2014286","0.0-11.0-370.0","","","","false","","","","","","","","","","1330","","313.79999999981374","","3","1","arrowright","1","arrowright","[0.15,0.85,0.325,0.675]","","",""
"sailing-trial","408","2017727","0.0-11.0-371.0","","","","false","","","","","","","","","","null","","1519.8999999994412","","2","0","null","null","arrowup","[0.15,0.85,0.325,0.675]","","",""
"sailing-trial","409","2022043","0.0-11.0-372.0","","","","false","","","","","","","","","","617.9000000003725","","314.90000000037253","","1","1","arrowleft","0","arrowright","[0.15,0.85,0.325,0.675]","","",""
"sailing-trial","410","2025792","0.0-11.0-373.0","","","","false","","","","","","","","","","null","","1454.2000000001863","","3","1","null","null","arrowup","[0.15,0.85,0.325,0.675]","","",""
"sailing-trial","411","2030408","0.0-11.0-374.0","","","","false","","","","","","","","","","273.40000000037253","","66.5","","3","1","arrowright","1","arrowright","[0.15,0.85,0.325,0.675]","","",""
"sailing-trial","412","2033721","0.0-11.0-375.0","","","","false","","","","","","","","","","null","","1364.5","","3","1","null","null","arrowup","[0.15,0.85,0.325,0.675]","","",""
"sailing-trial","413","2036855","0.0-11.0-376.0","","","","false","","","","","","","","","","159.79999999981374","","189.70000000018626","","1","1","arrowleft","0","arrowright","[0.15,0.85,0.325,0.675]","","",""
"sailing-trial","414","2039636","0.0-11.0-377.0","","","","false","","","","","","","","","","null","","1009.7999999998137","","2","1","null","null","arrowup","[0.15,0.85,0.325,0.675]","","",""
"sailing-trial","415","2042587","0.0-11.0-378.0","","","","false","","","","","","","","","","27.59999999962747","","146.79999999981374","","1","1","arrowleft","0","arrowright","[0.325,0.675,0.15,0.85]","","",""
"sailing-trial","416","2045079","0.0-11.0-379.0","","","","false","","","","","","","","","","null","","121","","3","1","null","null","arrowup","[0.325,0.675,0.15,0.85]","","",""
"sailing-trial","417","2048145","0.0-11.0-380.0","","","","false","","","","","","","","","","137.20000000018626","","261.40000000037253","","1","1","arrowleft","0","arrowright","[0.325,0.675,0.15,0.85]","","",""
"sailing-trial","418","2051059","0.0-11.0-381.0","","","","false","","","","","","","","","","null","","1279","","1","1","null","null","arrowup","[0.325,0.675,0.15,0.85]","","",""
"sailing-trial","419","2054680","0.0-11.0-382.0","","","","false","","","","","","","","","","1289.0999999996275","","52.5","","1","0","arrowleft","0","arrowright","[0.325,0.675,0.15,0.85]","","",""
"sailing-trial","420","2057910","0.0-11.0-383.0","","","","false","","","","","","","","","","null","","1538.800000000745","","0","1","null","null","arrowup","[0.325,0.675,0.15,0.85]","","",""
"sailing-trial","421","2060515","0.0-11.0-384.0","","","","false","","","","","","","","","","281.90000000037253","","76.40000000037253","","2","0","arrowright","1","arrowleft","[0.325,0.675,0.15,0.85]","","",""
"sailing-trial","422","2062352","0.0-11.0-385.0","","","","false","","","","","","","","","","null","","585.5","","1","0","null","null","arrowup","[0.325,0.675,0.15,0.85]","","",""
"sailing-trial","423","2064819","0.0-11.0-386.0","","","","false","","","","","","","","","","230.20000000018626","","32.700000000186265","","0","0","arrowleft","0","arrowleft","[0.325,0.675,0.15,0.85]","","",""
"sailing-trial","424","2066895","0.0-11.0-387.0","","","","false","","","","","","","","","","null","","151.40000000037253","","0","1","null","null","arrowup","[0.325,0.675,0.15,0.85]","","",""
"sailing-trial","425","2070042","0.0-11.0-388.0","","","","false","","","","","","","","","","324.40000000037253","","146.6000000005588","","3","1","arrowright","1","arrowright","[0.325,0.675,0.15,0.85]","","",""
"sailing-trial","426","2072790","0.0-11.0-389.0","","","","false","","","","","","","","","","null","","1090.6000000005588","","3","1","null","null","arrowup","[0.325,0.675,0.15,0.85]","","",""
"sailing-trial","427","2075921","0.0-11.0-390.0","","","","false","","","","","","","","","","140.40000000037253","","79.6000000005588","","3","1","arrowright","1","arrowright","[0.325,0.675,0.15,0.85]","","",""
"sailing-trial","428","2078505","0.0-11.0-391.0","","","","false","","","","","","","","","","null","","1478.7000000001863","","2","0","null","null","arrowup","[0.325,0.675,0.15,0.85]","","",""
"sailing-trial","429","2082491","0.0-11.0-392.0","","","","false","","","","","","","","","","1009.2000000001863","","424.70000000018626","","3","1","arrowright","1","arrowright","[0.325,0.675,0.15,0.85]","","",""
"sailing-trial","430","2085685","0.0-11.0-393.0","","","","false","","","","","","","","","","null","","1670.6000000005588","","3","1","null","null","arrowup","[0.325,0.675,0.15,0.85]","","",""
"sailing-trial","431","2088203","0.0-11.0-394.0","","","","false","","","","","","","","","","85.40000000037253","","252.70000000018626","","1","0","arrowleft","0","arrowright","[0.325,0.675,0.15,0.85]","","",""
"sailing-trial","432","2090934","0.0-11.0-395.0","","","","false","","","","","","","","","","null","","911.2999999998137","","3","1","null","null","arrowup","[0.325,0.675,0.15,0.85]","","",""
"sailing-trial","433","2093867","0.0-11.0-396.0","","","","false","","","","","","","","","","23.700000000186265","","87","","3","1","arrowright","1","arrowright","[0.325,0.675,0.15,0.85]","","",""
"sailing-trial","434","2096631","0.0-11.0-397.0","","","","false","","","","","","","","","","null","","770.4000000003725","","1","1","null","null","arrowup","[0.325,0.675,0.15,0.85]","","",""
"sailing-trial","435","2099796","0.0-11.0-398.0","","","","false","","","","","","","","","","125.29999999981374","","179.79999999981374","","3","1","arrowright","1","arrowright","[0.325,0.675,0.15,0.85]","","",""
"sailing-trial","436","2103203","0.0-11.0-399.0","","","","false","","","","","","","","","","null","","1666","","3","1","null","null","arrowup","[0.325,0.675,0.15,0.85]","","",""
"instructions","437","2103402","0.0-12.0","","","","","","","","","","197.90000000037253","","","","","","","","","","","","","","","","[{""page_index"":0,""viewing_time"":197.6000000005588}]"
"survey-debrief","438","2134037","0.0-13.0","","","","","","","","","","30632.099999999627","","","","","","","","","","","","","","{""difficulty"":""5"",""fun"":""2"",""clarity"":""5"",""strategy"":""remembering which ones gave reward"",""feedback"":""none""}","",""
