"trial_type","trial_index","time_elapsed","internal_node_id","value","metadata","success","timeout","failed_images","failed_audio","failed_video","browser_interaction","low_quality","rt","stimulus","response","button_pressed","island_rt","island_response","boat_rt","boat_response","boat","reward","island_key","island","boat_key","reward_probabilities","responses","num_errors","view_history"
"pavlovia","0","6","0.0-0.0","","","","","","","","","","","","","","","","","","","","","","","","","",""
"call-function","1","7","0.0-1.0","","{""task_version"":""sailing_part1_v1"",""task_condition"":""good"",""boats"":[""A"",""C"",""D"",""B""],""boats_demo"":[""H"",""E"",""F"",""G""],""islands"":[""A"",""B""],""subject_id"":""14053"",""age"":""14"",""gender"":""Female""}","","","","","","","","","","","","","","","","","","","","","","","",""
"preload","2","3080","0.0-2.0","","","true","false","[]","[]","[]","[{""event"":""fullscreenenter"",""trial"":3,""time"":5109}]","false","","","","","","","","","","","","","","","","",""
"fullscreen","3","6040","0.0-3.0","","","true","","","","","","","","","","","","","","","","","","","","","","",""
"audio-keyboard-response","4","7598","0.0-4.0-0.0","","","","","","","","","","0","audio/beep_loop.wav"," ","","","","","","","","","","","","","",""
"audio-test","5","9617","0.0-4.0-1.0","","","","","","","","","","null","audio/turtle.mp3","","3","","","","","","","","","","","","",""
"audio-test","6","11463","0.0-4.0-2.0","","","","","","","","","","null","audio/shark.mp3","","2","","","","","","","","","","","","",""
"sailing-instructions","7","41916","0.0-5.0-0.0-0.0","","","","","","","","","","","","","","null","null","null","null","null","null","","","","","","",""
"sailing-trial","8","46345","0.0-5.0-0.0-1.0-0.0","","","","false","","","","","","","","","","3295","","null","","null","null","arrowleft","0","null","null","","",""
"sailing-trial","9","48514","0.0-5.0-0.0-1.0-1.0","","","","false","","","","","","","","","","1040.9999999999927","","null","","null","null","arrowright","1","null","null","","",""
"sailing-trial","10","51265","0.0-5.0-0.0-1.0-2.0","","","","false","","","","","","","","","","1618","","null","","null","null","arrowleft","0","null","null","","",""
"sailing-instructions","11","95895","0.0-5.0-0.0-2.0","","","","","","","","","","","","","","null","null","null","null","0","null","","","","","","",""
"sailing-trial","12","100972","0.0-5.0-0.0-3.0-0.0","","","","false","","","","","","","","","","null","","1730.0000000000146","","2","1","null","null","arrowleft","[1,1,1,1]","","",""
"sailing-trial","13","105023","0.0-5.0-0.0-3.0-1.0","","","","false","","","","","","","","","","null","","1050.9999999999854","","3","1","null","null","arrowright","[1,1,1,1]","","",""
"sailing-trial","14","108053","0.0-5.0-0.0-3.0-2.0","","","","false","","","","","","","","","","null","","528","","3","0","null","null","arrowright","[0,0,0,0]","","",""
"sailing-instructions","15","115685","0.0-5.0-0.0-4.0","","","","","","","","","","","","","","null","null","null","null","null","null","","","","","","",""
"sailing-comprehension","16","139948","0.0-5.0-0.0-5.0","","","","","","","","","","22397","","","","","","","","","","","","","","[""true"",""true"",""false"",""true""]","0",""
"sailing-instructions","17","199461","0.0-6.0-0.0-0.0","","","","","","","","","","","","","","null","null","null","null","null","null","","","","","","",""
"sailing-comprehension","18","213958","0.0-6.0-0.0-1.0","","","","","","","","","","12527.99999999997","","","","","","","","","","","","","","[""true"",""false"",""true""]","0",""
"sailing-instructions","19","227909","0.0-7.0-0.0-0.0","","","","","","","","","","","","","","null","null","null","null","null","null","","","","","","",""
"sailing-trial","20","233194","0.0-7.0-0.0-1.0-0.0","","","","false","","","","","","","","","","null","","2319","","0","1","null","null","arrowup","[0.2,0.8,0.2,0.8]","","",""
"sailing-trial","21","236812","0.0-7.0-0.0-1.0-1.0","","","","false","","","","","","","","","","null","","1394","","1","1","null","null","arrowup","[0.2,0.8,0.2,0.8]","","",""
"sailing-trial","22","239730","0.0-7.0-0.0-1.0-2.0","","","","false","","","","","","","","","","null","","1069","","2","0","null","null","arrowup","[0.2,0.8,0.2,0.8]","","",""
"sailing-trial","23","242529","0.0-7.0-0.0-1.0-3.0","","","","false","","","","","","","","","","null","","1194","","3","0","null","null","arrowup","[0.2,0.8,0.2,0.8]","","",""
"sailing-comprehension","24","250919","0.0-7.0-0.0-2.0","","","","","","","","","","6737.000000000029","","","","","","","","","","","","","","[""false""]","0",""
"sailing-instructions","25","261015","0.0-8.0-0.0-0.0","","","","","","","","","","","","","","null","null","null","null","null","null","","","","","","",""
"sailing-comprehension","26","266574","0.0-8.0-0.0-1.0","","","","","","","","","","3217","","","","","","","","","","","","","","[""true""]","0",""
"sailing-instructions","27","302427","0.0-9.0-0.0-0.0","","","","","","","","","","","","","","null","null","null","null","null","null","","","","","","",""
"sailing-trial","28","307241","0.0-9.0-0.0-1.0-0.0","","","","false","","","","","","","","","","1166.9999999999418","","28","","0","1","arrowleft","0","arrowleft","[0.2,0.8,0.2,0.8]","","",""
"sailing-trial","29","312326","0.0-9.0-0.0-1.0-1.0","","","","false","","","","","","","","","","715.0000000000582","","826","","3","1","arrowright","1","arrowright","[0.2,0.8,0.2,0.8]","","",""
"sailing-trial","30","316534","0.0-9.0-0.0-1.0-2.0","","","","false","","","","","","","","","","null","","2382","","0","0","null","null","arrowup","[0.2,0.8,0.2,0.8]","","",""
"sailing-trial","31","322045","0.0-9.0-0.0-1.0-3.0","","","","false","","","","","","","","","","771","","1263","","0","0","arrowleft","0","arrowleft","[0.2,0.8,0.2,0.8]","","",""
"sailing-trial","32","326049","0.0-9.0-0.0-1.0-4.0","","","","false","","","","","","","","","","null","","1577","","3","1","null","null","arrowup","[0.2,0.8,0.2,0.8]","","",""
"sailing-trial","33","331049","0.0-9.0-0.0-1.0-5.0","","","","false","","","","","","","","","","1106","","524","","2","0","arrowright","1","arrowleft","[0.2,0.8,0.2,0.8]","","",""
"sailing-instructions","34","355896","0.0-10.0","","","","","","","","","","","","","","null","null","null","null","null","null","","","","","","",""
"sailing-trial","35","362913","0.0-11.0-0.0","","","","false","","","","","","","","","","2322.999999999942","","497","","0","1","arrowleft","0","arrowleft","[0.85,0.15,0.325,0.675]","","",""
"sailing-trial","36","366416","0.0-11.0-1.0","","","","false","","","","","","","","","","null","","1406","","0","1","null","null","arrowup","[0.85,0.15,0.325,0.675]","","",""
"sailing-trial","37","370468","0.0-11.0-2.0","","","","false","","","","","","","","","","443","","54.00000000005821","","1","1","arrowleft","0","arrowright","[0.85,0.15,0.325,0.675]","","",""
"sailing-trial","38","373196","0.0-11.0-3.0","","","","false","","","","","","","","","","null","","1164","","2","0","null","null","arrowup","[0.85,0.15,0.325,0.675]","","",""
"sailing-trial","39","377520","0.0-11.0-4.0","","","","false","","","","","","","","","","514.9999999999418","","401","","0","1","arrowleft","0","arrowleft","[0.85,0.15,0.325,0.675]","","",""
"sailing-trial","40","379987","0.0-11.0-5.0","","","","false","","","","","","","","","","null","","966","","2","0","null","null","arrowup","[0.85,0.15,0.325,0.675]","","",""
"sailing-trial","41","384223","0.0-11.0-6.0","","","","false","","","","","","","","","","550","","293.0000000000582","","2","1","arrowright","1","arrowleft","[0.85,0.15,0.325,0.675]","","",""
"sailing-trial","42","387483","0.0-11.0-7.0","","","","false","","","","","","","","","","null","","1186","","1","0","null","null","arrowup","[0.85,0.15,0.325,0.675]","","",""
"sailing-trial","43","391627","0.0-11.0-8.0","","","","false","","","","","","","","","","522","","257","","3","1","arrowright","1","arrowright","[0.85,0.15,0.325,0.675]","","",""
"sailing-trial","44","394239","0.0-11.0-9.0","","","","false","","","","","","","","","","null","","1108","","1","0","null","null","arrowup","[0.85,0.15,0.325,0.675]","","",""
"sailing-trial","45","398630","0.0-11.0-10.0","","","","false","","","","","","","","","","443","","421","","0","1","arrowleft","0","arrowleft","[0.85,0.15,0.325,0.675]","","",""
"sailing-trial","46","401140","0.0-11.0-11.0","","","","false","","","","","","","","","","null","","1127.9999999999418","","1","0","null","null","arrowup","[0.85,0.15,0.325,0.675]","","",""
"sailing-trial","47","405117","0.0-11.0-12.0","","","","false","","","","","","","","","","514","","8","","3","1","arrowright","1","arrowright","[0.85,0.15,0.325,0.675]","","",""
"sailing-trial","48","407523","0.0-11.0-13.0","","","","false","","","","","","","","","","null","","927","","1","0","null","null","arrowup","[0.85,0.15,0.325,0.675]","","",""
"sailing-trial","49","411786","0.0-11.0-14.0","","","","false","","","","","","","","","","475","","295.0000000000582","","0","1","arrowleft","0","arrowleft","[0.85,0.15,0.325,0.675]","","",""
"sailing-trial","50","414481","0.0-11.0-15.0","","","","false","","","","","","","","","","null","","908.9999999999418","","1","0","null","null","arrowup","[0.85,0.15,0.325,0.675]","","",""
"sailing-trial","51","417794","0.0-11.0-16.0","","","","false","","","","","","","","","","447.9999999999418","","354","","2","0","arrowright","1","arrowleft","[0.85,0.15,0.325,0.675]","","",""
"sailing-trial","52","420723","0.0-11.0-17.0","","","","false","","","","","","","","","","null","","991.0000000000582","","0","1","null","null","arrowup","[0.85,0.15,0.325,0.675]","","",""
"sailing-trial","53","424842","0.0-11.0-18.0","","","","false","","","","","","","","","","553","","15","","1","1","arrowleft","0","arrowright","[0.675,0.325,0.15,0.85]","","",""
"sailing-trial","54","427495","0.0-11.0-19.0","","","","false","","","","","","","","","","null","","1087","","0","0","null","null","arrowup","[0.675,0.325,0.15,0.85]","","",""
"sailing-trial","55","430874","0.0-11.0-20.0","","","","false","","","","","","","","","","533.9999999999418","","185","","2","0","arrowright","1","arrowleft","[0.675,0.325,0.15,0.85]","","",""
"sailing-trial","56","434612","0.0-11.0-21.0","","","","false","","","","","","","","","","null","","1434","","3","1","null","null","arrowup","[0.675,0.325,0.15,0.85]","","",""
"sailing-trial","57","438963","0.0-11.0-22.0","","","","false","","","","","","","","","","501.0000000000582","","487","","0","1","arrowleft","0","arrowleft","[0.675,0.325,0.15,0.85]","","",""
"sailing-trial","58","441525","0.0-11.0-23.0","","","","false","","","","","","","","","","null","","1018","","2","0","null","null","arrowup","[0.675,0.325,0.15,0.85]","","",""
"sailing-trial","59","445516","0.0-11.0-24.0","","","","false","","","","","","","","","","548","","137","","0","1","arrowleft","0","arrowleft","[0.675,0.325,0.15,0.85]","","",""
"sailing-trial","60","449201","0.0-11.0-25.0","","","","false","","","","","","","","","","null","","1982","","0","1","null","null","arrowup","[0.675,0.325,0.15,0.85]","","",""
"sailing-trial","61","452703","0.0-11.0-26.0","","","","false","","","","","","","","","","404","","82","","0","1","arrowleft","0","arrowleft","[0.675,0.325,0.15,0.85]","","",""
"sailing-trial","62","455704","0.0-11.0-27.0","","","","false","","","","","","","","","","null","","921","","2","1","null","null","arrowup","[0.675,0.325,0.15,0.85]","","",""
"sailing-trial","63","459529","0.0-11.0-28.0","","","","false","","","","","","","","","","679","","232.0000000000582","","3","0","arrowright","1","arrowright","[0.675,0.325,0.15,0.85]","","",""
"sailing-trial","64","463106","0.0-11.0-29.0","","","","false","","","","","","","","","","null","","1179","","3","1","null","null","arrowup","[0.675,0.325,0.15,0.85]","","",""
"sailing-trial","65","466931","0.0-11.0-30.0","","","","false","","","","","","","","","","565","","122","","0","0","arrowleft","0","arrowleft","[0.675,0.325,0.15,0.85]","","",""
"sailing-trial","66","469262","0.0-11.0-31.0","","","","false","","","","","","","","","","null","","777.9999999999418","","2","0","null","null","arrowup","[0.675,0.325,0.15,0.85]","","",""
"sailing-trial","67","474127","0.0-11.0-32.0","","","","false","","","","","","","","","","596.9999999999418","","1002","","0","1","arrowleft","0","arrowleft","[0.675,0.325,0.15,0.85]","","",""
"sailing-trial","68","478496","0.0-11.0-33.0","","","","false","","","","","","","","","","null","","2068","","3","1","null","null","arrowup","[0.675,0.325,0.15,0.85]","","",""
"sailing-trial","69","483314","0.0-11.0-34.0","","","","false","","","","","","","","","","519","","372","","2","1","arrowright","1","arrowleft","[0.675,0.325,0.15,0.85]","","",""
"sailing-trial","70","485717","0.0-11.0-35.0","","","","false","","","","","","","","","","null","","402.0000000000582","","0","1","null","null","arrowup","[0.675,0.325,0.15,0.85]","","",""
"sailing-trial","71","489457","0.0-11.0-36.0","","","","false","","","","","","","","","","452","","406","","2","0","arrowright","1","arrowleft","[0.85,0.15,0.325,0.675]","","",""
"sailing-trial","72","492033","0.0-11.0-37.0","","","","false","","","","","","","","","","null","","1071","","1","0","null","null","arrowup","[0.85,0.15,0.325,0.675]","","",""
"sailing-trial","73","496521","0.0-11.0-38.0","","","","false","","","","","","","","","","720","","340","","3","1","arrowright","1","arrowright","[0.85,0.15,0.325,0.675]","","",""
"sailing-trial","74","499262","0.0-11.0-39.0","","","","false","","","","","","","","","","null","","755.9999999999418","","3","0","null","null","arrowup","[0.85,0.15,0.325,0.675]","","",""
"sailing-trial","75","502595","0.0-11.0-40.0","","","","false","","","","","","","","","","468","","17","","0","0","arrowleft","0","arrowleft","[0.85,0.15,0.325,0.675]","","",""
"sailing-trial","76","506132","0.0-11.0-41.0","","","","false","","","","","","","","","","null","","1047","","0","0","null","null","arrowup","[0.85,0.15,0.325,0.675]","","",""
"sailing-trial","77","511095","0.0-11.0-42.0","","","","false","","","","","","","","","","1633","","438.0000000000582","","1","0","arrowleft","0","arrowright","[0.85,0.15,0.325,0.675]","","",""
"sailing-trial","78","513146","0.0-11.0-43.0","","","","false","","","","","","","","","","null","","793","","1","0","null","null","arrowup","[0.85,0.15,0.325,0.675]","","",""
"sailing-trial","79","516930","0.0-11.0-44.0","","","","false","","","","","","","","","","483.9999999999418","","413.9999999999418","","2","0","arrowright","1","arrowleft","[0.85,0.15,0.325,0.675]","","",""
"sailing-trial","80","520647","0.0-11.0-45.0","","","","false","","","","","","","","","","null","","1313","","0","1","null","null","arrowup","[0.85,0.15,0.325,0.675]","","",""
"sailing-trial","81","525349","0.0-11.0-46.0","","","","false","","","","","","","","","","582","","334.9999999999418","","0","1","arrowleft","0","arrowleft","[0.85,0.15,0.325,0.675]","","",""
"sailing-trial","82","528217","0.0-11.0-47.0","","","","false","","","","","","","","","","null","","706","","0","1","null","null","arrowup","[0.85,0.15,0.325,0.675]","","",""
"sailing-trial","83","533101","0.0-11.0-48.0","","","","false","","","","","","","","","","855","","568","","0","1","arrowleft","0","arrowleft","[0.85,0.15,0.325,0.675]","","",""
"sailing-trial","84","535933","0.0-11.0-49.0","","","","false","","","","","","","","","","null","","1274","","1","0","null","null","arrowup","[0.85,0.15,0.325,0.675]","","",""
"sailing-trial","85","539814","0.0-11.0-50.0","","","","false","","","","","","","","","","604","","354","","2","0","arrowright","1","arrowleft","[0.85,0.15,0.325,0.675]","","",""
"sailing-trial","86","542471","0.0-11.0-51.0","","","","false","","","","","","","","","","null","","1094","","0","0","null","null","arrowup","[0.85,0.15,0.325,0.675]","","",""
"sailing-trial","87","547026","0.0-11.0-52.0","","","","false","","","","","","","","","","606","","572","","3","1","arrowright","1","arrowright","[0.675,0.325,0.15,0.85]","","",""
"sailing-trial","88","549760","0.0-11.0-53.0","","","","false","","","","","","","","","","null","","1045","","1","1","null","null","arrowup","[0.675,0.325,0.15,0.85]","","",""
"sailing-trial","89","553745","0.0-11.0-54.0","","","","false","","","","","","","","","","421","","30","","0","1","arrowleft","0","arrowleft","[0.675,0.325,0.15,0.85]","","",""
"sailing-trial","90","556196","0.0-11.0-55.0","","","","false","","","","","","","","","","null","","964","","2","0","null","null","arrowup","[0.675,0.325,0.15,0.85]","","",""
"sailing-trial","91","561080","0.0-11.0-56.0","","","","false","","","","","","","","","","694","","511","","3","1","arrowright","1","arrowright","[0.675,0.325,0.15,0.85]","","",""
"sailing-trial","92","563491","0.0-11.0-57.0","","","","false","","","","","","","","","","null","","681","","2","0","null","null","arrowup","[0.675,0.325,0.15,0.85]","","",""
"sailing-trial","93","567401","0.0-11.0-58.0","","","","false","","","","","","","","","","613","","31","","0","1","arrowleft","0","arrowleft","[0.675,0.325,0.15,0.85]","","",""
"sailing-trial","94","570741","0.0-11.0-59.0","","","","false","","","","","","","","","","null","","1700","","0","0","null","null","arrowup","[0.675,0.325,0.15,0.85]","","",""
"sailing-trial","95","574576","0.0-11.0-60.0","","","","false","","","","","","","","","","954.0000000001164","","21","","1","0","arrowleft","0","arrowright","[0.675,0.325,0.15,0.85]","","",""
"sailing-trial","96","577886","0.0-11.0-61.0","","","","false","","","","","","","","","","null","","1550","","2","0","null","null","arrowup","[0.675,0.325,0.15,0.85]","","",""
"sailing-trial","97","581941","0.0-11.0-62.0","","","","false","","","","","","","","","","653","","38","","1","1","arrowleft","0","arrowright","[0.675,0.325,0.15,0.85]","","",""
"sailing-trial","98","584791","0.0-11.0-63.0","","","","false","","","","","","","","","","null","","943","","3","1","null","null","arrowup","[0.675,0.325,0.15,0.85]","","",""
"sailing-trial","99","588843","0.0-11.0-64.0","","","","false","","","","","","","","","","533.9999999998836","","196","","2","1","arrowright","1","arrowleft","[0.675,0.325,0.15,0.85]","","",""
"sailing-trial","100","591493","0.0-11.0-65.0","","","","false","","","","","","","","","","null","","845","","0","1","null","null","arrowup","[0.675,0.325,0.15,0.85]","","",""
"sailing-trial","101","594694","0.0-11.0-66.0","","","","false","","","","","","","","","","360","","42","","1","0","arrowleft","0","arrowright","[0.675,0.325,0.15,0.85]","","",""
"sailing-trial","102","597780","0.0-11.0-67.0","","","","false","","","","","","","","","","null","","1021.0000000001164","","3","1","null","null","arrowup","[0.675,0.325,0.15,0.85]","","",""
"sailing-trial","103","601998","0.0-11.0-68.0","","","","false","","","","","","","","","","651","","36","","3","1","arrowright","1","arrowright","[0.675,0.325,0.15,0.85]","","",""
"sailing-trial","104","604142","0.0-11.0-69.0","","","","false","","","","","","","","","","null","","782","","1","0","null","null","arrowup","[0.675,0.325,0.15,0.85]","","",""
"sailing-trial","105","608226","0.0-11.0-70.0","","","","false","","","","","","","","","","524","","520","","0","0","arrowleft","0","arrowleft","[0.675,0.325,0.15,0.85]","","",""
"sailing-trial","106","610605","0.0-11.0-71.0","","","","false","","","","","","","","","","null","","927","","2","0","null","null","arrowup","[0.675,0.325,0.15,0.85]","","",""
"sailing-trial","107","614704","0.0-11.0-72.0","","","","false","","","","","","","","","","687.0000000001164","","406","","2","0","arrowright","1","arrowleft","[0.15,0.85,0.675,0.325]","","",""
"sailing-trial","108","616547","0.0-11.0-73.0","","","","false","","","","","","","","","","null","","664","","2","0","null","null","arrowup","[0.15,0.85,0.675,0.325]","","",""
"sailing-trial","109","620940","0.0-11.0-74.0","","","","false","","","","","","","","","","659","","309","","3","1","arrowright","1","arrowright","[0.15,0.85,0.675,0.325]","","",""
"sailing-trial","110","623447","0.0-11.0-75.0","","","","false","","","","","","","","","","null","","647","","0","0","null","null","arrowup","[0.15,0.85,0.675,0.325]","","",""
"sailing-trial","111","627682","0.0-11.0-76.0","","","","false","","","","","","","","","","622.9999999998836","","495","","3","0","arrowright","1","arrowright","[0.15,0.85,0.675,0.325]","","",""
"sailing-trial","112","629977","0.0-11.0-77.0","","","","false","","","","","","","","","","null","","951","","0","0","null","null","arrowup","[0.15,0.85,0.675,0.325]","","",""
"sailing-trial","113","634097","0.0-11.0-78.0","","","","false","","","","","","","","","","566.0000000001164","","667","","0","0","arrowleft","0","arrowleft","[0.15,0.85,0.675,0.325]","","",""
"sailing-trial","114","637081","0.0-11.0-79.0","","","","false","","","","","","","","","","null","","750","","1","1","null","null","arrowup","[0.15,0.85,0.675,0.325]","","",""
"sailing-trial","115","641516","0.0-11.0-80.0","","","","false","","","","","","","","","","750","","227","","2","1","arrowright","1","arrowleft","[0.15,0.85,0.675,0.325]","","",""
"sailing-trial","116","643934","0.0-11.0-81.0","","","","false","","","","","","","","","","null","","730","","3","1","null","null","arrowup","[0.15,0.85,0.675,0.325]","","",""
"sailing-trial","117","648419","0.0-11.0-82.0","","","","false","","","","","","","","","","592","","363","","1","1","arrowleft","0","arrowright","[0.15,0.85,0.675,0.325]","","",""
"sailing-trial","118","650577","0.0-11.0-83.0","","","","false","","","","","","","","","","null","","596.9999999998836","","0","0","null","null","arrowup","[0.15,0.85,0.675,0.325]","","",""
"sailing-trial","119","655054","0.0-11.0-84.0","","","","false","","","","","","","","","","683","","495","","1","1","arrowleft","0","arrowright","[0.15,0.85,0.675,0.325]","","",""
"sailing-trial","120","658572","0.0-11.0-85.0","","","","false","","","","","","","","","","null","","891","","2","1","null","null","arrowup","[0.15,0.85,0.675,0.325]","","",""
"sailing-trial","121","662302","0.0-11.0-86.0","","","","false","","","","","","","","","","690","","377","","1","0","arrowleft","0","arrowright","[0.15,0.85,0.675,0.325]","","",""
"sailing-trial","122","665591","0.0-11.0-87.0","","","","false","","","","","","","","","","null","","1244","","1","1","null","null","arrowup","[0.15,0.85,0.675,0.325]","","",""
"sailing-trial","123","669664","0.0-11.0-88.0","","","","false","","","","","","","","","","721","","420","","3","0","arrowright","1","arrowright","[0.325,0.675,0.85,0.15]","","",""
"sailing-trial","124","671865","0.0-11.0-89.0","","","","false","","","","","","","","","","null","","716.9999999998836","","0","0","null","null","arrowup","[0.325,0.675,0.85,0.15]","","",""
"sailing-trial","125","676284","0.0-11.0-90.0","","","","false","","","","","","","","","","594","","874.0000000001164","","0","0","arrowleft","0","arrowleft","[0.325,0.675,0.85,0.15]","","",""
"sailing-trial","126","678797","0.0-11.0-91.0","","","","false","","","","","","","","","","null","","698","","3","1","null","null","arrowup","[0.325,0.675,0.85,0.15]","","",""
"sailing-trial","127","682217","0.0-11.0-92.0","","","","false","","","","","","","","","","505","","45.999999999883585","","3","0","arrowright","1","arrowright","[0.325,0.675,0.85,0.15]","","",""
"sailing-trial","128","684514","0.0-11.0-93.0","","","","false","","","","","","","","","","null","","784","","0","0","null","null","arrowup","[0.325,0.675,0.85,0.15]","","",""
"sailing-trial","129","688337","0.0-11.0-94.0","","","","false","","","","","","","","","","462","","469","","0","0","arrowleft","0","arrowleft","[0.325,0.675,0.85,0.15]","","",""
"sailing-trial","130","690789","0.0-11.0-95.0","","","","false","","","","","","","","","","null","","987.0000000001164","","1","0","null","null","arrowup","[0.325,0.675,0.85,0.15]","","",""
"sailing-trial","131","694672","0.0-11.0-96.0","","","","false","","","","","","","","","","545","","50.999999999883585","","2","1","arrowright","1","arrowleft","[0.325,0.675,0.85,0.15]","","",""
"sailing-trial","132","697193","0.0-11.0-97.0","","","","false","","","","","","","","","","null","","944","","1","0","null","null","arrowup","[0.325,0.675,0.85,0.15]","","",""
"sailing-trial","133","701307","0.0-11.0-98.0","","","","false","","","","","","","","","","991","","28","","1","1","arrowleft","0","arrowright","[0.325,0.675,0.85,0.15]","","",""
"sailing-trial","134","704241","0.0-11.0-99.0","","","","false","","","","","","","","","","null","","899","","1","1","null","null","arrowup","[0.325,0.675,0.85,0.15]","","",""
"sailing-trial","135","708943","0.0-11.0-100.0","","","","false","","","","","","","","","","567","","504","","2","1","arrowright","1","arrowleft","[0.325,0.675,0.85,0.15]","","",""
"sailing-trial","136","711767","0.0-11.0-101.0","","","","false","","","","","","","","","","null","","1284","","1","0","null","null","arrowup","[0.325,0.675,0.85,0.15]","","",""
"sailing-trial","137","715757","0.0-11.0-102.0","","","","false","","","","","","","","","","760","","349","","3","0","arrowright","1","arrowright","[0.325,0.675,0.85,0.15]","","",""
"sailing-trial","138","717738","0.0-11.0-103.0","","","","false","","","","","","","","","","null","","814","","0","0","null","null","arrowup","[0.325,0.675,0.85,0.15]","","",""
"sailing-trial","139","721596","0.0-11.0-104.0","","","","false","","","","","","","","","","741","","287","","1","0","arrowleft","0","arrowright","[0.325,0.675,0.85,0.15]","","",""
"sailing-trial","140","724751","0.0-11.0-105.0","","","","false","","","","","","","","","","null","","1056","","2","1","null","null","arrowup","[0.325,0.675,0.85,0.15]","","",""
"sailing-trial","141","729484","0.0-11.0-106.0","","","","false","","","","","","","","","","588.0000000001164","","349","","2","1","arrowright","1","arrowleft","[0.325,0.675,0.85,0.15]","","",""
"sailing-trial","142","733203","0.0-11.0-107.0","","","","false","","","","","","","","","","null","","1789","","1","1","null","null","arrowup","[0.325,0.675,0.85,0.15]","","",""
"sailing-trial","143","737109","0.0-11.0-108.0","","","","false","","","","","","","","","","746","","430","","1","0","arrowleft","0","arrowright","[0.85,0.15,0.325,0.675]","","",""
"sailing-trial","144","740840","0.0-11.0-109.0","","","","false","","","","","","","","","","null","","1740","","0","1","null","null","arrowup","[0.85,0.15,0.325,0.675]","","",""
"sailing-trial","145","744528","0.0-11.0-110.0","","","","false","","","","","","","","","","804.9999999998836","","6.999999999883585","","2","0","arrowright","1","arrowleft","[0.85,0.15,0.325,0.675]","","",""
"sailing-trial","146","748061","0.0-11.0-111.0","","","","false","","","","","","","","","","null","","1486.9999999998836","","3","1","null","null","arrowup","[0.85,0.15,0.325,0.675]","","",""
"sailing-trial","147","752579","0.0-11.0-112.0","","","","false","","","","","","","","","","645","","336","","0","1","arrowleft","0","arrowleft","[0.85,0.15,0.325,0.675]","","",""
"sailing-trial","148","755210","0.0-11.0-113.0","","","","false","","","","","","","","","","null","","1084","","2","0","null","null","arrowup","[0.85,0.15,0.325,0.675]","","",""
"sailing-trial","149","759315","0.0-11.0-114.0","","","","false","","","","","","","","","","469","","281","","2","1","arrowright","1","arrowleft","[0.85,0.15,0.325,0.675]","","",""
"sailing-trial","150","762266","0.0-11.0-115.0","","","","false","","","","","","","","","","null","","944","","2","0","null","null","arrowup","[0.85,0.15,0.325,0.675]","","",""
"sailing-trial","151","765935","0.0-11.0-116.0","","","","false","","","","","","","","","","628","","95","","2","0","arrowright","1","arrowleft","[0.85,0.15,0.325,0.675]","","",""
"sailing-trial","152","768305","0.0-11.0-117.0","","","","false","","","","","","","","","","null","","893","","1","0","null","null","arrowup","[0.85,0.15,0.325,0.675]","","",""
"sailing-trial","153","772403","0.0-11.0-118.0","","","","false","","","","","","","","","","632","","337","","3","1","arrowright","1","arrowright","[0.85,0.15,0.325,0.675]","","",""
"sailing-trial","154","775821","0.0-11.0-119.0","","","","false","","","","","","","","","","null","","1409.9999999998836","","2","1","null","null","arrowup","[0.85,0.15,0.325,0.675]","","",""
"sailing-trial","155","780090","0.0-11.0-120.0","","","","false","","","","","","","","","","689.9999999998836","","255","","0","1","arrowleft","0","arrowleft","[0.85,0.15,0.325,0.675]","","",""
"sailing-trial","156","782524","0.0-11.0-121.0","","","","false","","","","","","","","","","null","","755","","0","1","null","null","arrowup","[0.85,0.15,0.325,0.675]","","",""
"sailing-trial","157","785961","0.0-11.0-122.0","","","","false","","","","","","","","","","216.99999999988358","","445","","2","0","arrowright","1","arrowleft","[0.85,0.15,0.325,0.675]","","",""
"sailing-trial","158","788434","0.0-11.0-123.0","","","","false","","","","","","","","","","null","","926","","1","0","null","null","arrowup","[0.85,0.15,0.325,0.675]","","",""
"sailing-trial","159","793029","0.0-11.0-124.0","","","","false","","","","","","","","","","531","","667","","0","1","arrowleft","0","arrowleft","[0.675,0.325,0.15,0.85]","","",""
"sailing-trial","160","795597","0.0-11.0-125.0","","","","false","","","","","","","","","","null","","826","","0","1","null","null","arrowup","[0.675,0.325,0.15,0.85]","","",""
"sailing-trial","161","799631","0.0-11.0-126.0","","","","false","","","","","","","","","","461","","302","","3","1","arrowright","1","arrowright","[0.675,0.325,0.15,0.85]","","",""
"sailing-trial","162","802566","0.0-11.0-127.0","","","","false","","","","","","","","","","null","","875","","2","1","null","null","arrowup","[0.675,0.325,0.15,0.85]","","",""
"sailing-trial","163","806030","0.0-11.0-128.0","","","","false","","","","","","","","","","502","","190","","1","0","arrowleft","0","arrowright","[0.675,0.325,0.15,0.85]","","",""
"sailing-trial","164","808157","0.0-11.0-129.0","","","","false","","","","","","","","","","null","","814.9999999998836","","3","0","null","null","arrowup","[0.675,0.325,0.15,0.85]","","",""
"sailing-trial","165","811785","0.0-11.0-130.0","","","","false","","","","","","","","","","687","","285.0000000001164","","1","0","arrowleft","0","arrowright","[0.675,0.325,0.15,0.85]","","",""
"sailing-trial","166","814033","0.0-11.0-131.0","","","","false","","","","","","","","","","null","","830.0000000001164","","0","0","null","null","arrowup","[0.675,0.325,0.15,0.85]","","",""
"sailing-trial","167","818424","0.0-11.0-132.0","","","","false","","","","","","","","","","597","","466","","0","1","arrowleft","0","arrowleft","[0.675,0.325,0.15,0.85]","","",""
"sailing-trial","168","820430","0.0-11.0-133.0","","","","false","","","","","","","","","","null","","793","","2","0","null","null","arrowup","[0.675,0.325,0.15,0.85]","","",""
"sailing-trial","169","823876","0.0-11.0-134.0","","","","false","","","","","","","","","","629","","7","","2","0","arrowright","1","arrowleft","[0.675,0.325,0.15,0.85]","","",""
"sailing-trial","170","826777","0.0-11.0-135.0","","","","false","","","","","","","","","","null","","810.9999999998836","","0","1","null","null","arrowup","[0.675,0.325,0.15,0.85]","","",""
"sailing-trial","171","831346","0.0-11.0-136.0","","","","false","","","","","","","","","","754","","413","","2","1","arrowright","1","arrowleft","[0.675,0.325,0.15,0.85]","","",""
"sailing-trial","172","833370","0.0-11.0-137.0","","","","false","","","","","","","","","","null","","818","","1","0","null","null","arrowup","[0.675,0.325,0.15,0.85]","","",""
"sailing-trial","173","837999","0.0-11.0-138.0","","","","false","","","","","","","","","","979","","641","","1","0","arrowleft","0","arrowright","[0.675,0.325,0.15,0.85]","","",""
"sailing-trial","174","840702","0.0-11.0-139.0","","","","false","","","","","","","","","","null","","1113","","2","0","null","null","arrowup","[0.675,0.325,0.15,0.85]","","",""
"sailing-trial","175","845130","0.0-11.0-140.0","","","","false","","","","","","","","","","512","","918","","1","0","arrowleft","0","arrowright","[0.85,0.15,0.325,0.675]","","",""
"sailing-trial","176","847232","0.0-11.0-141.0","","","","false","","","","","","","","","","null","","915","","1","0","null","null","arrowup","[0.85,0.15,0.325,0.675]","","",""
"sailing-trial","177","851218","0.0-11.0-142.0","","","","false","","","","","","","","","","572","","634","","2","0","arrowright","1","arrowleft","[0.85,0.15,0.325,0.675]","","",""
"sailing-trial","178","854189","0.0-11.0-143.0","","","","false","","","","","","","","","","null","","808","","3","1","null","null","arrowup","[0.85,0.15,0.325,0.675]","","",""
"sailing-trial","179","858971","0.0-11.0-144.0","","","","false","","","","","","","","","","767","","795","","2","0","arrowright","1","arrowleft","[0.85,0.15,0.325,0.675]","","",""
"sailing-trial","180","862075","0.0-11.0-145.0","","","","false","","","","","","","","","","null","","973","","2","1","null","null","arrowup","[0.85,0.15,0.325,0.675]","","",""
"sailing-trial","181","866928","0.0-11.0-146.0","","","","false","","","","","","","","","","580","","851","","0","1","arrowleft","0","arrowleft","[0.85,0.15,0.325,0.675]","","",""
"sailing-trial","182","870095","0.0-11.0-147.0","","","","false","","","","","","","","","","null","","1000","","3","1","null","null","arrowup","[0.85,0.15,0.325,0.675]","","",""
"sailing-trial","183","874597","0.0-11.0-148.0","","","","false","","","","","","","","","","819","","307","","3","1","arrowright","1","arrowright","[0.85,0.15,0.325,0.675]","","",""
"sailing-trial","184","880332","0.0-11.0-149.0","","","","false","","","","","","","","","","null","","3718","","0","1","null","null","arrowup","[0.85,0.15,0.325,0.675]","","",""
"sailing-trial","185","884801","0.0-11.0-150.0","","","","false","","","","","","","","","","544","","435","","1","1","arrowleft","0","arrowright","[0.85,0.15,0.325,0.675]","","",""
"sailing-trial","186","888869","0.0-11.0-151.0","","","","false","","","","","","","","","","null","","1912.9999999998836","","0","1","null","null","arrowup","[0.85,0.15,0.325,0.675]","","",""
"sailing-trial","187","893638","0.0-11.0-152.0","","","","false","","","","","","","","","","838","","355","","0","1","arrowleft","0","arrowleft","[0.85,0.15,0.325,0.675]","","",""
"sailing-trial","188","896284","0.0-11.0-153.0","","","","false","","","","","","","","","","null","","914","","0","0","null","null","arrowup","[0.85,0.15,0.325,0.675]","","",""
"sailing-trial","189","900272","0.0-11.0-154.0","","","","false","","","","","","","","","","587","","314","","3","0","arrowright","1","arrowright","[0.85,0.15,0.325,0.675]","","",""
"sailing-trial","190","903375","0.0-11.0-155.0","","","","false","","","","","","","","","","null","","1134","","3","1","null","null","arrowup","[0.85,0.15,0.325,0.675]","","",""
"sailing-trial","191","908377","0.0-11.0-156.0","","","","false","","","","","","","","","","667","","440","","1","1","arrowleft","0","arrowright","[0.85,0.15,0.325,0.675]","","",""
"sailing-trial","192","912728","0.0-11.0-157.0","","","","false","","","","","","","","","","null","","1886","","1","1","null","null","arrowup","[0.85,0.15,0.325,0.675]","","",""
"sailing-trial","193","916289","0.0-11.0-158.0","","","","false","","","","","","","","","","572","","26","","1","0","arrowleft","0","arrowright","[0.85,0.15,0.325,0.675]","","",""
"sailing-trial","194","918855","0.0-11.0-159.0","","","","false","","","","","","","","","","null","","979.0000000001164","","0","0","null","null","arrowup","[0.85,0.15,0.325,0.675]","","",""
"sailing-trial","195","922685","0.0-11.0-160.0","","","","false","","","","","","","","","","636","","365","","1","0","arrowleft","0","arrowright","[0.85,0.15,0.325,0.675]","","",""
"sailing-trial","196","925650","0.0-11.0-161.0","","","","false","","","","","","","","","","null","","1005","","0","1","null","null","arrowup","[0.85,0.15,0.325,0.675]","","",""
"sailing-trial","197","930303","0.0-11.0-162.0","","","","false","","","","","","","","","","964","","353","","2","1","arrowright","1","arrowleft","[0.675,0.325,0.15,0.85]","","",""
"sailing-trial","198","933227","0.0-11.0-163.0","","","","false","","","","","","","","","","null","","1389","","1","0","null","null","arrowup","[0.675,0.325,0.15,0.85]","","",""
"sailing-trial","199","936902","0.0-11.0-164.0","","","","false","","","","","","","","","","758","","8","","0","0","arrowleft","0","arrowleft","[0.675,0.325,0.15,0.85]","","",""
"sailing-trial","200","940207","0.0-11.0-165.0","","","","false","","","","","","","","","","null","","1153","","1","1","null","null","arrowup","[0.675,0.325,0.15,0.85]","","",""
"sailing-trial","201","945643","0.0-11.0-166.0","","","","false","","","","","","","","","","950","","471","","3","1","arrowright","1","arrowright","[0.675,0.325,0.15,0.85]","","",""
"sailing-trial","202","948246","0.0-11.0-167.0","","","","false","","","","","","","","","","null","","1059.0000000001164","","1","0","null","null","arrowup","[0.675,0.325,0.15,0.85]","","",""
"sailing-trial","203","952579","0.0-11.0-168.0","","","","false","","","","","","","","","","553","","258","","0","1","arrowleft","0","arrowleft","[0.675,0.325,0.15,0.85]","","",""
"sailing-trial","204","955997","0.0-11.0-169.0","","","","false","","","","","","","","","","null","","1272","","3","1","null","null","arrowup","[0.675,0.325,0.15,0.85]","","",""
"sailing-trial","205","961099","0.0-11.0-170.0","","","","false","","","","","","","","","","625","","1122","","0","1","arrowleft","0","arrowleft","[0.675,0.325,0.15,0.85]","","",""
"sailing-trial","206","963969","0.0-11.0-171.0","","","","false","","","","","","","","","","null","","1060.0000000001164","","3","0","null","null","arrowup","[0.675,0.325,0.15,0.85]","","",""
"sailing-trial","207","968387","0.0-11.0-172.0","","","","false","","","","","","","","","","547","","510.9999999998836","","1","1","arrowleft","0","arrowright","[0.675,0.325,0.15,0.85]","","",""
"sailing-trial","208","970976","0.0-11.0-173.0","","","","false","","","","","","","","","","null","","1044","","0","0","null","null","arrowup","[0.675,0.325,0.15,0.85]","","",""
"sailing-trial","209","975923","0.0-11.0-174.0","","","","false","","","","","","","","","","675","","340.0000000001164","","3","1","arrowright","1","arrowright","[0.675,0.325,0.15,0.85]","","",""
"sailing-trial","210","979107","0.0-11.0-175.0","","","","false","","","","","","","","","","null","","1032","","0","1","null","null","arrowup","[0.675,0.325,0.15,0.85]","","",""
"sailing-trial","211","983966","0.0-11.0-176.0","","","","false","","","","","","","","","","1154.9999999998836","","756.0000000001164","","1","0","arrowleft","0","arrowright","[0.675,0.325,0.15,0.85]","","",""
"sailing-trial","212","987960","0.0-11.0-177.0","","","","false","","","","","","","","","","null","","1133.9999999998836","","0","1","null","null","arrowup","[0.675,0.325,0.15,0.85]","","",""
"sailing-trial","213","992146","0.0-11.0-178.0","","","","false","","","","","","","","","","691","","8","","3","1","arrowright","1","arrowright","[0.675,0.325,0.15,0.85]","","",""
"sailing-trial","214","995216","0.0-11.0-179.0","","","","false","","","","","","","","","","null","","1528.0000000001164","","2","0","null","null","arrowup","[0.675,0.325,0.15,0.85]","","",""
"sailing-trial","215","999976","0.0-11.0-180.0","","","","false","","","","","","","","","","1645","","602.9999999998836","","0","0","arrowleft","0","arrowleft","[0.15,0.85,0.675,0.325]","","",""
"sailing-trial","216","1003560","0.0-11.0-181.0","","","","false","","","","","","","","","","null","","945","","0","0","null","null","arrowup","[0.15,0.85,0.675,0.325]","","",""
"sailing-trial","217","1007074","0.0-11.0-182.0","","","","false","","","","","","","","","","733","","73.00000000011642","","3","0","arrowright","1","arrowright","[0.15,0.85,0.675,0.325]","","",""
"sailing-trial","218","1010020","0.0-11.0-183.0","","","","false","","","","","","","","","","null","","1196.0000000001164","","1","1","null","null","arrowup","[0.15,0.85,0.675,0.325]","","",""
"sailing-trial","219","1014405","0.0-11.0-184.0","","","","false","","","","","","","","","","894.9999999998836","","346","","1","1","arrowleft","0","arrowright","[0.15,0.85,0.675,0.325]","","",""
"sailing-trial","220","1017030","0.0-11.0-185.0","","","","false","","","","","","","","","","null","","985.9999999998836","","2","0","null","null","arrowup","[0.15,0.85,0.675,0.325]","","",""
"sailing-trial","221","1021408","0.0-11.0-186.0","","","","false","","","","","","","","","","662","","299","","0","0","arrowleft","0","arrowleft","[0.15,0.85,0.675,0.325]","","",""
"sailing-trial","222","1024968","0.0-11.0-187.0","","","","false","","","","","","","","","","null","","1029","","1","0","null","null","arrowup","[0.15,0.85,0.675,0.325]","","",""
"sailing-trial","223","1030282","0.0-11.0-188.0","","","","false","","","","","","","","","","1039","","749","","2","1","arrowright","1","arrowleft","[0.15,0.85,0.675,0.325]","","",""
"sailing-trial","224","1033562","0.0-11.0-189.0","","","","false","","","","","","","","","","null","","1298.9999999998836","","2","1","null","null","arrowup","[0.15,0.85,0.675,0.325]","","",""
"sailing-trial","225","1038540","0.0-11.0-190.0","","","","false","","","","","","","","","","993.9999999998836","","432","","1","1","arrowleft","0","arrowright","[0.15,0.85,0.675,0.325]","","",""
"sailing-trial","226","1041773","0.0-11.0-191.0","","","","false","","","","","","","","","","null","","1130.9999999997672","","2","1","null","null","arrowup","[0.15,0.85,0.675,0.325]","","",""
"sailing-trial","227","1046069","0.0-11.0-192.0","","","","false","","","","","","","","","","851.0000000001164","","407","","2","0","arrowright","1","arrowleft","[0.15,0.85,0.675,0.325]","","",""
"sailing-trial","228","1049227","0.0-11.0-193.0","","","","false","","","","","","","","","","null","","1645","","0","0","null","null","arrowup","[0.15,0.85,0.675,0.325]","","",""
"sailing-trial","229","1053346","0.0-11.0-194.0","","","","false","","","","","","","","","","889","","394","","0","0","arrowleft","0","arrowleft","[0.15,0.85,0.675,0.325]","","",""
"sailing-trial","230","1055488","0.0-11.0-195.0","","","","false","","","","","","","","","","null","","939.9999999997672","","0","0","null","null","arrowup","[0.15,0.85,0.675,0.325]","","",""
"sailing-trial","231","1060207","0.0-11.0-196.0","","","","false","","","","","","","","","","843","","249","","2","1","arrowright","1","arrowleft","[0.15,0.85,0.675,0.325]","","",""
"sailing-trial","232","1062699","0.0-11.0-197.0","","","","false","","","","","","","","","","null","","1317","","2","0","null","null","arrowup","[0.15,0.85,0.675,0.325]","","",""
"sailing-trial","233","1067307","0.0-11.0-198.0","","","","false","","","","","","","","","","912","","321","","1","1","arrowleft","0","arrowright","[0.15,0.85,0.675,0.325]","","",""
"sailing-trial","234","1069808","0.0-11.0-199.0","","","","false","","","","","","","","","","null","","856","","0","0","null","null","arrowup","[0.15,0.85,0.675,0.325]","","",""
"sailing-trial","235","1074084","0.0-11.0-200.0","","","","false","","","","","","","","","","874","","383","","0","0","arrowleft","0","arrowleft","[0.15,0.85,0.675,0.325]","","",""
"sailing-trial","236","1076542","0.0-11.0-201.0","","","","false","","","","","","","","","","null","","939.9999999997672","","0","0","null","null","arrowup","[0.15,0.85,0.675,0.325]","","",""
"sailing-trial","237","1080361","0.0-11.0-202.0","","","","false","","","","","","","","","","427","","360.99999999976717","","2","1","arrowright","1","arrowleft","[0.15,0.85,0.675,0.325]","","",""
"sailing-trial","238","1083578","0.0-11.0-203.0","","","","false","","","","","","","","","","null","","1100","","1","1","null","null","arrowup","[0.15,0.85,0.675,0.325]","","",""
"sailing-trial","239","1087647","0.0-11.0-204.0","","","","false","","","","","","","","","","642","","425","","3","1","arrowright","1","arrowright","[0.325,0.675,0.85,0.15]","","",""
"sailing-trial","240","1090547","0.0-11.0-205.0","","","","false","","","","","","","","","","null","","965","","1","1","null","null","arrowup","[0.325,0.675,0.85,0.15]","","",""
"sailing-trial","241","1094335","0.0-11.0-206.0","","","","false","","","","","","","","","","448.00000000023283","","335.00000000023283","","2","0","arrowright","1","arrowleft","[0.325,0.675,0.85,0.15]","","",""
"sailing-trial","242","1096579","0.0-11.0-207.0","","","","false","","","","","","","","","","null","","1029","","1","0","null","null","arrowup","[0.325,0.675,0.85,0.15]","","",""
"sailing-trial","243","1100698","0.0-11.0-208.0","","","","false","","","","","","","","","","515","","129.99999999976717","","3","0","arrowright","1","arrowright","[0.325,0.675,0.85,0.15]","","",""
"sailing-trial","244","1103335","0.0-11.0-209.0","","","","false","","","","","","","","","","null","","805","","1","1","null","null","arrowup","[0.325,0.675,0.85,0.15]","","",""
"sailing-trial","245","1106278","0.0-11.0-210.0","","","","false","","","","","","","","","","399","","35","","1","0","arrowleft","0","arrowright","[0.325,0.675,0.85,0.15]","","",""
"sailing-trial","246","1108954","0.0-11.0-211.0","","","","false","","","","","","","","","","null","","935","","2","1","null","null","arrowup","[0.325,0.675,0.85,0.15]","","",""
"sailing-trial","247","1112722","0.0-11.0-212.0","","","","false","","","","","","","","","","537","","225","","0","1","arrowleft","0","arrowleft","[0.325,0.675,0.85,0.15]","","",""
"sailing-trial","248","1115139","0.0-11.0-213.0","","","","false","","","","","","","","","","null","","863","","3","0","null","null","arrowup","[0.325,0.675,0.85,0.15]","","",""
"sailing-trial","249","1119875","0.0-11.0-214.0","","","","false","","","","","","","","","","976.9999999997672","","378","","2","1","arrowright","1","arrowleft","[0.325,0.675,0.85,0.15]","","",""
"sailing-trial","250","1122760","0.0-11.0-215.0","","","","false","","","","","","","","","","null","","854","","1","1","null","null","arrowup","[0.325,0.675,0.85,0.15]","","",""
"sailing-trial","251","1126510","0.0-11.0-216.0","","","","false","","","","","","","","","","493","","378","","1","1","arrowleft","0","arrowright","[0.325,0.675,0.85,0.15]","","",""
"sailing-trial","252","1128652","0.0-11.0-217.0","","","","false","","","","","","","","","","null","","908.0000000002328","","3","0","null","null","arrowup","[0.325,0.675,0.85,0.15]","","",""
"sailing-trial","253","1132405","0.0-11.0-218.0","","","","false","","","","","","","","","","901.0000000002328","","272","","1","0","arrowleft","0","arrowright","[0.325,0.675,0.85,0.15]","","",""
"sailing-trial","254","1136301","0.0-11.0-219.0","","","","false","","","","","","","","","","null","","2365","","3","0","null","null","arrowup","[0.325,0.675,0.85,0.15]","","",""
"sailing-trial","255","1141084","0.0-11.0-220.0","","","","false","","","","","","","","","","872","","452","","1","1","arrowleft","0","arrowright","[0.325,0.675,0.85,0.15]","","",""
"sailing-trial","256","1144921","0.0-11.0-221.0","","","","false","","","","","","","","","","null","","2517.000000000233","","3","0","null","null","arrowup","[0.325,0.675,0.85,0.15]","","",""
"sailing-trial","257","1149669","0.0-11.0-222.0","","","","false","","","","","","","","","","992.9999999997672","","66","","3","0","arrowright","1","arrowright","[0.325,0.675,0.85,0.15]","","",""
"sailing-trial","258","1152005","0.0-11.0-223.0","","","","false","","","","","","","","","","null","","1148","","3","0","null","null","arrowup","[0.325,0.675,0.85,0.15]","","",""
"sailing-trial","259","1156523","0.0-11.0-224.0","","","","false","","","","","","","","","","1000","","6.000000000232831","","1","1","arrowleft","0","arrowright","[0.15,0.85,0.675,0.325]","","",""
"sailing-trial","260","1159894","0.0-11.0-225.0","","","","false","","","","","","","","","","null","","1438","","1","0","null","null","arrowup","[0.15,0.85,0.675,0.325]","","",""
"sailing-trial","261","1165444","0.0-11.0-226.0","","","","false","","","","","","","","","","951","","1471","","0","0","arrowleft","0","arrowleft","[0.15,0.85,0.675,0.325]","","",""
"sailing-trial","262","1168829","0.0-11.0-227.0","","","","false","","","","","","","","","","null","","1076","","2","1","null","null","arrowup","[0.15,0.85,0.675,0.325]","","",""
"sailing-trial","263","1173811","0.0-11.0-228.0","","","","false","","","","","","","","","","1971","","34","","3","0","arrowright","1","arrowright","[0.15,0.85,0.675,0.325]","","",""
"sailing-trial","264","1178799","0.0-11.0-229.0","","","","false","","","","","","","","","","null","","2609","","1","1","null","null","arrowup","[0.15,0.85,0.675,0.325]","","",""
"sailing-trial","265","1183517","0.0-11.0-230.0","","","","false","","","","","","","","","","753.0000000002328","","387","","1","1","arrowleft","0","arrowright","[0.15,0.85,0.675,0.325]","","",""
"sailing-trial","266","1186320","0.0-11.0-231.0","","","","false","","","","","","","","","","null","","1009","","1","1","null","null","arrowup","[0.15,0.85,0.675,0.325]","","",""
"sailing-trial","267","1190836","0.0-11.0-232.0","","","","false","","","","","","","","","","897","","107","","2","1","arrowright","1","arrowleft","[0.15,0.85,0.675,0.325]","","",""
"sailing-trial","268","1193460","0.0-11.0-233.0","","","","false","","","","","","","","","","null","","1032.0000000002328","","2","0","null","null","arrowup","[0.15,0.85,0.675,0.325]","","",""
"sailing-trial","269","1198423","0.0-11.0-234.0","","","","false","","","","","","","","","","1053.0000000002328","","475.99999999976717","","1","1","arrowleft","0","arrowright","[0.15,0.85,0.675,0.325]","","",""
"sailing-trial","270","1200997","0.0-11.0-235.0","","","","false","","","","","","","","","","null","","1042","","0","0","null","null","arrowup","[0.15,0.85,0.675,0.325]","","",""
"sailing-trial","271","1204834","0.0-11.0-236.0","","","","false","","","","","","","","","","850","","51","","3","0","arrowright","1","arrowright","[0.15,0.85,0.675,0.325]","","",""
"sailing-trial","272","1207610","0.0-11.0-237.0","","","","false","","","","","","","","","","null","","942","","1","1","null","null","arrowup","[0.15,0.85,0.675,0.325]","","",""
"sailing-trial","273","1212111","0.0-11.0-238.0","","","","false","","","","","","","","","","659","","230","","0","1","arrowleft","0","arrowleft","[0.15,0.85,0.675,0.325]","","",""
"sailing-trial","274","1215584","0.0-11.0-239.0","","","","false","","","","","","","","","","null","","2047.0000000002328","","3","0","null","null","arrowup","[0.15,0.85,0.675,0.325]","","",""
"sailing-trial","275","1220643","0.0-11.0-240.0","","","","false","","","","","","","","","","1026","","378","","1","0","arrowleft","0","arrowright","[0.325,0.675,0.85,0.15]","","",""
"sailing-trial","276","1223038","0.0-11.0-241.0","","","","false","","","","","","","","","","null","","947.0000000002328","","0","0","null","null","arrowup","[0.325,0.675,0.85,0.15]","","",""
"sailing-trial","277","1228518","0.0-11.0-242.0","","","","false","","","","","","","","","","969","","607","","0","1","arrowleft","0","arrowleft","[0.325,0.675,0.85,0.15]","","",""
"sailing-trial","278","1231552","0.0-11.0-243.0","","","","false","","","","","","","","","","null","","932","","2","1","null","null","arrowup","[0.325,0.675,0.85,0.15]","","",""
"sailing-trial","279","1235871","0.0-11.0-244.0","","","","false","","","","","","","","","","532","","309","","2","1","arrowright","1","arrowleft","[0.325,0.675,0.85,0.15]","","",""
"sailing-trial","280","1239139","0.0-11.0-245.0","","","","false","","","","","","","","","","null","","1243","","1","1","null","null","arrowup","[0.325,0.675,0.85,0.15]","","",""
"sailing-trial","281","1243392","0.0-11.0-246.0","","","","false","","","","","","","","","","488","","396","","1","1","arrowleft","0","arrowright","[0.325,0.675,0.85,0.15]","","",""
"sailing-trial","282","1246993","0.0-11.0-247.0","","","","false","","","","","","","","","","null","","994","","0","1","null","null","arrowup","[0.325,0.675,0.85,0.15]","","",""
"sailing-trial","283","1250815","0.0-11.0-248.0","","","","false","","","","","","","","","","625","","298","","0","0","arrowleft","0","arrowleft","[0.325,0.675,0.85,0.15]","","",""
"sailing-trial","284","1253711","0.0-11.0-249.0","","","","false","","","","","","","","","","null","","1090","","2","1","null","null","arrowup","[0.325,0.675,0.85,0.15]","","",""
"sailing-trial","285","1257396","0.0-11.0-250.0","","","","false","","","","","","","","","","277","","37","","2","1","arrowright","1","arrowleft","[0.325,0.675,0.85,0.15]","","",""
"sailing-trial","286","1260962","0.0-11.0-251.0","","","","false","","","","","","","","","","null","","2009","","2","1","null","null","arrowup","[0.325,0.675,0.85,0.15]","","",""
"sailing-trial","287","1264917","0.0-11.0-252.0","","","","false","","","","","","","","","","642","","248","","2","1","arrowright","1","arrowleft","[0.325,0.675,0.85,0.15]","","",""
"sailing-trial","288","1268654","0.0-11.0-253.0","","","","false","","","","","","","","","","null","","2397.999999999767","","3","0","null","null","arrowup","[0.325,0.675,0.85,0.15]","","",""
"sailing-trial","289","1273044","0.0-11.0-254.0","","","","false","","","","","","","","","","1282","","604","","3","0","arrowright","1","arrowright","[0.325,0.675,0.85,0.15]","","",""
"sailing-trial","290","1275820","0.0-11.0-255.0","","","","false","","","","","","","","","","null","","944","","1","1","null","null","arrowup","[0.325,0.675,0.85,0.15]","","",""
"sailing-trial","291","1278845","0.0-11.0-256.0","","","","false","","","","","","","","","","415.99999999976717","","95.00000000023283","","1","0","arrowleft","0","arrowright","[0.675,0.325,0.15,0.85]","","",""
"sailing-trial","292","1281789","0.0-11.0-257.0","","","","false","","","","","","","","","","null","","955","","3","1","null","null","arrowup","[0.675,0.325,0.15,0.85]","","",""
"sailing-trial","293","1286181","0.0-11.0-258.0","","","","false","","","","","","","","","","533","","301.99999999976717","","0","0","arrowleft","0","arrowleft","[0.675,0.325,0.15,0.85]","","",""
"sailing-trial","294","1288490","0.0-11.0-259.0","","","","false","","","","","","","","","","null","","1003","","2","0","null","null","arrowup","[0.675,0.325,0.15,0.85]","","",""
"sailing-trial","295","1292542","0.0-11.0-260.0","","","","false","","","","","","","","","","597","","122","","3","1","arrowright","1","arrowright","[0.675,0.325,0.15,0.85]","","",""
"sailing-trial","296","1295078","0.0-11.0-261.0","","","","false","","","","","","","","","","null","","1065.9999999997672","","0","0","null","null","arrowup","[0.675,0.325,0.15,0.85]","","",""
"sailing-trial","297","1298913","0.0-11.0-262.0","","","","false","","","","","","","","","","609.0000000002328","","205","","3","1","arrowright","1","arrowright","[0.675,0.325,0.15,0.85]","","",""
"sailing-trial","298","1302592","0.0-11.0-263.0","","","","false","","","","","","","","","","null","","2204","","2","0","null","null","arrowup","[0.675,0.325,0.15,0.85]","","",""
"sailing-trial","299","1306565","0.0-11.0-264.0","","","","false","","","","","","","","","","492","","122","","3","1","arrowright","1","arrowright","[0.675,0.325,0.15,0.85]","","",""
"sailing-trial","300","1309222","0.0-11.0-265.0","","","","false","","","","","","","","","","null","","1132.0000000002328","","2","0","null","null","arrowup","[0.675,0.325,0.15,0.85]","","",""
"sailing-trial","301","1313522","0.0-11.0-266.0","","","","false","","","","","","","","","","778","","369","","1","0","arrowleft","0","arrowright","[0.675,0.325,0.15,0.85]","","",""
"sailing-trial","302","1316552","0.0-11.0-267.0","","","","false","","","","","","","","","","null","","1002.9999999997672","","3","1","null","null","arrowup","[0.675,0.325,0.15,0.85]","","",""
"sailing-trial","303","1320470","0.0-11.0-268.0","","","","false","","","","","","","","","","570.9999999997672","","490","","0","0","arrowleft","0","arrowleft","[0.675,0.325,0.15,0.85]","","",""
"sailing-trial","304","1325706","0.0-11.0-269.0","","","","false","","","","","","","","","","null","","3494","","0","1","null","null","arrowup","[0.675,0.325,0.15,0.85]","","",""
"sailing-trial","305","1329420","0.0-11.0-270.0","","","","false","","","","","","","","","","654","","58","","0","0","arrowleft","0","arrowleft","[0.675,0.325,0.15,0.85]","","",""
"sailing-trial","306","1331549","0.0-11.0-271.0","","","","false","","","","","","","","","","null","","954","","1","0","null","null","arrowup","[0.675,0.325,0.15,0.85]","","",""
"sailing-trial","307","1335081","0.0-11.0-272.0","","","","false","","","","","","","","","","620","","83","","2","0","arrowright","1","arrowleft","[0.675,0.325,0.15,0.85]","","",""
"sailing-trial","308","1337825","0.0-11.0-273.0","","","","false","","","","","","","","","","null","","1001","","2","0","null","null","arrowup","[0.675,0.325,0.15,0.85]","","",""
"sailing-trial","309","1341927","0.0-11.0-274.0","","","","false","","","","","","","","","","634","","568","","3","0","arrowright","1","arrowright","[0.85,0.15,0.325,0.675]","","",""
"sailing-trial","310","1344413","0.0-11.0-275.0","","","","false","","","","","","","","","","null","","789.9999999997672","","0","1","null","null","arrowup","[0.85,0.15,0.325,0.675]","","",""
"sailing-trial","311","1348060","0.0-11.0-276.0","","","","false","","","","","","","","","","696.0000000002328","","371","","1","0","arrowleft","0","arrowright","[0.85,0.15,0.325,0.675]","","",""
"sailing-trial","312","1350717","0.0-11.0-277.0","","","","false","","","","","","","","","","null","","871","","0","1","null","null","arrowup","[0.85,0.15,0.325,0.675]","","",""
"sailing-trial","313","1354138","0.0-11.0-278.0","","","","false","","","","","","","","","","240","","550.0000000002328","","2","0","arrowright","1","arrowleft","[0.85,0.15,0.325,0.675]","","",""
"sailing-trial","314","1356818","0.0-11.0-279.0","","","","false","","","","","","","","","","null","","953.9999999997672","","3","1","null","null","arrowup","[0.85,0.15,0.325,0.675]","","",""
"sailing-trial","315","1360602","0.0-11.0-280.0","","","","false","","","","","","","","","","635","","276","","3","0","arrowright","1","arrowright","[0.85,0.15,0.325,0.675]","","",""
"sailing-trial","316","1363095","0.0-11.0-281.0","","","","false","","","","","","","","","","null","","961","","3","0","null","null","arrowup","[0.85,0.15,0.325,0.675]","","",""
"sailing-trial","317","1367023","0.0-11.0-282.0","","","","false","","","","","","","","","","791","","87","","0","1","arrowleft","0","arrowleft","[0.85,0.15,0.325,0.675]","","",""
"sailing-trial","318","1371308","0.0-11.0-283.0","","","","false","","","","","","","","","","null","","2359.999999999767","","0","1","null","null","arrowup","[0.85,0.15,0.325,0.675]","","",""
"sailing-trial","319","1375001","0.0-11.0-284.0","","","","false","","","","","","","","","","614","","578","","1","0","arrowleft","0","arrowright","[0.85,0.15,0.325,0.675]","","",""
"sailing-trial","320","1377960","0.0-11.0-285.0","","","","false","","","","","","","","","","null","","1147","","3","1","null","null","arrowup","[0.85,0.15,0.325,0.675]","","",""
"sailing-trial","321","1381315","0.0-11.0-286.0","","","","false","","","","","","","","","","402","","94.00000000023283","","2","0","arrowright","1","arrowleft","[0.85,0.15,0.325,0.675]","","",""
"sailing-trial","322","1383796","0.0-11.0-287.0","","","","false","","","","","","","","","","null","","753","","2","1","null","null","arrowup","[0.85,0.15,0.325,0.675]","","",""
"sailing-trial","323","1387280","0.0-11.0-288.0","","","","false","","","","","","","","","","420","","57","","3","1","arrowright","1","arrowright","[0.85,0.15,0.325,0.675]","","",""
"sailing-trial","324","1390347","0.0-11.0-289.0","","","","false","","","","","","","","","","null","","1285","","3","1","null","null","arrowup","[0.85,0.15,0.325,0.675]","","",""
"sailing-trial","325","1394232","0.0-11.0-290.0","","","","false","","","","","","","","","","504","","284","","1","0","arrowleft","0","arrowright","[0.85,0.15,0.325,0.675]","","",""
"sailing-trial","326","1396918","0.0-11.0-291.0","","","","false","","","","","","","","","","null","","1203","","2","0","null","null","arrowup","[0.85,0.15,0.325,0.675]","","",""
"sailing-trial","327","1401020","0.0-11.0-292.0","","","","false","","","","","","","","","","586","","177","","0","1","arrowleft","0","arrowleft","[0.85,0.15,0.325,0.675]","","",""
"sailing-trial","328","1403077","0.0-11.0-293.0","","","","false","","","","","","","","","","null","","883","","2","0","null","null","arrowup","[0.85,0.15,0.325,0.675]","","",""
"sailing-trial","329","1406642","0.0-11.0-294.0","","","","false","","","","","","","","","","771","","125","","0","0","arrowleft","0","arrowleft","[0.15,0.85,0.675,0.325]","","",""
"sailing-trial","330","1409588","0.0-11.0-295.0","","","","false","","","","","","","","","","null","","916","","1","1","null","null","arrowup","[0.15,0.85,0.675,0.325]","","",""
"sailing-trial","331","1413506","0.0-11.0-296.0","","","","false","","","","","","","","","","463","","427.00000000023283","","2","1","arrowright","1","arrowleft","[0.15,0.85,0.675,0.325]","","",""
"sailing-trial","332","1415394","0.0-11.0-297.0","","","","false","","","","","","","","","","null","","708.0000000002328","","2","0","null","null","arrowup","[0.15,0.85,0.675,0.325]","","",""
"sailing-trial","333","1418893","0.0-11.0-298.0","","","","false","","","","","","","","","","645","","102.99999999976717","","0","0","arrowleft","0","arrowleft","[0.15,0.85,0.675,0.325]","","",""
"sailing-trial","334","1420976","0.0-11.0-299.0","","","","false","","","","","","","","","","null","","853","","2","0","null","null","arrowup","[0.15,0.85,0.675,0.325]","","",""
"sailing-trial","335","1424870","0.0-11.0-300.0","","","","false","","","","","","","","","","941.0000000002328","","293","","2","0","arrowright","1","arrowleft","[0.15,0.85,0.675,0.325]","","",""
"sailing-trial","336","1428547","0.0-11.0-301.0","","","","false","","","","","","","","","","null","","1928","","2","1","null","null","arrowup","[0.15,0.85,0.675,0.325]","","",""
"sailing-trial","337","1431857","0.0-11.0-302.0","","","","false","","","","","","","","","","368","","447","","3","0","arrowright","1","arrowright","[0.15,0.85,0.675,0.325]","","",""
"sailing-trial","338","1434967","0.0-11.0-303.0","","","","false","","","","","","","","","","null","","1635","","0","0","null","null","arrowup","[0.15,0.85,0.675,0.325]","","",""
"sailing-trial","339","1438975","0.0-11.0-304.0","","","","false","","","","","","","","","","816.0000000002328","","343","","1","0","arrowleft","0","arrowright","[0.15,0.85,0.675,0.325]","","",""
"sailing-trial","340","1442522","0.0-11.0-305.0","","","","false","","","","","","","","","","null","","2038.9999999997672","","3","0","null","null","arrowup","[0.15,0.85,0.675,0.325]","","",""
"sailing-trial","341","1447887","0.0-11.0-306.0","","","","false","","","","","","","","","","863","","801","","1","1","arrowleft","0","arrowright","[0.15,0.85,0.675,0.325]","","",""
"sailing-trial","342","1451577","0.0-11.0-307.0","","","","false","","","","","","","","","","null","","2521.000000000233","","0","0","null","null","arrowup","[0.15,0.85,0.675,0.325]","","",""
"sailing-trial","343","1457674","0.0-11.0-308.0","","","","false","","","","","","","","","","1305","","872","","1","1","arrowleft","0","arrowright","[0.15,0.85,0.675,0.325]","","",""
"sailing-trial","344","1462941","0.0-11.0-309.0","","","","false","","","","","","","","","","null","","3830.000000000233","","0","0","null","null","arrowup","[0.15,0.85,0.675,0.325]","","",""
"sailing-trial","345","1468080","0.0-11.0-310.0","","","","false","","","","","","","","","","1068","","626.0000000002328","","3","1","arrowright","1","arrowright","[0.85,0.15,0.325,0.675]","","",""
"sailing-trial","346","1472427","0.0-11.0-311.0","","","","false","","","","","","","","","","null","","2808","","1","0","null","null","arrowup","[0.85,0.15,0.325,0.675]","","",""
"sailing-trial","347","1477575","0.0-11.0-312.0","","","","false","","","","","","","","","","1093.9999999997672","","415","","1","0","arrowleft","0","arrowright","[0.85,0.15,0.325,0.675]","","",""
"sailing-trial","348","1480364","0.0-11.0-313.0","","","","false","","","","","","","","","","null","","1247","","1","0","null","null","arrowup","[0.85,0.15,0.325,0.675]","","",""
"sailing-trial","349","1484830","0.0-11.0-314.0","","","","false","","","","","","","","","","1077","","315","","1","0","arrowleft","0","arrowright","[0.85,0.15,0.325,0.675]","","",""
"sailing-trial","350","1489329","0.0-11.0-315.0","","","","false","","","","","","","","","","null","","2937.999999999767","","3","0","null","null","arrowup","[0.85,0.15,0.325,0.675]","","",""
"sailing-trial","351","1494472","0.0-11.0-316.0","","","","false","","","","","","","","","","939.9999999997672","","492.00000000023283","","0","1","arrowleft","0","arrowleft","[0.85,0.15,0.325,0.675]","","",""
"sailing-trial","352","1498337","0.0-11.0-317.0","","","","false","","","","","","","","","","null","","2098","","1","0","null","null","arrowup","[0.85,0.15,0.325,0.675]","","",""
"sailing-trial","353","1502110","0.0-11.0-318.0","","","","false","","","","","","","","","","650","","257","","3","0","arrowright","1","arrowright","[0.85,0.15,0.325,0.675]","","",""
"sailing-trial","354","1504768","0.0-11.0-319.0","","","","false","","","","","","","","","","null","","1181.9999999997672","","3","0","null","null","arrowup","[0.85,0.15,0.325,0.675]","","",""
"sailing-trial","355","1510145","0.0-11.0-320.0","","","","false","","","","","","","","","","929","","718","","0","1","arrowleft","0","arrowleft","[0.85,0.15,0.325,0.675]","","",""
"sailing-trial","356","1512483","0.0-11.0-321.0","","","","false","","","","","","","","","","null","","1049","","3","0","null","null","arrowup","[0.85,0.15,0.325,0.675]","","",""
"sailing-trial","357","1516430","0.0-11.0-322.0","","","","false","","","","","","","","","","645","","283","","3","1","arrowright","1","arrowright","[0.85,0.15,0.325,0.675]","","",""
"sailing-trial","358","1519131","0.0-11.0-323.0","","","","false","","","","","","","","","","null","","932","","3","1","null","null","arrowup","[0.85,0.15,0.325,0.675]","","",""
"sailing-trial","359","1523572","0.0-11.0-324.0","","","","false","","","","","","","","","","1201","","318","","1","0","arrowleft","0","arrowright","[0.85,0.15,0.325,0.675]","","",""
"sailing-trial","360","1527418","0.0-11.0-325.0","","","","false","","","","","","","","","","null","","1776","","2","1","null","null","arrowup","[0.85,0.15,0.325,0.675]","","",""
"sailing-trial","361","1532770","0.0-11.0-326.0","","","","false","","","","","","","","","","1380","","162","","0","1","arrowleft","0","arrowleft","[0.85,0.15,0.325,0.675]","","",""
"sailing-trial","362","1535472","0.0-11.0-327.0","","","","false","","","","","","","","","","null","","1020","","3","1","null","null","arrowup","[0.85,0.15,0.325,0.675]","","",""
"sailing-trial","363","1540028","0.0-11.0-328.0","","","","false","","","","","","","","","","1145","","403","","1","0","arrowleft","0","arrowright","[0.675,0.325,0.15,0.85]","","",""
"sailing-trial","364","1542441","0.0-11.0-329.0","","","","false","","","","","","","","","","null","","729","","3","1","null","null","arrowup","[0.675,0.325,0.15,0.85]","","",""
"sailing-trial","365","1545910","0.0-11.0-330.0","","","","false","","","","","","","","","","917","","30","","1","0","arrowleft","0","arrowright","[0.675,0.325,0.15,0.85]","","",""
"sailing-trial","366","1548633","0.0-11.0-331.0","","","","false","","","","","","","","","","null","","1549","","1","0","null","null","arrowup","[0.675,0.325,0.15,0.85]","","",""
"sailing-trial","367","1552509","0.0-11.0-332.0","","","","false","","","","","","","","","","648","","355","","3","1","arrowright","1","arrowright","[0.675,0.325,0.15,0.85]","","",""
"sailing-trial","368","1555929","0.0-11.0-333.0","","","","false","","","","","","","","","","null","","1473","","3","1","null","null","arrowup","[0.675,0.325,0.15,0.85]","","",""
"sailing-trial","369","1563230","0.0-11.0-334.0","","","","false","","","","","","","","","","769","","3051","","1","1","arrowleft","0","arrowright","[0.675,0.325,0.15,0.85]","","",""
"sailing-trial","370","1566300","0.0-11.0-335.0","","","","false","","","","","","","","","","null","","1003","","3","1","null","null","arrowup","[0.675,0.325,0.15,0.85]","","",""
"sailing-trial","371","1570985","0.0-11.0-336.0","","","","false","","","","","","","","","","1180","","12","","3","1","arrowright","1","arrowright","[0.675,0.325,0.15,0.85]","","",""
"sailing-trial","372","1573595","0.0-11.0-337.0","","","","false","","","","","","","","","","null","","989.0000000002328","","3","0","null","null","arrowup","[0.675,0.325,0.15,0.85]","","",""
"sailing-trial","373","1577334","0.0-11.0-338.0","","","","false","","","","","","","","","","591.0000000002328","","249","","0","0","arrowleft","0","arrowleft","[0.675,0.325,0.15,0.85]","","",""
"sailing-trial","374","1579956","0.0-11.0-339.0","","","","false","","","","","","","","","","null","","1053","","1","0","null","null","arrowup","[0.675,0.325,0.15,0.85]","","",""
"sailing-trial","375","1584087","0.0-11.0-340.0","","","","false","","","","","","","","","","1166.9999999997672","","95","","2","0","arrowright","1","arrowleft","[0.675,0.325,0.15,0.85]","","",""
"sailing-trial","376","1587107","0.0-11.0-341.0","","","","false","","","","","","","","","","null","","960","","3","1","null","null","arrowup","[0.675,0.325,0.15,0.85]","","",""
"sailing-trial","377","1591587","0.0-11.0-342.0","","","","false","","","","","","","","","","1016","","422","","2","0","arrowright","1","arrowleft","[0.675,0.325,0.15,0.85]","","",""
"sailing-trial","378","1594174","0.0-11.0-343.0","","","","false","","","","","","","","","","null","","920","","3","0","null","null","arrowup","[0.675,0.325,0.15,0.85]","","",""
"sailing-trial","379","1598963","0.0-11.0-344.0","","","","false","","","","","","","","","","1153","","167","","0","1","arrowleft","0","arrowleft","[0.675,0.325,0.15,0.85]","","",""
"sailing-trial","380","1603652","0.0-11.0-345.0","","","","false","","","","","","","","","","null","","1977","","0","0","null","null","arrowup","[0.675,0.325,0.15,0.85]","","",""
"sailing-trial","381","1608515","0.0-11.0-346.0","","","","false","","","","","","","","","","863","","194","","2","1","arrowright","1","arrowleft","[0.85,0.15,0.325,0.675]","","",""
"sailing-trial","382","1612301","0.0-11.0-347.0","","","","false","","","","","","","","","","null","","1492","","3","1","null","null","arrowup","[0.85,0.15,0.325,0.675]","","",""
"sailing-trial","383","1617387","0.0-11.0-348.0","","","","false","","","","","","","","","","1326","","322","","3","1","arrowright","1","arrowright","[0.85,0.15,0.325,0.675]","","",""
"sailing-trial","384","1619425","0.0-11.0-349.0","","","","false","","","","","","","","","","null","","782","","2","0","null","null","arrowup","[0.85,0.15,0.325,0.675]","","",""
"sailing-trial","385","1623189","0.0-11.0-350.0","","","","false","","","","","","","","","","723.0000000002328","","21.00000000023283","","0","1","arrowleft","0","arrowleft","[0.85,0.15,0.325,0.675]","","",""
"sailing-trial","386","1625544","0.0-11.0-351.0","","","","false","","","","","","","","","","null","","1013","","1","0","null","null","arrowup","[0.85,0.15,0.325,0.675]","","",""
"sailing-trial","387","1629486","0.0-11.0-352.0","","","","false","","","","","","","","","","997","","257","","2","0","arrowright","1","arrowleft","[0.85,0.15,0.325,0.675]","","",""
"sailing-trial","388","1631668","0.0-11.0-353.0","","","","false","","","","","","","","","","null","","1004","","3","0","null","null","arrowup","[0.85,0.15,0.325,0.675]","","",""
"sailing-trial","389","1635251","0.0-11.0-354.0","","","","false","","","","","","","","","","644","","437.99999999976717","","3","0","arrowright","1","arrowright","[0.85,0.15,0.325,0.675]","","",""
"sailing-trial","390","1637555","0.0-11.0-355.0","","","","false","","","","","","","","","","null","","1122","","1","0","null","null","arrowup","[0.85,0.15,0.325,0.675]","","",""
"sailing-trial","391","1640588","0.0-11.0-356.0","","","","false","","","","","","","","","","493","","41","","1","0","arrowleft","0","arrowright","[0.85,0.15,0.325,0.675]","","",""
"sailing-trial","392","1644831","0.0-11.0-357.0","","","","false","","","","","","","","","","null","","2671","","1","0","null","null","arrowup","[0.85,0.15,0.325,0.675]","","",""
"sailing-trial","393","1648015","0.0-11.0-358.0","","","","false","","","","","","","","","","384","","217","","3","0","arrowright","1","arrowright","[0.85,0.15,0.325,0.675]","","",""
"sailing-trial","394","1650616","0.0-11.0-359.0","","","","false","","","","","","","","","","null","","914","","3","1","null","null","arrowup","[0.85,0.15,0.325,0.675]","","",""
"sailing-trial","395","1655506","0.0-11.0-360.0","","","","false","","","","","","","","","","423","","881","","0","0","arrowleft","0","arrowleft","[0.85,0.15,0.325,0.675]","","",""
"sailing-trial","396","1659786","0.0-11.0-361.0","","","","false","","","","","","","","","","null","","1868","","2","1","null","null","arrowup","[0.85,0.15,0.325,0.675]","","",""
"sailing-trial","397","1663438","0.0-11.0-362.0","","","","false","","","","","","","","","","670","","153.99999999976717","","2","0","arrowright","1","arrowleft","[0.85,0.15,0.325,0.675]","","",""
"sailing-trial","398","1667071","0.0-11.0-363.0","","","","false","","","","","","","","","","null","","1705","","2","1","null","null","arrowup","[0.85,0.15,0.325,0.675]","","",""
"sailing-trial","399","1671956","0.0-11.0-364.0","","","","false","","","","","","","","","","1256.9999999997672","","189","","3","1","arrowright","1","arrowright","[0.85,0.15,0.325,0.675]","","",""
"sailing-trial","400","1675476","0.0-11.0-365.0","","","","false","","","","","","","","","","null","","1083.9999999997672","","0","1","null","null","arrowup","[0.85,0.15,0.325,0.675]","","",""
"sailing-trial","401","1680611","0.0-11.0-366.0","","","","false","","","","","","","","","","872","","475","","2","1","arrowright","1","arrowleft","[0.85,0.15,0.325,0.675]","","",""
"sailing-trial","402","1683591","0.0-11.0-367.0","","","","false","","","","","","","","","","null","","1449","","3","0","null","null","arrowup","[0.85,0.15,0.325,0.675]","","",""
"sailing-trial","403","1688286","0.0-11.0-368.0","","","","false","","","","","","","","","","748","","755.0000000002328","","1","0","arrowleft","0","arrowright","[0.675,0.325,0.15,0.85]","","",""
"sailing-trial","404","1694433","0.0-11.0-369.0","","","","false","","","","","","","","","","null","","4272","","2","1","null","null","arrowup","[0.675,0.325,0.15,0.85]","","",""
"sailing-trial","405","1698839","0.0-11.0-370.0","","","","false","","","","","","","","","","1245","","228","","2","0","arrowright","1","arrowleft","[0.675,0.325,0.15,0.85]","","",""
"sailing-trial","406","1704371","0.0-11.0-371.0","","","","false","","","","","","","","","","null","","3709","","3","1","null","null","arrowup","[0.675,0.325,0.15,0.85]","","",""
"sailing-trial","407","1708538","0.0-11.0-372.0","","","","false","","","","","","","","","","835.0000000002328","","276.99999999976717","","1","0","arrowleft","0","arrowright","[0.675,0.325,0.15,0.85]","","",""
"sailing-trial","408","1711839","0.0-11.0-373.0","","","","false","","","","","","","","","","null","","1257","","1","1","null","null","arrowup","[0.675,0.325,0.15,0.85]","","",""
"sailing-trial","409","1717476","0.0-11.0-374.0","","","","false","","","","","","","","","","887","","358.00000000023283","","1","1","arrowleft","0","arrowright","[0.675,0.325,0.15,0.85]","","",""
"sailing-trial","410","1721160","0.0-11.0-375.0","","","","false","","","","","","","","","","null","","1414","","3","1","null","null","arrowup","[0.675,0.325,0.15,0.85]","","",""
"sailing-trial","411","1725144","0.0-11.0-376.0","","","","false","","","","","","","","","","657","","299","","0","0","arrowleft","0","arrowleft","[0.675,0.325,0.15,0.85]","","",""
"sailing-trial","412","1728479","0.0-11.0-377.0","","","","false","","","","","","","","","","null","","1149","","3","1","null","null","arrowup","[0.675,0.325,0.15,0.85]","","",""
"sailing-trial","413","1734082","0.0-11.0-378.0","","","","false","","","","","","","","","","986.0000000002328","","252","","2","0","arrowright","1","arrowleft","[0.675,0.325,0.15,0.85]","","",""
"sailing-trial","414","1738254","0.0-11.0-379.0","","","","false","","","","","","","","","","null","","1143","","2","0","null","null","arrowup","[0.675,0.325,0.15,0.85]","","",""
"sailing-trial","415","1741811","0.0-11.0-380.0","","","","false","","","","","","","","","","886.9999999997672","","179","","1","0","arrowleft","0","arrowright","[0.675,0.325,0.15,0.85]","","",""
"sailing-trial","416","1744469","0.0-11.0-381.0","","","","false","","","","","","","","","","null","","900","","3","1","null","null","arrowup","[0.675,0.325,0.15,0.85]","","",""
"sailing-trial","417","1747883","0.0-11.0-382.0","","","","false","","","","","","","","","","379","","118","","1","0","arrowleft","0","arrowright","[0.675,0.325,0.15,0.85]","","",""
"sailing-trial","418","1750454","0.0-11.0-383.0","","","","false","","","","","","","","","","null","","896","","3","1","null","null","arrowup","[0.675,0.325,0.15,0.85]","","",""
"sailing-trial","419","1754540","0.0-11.0-384.0","","","","false","","","","","","","","","","601","","102.00000000023283","","1","1","arrowleft","0","arrowright","[0.85,0.15,0.325,0.675]","","",""
"sailing-trial","420","1757591","0.0-11.0-385.0","","","","false","","","","","","","","","","null","","952","","0","1","null","null","arrowup","[0.85,0.15,0.325,0.675]","","",""
"sailing-trial","421","1761141","0.0-11.0-386.0","","","","false","","","","","","","","","","532","","485","","2","0","arrowright","1","arrowleft","[0.85,0.15,0.325,0.675]","","",""
"sailing-trial","422","1766461","0.0-11.0-387.0","","","","false","","","","","","","","","","null","","2683","","2","1","null","null","arrowup","[0.85,0.15,0.325,0.675]","","",""
"sailing-trial","423","1770847","0.0-11.0-388.0","","","","false","","","","","","","","","","823","","437","","0","1","arrowleft","0","arrowleft","[0.85,0.15,0.325,0.675]","","",""
"sailing-trial","424","1773563","0.0-11.0-389.0","","","","false","","","","","","","","","","null","","1027","","2","1","null","null","arrowup","[0.85,0.15,0.325,0.675]","","",""
"sailing-trial","425","1777904","0.0-11.0-390.0","","","","false","","","","","","","","","","743","","754.0000000002328","","2","0","arrowright","1","arrowleft","[0.85,0.15,0.325,0.675]","","",""
"sailing-trial","426","1781231","0.0-11.0-391.0","","","","false","","","","","","","","","","null","","1792","","1","0","null","null","arrowup","[0.85,0.15,0.325,0.675]","","",""
"sailing-trial","427","1785274","0.0-11.0-392.0","","","","false","","","","","","","","","","1090.0000000002328","","204","","1","0","arrowleft","0","arrowright","[0.85,0.15,0.325,0.675]","","",""
"sailing-trial","428","1787578","0.0-11.0-393.0","","","","false","","","","","","","","","","null","","865","","3","0","null","null","arrowup","[0.85,0.15,0.325,0.675]","","",""
"sailing-trial","429","1791333","0.0-11.0-394.0","","","","false","","","","","","","","","","731","","215","","2","0","arrowright","1","arrowleft","[0.85,0.15,0.325,0.675]","","",""
"sailing-trial","430","1793989","0.0-11.0-395.0","","","","false","","","","","","","","","","null","","961","","0","1","null","null","arrowup","[0.85,0.15,0.325,0.675]","","",""
"sailing-trial","431","1797694","0.0-11.0-396.0","","","","false","","","","","","","","","","720","","313","","1","0","arrowleft","0","arrowright","[0.85,0.15,0.325,0.675]","","",""
"sailing-trial","432","1800091","0.0-11.0-397.0","","","","false","","","","","","","","","","null","","852","","2","0","null","null","arrowup","[0.85,0.15,0.325,0.675]","","",""
"sailing-trial","433","1803600","0.0-11.0-398.0","","","","false","","","","","","","","","","735","","267","","2","0","arrowright","1","arrowleft","[0.85,0.15,0.325,0.675]","","",""
"sailing-trial","434","1806564","0.0-11.0-399.0","","","","false","","","","","","","","","","null","","1308.9999999997672","","2","0","null","null","arrowup","[0.85,0.15,0.325,0.675]","","",""
"instructions","435","1811447","0.0-12.0","","","","","","","","","","4883.000000000233","","","","","","","","","","","","","","","","[{""page_index"":0,""viewing_time"":4883.000000000233}]"
"survey-debrief","436","1887511","0.0-13.0","","","","","","","","","","76062","","","","","","","","","","","","","","{""difficulty"":""3"",""fun"":""2"",""clarity"":""5"",""strategy"":""No, I was trying to look at the other colors and seeing what would be the opposite, like blue and green and then yellow and red and tried to do it like that. "",""feedback"":""I think that the lab was a bit too long because it felt like I was just sitting and pressing buttons for a while. ""}","",""
