"trial_type","trial_index","time_elapsed","internal_node_id","value","metadata","success","timeout","failed_images","failed_audio","failed_video","browser_interaction","low_quality","rt","stimulus","response","button_pressed","island_rt","island_response","boat_rt","boat_response","boat","reward","island_key","island","boat_key","reward_probabilities","responses","num_errors","view_history"
"pavlovia","0","4","0.0-0.0","","","","","","","","","","","","","","","","","","","","","","","","","",""
"call-function","1","5","0.0-1.0","","{""task_version"":""sailing_part1_v1"",""task_condition"":""good"",""boats"":[""D"",""A"",""C"",""B""],""boats_demo"":[""G"",""E"",""H"",""F""],""islands"":[""B"",""A""],""subject_id"":""14723"",""age"":""9"",""gender"":""Female""}","","","","","","","","","","","","","","","","","","","","","","","",""
"preload","2","7500","0.0-2.0","","","true","false","[]","[]","[]","[{""event"":""fullscreenenter"",""trial"":3,""time"":15201}]","false","","","","","","","","","","","","","","","","",""
"fullscreen","3","16170","0.0-3.0","","","true","","","","","","","","","","","","","","","","","","","","","","",""
"audio-keyboard-response","4","18467","0.0-4.0-0.0","","","","","","","","","","2061.333333333333","audio/beep_loop.wav"," ","","","","","","","","","","","","","",""
"audio-test","5","20781","0.0-4.0-1.0","","","","","","","","","","null","audio/turtle.mp3","","3","","","","","","","","","","","","",""
"audio-test","6","23002","0.0-4.0-2.0","","","","","","","","","","null","audio/shark.mp3","","2","","","","","","","","","","","","",""
"sailing-instructions","7","76460","0.0-5.0-0.0-0.0","","","","","","","","","","","","","","null","null","null","null","null","null","","","","","","",""
"sailing-trial","8","82194","0.0-5.0-0.0-1.0-0.0","","","","false","","","","","","","","","","4580.199999999953","","null","","null","null","arrowleft","0","null","null","","",""
"sailing-trial","9","84820","0.0-5.0-0.0-1.0-1.0","","","","false","","","","","","","","","","1494","","null","","null","null","arrowright","1","null","null","","",""
"sailing-trial","10","90783","0.0-5.0-0.0-1.0-2.0","","","","false","","","","","","","","","","4820.5","","null","","null","null","arrowleft","0","null","null","","",""
"sailing-instructions","11","136751","0.0-5.0-0.0-2.0","","","","","","","","","","","","","","null","null","null","null","0","null","","","","","","",""
"sailing-trial","12","147089","0.0-5.0-0.0-3.0-0.0","","","","false","","","","","","","","","","null","","5426.09999999986","","2","1","null","null","arrowleft","[1,1,1,1]","","",""
"sailing-trial","13","153538","0.0-5.0-0.0-3.0-1.0","","","","false","","","","","","","","","","null","","2867.5","","3","1","null","null","arrowright","[1,1,1,1]","","",""
"sailing-trial","14","158747","0.0-5.0-0.0-3.0-2.0","","","","false","","","","","","","","","","null","","1638.3000000000466","","3","0","null","null","arrowright","[0,0,0,0]","","",""
"sailing-instructions","15","167746","0.0-5.0-0.0-4.0","","","","","","","","","","","","","","null","null","null","null","null","null","","","","","","",""
"sailing-comprehension","16","213558","0.0-5.0-0.0-5.0","","","","","","","","","","42478.69999999995","","","","","","","","","","","","","","[""true"",""true"",""false"",""true""]","0",""
"sailing-instructions","17","292885","0.0-6.0-0.0-0.0","","","","","","","","","","","","","","null","null","null","null","null","null","","","","","","",""
"sailing-comprehension","18","325557","0.0-6.0-0.0-1.0","","","","","","","","","","26206.300000000047","","","","","","","","","","","","","","[""true"",""false"",""true""]","0",""
"sailing-instructions","19","341268","0.0-7.0-0.0-0.0","","","","","","","","","","","","","","null","null","null","null","null","null","","","","","","",""
"sailing-trial","20","349658","0.0-7.0-0.0-1.0-0.0","","","","false","","","","","","","","","","null","","5341.799999999814","","0","0","null","null","arrowup","[0.2,0.8,0.2,0.8]","","",""
"sailing-trial","21","356597","0.0-7.0-0.0-1.0-1.0","","","","false","","","","","","","","","","null","","3693.8000000000466","","1","1","null","null","arrowup","[0.2,0.8,0.2,0.8]","","",""
"sailing-trial","22","361480","0.0-7.0-0.0-1.0-2.0","","","","false","","","","","","","","","","null","","1842.9000000001397","","2","0","null","null","arrowup","[0.2,0.8,0.2,0.8]","","",""
"sailing-trial","23","370066","0.0-7.0-0.0-1.0-3.0","","","","false","","","","","","","","","","null","","2520.8000000000466","","3","1","null","null","arrowup","[0.2,0.8,0.2,0.8]","","",""
"sailing-comprehension","24","390564","0.0-7.0-0.0-2.0","","","","","","","","","","13796.800000000047","","","","","","","","","","","","","","[""true""]","1",""
"sailing-instructions","25","408514","0.0-7.0-0.1-0.1","","","","","","","","","","","","","","null","null","null","null","null","null","","","","","","",""
"sailing-trial","26","416475","0.0-7.0-0.1-1.1-0.1","","","","false","","","","","","","","","","null","","5139.199999999953","","0","0","null","null","arrowup","[0.2,0.8,0.2,0.8]","","",""
"sailing-trial","27","422505","0.0-7.0-0.1-1.1-1.1","","","","false","","","","","","","","","","null","","1813.1999999999534","","1","1","null","null","arrowup","[0.2,0.8,0.2,0.8]","","",""
"sailing-trial","28","428814","0.0-7.0-0.1-1.1-2.1","","","","false","","","","","","","","","","null","","3274.5","","2","0","null","null","arrowup","[0.2,0.8,0.2,0.8]","","",""
"sailing-trial","29","433707","0.0-7.0-0.1-1.1-3.1","","","","false","","","","","","","","","","null","","1825.8000000000466","","3","0","null","null","arrowup","[0.2,0.8,0.2,0.8]","","",""
"sailing-comprehension","30","444613","0.0-7.0-0.1-2.1","","","","","","","","","","7684.299999999814","","","","","","","","","","","","","","[""false""]","0",""
"sailing-instructions","31","460631","0.0-8.0-0.0-0.0","","","","","","","","","","","","","","null","null","null","null","null","null","","","","","","",""
"sailing-comprehension","32","473933","0.0-8.0-0.0-1.0","","","","","","","","","","7498.600000000093","","","","","","","","","","","","","","[""true""]","0",""
"sailing-instructions","33","521827","0.0-9.0-0.0-0.0","","","","","","","","","","","","","","null","null","null","null","null","null","","","","","","",""
"sailing-trial","34","535155","0.0-9.0-0.0-1.0-0.0","","","","false","","","","","","","","","","7493.100000000093","","1466.6999999999534","","0","0","arrowleft","0","arrowleft","[0.2,0.8,0.2,0.8]","","",""
"sailing-trial","35","541289","0.0-9.0-0.0-1.0-1.0","","","","false","","","","","","","","","","1671","","404.60000000009313","","0","0","arrowleft","0","arrowleft","[0.2,0.8,0.2,0.8]","","",""
"sailing-trial","36","546240","0.0-9.0-0.0-1.0-2.0","","","","false","","","","","","","","","","null","","3244.8000000000466","","0","0","null","null","arrowup","[0.2,0.8,0.2,0.8]","","",""
"sailing-trial","37","554788","0.0-9.0-0.0-1.0-3.0","","","","false","","","","","","","","","","1160.0999999998603","","3264.399999999907","","2","0","arrowright","1","arrowleft","[0.2,0.8,0.2,0.8]","","",""
"sailing-trial","38","561300","0.0-9.0-0.0-1.0-4.0","","","","false","","","","","","","","","","null","","3280.600000000093","","3","1","null","null","arrowup","[0.2,0.8,0.2,0.8]","","",""
"sailing-trial","39","568673","0.0-9.0-0.0-1.0-5.0","","","","false","","","","","","","","","","1234.5","","2107.8000000000466","","0","0","arrowleft","0","arrowleft","[0.2,0.8,0.2,0.8]","","",""
"sailing-instructions","40","602136","0.0-10.0","","","","","","","","","","","","","","null","null","null","null","null","null","","","","","","",""
"sailing-trial","41","607754","0.0-11.0-0.0","","","","false","","","","","","","","","","1259.8999999999069","","96.30000000004657","","2","0","arrowright","1","arrowleft","[0.675,0.325,0.85,0.15]","","",""
"sailing-trial","42","615178","0.0-11.0-1.0","","","","false","","","","","","","","","","null","","3374.4000000001397","","1","1","null","null","arrowup","[0.675,0.325,0.85,0.15]","","",""
"sailing-trial","43","620672","0.0-11.0-2.0","","","","false","","","","","","","","","","863","","516.3000000000466","","0","0","arrowleft","0","arrowleft","[0.675,0.325,0.85,0.15]","","",""
"sailing-trial","44","626465","0.0-11.0-3.0","","","","false","","","","","","","","","","null","","2736.899999999907","","3","0","null","null","arrowup","[0.675,0.325,0.85,0.15]","","",""
"sailing-trial","45","636852","0.0-11.0-4.0","","","","false","","","","","","","","","","5523.399999999907","","782.5","","1","0","arrowleft","0","arrowright","[0.675,0.325,0.85,0.15]","","",""
"sailing-trial","46","646272","0.0-11.0-5.0","","","","false","","","","","","","","","","null","","2215.899999999907","","2","1","null","null","arrowup","[0.675,0.325,0.85,0.15]","","",""
"sailing-trial","47","653313","0.0-11.0-6.0","","","","false","","","","","","","","","","2492.5","","476.60000000009313","","0","0","arrowleft","0","arrowleft","[0.675,0.325,0.85,0.15]","","",""
"sailing-trial","48","658675","0.0-11.0-7.0","","","","false","","","","","","","","","","null","","2329.0999999998603","","0","0","null","null","arrowup","[0.675,0.325,0.85,0.15]","","",""
"sailing-trial","49","665234","0.0-11.0-8.0","","","","false","","","","","","","","","","2147","","323","","3","0","arrowright","1","arrowright","[0.675,0.325,0.85,0.15]","","",""
"sailing-trial","50","670093","0.0-11.0-9.0","","","","false","","","","","","","","","","null","","1813.3000000000466","","3","0","null","null","arrowup","[0.675,0.325,0.85,0.15]","","",""
"sailing-trial","51","676938","0.0-11.0-10.0","","","","false","","","","","","","","","","951.0999999998603","","802.6999999999534","","1","1","arrowleft","0","arrowright","[0.675,0.325,0.85,0.15]","","",""
"sailing-trial","52","682128","0.0-11.0-11.0","","","","false","","","","","","","","","","null","","2132.3000000000466","","1","0","null","null","arrowup","[0.675,0.325,0.85,0.15]","","",""
"sailing-trial","53","691670","0.0-11.0-12.0","","","","false","","","","","","","","","","1911.6999999999534","","1668.1000000000931","","3","1","arrowright","1","arrowright","[0.675,0.325,0.85,0.15]","","",""
"sailing-trial","54","697592","0.0-11.0-13.0","","","","false","","","","","","","","","","null","","2859.5999999998603","","1","0","null","null","arrowup","[0.675,0.325,0.85,0.15]","","",""
"sailing-trial","55","704204","0.0-11.0-14.0","","","","false","","","","","","","","","","1285.8000000000466","","1238","","0","0","arrowleft","0","arrowleft","[0.675,0.325,0.85,0.15]","","",""
"sailing-trial","56","710626","0.0-11.0-15.0","","","","false","","","","","","","","","","null","","1998.0999999998603","","2","1","null","null","arrowup","[0.675,0.325,0.85,0.15]","","",""
"sailing-trial","57","716651","0.0-11.0-16.0","","","","false","","","","","","","","","","1508.3000000000466","","462.0999999998603","","3","0","arrowright","1","arrowright","[0.85,0.15,0.675,0.325]","","",""
"sailing-trial","58","721530","0.0-11.0-17.0","","","","false","","","","","","","","","","null","","1827.3000000000466","","3","0","null","null","arrowup","[0.85,0.15,0.675,0.325]","","",""
"sailing-trial","59","731584","0.0-11.0-18.0","","","","false","","","","","","","","","","2569.0999999998603","","3425.5","","2","0","arrowright","1","arrowleft","[0.85,0.15,0.675,0.325]","","",""
"sailing-trial","60","738916","0.0-11.0-19.0","","","","false","","","","","","","","","","null","","2169.5999999998603","","3","1","null","null","arrowup","[0.85,0.15,0.675,0.325]","","",""
"sailing-trial","61","746301","0.0-11.0-20.0","","","","false","","","","","","","","","","940.3999999999069","","456","","2","1","arrowright","1","arrowleft","[0.85,0.15,0.675,0.325]","","",""
"sailing-trial","62","752895","0.0-11.0-21.0","","","","false","","","","","","","","","","null","","1393.8999999999069","","2","1","null","null","arrowup","[0.85,0.15,0.675,0.325]","","",""
"sailing-trial","63","760996","0.0-11.0-22.0","","","","false","","","","","","","","","","2004.8000000000466","","2031.6999999999534","","2","0","arrowright","1","arrowleft","[0.85,0.15,0.675,0.325]","","",""
"sailing-trial","64","765841","0.0-11.0-23.0","","","","false","","","","","","","","","","null","","1821.2000000001863","","1","0","null","null","arrowup","[0.85,0.15,0.675,0.325]","","",""
"sailing-trial","65","775313","0.0-11.0-24.0","","","","false","","","","","","","","","","2552.0999999998603","","2781.4000000001397","","0","0","arrowleft","0","arrowleft","[0.85,0.15,0.675,0.325]","","",""
"sailing-trial","66","783153","0.0-11.0-25.0","","","","false","","","","","","","","","","null","","1725.9000000001397","","0","1","null","null","arrowup","[0.85,0.15,0.675,0.325]","","",""
"sailing-trial","67","791347","0.0-11.0-26.0","","","","false","","","","","","","","","","592.2000000001863","","3425.1999999999534","","0","1","arrowleft","0","arrowleft","[0.85,0.15,0.675,0.325]","","",""
"sailing-trial","68","796814","0.0-11.0-27.0","","","","false","","","","","","","","","","null","","1399.5","","0","1","null","null","arrowup","[0.85,0.15,0.675,0.325]","","",""
"sailing-trial","69","806394","0.0-11.0-28.0","","","","false","","","","","","","","","","3434.100000000093","","163.30000000004657","","1","1","arrowleft","0","arrowright","[0.85,0.15,0.675,0.325]","","",""
"sailing-trial","70","811138","0.0-11.0-29.0","","","","false","","","","","","","","","","null","","1719.6000000000931","","3","0","null","null","arrowup","[0.85,0.15,0.675,0.325]","","",""
"sailing-trial","71","817131","0.0-11.0-30.0","","","","false","","","","","","","","","","542.0999999998603","","536.2999999998137","","2","1","arrowright","1","arrowleft","[0.85,0.15,0.675,0.325]","","",""
"sailing-trial","72","823453","0.0-11.0-31.0","","","","false","","","","","","","","","","null","","1841","","3","1","null","null","arrowup","[0.85,0.15,0.675,0.325]","","",""
"sailing-trial","73","827964","0.0-11.0-32.0","","","","false","","","","","","","","","","362.30000000004657","","89.9000000001397","","3","0","arrowright","1","arrowright","[0.325,0.675,0.15,0.85]","","",""
"sailing-trial","74","834610","0.0-11.0-33.0","","","","false","","","","","","","","","","null","","1695.6000000000931","","3","1","null","null","arrowup","[0.325,0.675,0.15,0.85]","","",""
"sailing-trial","75","841328","0.0-11.0-34.0","","","","false","","","","","","","","","","1795.3000000000466","","85.5","","0","1","arrowleft","0","arrowleft","[0.325,0.675,0.15,0.85]","","",""
"sailing-trial","76","845975","0.0-11.0-35.0","","","","false","","","","","","","","","","null","","1587.3000000000466","","0","0","null","null","arrowup","[0.325,0.675,0.15,0.85]","","",""
"sailing-trial","77","853531","0.0-11.0-36.0","","","","false","","","","","","","","","","2153.4000000001397","","1188.8000000000466","","1","1","arrowleft","0","arrowright","[0.325,0.675,0.15,0.85]","","",""
"sailing-trial","78","860295","0.0-11.0-37.0","","","","false","","","","","","","","","","null","","1832.8999999999069","","0","1","null","null","arrowup","[0.325,0.675,0.15,0.85]","","",""
"sailing-trial","79","868991","0.0-11.0-38.0","","","","false","","","","","","","","","","887","","3761.5999999998603","","2","0","arrowright","1","arrowleft","[0.325,0.675,0.15,0.85]","","",""
"sailing-trial","80","876707","0.0-11.0-39.0","","","","false","","","","","","","","","","null","","1572.1000000000931","","1","1","null","null","arrowup","[0.325,0.675,0.15,0.85]","","",""
"sailing-trial","81","883089","0.0-11.0-40.0","","","","false","","","","","","","","","","2125","","293.19999999995343","","3","1","arrowright","1","arrowright","[0.325,0.675,0.15,0.85]","","",""
"sailing-trial","82","890386","0.0-11.0-41.0","","","","false","","","","","","","","","","null","","4265.399999999907","","2","0","null","null","arrowup","[0.325,0.675,0.15,0.85]","","",""
"sailing-trial","83","897208","0.0-11.0-42.0","","","","false","","","","","","","","","","498.5","","166.9000000001397","","1","1","arrowleft","0","arrowright","[0.325,0.675,0.15,0.85]","","",""
"sailing-trial","84","904545","0.0-11.0-43.0","","","","false","","","","","","","","","","null","","1408.0999999998603","","3","1","null","null","arrowup","[0.325,0.675,0.15,0.85]","","",""
"sailing-trial","85","911373","0.0-11.0-44.0","","","","false","","","","","","","","","","904.5999999998603","","349.20000000018626","","3","1","arrowright","1","arrowright","[0.325,0.675,0.15,0.85]","","",""
"sailing-trial","86","917604","0.0-11.0-45.0","","","","false","","","","","","","","","","null","","2080.5999999998603","","2","1","null","null","arrowup","[0.325,0.675,0.15,0.85]","","",""
"sailing-trial","87","923898","0.0-11.0-46.0","","","","false","","","","","","","","","","765.2000000001863","","929.9000000001397","","1","1","arrowleft","0","arrowright","[0.325,0.675,0.15,0.85]","","",""
"sailing-trial","88","928356","0.0-11.0-47.0","","","","false","","","","","","","","","","null","","1414.3999999999069","","2","0","null","null","arrowup","[0.325,0.675,0.15,0.85]","","",""
"sailing-trial","89","934359","0.0-11.0-48.0","","","","false","","","","","","","","","","827.1999999999534","","712","","3","1","arrowright","1","arrowright","[0.325,0.675,0.15,0.85]","","",""
"sailing-trial","90","941458","0.0-11.0-49.0","","","","false","","","","","","","","","","null","","1763.3000000000466","","3","1","null","null","arrowup","[0.325,0.675,0.15,0.85]","","",""
"sailing-trial","91","946582","0.0-11.0-50.0","","","","false","","","","","","","","","","546.5","","546.4000000001397","","2","0","arrowright","1","arrowleft","[0.325,0.675,0.15,0.85]","","",""
"sailing-trial","92","949741","0.0-11.0-51.0","","","","false","","","","","","","","","","null","","163.89999999990687","","0","1","null","null","arrowup","[0.325,0.675,0.15,0.85]","","",""
"sailing-trial","93","960508","0.0-11.0-52.0","","","","false","","","","","","","","","","5029.59999999986","","834.8000000000466","","1","1","arrowleft","0","arrowright","[0.325,0.675,0.15,0.85]","","",""
"sailing-trial","94","967320","0.0-11.0-53.0","","","","false","","","","","","","","","","null","","3148.399999999907","","1","1","null","null","arrowup","[0.325,0.675,0.15,0.85]","","",""
"sailing-trial","95","977279","0.0-11.0-54.0","","","","false","","","","","","","","","","2745.1999999999534","","2838.2999999998137","","3","1","arrowright","1","arrowright","[0.15,0.85,0.325,0.675]","","",""
"sailing-trial","96","984820","0.0-11.0-55.0","","","","false","","","","","","","","","","null","","5861.699999999953","","0","0","null","null","arrowup","[0.15,0.85,0.325,0.675]","","",""
"sailing-trial","97","991945","0.0-11.0-56.0","","","","false","","","","","","","","","","1147.8000000000466","","1048","","2","1","arrowright","1","arrowleft","[0.15,0.85,0.325,0.675]","","",""
"sailing-trial","98","996288","0.0-11.0-57.0","","","","false","","","","","","","","","","null","","1286.8999999999069","","2","0","null","null","arrowup","[0.15,0.85,0.325,0.675]","","",""
"sailing-trial","99","1002528","0.0-11.0-58.0","","","","false","","","","","","","","","","1941.5","","458.89999999990687","","3","1","arrowright","1","arrowright","[0.15,0.85,0.325,0.675]","","",""
"sailing-trial","100","1007024","0.0-11.0-59.0","","","","false","","","","","","","","","","null","","1450.2000000001863","","2","0","null","null","arrowup","[0.15,0.85,0.325,0.675]","","",""
"sailing-trial","101","1018610","0.0-11.0-60.0","","","","false","","","","","","","","","","5244.399999999907","","2295.6999999999534","","2","0","arrowright","1","arrowleft","[0.15,0.85,0.325,0.675]","","",""
"sailing-trial","102","1023986","0.0-11.0-61.0","","","","false","","","","","","","","","","null","","2332.600000000093","","0","0","null","null","arrowup","[0.15,0.85,0.325,0.675]","","",""
"sailing-trial","103","1029586","0.0-11.0-62.0","","","","false","","","","","","","","","","1067.1000000000931","","506.40000000037253","","1","1","arrowleft","0","arrowright","[0.15,0.85,0.325,0.675]","","",""
"sailing-trial","104","1039473","0.0-11.0-63.0","","","","false","","","","","","","","","","null","","6669.299999999814","","1","1","null","null","arrowup","[0.15,0.85,0.325,0.675]","","",""
"sailing-trial","105","1055660","0.0-11.0-64.0","","","","false","","","","","","","","","","9062.399999999907","","3079.5","","0","0","arrowleft","0","arrowleft","[0.15,0.85,0.325,0.675]","","",""
"sailing-trial","106","1062030","0.0-11.0-65.0","","","","false","","","","","","","","","","null","","2790.100000000093","","1","1","null","null","arrowup","[0.15,0.85,0.325,0.675]","","",""
"sailing-trial","107","1075191","0.0-11.0-66.0","","","","false","","","","","","","","","","6110.399999999907","","2940.5","","2","0","arrowright","1","arrowleft","[0.15,0.85,0.325,0.675]","","",""
"sailing-trial","108","1082517","0.0-11.0-67.0","","","","false","","","","","","","","","","null","","1704.7000000001863","","3","1","null","null","arrowup","[0.15,0.85,0.325,0.675]","","",""
"sailing-trial","109","1088807","0.0-11.0-68.0","","","","false","","","","","","","","","","1689.4000000003725","","560.1000000000931","","2","0","arrowright","1","arrowleft","[0.15,0.85,0.325,0.675]","","",""
"sailing-trial","110","1093882","0.0-11.0-69.0","","","","false","","","","","","","","","","null","","2005.5","","2","0","null","null","arrowup","[0.15,0.85,0.325,0.675]","","",""
"sailing-trial","111","1102392","0.0-11.0-70.0","","","","false","","","","","","","","","","3650.100000000093","","822.8999999999069","","2","0","arrowright","1","arrowleft","[0.15,0.85,0.325,0.675]","","",""
"sailing-trial","112","1107351","0.0-11.0-71.0","","","","false","","","","","","","","","","null","","1929.3000000002794","","0","0","null","null","arrowup","[0.15,0.85,0.325,0.675]","","",""
"sailing-trial","113","1112898","0.0-11.0-72.0","","","","false","","","","","","","","","","988.3999999999069","","519","","3","0","arrowright","1","arrowright","[0.15,0.85,0.325,0.675]","","",""
"sailing-trial","114","1121315","0.0-11.0-73.0","","","","false","","","","","","","","","","null","","2075","","1","1","null","null","arrowup","[0.15,0.85,0.325,0.675]","","",""
"sailing-trial","115","1129343","0.0-11.0-74.0","","","","false","","","","","","","","","","1400.3000000002794","","2106.600000000093","","0","1","arrowleft","0","arrowleft","[0.15,0.85,0.325,0.675]","","",""
"sailing-trial","116","1133949","0.0-11.0-75.0","","","","false","","","","","","","","","","null","","1593.7999999998137","","2","0","null","null","arrowup","[0.15,0.85,0.325,0.675]","","",""
"sailing-trial","117","1139725","0.0-11.0-76.0","","","","false","","","","","","","","","","1386.5","","313.5","","3","0","arrowright","1","arrowright","[0.15,0.85,0.325,0.675]","","",""
"sailing-trial","118","1143724","0.0-11.0-77.0","","","","false","","","","","","","","","","null","","551","","1","1","null","null","arrowup","[0.15,0.85,0.325,0.675]","","",""
"sailing-trial","119","1150850","0.0-11.0-78.0","","","","false","","","","","","","","","","2446.600000000093","","618","","0","0","arrowleft","0","arrowleft","[0.325,0.675,0.15,0.85]","","",""
"sailing-trial","120","1159072","0.0-11.0-79.0","","","","false","","","","","","","","","","null","","1927","","3","1","null","null","arrowup","[0.325,0.675,0.15,0.85]","","",""
"sailing-trial","121","1173110","0.0-11.0-80.0","","","","false","","","","","","","","","","8809.100000000093","","1207.3999999999069","","3","1","arrowright","1","arrowright","[0.325,0.675,0.15,0.85]","","",""
"sailing-trial","122","1184987","0.0-11.0-81.0","","","","false","","","","","","","","","","null","","4995.600000000093","","1","1","null","null","arrowup","[0.325,0.675,0.15,0.85]","","",""
"sailing-trial","123","1196425","0.0-11.0-82.0","","","","false","","","","","","","","","","7107.600000000093","","281.60000000009313","","3","1","arrowright","1","arrowright","[0.325,0.675,0.15,0.85]","","",""
"sailing-trial","124","1202149","0.0-11.0-83.0","","","","false","","","","","","","","","","null","","2685.0999999996275","","2","0","null","null","arrowup","[0.325,0.675,0.15,0.85]","","",""
"sailing-trial","125","1208441","0.0-11.0-84.0","","","","false","","","","","","","","","","1177.5","","710.1000000000931","","0","1","arrowleft","0","arrowleft","[0.325,0.675,0.15,0.85]","","",""
"sailing-trial","126","1219945","0.0-11.0-85.0","","","","false","","","","","","","","","","null","","6763.799999999814","","3","1","null","null","arrowup","[0.325,0.675,0.15,0.85]","","",""
"sailing-trial","127","1243849","0.0-11.0-86.0","","","","true","","","","","","","","","","8883.19999999972","","null","","null","null","arrowright","1","null","[0.325,0.675,0.15,0.85]","","",""
"sailing-trial","128","1250377","0.0-11.0-87.0","","","","false","","","","","","","","","","null","","1373.3999999999069","","2","1","null","null","arrowup","[0.325,0.675,0.15,0.85]","","",""
"sailing-trial","129","1261346","0.0-11.0-88.0","","","","false","","","","","","","","","","2339.2999999998137","","2858.2999999998137","","3","1","arrowright","1","arrowright","[0.325,0.675,0.15,0.85]","","",""
"sailing-trial","130","1267815","0.0-11.0-89.0","","","","false","","","","","","","","","","null","","3430.399999999907","","2","0","null","null","arrowup","[0.325,0.675,0.15,0.85]","","",""
"sailing-trial","131","1279253","0.0-11.0-90.0","","","","false","","","","","","","","","","4769.399999999907","","3164.2000000001863","","1","0","arrowleft","0","arrowright","[0.325,0.675,0.15,0.85]","","",""
"sailing-trial","132","1291039","0.0-11.0-91.0","","","","false","","","","","","","","","","null","","1738.6000000000931","","1","1","null","null","arrowup","[0.325,0.675,0.15,0.85]","","",""
"sailing-trial","133","1309614","0.0-11.0-92.0","","","","false","","","","","","","","","","8225.69999999972","","6184.600000000093","","2","0","arrowright","1","arrowleft","[0.325,0.675,0.15,0.85]","","",""
"sailing-trial","134","1319222","0.0-11.0-93.0","","","","false","","","","","","","","","","null","","2154.7999999998137","","3","1","null","null","arrowup","[0.325,0.675,0.15,0.85]","","",""
"sailing-trial","135","1329603","0.0-11.0-94.0","","","","false","","","","","","","","","","4330.200000000186","","1554.1999999997206","","0","1","arrowleft","0","arrowleft","[0.15,0.85,0.325,0.675]","","",""
"sailing-trial","136","1346736","0.0-11.0-95.0","","","","false","","","","","","","","","","null","","7011.100000000093","","3","1","null","null","arrowup","[0.15,0.85,0.325,0.675]","","",""
"sailing-trial","137","1361764","0.0-11.0-96.0","","","","true","","","","","","","","","","null","","null","","null","null","null","null","null","[0.15,0.85,0.325,0.675]","","",""
"sailing-trial","138","1365361","0.0-11.0-97.0","","","","false","","","","","","","","","","null","","205.09999999962747","","1","1","null","null","arrowup","[0.15,0.85,0.325,0.675]","","",""
"sailing-trial","139","1370762","0.0-11.0-98.0","","","","false","","","","","","","","","","900.7000000001863","","388.10000000009313","","3","1","arrowright","1","arrowright","[0.15,0.85,0.325,0.675]","","",""
"sailing-trial","140","1375920","0.0-11.0-99.0","","","","false","","","","","","","","","","null","","2104.8000000002794","","3","0","null","null","arrowup","[0.15,0.85,0.325,0.675]","","",""
"sailing-trial","141","1381391","0.0-11.0-100.0","","","","false","","","","","","","","","","966.7999999998137","","421.39999999990687","","1","0","arrowleft","0","arrowright","[0.15,0.85,0.325,0.675]","","",""
"sailing-trial","142","1385325","0.0-11.0-101.0","","","","false","","","","","","","","","","null","","1601.2000000001863","","1","1","null","null","arrowup","[0.15,0.85,0.325,0.675]","","",""
"sailing-trial","143","1390042","0.0-11.0-102.0","","","","false","","","","","","","","","","740.6000000000931","","980.3999999999069","","3","0","arrowright","1","arrowright","[0.15,0.85,0.325,0.675]","","",""
"sailing-trial","144","1394857","0.0-11.0-103.0","","","","false","","","","","","","","","","null","","1750.0999999996275","","0","0","null","null","arrowup","[0.15,0.85,0.325,0.675]","","",""
"sailing-trial","145","1401957","0.0-11.0-104.0","","","","false","","","","","","","","","","1189.2000000001863","","1842.5","","2","0","arrowright","1","arrowleft","[0.15,0.85,0.325,0.675]","","",""
"sailing-trial","146","1407194","0.0-11.0-105.0","","","","false","","","","","","","","","","null","","2170.5","","2","0","null","null","arrowup","[0.15,0.85,0.325,0.675]","","",""
"sailing-trial","147","1413885","0.0-11.0-106.0","","","","false","","","","","","","","","","2036.6000000000931","","616.7999999998137","","1","0","arrowleft","0","arrowright","[0.15,0.85,0.325,0.675]","","",""
"sailing-trial","148","1418296","0.0-11.0-107.0","","","","false","","","","","","","","","","null","","1360.1000000000931","","0","0","null","null","arrowup","[0.15,0.85,0.325,0.675]","","",""
"sailing-trial","149","1423728","0.0-11.0-108.0","","","","false","","","","","","","","","","482.10000000009313","","845.8000000002794","","3","1","arrowright","1","arrowright","[0.15,0.85,0.325,0.675]","","",""
"sailing-trial","150","1427900","0.0-11.0-109.0","","","","false","","","","","","","","","","null","","1465.8999999999069","","1","1","null","null","arrowup","[0.15,0.85,0.325,0.675]","","",""
"sailing-trial","151","1431923","0.0-11.0-110.0","","","","false","","","","","","","","","","996.7000000001863","","302.1999999997206","","3","0","arrowright","1","arrowright","[0.325,0.675,0.15,0.85]","","",""
"sailing-trial","152","1436793","0.0-11.0-111.0","","","","false","","","","","","","","","","null","","1825","","2","0","null","null","arrowup","[0.325,0.675,0.15,0.85]","","",""
"sailing-trial","153","1443210","0.0-11.0-112.0","","","","false","","","","","","","","","","1324.5","","1724.1000000000931","","1","0","arrowleft","0","arrowright","[0.325,0.675,0.15,0.85]","","",""
"sailing-trial","154","1447728","0.0-11.0-113.0","","","","false","","","","","","","","","","null","","1464.3999999999069","","2","0","null","null","arrowup","[0.325,0.675,0.15,0.85]","","",""
"sailing-trial","155","1455479","0.0-11.0-114.0","","","","false","","","","","","","","","","2305.5","","207.79999999981374","","1","1","arrowleft","0","arrowright","[0.325,0.675,0.15,0.85]","","",""
"sailing-trial","156","1460983","0.0-11.0-115.0","","","","false","","","","","","","","","","null","","2687.600000000093","","1","1","null","null","arrowup","[0.325,0.675,0.15,0.85]","","",""
"sailing-trial","157","1470651","0.0-11.0-116.0","","","","false","","","","","","","","","","2028.9000000003725","","3547.9000000003725","","2","0","arrowright","1","arrowleft","[0.325,0.675,0.15,0.85]","","",""
"sailing-trial","158","1476178","0.0-11.0-117.0","","","","false","","","","","","","","","","null","","2470","","1","0","null","null","arrowup","[0.325,0.675,0.15,0.85]","","",""
"sailing-trial","159","1482066","0.0-11.0-118.0","","","","false","","","","","","","","","","468.3000000002794","","1346","","1","0","arrowleft","0","arrowright","[0.325,0.675,0.15,0.85]","","",""
"sailing-trial","160","1486078","0.0-11.0-119.0","","","","false","","","","","","","","","","null","","960.6000000000931","","0","0","null","null","arrowup","[0.325,0.675,0.15,0.85]","","",""
"sailing-trial","161","1499462","0.0-11.0-120.0","","","","false","","","","","","","","","","4535.899999999907","","1768.7000000001863","","3","1","arrowright","1","arrowright","[0.325,0.675,0.15,0.85]","","",""
"sailing-trial","162","1504284","0.0-11.0-121.0","","","","false","","","","","","","","","","null","","1762.6999999997206","","2","0","null","null","arrowup","[0.325,0.675,0.15,0.85]","","",""
"sailing-trial","163","1511286","0.0-11.0-122.0","","","","false","","","","","","","","","","1978","","1521.1999999997206","","2","1","arrowright","1","arrowleft","[0.325,0.675,0.15,0.85]","","",""
"sailing-trial","164","1516375","0.0-11.0-123.0","","","","false","","","","","","","","","","null","","2030.5","","2","0","null","null","arrowup","[0.325,0.675,0.15,0.85]","","",""
"sailing-trial","165","1523584","0.0-11.0-124.0","","","","false","","","","","","","","","","1879.3999999999069","","597.6999999997206","","3","1","arrowright","1","arrowright","[0.325,0.675,0.15,0.85]","","",""
"sailing-trial","166","1528774","0.0-11.0-125.0","","","","false","","","","","","","","","","null","","2162.2000000001863","","2","0","null","null","arrowup","[0.325,0.675,0.15,0.85]","","",""
"sailing-trial","167","1543493","0.0-11.0-126.0","","","","false","","","","","","","","","","5871.399999999907","","637.8999999999069","","2","1","arrowright","1","arrowleft","[0.15,0.85,0.325,0.675]","","",""
"sailing-trial","168","1550670","0.0-11.0-127.0","","","","false","","","","","","","","","","null","","3434.399999999907","","2","1","null","null","arrowup","[0.15,0.85,0.325,0.675]","","",""
"sailing-trial","169","1560917","0.0-11.0-128.0","","","","false","","","","","","","","","","4800.299999999814","","1750.1000000000931","","1","1","arrowleft","0","arrowright","[0.15,0.85,0.325,0.675]","","",""
"sailing-trial","170","1565044","0.0-11.0-129.0","","","","false","","","","","","","","","","null","","1298.8999999999069","","1","1","null","null","arrowup","[0.15,0.85,0.325,0.675]","","",""
"sailing-trial","171","1572607","0.0-11.0-130.0","","","","false","","","","","","","","","","1028.2000000001863","","1160.2999999998137","","3","1","arrowright","1","arrowright","[0.15,0.85,0.325,0.675]","","",""
"sailing-trial","172","1576474","0.0-11.0-131.0","","","","false","","","","","","","","","","null","","1118.7999999998137","","3","1","null","null","arrowup","[0.15,0.85,0.325,0.675]","","",""
"sailing-trial","173","1582436","0.0-11.0-132.0","","","","false","","","","","","","","","","1822.6000000000931","","60","","0","0","arrowleft","0","arrowleft","[0.15,0.85,0.325,0.675]","","",""
"sailing-trial","174","1587480","0.0-11.0-133.0","","","","false","","","","","","","","","","null","","1970.8999999999069","","1","1","null","null","arrowup","[0.15,0.85,0.325,0.675]","","",""
"sailing-trial","175","1593363","0.0-11.0-134.0","","","","false","","","","","","","","","","930.8999999999069","","889.7000000001863","","3","0","arrowright","1","arrowright","[0.15,0.85,0.325,0.675]","","",""
"sailing-trial","176","1600707","0.0-11.0-135.0","","","","false","","","","","","","","","","null","","4279.300000000279","","0","0","null","null","arrowup","[0.15,0.85,0.325,0.675]","","",""
"sailing-trial","177","1608012","0.0-11.0-136.0","","","","false","","","","","","","","","","2654.5","","1244.2000000001863","","2","0","arrowright","1","arrowleft","[0.15,0.85,0.325,0.675]","","",""
"sailing-trial","178","1614018","0.0-11.0-137.0","","","","false","","","","","","","","","","null","","2943.600000000093","","0","0","null","null","arrowup","[0.15,0.85,0.325,0.675]","","",""
"sailing-trial","179","1620188","0.0-11.0-138.0","","","","false","","","","","","","","","","854.1999999997206","","1126.0999999996275","","3","1","arrowright","1","arrowright","[0.15,0.85,0.325,0.675]","","",""
"sailing-trial","180","1623275","0.0-11.0-139.0","","","","false","","","","","","","","","","null","","970.7999999998137","","0","0","null","null","arrowup","[0.15,0.85,0.325,0.675]","","",""
"sailing-trial","181","1629551","0.0-11.0-140.0","","","","false","","","","","","","","","","1097.6000000000931","","1088.1000000000931","","2","0","arrowright","1","arrowleft","[0.15,0.85,0.325,0.675]","","",""
"sailing-trial","182","1635696","0.0-11.0-141.0","","","","false","","","","","","","","","","null","","3117.600000000093","","0","0","null","null","arrowup","[0.15,0.85,0.325,0.675]","","",""
"sailing-trial","183","1644151","0.0-11.0-142.0","","","","false","","","","","","","","","","1139.1000000000931","","2879.2000000001863","","3","1","arrowright","1","arrowright","[0.325,0.675,0.15,0.85]","","",""
"sailing-trial","184","1648213","0.0-11.0-143.0","","","","false","","","","","","","","","","null","","909.2000000001863","","1","1","null","null","arrowup","[0.325,0.675,0.15,0.85]","","",""
"sailing-trial","185","1653787","0.0-11.0-144.0","","","","false","","","","","","","","","","1125.8999999999069","","395.70000000018626","","2","0","arrowright","1","arrowleft","[0.325,0.675,0.15,0.85]","","",""
"sailing-trial","186","1664941","0.0-11.0-145.0","","","","false","","","","","","","","","","null","","3828.5","","3","1","null","null","arrowup","[0.325,0.675,0.15,0.85]","","",""
"sailing-trial","187","1672934","0.0-11.0-146.0","","","","false","","","","","","","","","","3282.899999999907","","627.3999999999069","","0","0","arrowleft","0","arrowleft","[0.325,0.675,0.15,0.85]","","",""
"sailing-trial","188","1677643","0.0-11.0-147.0","","","","false","","","","","","","","","","null","","1673.1999999997206","","2","0","null","null","arrowup","[0.325,0.675,0.15,0.85]","","",""
"sailing-trial","189","1688978","0.0-11.0-148.0","","","","false","","","","","","","","","","2226.899999999907","","5241.9000000003725","","3","1","arrowright","1","arrowright","[0.325,0.675,0.15,0.85]","","",""
"sailing-trial","190","1696250","0.0-11.0-149.0","","","","false","","","","","","","","","","null","","4678.700000000186","","0","0","null","null","arrowup","[0.325,0.675,0.15,0.85]","","",""
"sailing-trial","191","1700281","0.0-11.0-150.0","","","","false","","","","","","","","","","910.8999999999069","","886.8000000002794","","2","0","arrowright","1","arrowleft","[0.325,0.675,0.15,0.85]","","",""
"sailing-trial","192","1703126","0.0-11.0-151.0","","","","false","","","","","","","","","","null","","1442.2999999998137","","0","0","null","null","arrowup","[0.325,0.675,0.15,0.85]","","",""
"sailing-trial","193","1708374","0.0-11.0-152.0","","","","false","","","","","","","","","","1412.3000000002794","","282.5","","1","1","arrowleft","0","arrowright","[0.325,0.675,0.15,0.85]","","",""
"sailing-trial","194","1711137","0.0-11.0-153.0","","","","false","","","","","","","","","","null","","1169","","0","1","null","null","arrowup","[0.325,0.675,0.15,0.85]","","",""
"sailing-trial","195","1716544","0.0-11.0-154.0","","","","false","","","","","","","","","","1322.6999999997206","","724.5","","2","1","arrowright","1","arrowleft","[0.325,0.675,0.15,0.85]","","",""
"sailing-trial","196","1719290","0.0-11.0-155.0","","","","false","","","","","","","","","","null","","1497.6000000000931","","3","0","null","null","arrowup","[0.325,0.675,0.15,0.85]","","",""
"sailing-trial","197","1724951","0.0-11.0-156.0","","","","false","","","","","","","","","","1807.8999999999069","","1105.5","","0","0","arrowleft","0","arrowleft","[0.325,0.675,0.15,0.85]","","",""
"sailing-trial","198","1727872","0.0-11.0-157.0","","","","false","","","","","","","","","","null","","1208.2999999998137","","2","0","null","null","arrowup","[0.325,0.675,0.15,0.85]","","",""
"sailing-trial","199","1734190","0.0-11.0-158.0","","","","false","","","","","","","","","","2585","","675.3999999999069","","3","1","arrowright","1","arrowright","[0.325,0.675,0.15,0.85]","","",""
"sailing-trial","200","1738601","0.0-11.0-159.0","","","","false","","","","","","","","","","null","","2249.100000000093","","2","0","null","null","arrowup","[0.325,0.675,0.15,0.85]","","",""
"sailing-trial","201","1760198","0.0-11.0-160.0","","","","true","","","","","","","","","","4124","","1414.5","","3","1","arrowright","1","arrowright","[0.15,0.85,0.325,0.675]","","",""
"sailing-trial","202","1769063","0.0-11.0-161.0","","","","false","","","","","","","","","","null","","2995.899999999907","","1","1","null","null","arrowup","[0.15,0.85,0.325,0.675]","","",""
"sailing-trial","203","1775380","0.0-11.0-162.0","","","","false","","","","","","","","","","1842.8000000002794","","1332.1000000000931","","3","1","arrowright","1","arrowright","[0.15,0.85,0.325,0.675]","","",""
"sailing-trial","204","1779485","0.0-11.0-163.0","","","","false","","","","","","","","","","null","","1580.3000000002794","","3","1","null","null","arrowup","[0.15,0.85,0.325,0.675]","","",""
"sailing-trial","205","1783041","0.0-11.0-164.0","","","","false","","","","","","","","","","140.89999999990687","","843.5999999996275","","1","0","arrowleft","0","arrowright","[0.15,0.85,0.325,0.675]","","",""
"sailing-trial","206","1786118","0.0-11.0-165.0","","","","false","","","","","","","","","","null","","1483","","0","0","null","null","arrowup","[0.15,0.85,0.325,0.675]","","",""
"sailing-trial","207","1790899","0.0-11.0-166.0","","","","false","","","","","","","","","","1459.1000000000931","","776.3000000002794","","1","0","arrowleft","0","arrowright","[0.15,0.85,0.325,0.675]","","",""
"sailing-trial","208","1796942","0.0-11.0-167.0","","","","false","","","","","","","","","","null","","3000.6999999997206","","2","0","null","null","arrowup","[0.15,0.85,0.325,0.675]","","",""
"sailing-trial","209","1803937","0.0-11.0-168.0","","","","false","","","","","","","","","","2123.4000000003725","","1031.8999999999069","","3","1","arrowright","1","arrowright","[0.15,0.85,0.325,0.675]","","",""
"sailing-trial","210","1808656","0.0-11.0-169.0","","","","false","","","","","","","","","","null","","1644.3999999999069","","0","0","null","null","arrowup","[0.15,0.85,0.325,0.675]","","",""
"sailing-trial","211","1817558","0.0-11.0-170.0","","","","false","","","","","","","","","","3010.5","","2694.7999999998137","","3","0","arrowright","1","arrowright","[0.15,0.85,0.325,0.675]","","",""
"sailing-trial","212","1828103","0.0-11.0-171.0","","","","false","","","","","","","","","","null","","7516.200000000186","","1","0","null","null","arrowup","[0.15,0.85,0.325,0.675]","","",""
"sailing-trial","213","1839256","0.0-11.0-172.0","","","","false","","","","","","","","","","2715.2999999998137","","2500.100000000093","","2","1","arrowright","1","arrowleft","[0.15,0.85,0.325,0.675]","","",""
"sailing-trial","214","1845237","0.0-11.0-173.0","","","","false","","","","","","","","","","null","","2754.5","","3","1","null","null","arrowup","[0.15,0.85,0.325,0.675]","","",""
"sailing-trial","215","1856153","0.0-11.0-174.0","","","","false","","","","","","","","","","3441.9000000003725","","3389.7000000001863","","3","0","arrowright","1","arrowright","[0.15,0.85,0.325,0.675]","","",""
"sailing-trial","216","1861261","0.0-11.0-175.0","","","","false","","","","","","","","","","null","","2058.2000000001863","","0","0","null","null","arrowup","[0.15,0.85,0.325,0.675]","","",""
"sailing-trial","217","1872998","0.0-11.0-176.0","","","","false","","","","","","","","","","4495.300000000279","","3193.5999999996275","","2","0","arrowright","1","arrowleft","[0.15,0.85,0.325,0.675]","","",""
"sailing-trial","218","1880621","0.0-11.0-177.0","","","","false","","","","","","","","","","null","","4580.5","","0","0","null","null","arrowup","[0.15,0.85,0.325,0.675]","","",""
"sailing-trial","219","1890264","0.0-11.0-178.0","","","","false","","","","","","","","","","2495.5","","1756.3999999999069","","3","1","arrowright","1","arrowright","[0.325,0.675,0.15,0.85]","","",""
"sailing-trial","220","1895962","0.0-11.0-179.0","","","","false","","","","","","","","","","null","","2986.8000000002794","","3","1","null","null","arrowup","[0.325,0.675,0.15,0.85]","","",""
"sailing-trial","221","1902661","0.0-11.0-180.0","","","","false","","","","","","","","","","2165.100000000093","","1115.1000000000931","","3","1","arrowright","1","arrowright","[0.325,0.675,0.15,0.85]","","",""
"sailing-trial","222","1905804","0.0-11.0-181.0","","","","false","","","","","","","","","","null","","1617.3000000002794","","1","0","null","null","arrowup","[0.325,0.675,0.15,0.85]","","",""
"sailing-trial","223","1911233","0.0-11.0-182.0","","","","false","","","","","","","","","","975","","1445.5","","0","1","arrowleft","0","arrowleft","[0.325,0.675,0.15,0.85]","","",""
"sailing-trial","224","1915826","0.0-11.0-183.0","","","","false","","","","","","","","","","null","","1545.0999999996275","","2","0","null","null","arrowup","[0.325,0.675,0.15,0.85]","","",""
"sailing-trial","225","1919611","0.0-11.0-184.0","","","","false","","","","","","","","","","344.59999999962747","","56.89999999990687","","3","1","arrowright","1","arrowright","[0.325,0.675,0.15,0.85]","","",""
"sailing-trial","226","1922994","0.0-11.0-185.0","","","","false","","","","","","","","","","null","","1426.5999999996275","","0","0","null","null","arrowup","[0.325,0.675,0.15,0.85]","","",""
"sailing-trial","227","1929680","0.0-11.0-186.0","","","","false","","","","","","","","","","877.5","","1801.3000000002794","","3","1","arrowright","1","arrowright","[0.325,0.675,0.15,0.85]","","",""
"sailing-trial","228","1937051","0.0-11.0-187.0","","","","false","","","","","","","","","","null","","4332.699999999721","","0","0","null","null","arrowup","[0.325,0.675,0.15,0.85]","","",""
"sailing-trial","229","1945127","0.0-11.0-188.0","","","","false","","","","","","","","","","1318","","1298.1000000000931","","2","1","arrowright","1","arrowleft","[0.325,0.675,0.15,0.85]","","",""
"sailing-trial","230","1950121","0.0-11.0-189.0","","","","false","","","","","","","","","","null","","1526.7999999998137","","3","1","null","null","arrowup","[0.325,0.675,0.15,0.85]","","",""
"sailing-trial","231","1957025","0.0-11.0-190.0","","","","false","","","","","","","","","","1712.3999999999069","","388.5","","3","1","arrowright","1","arrowright","[0.325,0.675,0.15,0.85]","","",""
"sailing-trial","232","1962551","0.0-11.0-191.0","","","","false","","","","","","","","","","null","","2484.5","","0","0","null","null","arrowup","[0.325,0.675,0.15,0.85]","","",""
"sailing-trial","233","1971412","0.0-11.0-192.0","","","","false","","","","","","","","","","3126.8000000002794","","2220.399999999907","","2","1","arrowright","1","arrowleft","[0.325,0.675,0.15,0.85]","","",""
"sailing-trial","234","1974791","0.0-11.0-193.0","","","","false","","","","","","","","","","null","","1874.6000000000931","","1","0","null","null","arrowup","[0.325,0.675,0.15,0.85]","","",""
"sailing-trial","235","1978534","0.0-11.0-194.0","","","","false","","","","","","","","","","783.8999999999069","","603.5999999996275","","2","0","arrowright","1","arrowleft","[0.325,0.675,0.15,0.85]","","",""
"sailing-trial","236","1982282","0.0-11.0-195.0","","","","false","","","","","","","","","","null","","2102.7999999998137","","0","1","null","null","arrowup","[0.325,0.675,0.15,0.85]","","",""
"sailing-trial","237","1985801","0.0-11.0-196.0","","","","false","","","","","","","","","","706.3999999999069","","299.70000000018626","","2","0","arrowright","1","arrowleft","[0.325,0.675,0.15,0.85]","","",""
"sailing-trial","238","1988602","0.0-11.0-197.0","","","","false","","","","","","","","","","null","","1724.3999999999069","","1","0","null","null","arrowup","[0.325,0.675,0.15,0.85]","","",""
"sailing-trial","239","1991816","0.0-11.0-198.0","","","","false","","","","","","","","","","732.8999999999069","","243.70000000018626","","3","0","arrowright","1","arrowright","[0.675,0.325,0.85,0.15]","","",""
"sailing-trial","240","1994364","0.0-11.0-199.0","","","","false","","","","","","","","","","null","","1452.3999999999069","","0","0","null","null","arrowup","[0.675,0.325,0.85,0.15]","","",""
"sailing-trial","241","1997863","0.0-11.0-200.0","","","","false","","","","","","","","","","811.5","","106","","2","1","arrowright","1","arrowleft","[0.675,0.325,0.85,0.15]","","",""
"sailing-trial","242","2000214","0.0-11.0-201.0","","","","false","","","","","","","","","","null","","1272","","2","0","null","null","arrowup","[0.675,0.325,0.85,0.15]","","",""
"sailing-trial","243","2005416","0.0-11.0-202.0","","","","false","","","","","","","","","","1074.6000000000931","","51.5","","1","0","arrowleft","0","arrowright","[0.675,0.325,0.85,0.15]","","",""
"sailing-trial","244","2009365","0.0-11.0-203.0","","","","false","","","","","","","","","","null","","2143.399999999907","","2","1","null","null","arrowup","[0.675,0.325,0.85,0.15]","","",""
"sailing-trial","245","2014589","0.0-11.0-204.0","","","","false","","","","","","","","","","2008.1000000000931","","657.6000000000931","","0","0","arrowleft","0","arrowleft","[0.675,0.325,0.85,0.15]","","",""
"sailing-trial","246","2021845","0.0-11.0-205.0","","","","false","","","","","","","","","","null","","4194.100000000093","","1","0","null","null","arrowup","[0.675,0.325,0.85,0.15]","","",""
"sailing-trial","247","2028854","0.0-11.0-206.0","","","","false","","","","","","","","","","1046.6000000000931","","1894","","3","0","arrowright","1","arrowright","[0.675,0.325,0.85,0.15]","","",""
"sailing-trial","248","2036111","0.0-11.0-207.0","","","","false","","","","","","","","","","null","","4197.800000000279","","1","0","null","null","arrowup","[0.675,0.325,0.85,0.15]","","",""
"sailing-trial","249","2044118","0.0-11.0-208.0","","","","false","","","","","","","","","","2703.5","","1210.5","","2","1","arrowright","1","arrowleft","[0.675,0.325,0.85,0.15]","","",""
"sailing-trial","250","2048912","0.0-11.0-209.0","","","","false","","","","","","","","","","null","","1748.2999999998137","","3","0","null","null","arrowup","[0.675,0.325,0.85,0.15]","","",""
"sailing-trial","251","2064264","0.0-11.0-210.0","","","","false","","","","","","","","","","1709.1000000000931","","6145.899999999907","","2","1","arrowright","1","arrowleft","[0.675,0.325,0.85,0.15]","","",""
"sailing-trial","252","2070785","0.0-11.0-211.0","","","","false","","","","","","","","","","null","","3481.2999999998137","","3","0","null","null","arrowup","[0.675,0.325,0.85,0.15]","","",""
"sailing-trial","253","2082073","0.0-11.0-212.0","","","","false","","","","","","","","","","3635.100000000093","","3600.899999999907","","3","0","arrowright","1","arrowright","[0.675,0.325,0.85,0.15]","","",""
"sailing-trial","254","2088202","0.0-11.0-213.0","","","","false","","","","","","","","","","null","","1750","","0","1","null","null","arrowup","[0.675,0.325,0.85,0.15]","","",""
"sailing-trial","255","2099620","0.0-11.0-214.0","","","","false","","","","","","","","","","4354.300000000279","","2981.899999999674","","2","0","arrowright","1","arrowleft","[0.675,0.325,0.85,0.15]","","",""
"sailing-trial","256","2105248","0.0-11.0-215.0","","","","false","","","","","","","","","","null","","1923.199999999255","","0","1","null","null","arrowup","[0.675,0.325,0.85,0.15]","","",""
"sailing-trial","257","2114831","0.0-11.0-216.0","","","","false","","","","","","","","","","2327.100000000559","","3131.5","","1","0","arrowleft","0","arrowright","[0.15,0.85,0.325,0.675]","","",""
"sailing-trial","258","2121428","0.0-11.0-217.0","","","","false","","","","","","","","","","null","","2511.2999999998137","","3","1","null","null","arrowup","[0.15,0.85,0.325,0.675]","","",""
"sailing-trial","259","2130476","0.0-11.0-218.0","","","","false","","","","","","","","","","1950.9000000003725","","2396.100000000559","","2","1","arrowright","1","arrowleft","[0.15,0.85,0.325,0.675]","","",""
"sailing-trial","260","2135854","0.0-11.0-219.0","","","","false","","","","","","","","","","null","","2172.2000000001863","","3","1","null","null","arrowup","[0.15,0.85,0.325,0.675]","","",""
"sailing-trial","261","2143112","0.0-11.0-220.0","","","","false","","","","","","","","","","1117.1000000005588","","2094.7999999998137","","0","0","arrowleft","0","arrowleft","[0.15,0.85,0.325,0.675]","","",""
"sailing-trial","262","2148331","0.0-11.0-221.0","","","","false","","","","","","","","","","null","","2575.5","","1","1","null","null","arrowup","[0.15,0.85,0.325,0.675]","","",""
"sailing-trial","263","2154319","0.0-11.0-222.0","","","","false","","","","","","","","","","1180.0999999996275","","981.7999999998137","","0","1","arrowleft","0","arrowleft","[0.15,0.85,0.325,0.675]","","",""
"sailing-trial","264","2158611","0.0-11.0-223.0","","","","false","","","","","","","","","","null","","1210.0999999996275","","1","1","null","null","arrowup","[0.15,0.85,0.325,0.675]","","",""
"sailing-trial","265","2164469","0.0-11.0-224.0","","","","false","","","","","","","","","","1269.5999999996275","","558.2999999998137","","1","1","arrowleft","0","arrowright","[0.15,0.85,0.325,0.675]","","",""
"sailing-trial","266","2168330","0.0-11.0-225.0","","","","false","","","","","","","","","","null","","1114.7000000001863","","1","1","null","null","arrowup","[0.15,0.85,0.325,0.675]","","",""
"sailing-trial","267","2174089","0.0-11.0-226.0","","","","false","","","","","","","","","","1470.4000000003725","","417.79999999981374","","2","0","arrowright","1","arrowleft","[0.15,0.85,0.325,0.675]","","",""
"sailing-trial","268","2177416","0.0-11.0-227.0","","","","false","","","","","","","","","","null","","1115.9000000003725","","2","1","null","null","arrowup","[0.15,0.85,0.325,0.675]","","",""
"sailing-trial","269","2182129","0.0-11.0-228.0","","","","false","","","","","","","","","","876","","468.59999999962747","","3","1","arrowright","1","arrowright","[0.15,0.85,0.325,0.675]","","",""
"sailing-trial","270","2185816","0.0-11.0-229.0","","","","false","","","","","","","","","","null","","1451.6000000005588","","3","1","null","null","arrowup","[0.15,0.85,0.325,0.675]","","",""
"sailing-trial","271","2190979","0.0-11.0-230.0","","","","false","","","","","","","","","","707.1000000005588","","1086","","3","1","arrowright","1","arrowright","[0.15,0.85,0.325,0.675]","","",""
"sailing-trial","272","2195130","0.0-11.0-231.0","","","","false","","","","","","","","","","null","","1119.7000000001863","","0","0","null","null","arrowup","[0.15,0.85,0.325,0.675]","","",""
"sailing-trial","273","2200227","0.0-11.0-232.0","","","","false","","","","","","","","","","706.1999999992549","","325.40000000037253","","3","0","arrowright","1","arrowright","[0.15,0.85,0.325,0.675]","","",""
"sailing-trial","274","2204483","0.0-11.0-233.0","","","","false","","","","","","","","","","null","","1411.9000000003725","","2","0","null","null","arrowup","[0.15,0.85,0.325,0.675]","","",""
"sailing-trial","275","2209887","0.0-11.0-234.0","","","","false","","","","","","","","","","1199.2999999998137","","659.3999999994412","","2","0","arrowright","1","arrowleft","[0.325,0.675,0.15,0.85]","","",""
"sailing-trial","276","2214016","0.0-11.0-235.0","","","","false","","","","","","","","","","null","","1104.699999999255","","2","0","null","null","arrowup","[0.325,0.675,0.15,0.85]","","",""
"sailing-trial","277","2219350","0.0-11.0-236.0","","","","false","","","","","","","","","","583.5","","679.2000000001863","","3","0","arrowright","1","arrowright","[0.325,0.675,0.15,0.85]","","",""
"sailing-trial","278","2225141","0.0-11.0-237.0","","","","false","","","","","","","","","","null","","3635.2999999998137","","2","1","null","null","arrowup","[0.325,0.675,0.15,0.85]","","",""
"sailing-trial","279","2230314","0.0-11.0-238.0","","","","false","","","","","","","","","","836.6000000005588","","568.7000000001863","","2","0","arrowright","1","arrowleft","[0.325,0.675,0.15,0.85]","","",""
"sailing-trial","280","2233822","0.0-11.0-239.0","","","","false","","","","","","","","","","null","","1358.2000000001863","","3","1","null","null","arrowup","[0.325,0.675,0.15,0.85]","","",""
"sailing-trial","281","2239077","0.0-11.0-240.0","","","","false","","","","","","","","","","1028.2999999998137","","957.7999999998137","","3","1","arrowright","1","arrowright","[0.325,0.675,0.15,0.85]","","",""
"sailing-trial","282","2242823","0.0-11.0-241.0","","","","false","","","","","","","","","","null","","1407","","3","1","null","null","arrowup","[0.325,0.675,0.15,0.85]","","",""
"sailing-trial","283","2247206","0.0-11.0-242.0","","","","false","","","","","","","","","","721.1000000005588","","234.5","","3","1","arrowright","1","arrowright","[0.325,0.675,0.15,0.85]","","",""
"sailing-trial","284","2252262","0.0-11.0-243.0","","","","false","","","","","","","","","","null","","2252.100000000559","","2","0","null","null","arrowup","[0.325,0.675,0.15,0.85]","","",""
"sailing-trial","285","2258269","0.0-11.0-244.0","","","","false","","","","","","","","","","1012.6000000005588","","929.2000000001863","","3","0","arrowright","1","arrowright","[0.325,0.675,0.15,0.85]","","",""
"sailing-trial","286","2262668","0.0-11.0-245.0","","","","false","","","","","","","","","","null","","1360.3999999994412","","0","0","null","null","arrowup","[0.325,0.675,0.15,0.85]","","",""
"sailing-trial","287","2268808","0.0-11.0-246.0","","","","false","","","","","","","","","","1490","","570.1999999992549","","2","0","arrowright","1","arrowleft","[0.325,0.675,0.15,0.85]","","",""
"sailing-trial","288","2274186","0.0-11.0-247.0","","","","false","","","","","","","","","","null","","2927.2000000001863","","0","1","null","null","arrowup","[0.325,0.675,0.15,0.85]","","",""
"sailing-trial","289","2280723","0.0-11.0-248.0","","","","false","","","","","","","","","","1841.2000000001863","","578.5999999996275","","0","0","arrowleft","0","arrowleft","[0.325,0.675,0.15,0.85]","","",""
"sailing-trial","290","2285385","0.0-11.0-249.0","","","","false","","","","","","","","","","null","","1618.7999999998137","","1","0","null","null","arrowup","[0.325,0.675,0.15,0.85]","","",""
"sailing-trial","291","2292509","0.0-11.0-250.0","","","","false","","","","","","","","","","758.7000000001863","","2283.0999999996275","","1","0","arrowleft","0","arrowright","[0.325,0.675,0.15,0.85]","","",""
"sailing-trial","292","2295846","0.0-11.0-251.0","","","","false","","","","","","","","","","null","","1272.5999999996275","","3","1","null","null","arrowup","[0.325,0.675,0.15,0.85]","","",""
"sailing-trial","293","2301814","0.0-11.0-252.0","","","","false","","","","","","","","","","817.3999999994412","","1073.7000000001863","","0","0","arrowleft","0","arrowleft","[0.325,0.675,0.15,0.85]","","",""
"sailing-trial","294","2305961","0.0-11.0-253.0","","","","false","","","","","","","","","","null","","1462.3999999994412","","3","0","null","null","arrowup","[0.325,0.675,0.15,0.85]","","",""
"sailing-trial","295","2310774","0.0-11.0-254.0","","","","false","","","","","","","","","","870.3999999994412","","627.9000000003725","","3","1","arrowright","1","arrowright","[0.325,0.675,0.15,0.85]","","",""
"sailing-trial","296","2316476","0.0-11.0-255.0","","","","false","","","","","","","","","","null","","3155.9000000003725","","0","1","null","null","arrowup","[0.325,0.675,0.15,0.85]","","",""
"sailing-trial","297","2322846","0.0-11.0-256.0","","","","false","","","","","","","","","","959.1000000005588","","1765.9000000003725","","2","0","arrowright","1","arrowleft","[0.85,0.15,0.675,0.325]","","",""
"sailing-trial","298","2325673","0.0-11.0-257.0","","","","false","","","","","","","","","","null","","986.7999999998137","","0","1","null","null","arrowup","[0.85,0.15,0.675,0.325]","","",""
"sailing-trial","299","2331061","0.0-11.0-258.0","","","","false","","","","","","","","","","856.5999999996275","","439.09999999962747","","0","0","arrowleft","0","arrowleft","[0.85,0.15,0.675,0.325]","","",""
"sailing-trial","300","2335443","0.0-11.0-259.0","","","","false","","","","","","","","","","null","","2178","","3","1","null","null","arrowup","[0.85,0.15,0.675,0.325]","","",""
"sailing-trial","301","2339988","0.0-11.0-260.0","","","","false","","","","","","","","","","1121.5","","333.5","","3","1","arrowright","1","arrowright","[0.85,0.15,0.675,0.325]","","",""
"sailing-trial","302","2344312","0.0-11.0-261.0","","","","false","","","","","","","","","","null","","2403.7999999998137","","0","1","null","null","arrowup","[0.85,0.15,0.675,0.325]","","",""
"sailing-trial","303","2348495","0.0-11.0-262.0","","","","false","","","","","","","","","","645.7999999998137","","467.1000000005588","","0","1","arrowleft","0","arrowleft","[0.85,0.15,0.675,0.325]","","",""
"sailing-trial","304","2351588","0.0-11.0-263.0","","","","false","","","","","","","","","","null","","1231.2999999998137","","0","1","null","null","arrowup","[0.85,0.15,0.675,0.325]","","",""
"sailing-trial","305","2356021","0.0-11.0-264.0","","","","false","","","","","","","","","","865.1000000005588","","382","","0","1","arrowleft","0","arrowleft","[0.85,0.15,0.675,0.325]","","",""
"sailing-trial","306","2359299","0.0-11.0-265.0","","","","false","","","","","","","","","","null","","1374.7000000001863","","3","1","null","null","arrowup","[0.85,0.15,0.675,0.325]","","",""
"sailing-trial","307","2363178","0.0-11.0-266.0","","","","false","","","","","","","","","","641.7999999998137","","193.40000000037253","","0","1","arrowleft","0","arrowleft","[0.85,0.15,0.675,0.325]","","",""
"sailing-trial","308","2367483","0.0-11.0-267.0","","","","false","","","","","","","","","","null","","1248","","3","0","null","null","arrowup","[0.85,0.15,0.675,0.325]","","",""
"sailing-trial","309","2372255","0.0-11.0-268.0","","","","false","","","","","","","","","","900.5","","690.6000000005588","","0","1","arrowleft","0","arrowleft","[0.85,0.15,0.675,0.325]","","",""
"sailing-trial","310","2375743","0.0-11.0-269.0","","","","false","","","","","","","","","","null","","1574.7999999998137","","3","1","null","null","arrowup","[0.85,0.15,0.675,0.325]","","",""
"sailing-trial","311","2380553","0.0-11.0-270.0","","","","false","","","","","","","","","","1111.7999999998137","","464.5","","0","1","arrowleft","0","arrowleft","[0.85,0.15,0.675,0.325]","","",""
"sailing-trial","312","2384582","0.0-11.0-271.0","","","","false","","","","","","","","","","null","","978.1000000005588","","1","0","null","null","arrowup","[0.85,0.15,0.675,0.325]","","",""
"sailing-trial","313","2389987","0.0-11.0-272.0","","","","false","","","","","","","","","","1301.3999999994412","","3.099999999627471","","0","0","arrowleft","0","arrowleft","[0.15,0.85,0.325,0.675]","","",""
"sailing-trial","314","2394318","0.0-11.0-273.0","","","","false","","","","","","","","","","null","","1294.300000000745","","3","0","null","null","arrowup","[0.15,0.85,0.325,0.675]","","",""
"sailing-trial","315","2400794","0.0-11.0-274.0","","","","false","","","","","","","","","","2332.2000000001863","","956.7000000001863","","1","1","arrowleft","0","arrowright","[0.15,0.85,0.325,0.675]","","",""
"sailing-trial","316","2404356","0.0-11.0-275.0","","","","false","","","","","","","","","","null","","1240","","1","1","null","null","arrowup","[0.15,0.85,0.325,0.675]","","",""
"sailing-trial","317","2410855","0.0-11.0-276.0","","","","false","","","","","","","","","","928.7999999998137","","1428.1000000005588","","3","0","arrowright","1","arrowright","[0.15,0.85,0.325,0.675]","","",""
"sailing-trial","318","2414191","0.0-11.0-277.0","","","","false","","","","","","","","","","null","","1483.4000000003725","","1","1","null","null","arrowup","[0.15,0.85,0.325,0.675]","","",""
"sailing-trial","319","2418374","0.0-11.0-278.0","","","","false","","","","","","","","","","768.1000000005588","","205.19999999925494","","1","1","arrowleft","0","arrowright","[0.15,0.85,0.325,0.675]","","",""
"sailing-trial","320","2424045","0.0-11.0-279.0","","","","false","","","","","","","","","","null","","3156.2999999998137","","0","0","null","null","arrowup","[0.15,0.85,0.325,0.675]","","",""
"sailing-trial","321","2428527","0.0-11.0-280.0","","","","false","","","","","","","","","","938.4000000003725","","211.79999999981374","","1","1","arrowleft","0","arrowright","[0.15,0.85,0.325,0.675]","","",""
"sailing-trial","322","2431839","0.0-11.0-281.0","","","","false","","","","","","","","","","null","","1167.5","","1","1","null","null","arrowup","[0.15,0.85,0.325,0.675]","","",""
"sailing-trial","323","2436085","0.0-11.0-282.0","","","","false","","","","","","","","","","709.2999999998137","","462.29999999981374","","3","1","arrowright","1","arrowright","[0.15,0.85,0.325,0.675]","","",""
"sailing-trial","324","2439228","0.0-11.0-283.0","","","","false","","","","","","","","","","null","","1043.7999999998137","","3","1","null","null","arrowup","[0.15,0.85,0.325,0.675]","","",""
"sailing-trial","325","2444142","0.0-11.0-284.0","","","","false","","","","","","","","","","646.6999999992549","","203.19999999925494","","3","0","arrowright","1","arrowright","[0.15,0.85,0.325,0.675]","","",""
"sailing-trial","326","2448367","0.0-11.0-285.0","","","","false","","","","","","","","","","null","","1200.5999999996275","","3","0","null","null","arrowup","[0.15,0.85,0.325,0.675]","","",""
"sailing-trial","327","2452640","0.0-11.0-286.0","","","","false","","","","","","","","","","724.0999999996275","","271.79999999981374","","1","1","arrowleft","0","arrowright","[0.15,0.85,0.325,0.675]","","",""
"sailing-trial","328","2457090","0.0-11.0-287.0","","","","false","","","","","","","","","","null","","812.1000000005588","","1","1","null","null","arrowup","[0.15,0.85,0.325,0.675]","","",""
"sailing-trial","329","2463529","0.0-11.0-288.0","","","","false","","","","","","","","","","871.6999999992549","","1506.5","","1","0","arrowleft","0","arrowright","[0.15,0.85,0.325,0.675]","","",""
"sailing-trial","330","2468220","0.0-11.0-289.0","","","","false","","","","","","","","","","null","","2079.5","","3","1","null","null","arrowup","[0.15,0.85,0.325,0.675]","","",""
"sailing-trial","331","2472802","0.0-11.0-290.0","","","","false","","","","","","","","","","963.2000000001863","","264.6000000005588","","3","1","arrowright","1","arrowright","[0.15,0.85,0.325,0.675]","","",""
"sailing-trial","332","2476177","0.0-11.0-291.0","","","","false","","","","","","","","","","null","","1249.2999999998137","","1","1","null","null","arrowup","[0.15,0.85,0.325,0.675]","","",""
"sailing-trial","333","2480695","0.0-11.0-292.0","","","","false","","","","","","","","","","691.2999999998137","","324.8999999994412","","3","1","arrowright","1","arrowright","[0.325,0.675,0.15,0.85]","","",""
"sailing-trial","334","2485254","0.0-11.0-293.0","","","","false","","","","","","","","","","null","","1491.7999999998137","","2","0","null","null","arrowup","[0.325,0.675,0.15,0.85]","","",""
"sailing-trial","335","2489951","0.0-11.0-294.0","","","","false","","","","","","","","","","1376.0999999996275","","161.30000000074506","","1","1","arrowleft","0","arrowright","[0.325,0.675,0.15,0.85]","","",""
"sailing-trial","336","2492896","0.0-11.0-295.0","","","","false","","","","","","","","","","null","","951.3000000007451","","2","1","null","null","arrowup","[0.325,0.675,0.15,0.85]","","",""
"sailing-trial","337","2498586","0.0-11.0-296.0","","","","false","","","","","","","","","","580.1999999992549","","1030.7999999998137","","2","0","arrowright","1","arrowleft","[0.325,0.675,0.15,0.85]","","",""
"sailing-trial","338","2501481","0.0-11.0-297.0","","","","false","","","","","","","","","","null","","981.7000000001863","","3","1","null","null","arrowup","[0.325,0.675,0.15,0.85]","","",""
"sailing-trial","339","2505493","0.0-11.0-298.0","","","","false","","","","","","","","","","942.2000000001863","","5","","3","1","arrowright","1","arrowright","[0.325,0.675,0.15,0.85]","","",""
"sailing-trial","340","2508682","0.0-11.0-299.0","","","","false","","","","","","","","","","null","","1069.5999999996275","","1","1","null","null","arrowup","[0.325,0.675,0.15,0.85]","","",""
"sailing-trial","341","2512685","0.0-11.0-300.0","","","","false","","","","","","","","","","612.2999999998137","","316.79999999981374","","1","1","arrowleft","0","arrowright","[0.325,0.675,0.15,0.85]","","",""
"sailing-trial","342","2518162","0.0-11.0-301.0","","","","false","","","","","","","","","","null","","2418.7999999998137","","0","0","null","null","arrowup","[0.325,0.675,0.15,0.85]","","",""
"sailing-trial","343","2524673","0.0-11.0-302.0","","","","false","","","","","","","","","","777.6000000005588","","1647.8999999994412","","2","0","arrowright","1","arrowleft","[0.325,0.675,0.15,0.85]","","",""
"sailing-trial","344","2526974","0.0-11.0-303.0","","","","false","","","","","","","","","","null","","976.0999999996275","","0","0","null","null","arrowup","[0.325,0.675,0.15,0.85]","","",""
"sailing-trial","345","2530837","0.0-11.0-304.0","","","","false","","","","","","","","","","725.2000000001863","","66.30000000074506","","3","1","arrowright","1","arrowright","[0.325,0.675,0.15,0.85]","","",""
"sailing-trial","346","2534744","0.0-11.0-305.0","","","","false","","","","","","","","","","null","","846.5999999996275","","1","0","null","null","arrowup","[0.325,0.675,0.15,0.85]","","",""
"sailing-trial","347","2538614","0.0-11.0-306.0","","","","false","","","","","","","","","","457.09999999962747","","45.299999999813735","","1","1","arrowleft","0","arrowright","[0.325,0.675,0.15,0.85]","","",""
"sailing-trial","348","2542717","0.0-11.0-307.0","","","","false","","","","","","","","","","null","","1058.0999999996275","","3","0","null","null","arrowup","[0.325,0.675,0.15,0.85]","","",""
"sailing-trial","349","2548638","0.0-11.0-308.0","","","","false","","","","","","","","","","1498.800000000745","","319.59999999962747","","3","0","arrowright","1","arrowright","[0.15,0.85,0.325,0.675]","","",""
"sailing-trial","350","2551774","0.0-11.0-309.0","","","","false","","","","","","","","","","null","","1070.3999999994412","","0","1","null","null","arrowup","[0.15,0.85,0.325,0.675]","","",""
"sailing-trial","351","2557198","0.0-11.0-310.0","","","","false","","","","","","","","","","704.2999999998137","","619.6000000005588","","0","0","arrowleft","0","arrowleft","[0.15,0.85,0.325,0.675]","","",""
"sailing-trial","352","2560908","0.0-11.0-311.0","","","","false","","","","","","","","","","null","","661","","0","0","null","null","arrowup","[0.15,0.85,0.325,0.675]","","",""
"sailing-trial","353","2565863","0.0-11.0-312.0","","","","false","","","","","","","","","","947.2000000001863","","912.7999999998137","","3","1","arrowright","1","arrowright","[0.15,0.85,0.325,0.675]","","",""
"sailing-trial","354","2570738","0.0-11.0-313.0","","","","false","","","","","","","","","","null","","1833.7000000001863","","0","0","null","null","arrowup","[0.15,0.85,0.325,0.675]","","",""
"sailing-trial","355","2574640","0.0-11.0-314.0","","","","false","","","","","","","","","","485.40000000037253","","233.90000000037253","","1","1","arrowleft","0","arrowright","[0.15,0.85,0.325,0.675]","","",""
"sailing-trial","356","2578792","0.0-11.0-315.0","","","","false","","","","","","","","","","null","","1293.6000000005588","","1","1","null","null","arrowup","[0.15,0.85,0.325,0.675]","","",""
"sailing-trial","357","2585727","0.0-11.0-316.0","","","","false","","","","","","","","","","1959.0999999996275","","905.9000000003725","","3","0","arrowright","1","arrowright","[0.15,0.85,0.325,0.675]","","",""
"sailing-trial","358","2589990","0.0-11.0-317.0","","","","false","","","","","","","","","","null","","1950.300000000745","","3","1","null","null","arrowup","[0.15,0.85,0.325,0.675]","","",""
"sailing-trial","359","2595208","0.0-11.0-318.0","","","","false","","","","","","","","","","1198.2000000001863","","867.4000000003725","","3","1","arrowright","1","arrowright","[0.15,0.85,0.325,0.675]","","",""
"sailing-trial","360","2598036","0.0-11.0-319.0","","","","false","","","","","","","","","","null","","1106.5999999996275","","0","0","null","null","arrowup","[0.15,0.85,0.325,0.675]","","",""
"sailing-trial","361","2603042","0.0-11.0-320.0","","","","false","","","","","","","","","","1105.2000000001863","","664.2999999998137","","3","1","arrowright","1","arrowright","[0.15,0.85,0.325,0.675]","","",""
"sailing-trial","362","2606686","0.0-11.0-321.0","","","","false","","","","","","","","","","null","","937.0999999996275","","3","0","null","null","arrowup","[0.15,0.85,0.325,0.675]","","",""
"sailing-trial","363","2610817","0.0-11.0-322.0","","","","false","","","","","","","","","","765.5","","167.20000000018626","","0","1","arrowleft","0","arrowleft","[0.15,0.85,0.325,0.675]","","",""
"sailing-trial","364","2616019","0.0-11.0-323.0","","","","false","","","","","","","","","","null","","2948.4000000003725","","2","1","null","null","arrowup","[0.15,0.85,0.325,0.675]","","",""
"sailing-trial","365","2620797","0.0-11.0-324.0","","","","false","","","","","","","","","","368.30000000074506","","1396","","2","1","arrowright","1","arrowleft","[0.85,0.15,0.675,0.325]","","",""
"sailing-trial","366","2623835","0.0-11.0-325.0","","","","false","","","","","","","","","","null","","1029.3999999994412","","1","1","null","null","arrowup","[0.85,0.15,0.675,0.325]","","",""
"sailing-trial","367","2628674","0.0-11.0-326.0","","","","false","","","","","","","","","","624.5","","158.5","","1","0","arrowleft","0","arrowright","[0.85,0.15,0.675,0.325]","","",""
"sailing-trial","368","2631663","0.0-11.0-327.0","","","","false","","","","","","","","","","null","","1049.0999999996275","","3","1","null","null","arrowup","[0.85,0.15,0.675,0.325]","","",""
"sailing-trial","369","2636148","0.0-11.0-328.0","","","","false","","","","","","","","","","847.6999999992549","","530.5999999996275","","0","1","arrowleft","0","arrowleft","[0.85,0.15,0.675,0.325]","","",""
"sailing-trial","370","2639105","0.0-11.0-329.0","","","","false","","","","","","","","","","null","","964.7999999998137","","2","1","null","null","arrowup","[0.85,0.15,0.675,0.325]","","",""
"sailing-trial","371","2644006","0.0-11.0-330.0","","","","false","","","","","","","","","","575.7999999998137","","247.20000000018626","","3","0","arrowright","1","arrowright","[0.85,0.15,0.675,0.325]","","",""
"sailing-trial","372","2648017","0.0-11.0-331.0","","","","false","","","","","","","","","","null","","988.5","","3","0","null","null","arrowup","[0.85,0.15,0.675,0.325]","","",""
"sailing-trial","373","2652646","0.0-11.0-332.0","","","","false","","","","","","","","","","410.09999999962747","","718.5","","0","1","arrowleft","0","arrowleft","[0.85,0.15,0.675,0.325]","","",""
"sailing-trial","374","2655926","0.0-11.0-333.0","","","","false","","","","","","","","","","null","","1007.6999999992549","","2","1","null","null","arrowup","[0.85,0.15,0.675,0.325]","","",""
"sailing-trial","375","2659937","0.0-11.0-334.0","","","","false","","","","","","","","","","920.5999999996275","","89.20000000018626","","3","1","arrowright","1","arrowright","[0.85,0.15,0.675,0.325]","","",""
"sailing-trial","376","2662631","0.0-11.0-335.0","","","","false","","","","","","","","","","null","","769.1000000005588","","2","1","null","null","arrowup","[0.85,0.15,0.675,0.325]","","",""
"sailing-trial","377","2667105","0.0-11.0-336.0","","","","false","","","","","","","","","","573","","614.2999999998137","","0","1","arrowleft","0","arrowleft","[0.85,0.15,0.675,0.325]","","",""
"sailing-trial","378","2670164","0.0-11.0-337.0","","","","false","","","","","","","","","","null","","728.7999999998137","","2","1","null","null","arrowup","[0.85,0.15,0.675,0.325]","","",""
"sailing-trial","379","2675232","0.0-11.0-338.0","","","","false","","","","","","","","","","514.3999999994412","","1414.5","","2","1","arrowright","1","arrowleft","[0.85,0.15,0.675,0.325]","","",""
"sailing-trial","380","2679361","0.0-11.0-339.0","","","","false","","","","","","","","","","null","","1093.7000000001863","","1","0","null","null","arrowup","[0.85,0.15,0.675,0.325]","","",""
"sailing-trial","381","2684377","0.0-11.0-340.0","","","","false","","","","","","","","","","1240.7000000001863","","834.6000000005588","","2","1","arrowright","1","arrowleft","[0.85,0.15,0.675,0.325]","","",""
"sailing-trial","382","2687334","0.0-11.0-341.0","","","","false","","","","","","","","","","null","","971.2000000001863","","2","1","null","null","arrowup","[0.85,0.15,0.675,0.325]","","",""
"sailing-trial","383","2692883","0.0-11.0-342.0","","","","false","","","","","","","","","","1409.2000000001863","","1086.5","","0","1","arrowleft","0","arrowleft","[0.675,0.325,0.85,0.15]","","",""
"sailing-trial","384","2695449","0.0-11.0-343.0","","","","false","","","","","","","","","","null","","570.9000000003725","","2","1","null","null","arrowup","[0.675,0.325,0.85,0.15]","","",""
"sailing-trial","385","2700384","0.0-11.0-344.0","","","","false","","","","","","","","","","482.70000000018626","","1100.300000000745","","2","1","arrowright","1","arrowleft","[0.675,0.325,0.85,0.15]","","",""
"sailing-trial","386","2704368","0.0-11.0-345.0","","","","false","","","","","","","","","","null","","951.5","","0","0","null","null","arrowup","[0.675,0.325,0.85,0.15]","","",""
"sailing-trial","387","2709426","0.0-11.0-346.0","","","","false","","","","","","","","","","500.19999999925494","","470.29999999981374","","1","0","arrowleft","0","arrowright","[0.675,0.325,0.85,0.15]","","",""
"sailing-trial","388","2712621","0.0-11.0-347.0","","","","false","","","","","","","","","","null","","1289.9000000003725","","0","1","null","null","arrowup","[0.675,0.325,0.85,0.15]","","",""
"sailing-trial","389","2718524","0.0-11.0-348.0","","","","false","","","","","","","","","","691.7999999998137","","1140.7000000001863","","0","0","arrowleft","0","arrowleft","[0.675,0.325,0.85,0.15]","","",""
"sailing-trial","390","2721192","0.0-11.0-349.0","","","","false","","","","","","","","","","null","","822.5999999996275","","0","1","null","null","arrowup","[0.675,0.325,0.85,0.15]","","",""
"sailing-trial","391","2726005","0.0-11.0-350.0","","","","false","","","","","","","","","","1095.1000000005588","","638.8999999994412","","2","1","arrowright","1","arrowleft","[0.675,0.325,0.85,0.15]","","",""
"sailing-trial","392","2728958","0.0-11.0-351.0","","","","false","","","","","","","","","","null","","956.2000000001863","","2","1","null","null","arrowup","[0.675,0.325,0.85,0.15]","","",""
"sailing-trial","393","2733571","0.0-11.0-352.0","","","","false","","","","","","","","","","483.09999999962747","","1210.7999999998137","","1","1","arrowleft","0","arrowright","[0.675,0.325,0.85,0.15]","","",""
"sailing-trial","394","2736429","0.0-11.0-353.0","","","","false","","","","","","","","","","null","","935.7999999998137","","2","1","null","null","arrowup","[0.675,0.325,0.85,0.15]","","",""
"sailing-trial","395","2740605","0.0-11.0-354.0","","","","false","","","","","","","","","","735.7999999998137","","432.5","","2","1","arrowright","1","arrowleft","[0.675,0.325,0.85,0.15]","","",""
"sailing-trial","396","2743723","0.0-11.0-355.0","","","","false","","","","","","","","","","null","","783.7999999998137","","1","1","null","null","arrowup","[0.675,0.325,0.85,0.15]","","",""
"sailing-trial","397","2748459","0.0-11.0-356.0","","","","false","","","","","","","","","","599.9000000003725","","80.3999999994412","","1","0","arrowleft","0","arrowright","[0.675,0.325,0.85,0.15]","","",""
"sailing-trial","398","2750673","0.0-11.0-357.0","","","","false","","","","","","","","","","null","","874.2999999998137","","1","0","null","null","arrowup","[0.675,0.325,0.85,0.15]","","",""
"sailing-trial","399","2755554","0.0-11.0-358.0","","","","false","","","","","","","","","","1363.2999999998137","","537.7000000001863","","0","1","arrowleft","0","arrowleft","[0.675,0.325,0.85,0.15]","","",""
"sailing-trial","400","2757714","0.0-11.0-359.0","","","","false","","","","","","","","","","null","","587.3999999994412","","1","0","null","null","arrowup","[0.675,0.325,0.85,0.15]","","",""
"sailing-trial","401","2761612","0.0-11.0-360.0","","","","false","","","","","","","","","","599.7999999998137","","84.8999999994412","","2","1","arrowright","1","arrowleft","[0.675,0.325,0.85,0.15]","","",""
"sailing-trial","402","2765395","0.0-11.0-361.0","","","","false","","","","","","","","","","null","","743","","1","0","null","null","arrowup","[0.675,0.325,0.85,0.15]","","",""
"sailing-trial","403","2770381","0.0-11.0-362.0","","","","false","","","","[{""event"":""fullscreenenter"",""trial"":3,""time"":15201},{""event"":""blur"",""trial"":404,""time"":2773994}]","false","","","","","592.5999999996275","","290.1000000005588","","1","0","arrowleft","0","arrowright","[0.85,0.15,0.675,0.325]","","",""
"sailing-trial","404","2776856","0.0-11.0-363.0","","","","false","","","","","","","","","","null","","3441.2999999998137","","1","0","null","null","arrowup","[0.85,0.15,0.675,0.325]","","",""
"sailing-trial","405","2791879","0.0-11.0-364.0","","","","true","","","","[{""event"":""fullscreenenter"",""trial"":3,""time"":15201},{""event"":""blur"",""trial"":404,""time"":2773994},{""event"":""focus"",""trial"":406,""time"":2794764}]","false","","","","","null","","null","","null","null","null","null","null","[0.85,0.15,0.675,0.325]","","",""
"sailing-trial","406","2801478","0.0-11.0-365.0","","","","false","","","","","","","","","","null","","6584.899999999441","","3","0","null","null","arrowup","[0.85,0.15,0.675,0.325]","","",""
"sailing-trial","407","2806055","0.0-11.0-366.0","","","","false","","","","","","","","","","133.1000000005588","","313.40000000037253","","3","0","arrowright","1","arrowright","[0.85,0.15,0.675,0.325]","","",""
"sailing-trial","408","2810399","0.0-11.0-367.0","","","","false","","","","","","","","","","null","","1032.0999999996275","","0","1","null","null","arrowup","[0.85,0.15,0.675,0.325]","","",""
"sailing-trial","409","2814335","0.0-11.0-368.0","","","","false","","","","","","","","","","666.1999999992549","","80.90000000037253","","1","1","arrowleft","0","arrowright","[0.85,0.15,0.675,0.325]","","",""
"sailing-trial","410","2817326","0.0-11.0-369.0","","","","false","","","","","","","","","","null","","953.8000000007451","","2","1","null","null","arrowup","[0.85,0.15,0.675,0.325]","","",""
"sailing-trial","411","2821424","0.0-11.0-370.0","","","","false","","","","","","","","","","908.7999999998137","","165.70000000018626","","2","1","arrowright","1","arrowleft","[0.85,0.15,0.675,0.325]","","",""
"sailing-trial","412","2824203","0.0-11.0-371.0","","","","false","","","","","","","","","","null","","904.2000000001863","","2","1","null","null","arrowup","[0.85,0.15,0.675,0.325]","","",""
"sailing-trial","413","2828044","0.0-11.0-372.0","","","","false","","","","","","","","","","599.8999999994412","","200.5","","1","0","arrowleft","0","arrowright","[0.85,0.15,0.675,0.325]","","",""
"sailing-trial","414","2831011","0.0-11.0-373.0","","","","false","","","","","","","","","","null","","782.9000000003725","","2","1","null","null","arrowup","[0.85,0.15,0.675,0.325]","","",""
"sailing-trial","415","2835360","0.0-11.0-374.0","","","","false","","","","","","","","","","214.40000000037253","","1062.0999999996275","","2","1","arrowright","1","arrowleft","[0.85,0.15,0.675,0.325]","","",""
"sailing-trial","416","2839436","0.0-11.0-375.0","","","","false","","","","","","","","","","null","","1718.2999999998137","","0","1","null","null","arrowup","[0.85,0.15,0.675,0.325]","","",""
"sailing-trial","417","2844996","0.0-11.0-376.0","","","","false","","","","","","","","","","708.3999999994412","","788.3000000007451","","0","0","arrowleft","0","arrowleft","[0.85,0.15,0.675,0.325]","","",""
"sailing-trial","418","2847985","0.0-11.0-377.0","","","","false","","","","","","","","","","null","","1277.800000000745","","2","0","null","null","arrowup","[0.85,0.15,0.675,0.325]","","",""
"sailing-trial","419","2853061","0.0-11.0-378.0","","","","false","","","","","","","","","","831.5","","192.5","","2","0","arrowright","1","arrowleft","[0.85,0.15,0.675,0.325]","","",""
"sailing-trial","420","2855722","0.0-11.0-379.0","","","","false","","","","","","","","","","null","","635.7999999998137","","1","1","null","null","arrowup","[0.85,0.15,0.675,0.325]","","",""
"sailing-trial","421","2860453","0.0-11.0-380.0","","","","false","","","","","","","","","","589.7000000001863","","73.40000000037253","","1","0","arrowleft","0","arrowright","[0.85,0.15,0.675,0.325]","","",""
"sailing-trial","422","2863953","0.0-11.0-381.0","","","","false","","","","","","","","","","null","","931.0999999996275","","1","1","null","null","arrowup","[0.85,0.15,0.675,0.325]","","",""
"sailing-trial","423","2869855","0.0-11.0-382.0","","","","false","","","","","","","","","","1376.2999999998137","","431.40000000037253","","2","0","arrowright","1","arrowleft","[0.675,0.325,0.85,0.15]","","",""
"sailing-trial","424","2873041","0.0-11.0-383.0","","","","false","","","","","","","","","","null","","1016.5","","2","1","null","null","arrowup","[0.675,0.325,0.85,0.15]","","",""
"sailing-trial","425","2878129","0.0-11.0-384.0","","","","false","","","","","","","","","","626.5","","426.70000000018626","","1","0","arrowleft","0","arrowright","[0.675,0.325,0.85,0.15]","","",""
"sailing-trial","426","2881079","0.0-11.0-385.0","","","","false","","","","","","","","","","null","","930.6999999992549","","0","1","null","null","arrowup","[0.675,0.325,0.85,0.15]","","",""
"sailing-trial","427","2886027","0.0-11.0-386.0","","","","false","","","","","","","","","","496.5","","367.90000000037253","","3","0","arrowright","1","arrowright","[0.675,0.325,0.85,0.15]","","",""
"sailing-trial","428","2889901","0.0-11.0-387.0","","","","false","","","","","","","","","","null","","838.1999999992549","","1","0","null","null","arrowup","[0.675,0.325,0.85,0.15]","","",""
"sailing-trial","429","2893716","0.0-11.0-388.0","","","","false","","","","","","","","","","514.2000000001863","","198.09999999962747","","0","1","arrowleft","0","arrowleft","[0.675,0.325,0.85,0.15]","","",""
"sailing-trial","430","2897789","0.0-11.0-389.0","","","","false","","","","","","","","","","null","","1028.7000000001863","","3","0","null","null","arrowup","[0.675,0.325,0.85,0.15]","","",""
"sailing-trial","431","2902178","0.0-11.0-390.0","","","","false","","","","","","","","","","641.5","","308.09999999962747","","2","1","arrowright","1","arrowleft","[0.675,0.325,0.85,0.15]","","",""
"sailing-trial","432","2906408","0.0-11.0-391.0","","","","false","","","","","","","","","","null","","1203.4000000003725","","3","0","null","null","arrowup","[0.675,0.325,0.85,0.15]","","",""
"sailing-trial","433","2911081","0.0-11.0-392.0","","","","false","","","","","","","","","","702","","955.8999999994412","","0","1","arrowleft","0","arrowleft","[0.675,0.325,0.85,0.15]","","",""
"sailing-trial","434","2914022","0.0-11.0-393.0","","","","false","","","","","","","","","","null","","962.1000000005588","","2","1","null","null","arrowup","[0.675,0.325,0.85,0.15]","","",""
"sailing-trial","435","2918100","0.0-11.0-394.0","","","","false","","","","","","","","","","818.2000000001863","","117.79999999981374","","2","1","arrowright","1","arrowleft","[0.675,0.325,0.85,0.15]","","",""
"sailing-trial","436","2921197","0.0-11.0-395.0","","","","false","","","","","","","","","","null","","988.9000000003725","","2","1","null","null","arrowup","[0.675,0.325,0.85,0.15]","","",""
"sailing-trial","437","2925248","0.0-11.0-396.0","","","","false","","","","","","","","","","857.4000000003725","","106","","0","1","arrowleft","0","arrowleft","[0.675,0.325,0.85,0.15]","","",""
"sailing-trial","438","2929017","0.0-11.0-397.0","","","","false","","","","","","","","","","null","","709.0999999996275","","3","0","null","null","arrowup","[0.675,0.325,0.85,0.15]","","",""
"sailing-trial","439","2933145","0.0-11.0-398.0","","","","false","","","","","","","","","","433.70000000018626","","179.20000000018626","","2","1","arrowright","1","arrowleft","[0.675,0.325,0.85,0.15]","","",""
"sailing-trial","440","2935675","0.0-11.0-399.0","","","","false","","","","","","","","","","null","","906","","3","0","null","null","arrowup","[0.675,0.325,0.85,0.15]","","",""
"instructions","441","2947751","0.0-12.0","","","","","","","","","","12073.5","","","","","","","","","","","","","","","","[{""page_index"":0,""viewing_time"":12071.799999999814}]"
"survey-debrief","442","2971718","0.0-13.0","","","","","","","","","","23963.400000000373","","","","","","","","","","","","","","{""difficulty"":""3"",""fun"":""3"",""clarity"":""4"",""strategy"":""no"",""feedback"":""no""}","",""
