"trial_type","trial_index","time_elapsed","internal_node_id","value","metadata","success","timeout","failed_images","failed_audio","failed_video","browser_interaction","low_quality","rt","stimulus","response","button_pressed","island_rt","island_response","boat_rt","boat_response","boat","reward","island_key","island","boat_key","reward_probabilities","responses","num_errors","view_history"
"pavlovia","0","3","0.0-0.0","","","","","","","","","","","","","","","","","","","","","","","","","",""
"call-function","1","3","0.0-1.0","","{""task_version"":""sailing_part1_v1"",""task_condition"":""good"",""boats"":[""D"",""C"",""A"",""B""],""boats_demo"":[""F"",""H"",""G"",""E""],""islands"":[""B"",""A""],""subject_id"":""14783"",""age"":""22"",""gender"":""Female""}","","","","","","","","","","","","","","","","","","","","","","","",""
"preload","2","4852","0.0-2.0","","","true","false","[]","[]","[]","[{""event"":""fullscreenenter"",""trial"":3,""time"":8895}]","false","","","","","","","","","","","","","","","","",""
"fullscreen","3","9860","0.0-3.0","","","true","","","","","","","","","","","","","","","","","","","","","","",""
"audio-keyboard-response","4","11653","0.0-4.0-0.0","","","","","","","","","","960","audio/beep_loop.wav"," ","","","","","","","","","","","","","",""
"audio-test","5","13771","0.0-4.0-1.0","","","","","","","","","","null","audio/turtle.mp3","","3","","","","","","","","","","","","",""
"audio-test","6","16115","0.0-4.0-2.0","","","","","","","","","","null","audio/shark.mp3","","2","","","","","","","","","","","","",""
"sailing-instructions","7","45756","0.0-5.0-0.0-0.0","","","","","","","","","","","","","","null","null","null","null","null","null","","","","","","",""
"sailing-trial","8","49343","0.0-5.0-0.0-1.0-0.0","","","","false","","","","","","","","","","2477.699999809265","","null","","null","null","arrowleft","0","null","null","","",""
"sailing-trial","9","51143","0.0-5.0-0.0-1.0-1.0","","","","false","","","","","","","","","","691.8999996185303","","null","","null","null","arrowright","1","null","null","","",""
"sailing-trial","10","53729","0.0-5.0-0.0-1.0-2.0","","","","false","","","","","","","","","","1476.6000003814697","","null","","null","null","arrowright","1","null","null","","",""
"sailing-instructions","11","104644","0.0-5.0-0.0-2.0","","","","","","","","","","","","","","null","null","null","null","0","null","","","","","","",""
"sailing-trial","12","110784","0.0-5.0-0.0-3.0-0.0","","","","false","","","","","","","","","","null","","2005.5","","2","1","null","null","arrowleft","[1,1,1,1]","","",""
"sailing-trial","13","114869","0.0-5.0-0.0-3.0-1.0","","","","false","","","","","","","","","","null","","929.3999996185303","","3","1","null","null","arrowright","[1,1,1,1]","","",""
"sailing-trial","14","118670","0.0-5.0-0.0-3.0-2.0","","","","false","","","","","","","","","","null","","1051.5","","2","0","null","null","arrowleft","[0,0,0,0]","","",""
"sailing-instructions","15","126012","0.0-5.0-0.0-4.0","","","","","","","","","","","","","","null","null","null","null","null","null","","","","","","",""
"sailing-comprehension","16","140479","0.0-5.0-0.0-5.0","","","","","","","","","","9830.89999961853","","","","","","","","","","","","","","[""true"",""true"",""false"",""true""]","0",""
"sailing-instructions","17","199846","0.0-6.0-0.0-0.0","","","","","","","","","","","","","","null","null","null","null","null","null","","","","","","",""
"sailing-comprehension","18","210295","0.0-6.0-0.0-1.0","","","","","","","","","","8533.299999713898","","","","","","","","","","","","","","[""true"",""false"",""true""]","0",""
"sailing-instructions","19","226998","0.0-7.0-0.0-0.0","","","","","","","","","","","","","","null","null","null","null","null","null","","","","","","",""
"sailing-trial","20","234181","0.0-7.0-0.0-1.0-0.0","","","","false","","","","","","","","","","null","","4163.599999904633","","0","0","null","null","arrowup","[0.2,0.8,0.2,0.8]","","",""
"sailing-trial","21","238450","0.0-7.0-0.0-1.0-1.0","","","","false","","","","","","","","","","null","","1719.4000000953674","","1","1","null","null","arrowup","[0.2,0.8,0.2,0.8]","","",""
"sailing-trial","22","242284","0.0-7.0-0.0-1.0-2.0","","","","false","","","","","","","","","","null","","1344.8999996185303","","2","1","null","null","arrowup","[0.2,0.8,0.2,0.8]","","",""
"sailing-trial","23","245304","0.0-7.0-0.0-1.0-3.0","","","","false","","","","","","","","","","null","","919.7999997138977","","3","1","null","null","arrowup","[0.2,0.8,0.2,0.8]","","",""
"sailing-comprehension","24","253886","0.0-7.0-0.0-2.0","","","","","","","","","","5243.39999961853","","","","","","","","","","","","","","[""false""]","0",""
"sailing-instructions","25","263974","0.0-8.0-0.0-0.0","","","","","","","","","","","","","","null","null","null","null","null","null","","","","","","",""
"sailing-comprehension","26","268220","0.0-8.0-0.0-1.0","","","","","","","","","","3116.9000000953674","","","","","","","","","","","","","","[""true""]","0",""
"sailing-instructions","27","295836","0.0-9.0-0.0-0.0","","","","","","","","","","","","","","null","null","null","null","null","null","","","","","","",""
"sailing-trial","28","301991","0.0-9.0-0.0-1.0-0.0","","","","false","","","","","","","","","","1662.3000001907349","","602","","0","0","arrowleft","0","arrowleft","[0.2,0.8,0.2,0.8]","","",""
"sailing-trial","29","306127","0.0-9.0-0.0-1.0-1.0","","","","false","","","","","","","","","","667.3000001907349","","34.60000038146973","","3","1","arrowright","1","arrowright","[0.2,0.8,0.2,0.8]","","",""
"sailing-trial","30","308993","0.0-9.0-0.0-1.0-2.0","","","","false","","","","","","","","","","null","","949.3999996185303","","0","1","null","null","arrowup","[0.2,0.8,0.2,0.8]","","",""
"sailing-trial","31","313744","0.0-9.0-0.0-1.0-3.0","","","","false","","","","","","","","","","1634.1000003814697","","133.10000038146973","","0","1","arrowleft","0","arrowleft","[0.2,0.8,0.2,0.8]","","",""
"sailing-trial","32","317064","0.0-9.0-0.0-1.0-4.0","","","","false","","","","","","","","","","null","","1420.0999999046326","","3","1","null","null","arrowup","[0.2,0.8,0.2,0.8]","","",""
"sailing-trial","33","321265","0.0-9.0-0.0-1.0-5.0","","","","false","","","","","","","","","","953.2999997138977","","119.19999980926514","","3","1","arrowright","1","arrowright","[0.2,0.8,0.2,0.8]","","",""
"sailing-instructions","34","345301","0.0-10.0","","","","","","","","","","","","","","null","null","null","null","null","null","","","","","","",""
"sailing-trial","35","351011","0.0-11.0-0.0","","","","false","","","","","","","","","","2662.4000000953674","","75.5","","0","1","arrowleft","0","arrowleft","[0.325,0.675,0.15,0.85]","","",""
"sailing-trial","36","353326","0.0-11.0-1.0","","","","false","","","","","","","","","","null","","1143.2000002861023","","2","0","null","null","arrowup","[0.325,0.675,0.15,0.85]","","",""
"sailing-trial","37","357913","0.0-11.0-2.0","","","","false","","","","","","","","","","901.4000000953674","","544.1999998092651","","3","1","arrowright","1","arrowright","[0.325,0.675,0.15,0.85]","","",""
"sailing-trial","38","362147","0.0-11.0-3.0","","","","false","","","","","","","","","","null","","1209.9000000953674","","0","0","null","null","arrowup","[0.325,0.675,0.15,0.85]","","",""
"sailing-trial","39","367034","0.0-11.0-4.0","","","","false","","","","","","","","","","1647","","38.80000019073486","","0","1","arrowleft","0","arrowleft","[0.325,0.675,0.15,0.85]","","",""
"sailing-trial","40","370533","0.0-11.0-5.0","","","","false","","","","","","","","","","null","","1081.1999998092651","","2","0","null","null","arrowup","[0.325,0.675,0.15,0.85]","","",""
"sailing-trial","41","375210","0.0-11.0-6.0","","","","false","","","","","","","","","","781.2999997138977","","127.09999990463257","","0","0","arrowleft","0","arrowleft","[0.325,0.675,0.15,0.85]","","",""
"sailing-trial","42","378454","0.0-11.0-7.0","","","","false","","","","","","","","","","null","","1201.4000000953674","","1","1","null","null","arrowup","[0.325,0.675,0.15,0.85]","","",""
"sailing-trial","43","383716","0.0-11.0-8.0","","","","false","","","","","","","","","","644.4000000953674","","580.3000001907349","","1","0","arrowleft","0","arrowright","[0.325,0.675,0.15,0.85]","","",""
"sailing-trial","44","387809","0.0-11.0-9.0","","","","false","","","","","","","","","","null","","1085.6999998092651","","2","0","null","null","arrowup","[0.325,0.675,0.15,0.85]","","",""
"sailing-trial","45","392010","0.0-11.0-10.0","","","","false","","","","","","","","","","602.4000000953674","","458.8999996185303","","3","1","arrowright","1","arrowright","[0.325,0.675,0.15,0.85]","","",""
"sailing-trial","46","395195","0.0-11.0-11.0","","","","false","","","","","","","","","","null","","1144.3999996185303","","1","1","null","null","arrowup","[0.325,0.675,0.15,0.85]","","",""
"sailing-trial","47","399746","0.0-11.0-12.0","","","","false","","","","","","","","","","1222.8999996185303","","233.7999997138977","","3","1","arrowright","1","arrowright","[0.325,0.675,0.15,0.85]","","",""
"sailing-trial","48","403290","0.0-11.0-13.0","","","","false","","","","","","","","","","null","","1224.2000002861023","","2","0","null","null","arrowup","[0.325,0.675,0.15,0.85]","","",""
"sailing-trial","49","407316","0.0-11.0-14.0","","","","false","","","","","","","","","","616.5","","475.2999997138977","","1","1","arrowleft","0","arrowright","[0.325,0.675,0.15,0.85]","","",""
"sailing-trial","50","410267","0.0-11.0-15.0","","","","false","","","","","","","","","","null","","1037.2000002861023","","0","1","null","null","arrowup","[0.325,0.675,0.15,0.85]","","",""
"sailing-trial","51","414330","0.0-11.0-16.0","","","","false","","","","","","","","","","935.7000002861023","","124.59999990463257","","1","0","arrowleft","0","arrowright","[0.675,0.325,0.85,0.15]","","",""
"sailing-trial","52","417387","0.0-11.0-17.0","","","","false","","","","","","","","","","null","","1137.5","","3","1","null","null","arrowup","[0.675,0.325,0.85,0.15]","","",""
"sailing-trial","53","420858","0.0-11.0-18.0","","","","false","","","","","","","","","","559.0999999046326","","76.5","","3","0","arrowright","1","arrowright","[0.675,0.325,0.85,0.15]","","",""
"sailing-trial","54","423770","0.0-11.0-19.0","","","","false","","","","","","","","","","null","","985.2000002861023","","0","1","null","null","arrowup","[0.675,0.325,0.85,0.15]","","",""
"sailing-trial","55","428257","0.0-11.0-20.0","","","","false","","","","","","","","","","977.5","","594","","2","1","arrowright","1","arrowleft","[0.675,0.325,0.85,0.15]","","",""
"sailing-trial","56","432375","0.0-11.0-21.0","","","","false","","","","","","","","","","null","","1112.3000001907349","","3","0","null","null","arrowup","[0.675,0.325,0.85,0.15]","","",""
"sailing-trial","57","436290","0.0-11.0-22.0","","","","false","","","","","","","","","","603.5999999046326","","493.69999980926514","","2","0","arrowright","1","arrowleft","[0.675,0.325,0.85,0.15]","","",""
"sailing-trial","58","439361","0.0-11.0-23.0","","","","false","","","","","","","","","","null","","992","","0","1","null","null","arrowup","[0.675,0.325,0.85,0.15]","","",""
"sailing-trial","59","443491","0.0-11.0-24.0","","","","false","","","","","","","","","","537.4000000953674","","622.5999999046326","","1","0","arrowleft","0","arrowright","[0.675,0.325,0.85,0.15]","","",""
"sailing-trial","60","446550","0.0-11.0-25.0","","","","false","","","","","","","","","","null","","1095.5","","2","1","null","null","arrowup","[0.675,0.325,0.85,0.15]","","",""
"sailing-trial","61","450599","0.0-11.0-26.0","","","","false","","","","","","","","","","636.5","","488.6000003814697","","2","1","arrowright","1","arrowleft","[0.675,0.325,0.85,0.15]","","",""
"sailing-trial","62","453783","0.0-11.0-27.0","","","","false","","","","","","","","","","null","","1187.6000003814697","","2","1","null","null","arrowup","[0.675,0.325,0.85,0.15]","","",""
"sailing-trial","63","457785","0.0-11.0-28.0","","","","false","","","","","","","","","","571.5","","455.5","","2","1","arrowright","1","arrowleft","[0.675,0.325,0.85,0.15]","","",""
"sailing-trial","64","461135","0.0-11.0-29.0","","","","false","","","","","","","","","","null","","1273.5","","2","1","null","null","arrowup","[0.675,0.325,0.85,0.15]","","",""
"sailing-trial","65","464671","0.0-11.0-30.0","","","","false","","","","","","","","","","627","","163.89999961853027","","2","1","arrowright","1","arrowleft","[0.675,0.325,0.85,0.15]","","",""
"sailing-trial","66","468721","0.0-11.0-31.0","","","","false","","","","","","","","","","null","","1027.0999999046326","","3","0","null","null","arrowup","[0.675,0.325,0.85,0.15]","","",""
"sailing-trial","67","471941","0.0-11.0-32.0","","","","false","","","","","","","","","","545","","93.10000038146973","","2","1","arrowright","1","arrowleft","[0.675,0.325,0.85,0.15]","","",""
"sailing-trial","68","476427","0.0-11.0-33.0","","","","false","","","","","","","","","","null","","1485","","0","0","null","null","arrowup","[0.675,0.325,0.85,0.15]","","",""
"sailing-trial","69","480531","0.0-11.0-34.0","","","","false","","","","","","","","","","887.1999998092651","","407.7000002861023","","2","0","arrowright","1","arrowleft","[0.85,0.15,0.675,0.325]","","",""
"sailing-trial","70","483947","0.0-11.0-35.0","","","","false","","","","","","","","","","null","","1431.3000001907349","","1","1","null","null","arrowup","[0.85,0.15,0.675,0.325]","","",""
"sailing-trial","71","487730","0.0-11.0-36.0","","","","false","","","","","","","","","","551.4000000953674","","70.09999990463257","","3","0","arrowright","1","arrowright","[0.85,0.15,0.675,0.325]","","",""
"sailing-trial","72","490690","0.0-11.0-37.0","","","","false","","","","","","","","","","null","","1320.0999999046326","","3","0","null","null","arrowup","[0.85,0.15,0.675,0.325]","","",""
"sailing-trial","73","494026","0.0-11.0-38.0","","","","false","","","","","","","","","","513.9000000953674","","391.5","","1","0","arrowleft","0","arrowright","[0.85,0.15,0.675,0.325]","","",""
"sailing-trial","74","496984","0.0-11.0-39.0","","","","false","","","","","","","","","","null","","1032.5","","1","1","null","null","arrowup","[0.85,0.15,0.675,0.325]","","",""
"sailing-trial","75","500098","0.0-11.0-40.0","","","","false","","","","","","","","","","561.6999998092651","","391.5","","1","0","arrowleft","0","arrowright","[0.85,0.15,0.675,0.325]","","",""
"sailing-trial","76","503913","0.0-11.0-41.0","","","","false","","","","","","","","","","null","","936.2999997138977","","1","0","null","null","arrowup","[0.85,0.15,0.675,0.325]","","",""
"sailing-trial","77","507754","0.0-11.0-42.0","","","","false","","","","","","","","","","728.6000003814697","","416.90000009536743","","0","1","arrowleft","0","arrowleft","[0.85,0.15,0.675,0.325]","","",""
"sailing-trial","78","510475","0.0-11.0-43.0","","","","false","","","","","","","","","","null","","1232.5","","3","0","null","null","arrowup","[0.85,0.15,0.675,0.325]","","",""
"sailing-trial","79","514540","0.0-11.0-44.0","","","","false","","","","","","","","","","590.5","","357","","0","1","arrowleft","0","arrowleft","[0.85,0.15,0.675,0.325]","","",""
"sailing-trial","80","517557","0.0-11.0-45.0","","","","false","","","","","","","","","","null","","1054.7000002861023","","3","1","null","null","arrowup","[0.85,0.15,0.675,0.325]","","",""
"sailing-trial","81","521592","0.0-11.0-46.0","","","","false","","","","","","","","","","644.9000000953674","","380.1000003814697","","0","1","arrowleft","0","arrowleft","[0.85,0.15,0.675,0.325]","","",""
"sailing-trial","82","524376","0.0-11.0-47.0","","","","false","","","","","","","","","","null","","914","","3","1","null","null","arrowup","[0.85,0.15,0.675,0.325]","","",""
"sailing-trial","83","528011","0.0-11.0-48.0","","","","false","","","","","","","","","","569.8999996185303","","349.30000019073486","","0","1","arrowleft","0","arrowleft","[0.85,0.15,0.675,0.325]","","",""
"sailing-trial","84","531312","0.0-11.0-49.0","","","","false","","","","","","","","","","null","","1255.1000003814697","","0","1","null","null","arrowup","[0.85,0.15,0.675,0.325]","","",""
"sailing-trial","85","535348","0.0-11.0-50.0","","","","false","","","","","","","","","","601.7000002861023","","419.3999996185303","","0","1","arrowleft","0","arrowleft","[0.675,0.325,0.85,0.15]","","",""
"sailing-trial","86","537782","0.0-11.0-51.0","","","","false","","","","","","","","","","null","","862.5","","0","1","null","null","arrowup","[0.675,0.325,0.85,0.15]","","",""
"sailing-trial","87","541146","0.0-11.0-52.0","","","","false","","","","","","","","","","732.8000001907349","","424.80000019073486","","0","0","arrowleft","0","arrowleft","[0.675,0.325,0.85,0.15]","","",""
"sailing-trial","88","544052","0.0-11.0-53.0","","","","false","","","","","","","","","","null","","1112","","0","1","null","null","arrowup","[0.675,0.325,0.85,0.15]","","",""
"sailing-trial","89","547522","0.0-11.0-54.0","","","","false","","","","","","","","","","702.8999996185303","","581.5999999046326","","0","0","arrowleft","0","arrowleft","[0.675,0.325,0.85,0.15]","","",""
"sailing-trial","90","550354","0.0-11.0-55.0","","","","false","","","","","","","","","","null","","1175.6000003814697","","3","0","null","null","arrowup","[0.675,0.325,0.85,0.15]","","",""
"sailing-trial","91","553697","0.0-11.0-56.0","","","","false","","","","","","","","","","632.4000000953674","","234.7000002861023","","0","0","arrowleft","0","arrowleft","[0.675,0.325,0.85,0.15]","","",""
"sailing-trial","92","556355","0.0-11.0-57.0","","","","false","","","","","","","","","","null","","1041.0999999046326","","0","1","null","null","arrowup","[0.675,0.325,0.85,0.15]","","",""
"sailing-trial","93","559941","0.0-11.0-58.0","","","","false","","","","","","","","","","575.8000001907349","","337.7999997138977","","0","1","arrowleft","0","arrowleft","[0.675,0.325,0.85,0.15]","","",""
"sailing-trial","94","562842","0.0-11.0-59.0","","","","false","","","","","","","","","","null","","1133.0999999046326","","2","1","null","null","arrowup","[0.675,0.325,0.85,0.15]","","",""
"sailing-trial","95","566909","0.0-11.0-60.0","","","","false","","","","","","","","","","744.5","","363.2000002861023","","0","1","arrowleft","0","arrowleft","[0.675,0.325,0.85,0.15]","","",""
"sailing-trial","96","570799","0.0-11.0-61.0","","","","false","","","","","","","","","","null","","1213.5","","1","0","null","null","arrowup","[0.675,0.325,0.85,0.15]","","",""
"sailing-trial","97","574262","0.0-11.0-62.0","","","","false","","","","","","","","","","796.5","","362","","0","0","arrowleft","0","arrowleft","[0.675,0.325,0.85,0.15]","","",""
"sailing-trial","98","576997","0.0-11.0-63.0","","","","false","","","","","","","","","","null","","1053.2000002861023","","2","1","null","null","arrowup","[0.675,0.325,0.85,0.15]","","",""
"sailing-trial","99","581249","0.0-11.0-64.0","","","","false","","","","","","","","","","934.2000002861023","","457.90000009536743","","2","1","arrowright","1","arrowleft","[0.675,0.325,0.85,0.15]","","",""
"sailing-trial","100","583867","0.0-11.0-65.0","","","","false","","","","","","","","","","null","","841.5999999046326","","0","1","null","null","arrowup","[0.675,0.325,0.85,0.15]","","",""
"sailing-trial","101","587651","0.0-11.0-66.0","","","","false","","","","","","","","","","559.5999999046326","","340.09999990463257","","2","1","arrowright","1","arrowleft","[0.675,0.325,0.85,0.15]","","",""
"sailing-trial","102","589874","0.0-11.0-67.0","","","","false","","","","","","","","","","null","","967.4000000953674","","1","0","null","null","arrowup","[0.675,0.325,0.85,0.15]","","",""
"sailing-trial","103","594504","0.0-11.0-68.0","","","","false","","","","","","","","","","680.2000002861023","","13.200000286102295","","2","1","arrowright","1","arrowleft","[0.675,0.325,0.85,0.15]","","",""
"sailing-trial","104","596778","0.0-11.0-69.0","","","","false","","","","","","","","","","null","","986.8000001907349","","3","0","null","null","arrowup","[0.675,0.325,0.85,0.15]","","",""
"sailing-trial","105","599954","0.0-11.0-70.0","","","","false","","","","","","","","","","570.2000002861023","","395.09999990463257","","2","0","arrowright","1","arrowleft","[0.325,0.675,0.15,0.85]","","",""
"sailing-trial","106","602074","0.0-11.0-71.0","","","","false","","","","","","","","","","null","","880.5999999046326","","2","0","null","null","arrowup","[0.325,0.675,0.15,0.85]","","",""
"sailing-trial","107","606392","0.0-11.0-72.0","","","","false","","","","","","","","","","1233.0999999046326","","178.5","","0","1","arrowleft","0","arrowleft","[0.325,0.675,0.15,0.85]","","",""
"sailing-trial","108","609242","0.0-11.0-73.0","","","","false","","","","","","","","","","null","","979","","0","0","null","null","arrowup","[0.325,0.675,0.15,0.85]","","",""
"sailing-trial","109","613312","0.0-11.0-74.0","","","","false","","","","","","","","","","712","","341.2000002861023","","1","1","arrowleft","0","arrowright","[0.325,0.675,0.15,0.85]","","",""
"sailing-trial","110","616014","0.0-11.0-75.0","","","","false","","","","","","","","","","null","","867.5","","3","1","null","null","arrowup","[0.325,0.675,0.15,0.85]","","",""
"sailing-trial","111","620296","0.0-11.0-76.0","","","","false","","","","","","","","","","725.6000003814697","","644.3000001907349","","1","1","arrowleft","0","arrowright","[0.325,0.675,0.15,0.85]","","",""
"sailing-trial","112","623048","0.0-11.0-77.0","","","","false","","","","","","","","","","null","","899.3000001907349","","3","1","null","null","arrowup","[0.325,0.675,0.15,0.85]","","",""
"sailing-trial","113","626800","0.0-11.0-78.0","","","","false","","","","","","","","","","834.9000000953674","","387.3999996185303","","1","1","arrowleft","0","arrowright","[0.325,0.675,0.15,0.85]","","",""
"sailing-trial","114","631068","0.0-11.0-79.0","","","","false","","","","","","","","","","null","","1250.7000002861023","","0","0","null","null","arrowup","[0.325,0.675,0.15,0.85]","","",""
"sailing-trial","115","634578","0.0-11.0-80.0","","","","false","","","","","","","","","","774.2000002861023","","345.7999997138977","","1","0","arrowleft","0","arrowright","[0.325,0.675,0.15,0.85]","","",""
"sailing-trial","116","637203","0.0-11.0-81.0","","","","false","","","","","","","","","","null","","921.3999996185303","","1","1","null","null","arrowup","[0.325,0.675,0.15,0.85]","","",""
"sailing-trial","117","640346","0.0-11.0-82.0","","","","false","","","","","","","","","","904.1000003814697","","45.30000019073486","","1","0","arrowleft","0","arrowright","[0.325,0.675,0.15,0.85]","","",""
"sailing-trial","118","643522","0.0-11.0-83.0","","","","false","","","","","","","","","","null","","1066.3000001907349","","0","0","null","null","arrowup","[0.325,0.675,0.15,0.85]","","",""
"sailing-trial","119","648458","0.0-11.0-84.0","","","","false","","","","","","","","","","842.2000002861023","","408.2000002861023","","3","1","arrowright","1","arrowright","[0.325,0.675,0.15,0.85]","","",""
"sailing-trial","120","651376","0.0-11.0-85.0","","","","false","","","","","","","","","","null","","1160.3000001907349","","3","1","null","null","arrowup","[0.325,0.675,0.15,0.85]","","",""
"sailing-trial","121","654827","0.0-11.0-86.0","","","","false","","","","","","","","","","578.9000000953674","","294.5","","3","1","arrowright","1","arrowright","[0.325,0.675,0.15,0.85]","","",""
"sailing-trial","122","658779","0.0-11.0-87.0","","","","false","","","","","","","","","","null","","943.3000001907349","","0","0","null","null","arrowup","[0.325,0.675,0.15,0.85]","","",""
"sailing-trial","123","663166","0.0-11.0-88.0","","","","false","","","","","","","","","","208","","170.40000009536743","","3","0","arrowright","1","arrowright","[0.85,0.15,0.675,0.325]","","",""
"sailing-trial","124","665266","0.0-11.0-89.0","","","","false","","","","","","","","","","null","","981","","0","0","null","null","arrowup","[0.85,0.15,0.675,0.325]","","",""
"sailing-trial","125","668582","0.0-11.0-90.0","","","","false","","","","","","","","","","527.0999999046326","","136.10000038146973","","3","1","arrowright","1","arrowright","[0.85,0.15,0.675,0.325]","","",""
"sailing-trial","126","671234","0.0-11.0-91.0","","","","false","","","","","","","","","","null","","1355.9000000953674","","2","0","null","null","arrowup","[0.85,0.15,0.675,0.325]","","",""
"sailing-trial","127","675201","0.0-11.0-92.0","","","","false","","","","","","","","","","728","","342.90000009536743","","3","1","arrowright","1","arrowright","[0.85,0.15,0.675,0.325]","","",""
"sailing-trial","128","678369","0.0-11.0-93.0","","","","false","","","","","","","","","","null","","1186.4000000953674","","3","1","null","null","arrowup","[0.85,0.15,0.675,0.325]","","",""
"sailing-trial","129","682654","0.0-11.0-94.0","","","","false","","","","","","","","","","753.7999997138977","","389.3999996185303","","3","1","arrowright","1","arrowright","[0.85,0.15,0.675,0.325]","","",""
"sailing-trial","130","685475","0.0-11.0-95.0","","","","false","","","","","","","","","","null","","1060.5","","3","0","null","null","arrowup","[0.85,0.15,0.675,0.325]","","",""
"sailing-trial","131","689043","0.0-11.0-96.0","","","","false","","","","","","","","","","759.0999999046326","","390.80000019073486","","3","0","arrowright","1","arrowright","[0.85,0.15,0.675,0.325]","","",""
"sailing-trial","132","691907","0.0-11.0-97.0","","","","false","","","","","","","","","","null","","991.1000003814697","","0","1","null","null","arrowup","[0.85,0.15,0.675,0.325]","","",""
"sailing-trial","133","695497","0.0-11.0-98.0","","","","false","","","","","","","","","","655.2000002861023","","518.3000001907349","","0","0","arrowleft","0","arrowleft","[0.85,0.15,0.675,0.325]","","",""
"sailing-trial","134","697537","0.0-11.0-99.0","","","","false","","","","","","","","","","null","","864.8000001907349","","3","0","null","null","arrowup","[0.85,0.15,0.675,0.325]","","",""
"sailing-trial","135","701294","0.0-11.0-100.0","","","","false","","","","","","","","","","1112.8999996185303","","65.5","","2","1","arrowright","1","arrowleft","[0.85,0.15,0.675,0.325]","","",""
"sailing-trial","136","703346","0.0-11.0-101.0","","","","false","","","","","","","","","","null","","900.3000001907349","","3","0","null","null","arrowup","[0.85,0.15,0.675,0.325]","","",""
"sailing-trial","137","707197","0.0-11.0-102.0","","","","false","","","","","","","","","","592.3000001907349","","435.90000009536743","","2","1","arrowright","1","arrowleft","[0.85,0.15,0.675,0.325]","","",""
"sailing-trial","138","709933","0.0-11.0-103.0","","","","false","","","","","","","","","","null","","917.0999999046326","","2","1","null","null","arrowup","[0.85,0.15,0.675,0.325]","","",""
"sailing-trial","139","713682","0.0-11.0-104.0","","","","false","","","","","","","","","","699.5","","77.5","","2","1","arrowright","1","arrowleft","[0.675,0.325,0.85,0.15]","","",""
"sailing-trial","140","715922","0.0-11.0-105.0","","","","false","","","","","","","","","","null","","871.5","","0","0","null","null","arrowup","[0.675,0.325,0.85,0.15]","","",""
"sailing-trial","141","719186","0.0-11.0-106.0","","","","false","","","","","","","","","","655.9000000953674","","37.5","","2","1","arrowright","1","arrowleft","[0.675,0.325,0.85,0.15]","","",""
"sailing-trial","142","723120","0.0-11.0-107.0","","","","false","","","","","","","","","","null","","936.7000002861023","","3","0","null","null","arrowup","[0.675,0.325,0.85,0.15]","","",""
"sailing-trial","143","726721","0.0-11.0-108.0","","","","false","","","","","","","","","","585.9000000953674","","165.90000009536743","","2","1","arrowright","1","arrowleft","[0.675,0.325,0.85,0.15]","","",""
"sailing-trial","144","729821","0.0-11.0-109.0","","","","false","","","","","","","","","","null","","1305.4000000953674","","2","1","null","null","arrowup","[0.675,0.325,0.85,0.15]","","",""
"sailing-trial","145","733558","0.0-11.0-110.0","","","","false","","","","","","","","","","638","","326.09999990463257","","2","1","arrowright","1","arrowleft","[0.675,0.325,0.85,0.15]","","",""
"sailing-trial","146","736490","0.0-11.0-111.0","","","","false","","","","","","","","","","null","","1021.1000003814697","","1","0","null","null","arrowup","[0.675,0.325,0.85,0.15]","","",""
"sailing-trial","147","739843","0.0-11.0-112.0","","","","false","","","","","","","","","","584.5","","66.69999980926514","","2","1","arrowright","1","arrowleft","[0.675,0.325,0.85,0.15]","","",""
"sailing-trial","148","742193","0.0-11.0-113.0","","","","false","","","","","","","","","","null","","886.7999997138977","","1","0","null","null","arrowup","[0.675,0.325,0.85,0.15]","","",""
"sailing-trial","149","745731","0.0-11.0-114.0","","","","false","","","","","","","","","","825","","538.7999997138977","","2","0","arrowright","1","arrowleft","[0.675,0.325,0.85,0.15]","","",""
"sailing-trial","150","747938","0.0-11.0-115.0","","","","false","","","","","","","","","","null","","910.9000000953674","","3","0","null","null","arrowup","[0.675,0.325,0.85,0.15]","","",""
"sailing-trial","151","752213","0.0-11.0-116.0","","","","false","","","","","","","","","","1088.6999998092651","","360","","2","1","arrowright","1","arrowleft","[0.675,0.325,0.85,0.15]","","",""
"sailing-trial","152","754427","0.0-11.0-117.0","","","","false","","","","","","","","","","null","","918.2999997138977","","0","0","null","null","arrowup","[0.675,0.325,0.85,0.15]","","",""
"sailing-trial","153","758416","0.0-11.0-118.0","","","","false","","","","","","","","","","624.0999999046326","","475.90000009536743","","2","1","arrowright","1","arrowleft","[0.675,0.325,0.85,0.15]","","",""
"sailing-trial","154","760682","0.0-11.0-119.0","","","","false","","","","","","","","","","null","","977.1999998092651","","1","0","null","null","arrowup","[0.675,0.325,0.85,0.15]","","",""
"sailing-trial","155","764219","0.0-11.0-120.0","","","","false","","","","","","","","","","632.1999998092651","","79.2000002861023","","2","1","arrowright","1","arrowleft","[0.675,0.325,0.85,0.15]","","",""
"sailing-trial","156","766523","0.0-11.0-121.0","","","","false","","","","","","","","","","null","","999.3000001907349","","3","0","null","null","arrowup","[0.675,0.325,0.85,0.15]","","",""
"sailing-trial","157","770654","0.0-11.0-122.0","","","","false","","","","","","","","","","919.4000000953674","","432.80000019073486","","2","1","arrowright","1","arrowleft","[0.675,0.325,0.85,0.15]","","",""
"sailing-trial","158","772930","0.0-11.0-123.0","","","","false","","","","","","","","","","null","","916.7999997138977","","3","0","null","null","arrowup","[0.675,0.325,0.85,0.15]","","",""
"sailing-trial","159","776990","0.0-11.0-124.0","","","","false","","","","","","","","","","680.4000000953674","","464.40000009536743","","2","1","arrowright","1","arrowleft","[0.85,0.15,0.675,0.325]","","",""
"sailing-trial","160","779363","0.0-11.0-125.0","","","","false","","","","","","","","","","null","","1115.7999997138977","","3","0","null","null","arrowup","[0.85,0.15,0.675,0.325]","","",""
"sailing-trial","161","783309","0.0-11.0-126.0","","","","false","","","","","","","","","","744.0999999046326","","376.30000019073486","","2","1","arrowright","1","arrowleft","[0.85,0.15,0.675,0.325]","","",""
"sailing-trial","162","785895","0.0-11.0-127.0","","","","false","","","","","","","","","","null","","884.5","","0","1","null","null","arrowup","[0.85,0.15,0.675,0.325]","","",""
"sailing-trial","163","789937","0.0-11.0-128.0","","","","false","","","","","","","","","","587.3000001907349","","463.30000019073486","","2","0","arrowright","1","arrowleft","[0.85,0.15,0.675,0.325]","","",""
"sailing-trial","164","792234","0.0-11.0-129.0","","","","false","","","","","","","","","","null","","898.2000002861023","","1","0","null","null","arrowup","[0.85,0.15,0.675,0.325]","","",""
"sailing-trial","165","795714","0.0-11.0-130.0","","","","false","","","","","","","","","","561.6999998092651","","80.5","","2","1","arrowright","1","arrowleft","[0.85,0.15,0.675,0.325]","","",""
"sailing-trial","166","798298","0.0-11.0-131.0","","","","false","","","","","","","","","","null","","784","","3","1","null","null","arrowup","[0.85,0.15,0.675,0.325]","","",""
"sailing-trial","167","801482","0.0-11.0-132.0","","","","false","","","","","","","","","","592.2000002861023","","83.59999990463257","","2","0","arrowright","1","arrowleft","[0.85,0.15,0.675,0.325]","","",""
"sailing-trial","168","804168","0.0-11.0-133.0","","","","false","","","","","","","","","","null","","872.8000001907349","","0","1","null","null","arrowup","[0.85,0.15,0.675,0.325]","","",""
"sailing-trial","169","808210","0.0-11.0-134.0","","","","false","","","","","","","","","","794.3000001907349","","550.6999998092651","","3","0","arrowright","1","arrowright","[0.85,0.15,0.675,0.325]","","",""
"sailing-trial","170","810762","0.0-11.0-135.0","","","","false","","","","","","","","","","null","","1167.5","","1","0","null","null","arrowup","[0.85,0.15,0.675,0.325]","","",""
"sailing-trial","171","814838","0.0-11.0-136.0","","","","false","","","","","","","","","","712","","406.90000009536743","","0","1","arrowleft","0","arrowleft","[0.85,0.15,0.675,0.325]","","",""
"sailing-trial","172","819123","0.0-11.0-137.0","","","","false","","","","","","","","","","null","","1244.5999999046326","","1","0","null","null","arrowup","[0.85,0.15,0.675,0.325]","","",""
"sailing-trial","173","822642","0.0-11.0-138.0","","","","false","","","","","","","","","","615.3000001907349","","57.10000038146973","","0","1","arrowleft","0","arrowleft","[0.85,0.15,0.675,0.325]","","",""
"sailing-trial","174","825510","0.0-11.0-139.0","","","","false","","","","","","","","","","null","","1039.5","","2","1","null","null","arrowup","[0.85,0.15,0.675,0.325]","","",""
"sailing-trial","175","829394","0.0-11.0-140.0","","","","false","","","","","","","","","","628.4000000953674","","383.1000003814697","","0","1","arrowleft","0","arrowleft","[0.85,0.15,0.675,0.325]","","",""
"sailing-trial","176","831609","0.0-11.0-141.0","","","","false","","","","","","","","","","null","","928","","1","0","null","null","arrowup","[0.85,0.15,0.675,0.325]","","",""
"sailing-trial","177","835345","0.0-11.0-142.0","","","","false","","","","","","","","","","496.6000003814697","","373.59999990463257","","0","1","arrowleft","0","arrowleft","[0.85,0.15,0.675,0.325]","","",""
"sailing-trial","178","837545","0.0-11.0-143.0","","","","false","","","","","","","","","","null","","890.3000001907349","","1","0","null","null","arrowup","[0.85,0.15,0.675,0.325]","","",""
"sailing-trial","179","841014","0.0-11.0-144.0","","","","false","","","","","","","","","","312.5","","326.40000009536743","","0","1","arrowleft","0","arrowleft","[0.675,0.325,0.85,0.15]","","",""
"sailing-trial","180","843599","0.0-11.0-145.0","","","","false","","","","","","","","","","null","","739.8999996185303","","2","1","null","null","arrowup","[0.675,0.325,0.85,0.15]","","",""
"sailing-trial","181","847474","0.0-11.0-146.0","","","","false","","","","","","","","","","699","","394.5","","0","0","arrowleft","0","arrowleft","[0.675,0.325,0.85,0.15]","","",""
"sailing-trial","182","850584","0.0-11.0-147.0","","","","false","","","","","","","","","","null","","1272.6000003814697","","2","1","null","null","arrowup","[0.675,0.325,0.85,0.15]","","",""
"sailing-trial","183","854552","0.0-11.0-148.0","","","","false","","","","","","","","","","554.2000002861023","","437.5","","2","1","arrowright","1","arrowleft","[0.675,0.325,0.85,0.15]","","",""
"sailing-trial","184","857130","0.0-11.0-149.0","","","","false","","","","","","","","","","null","","930.3000001907349","","0","0","null","null","arrowup","[0.675,0.325,0.85,0.15]","","",""
"sailing-trial","185","861189","0.0-11.0-150.0","","","","false","","","","","","","","","","593.5999999046326","","588.5","","2","1","arrowright","1","arrowleft","[0.675,0.325,0.85,0.15]","","",""
"sailing-trial","186","863459","0.0-11.0-151.0","","","","false","","","","","","","","","","null","","917.5999999046326","","3","0","null","null","arrowup","[0.675,0.325,0.85,0.15]","","",""
"sailing-trial","187","867611","0.0-11.0-152.0","","","","false","","","","","","","","","","656.3000001907349","","26.40000009536743","","2","0","arrowright","1","arrowleft","[0.675,0.325,0.85,0.15]","","",""
"sailing-trial","188","870542","0.0-11.0-153.0","","","","false","","","","","","","","","","null","","840.0999999046326","","1","1","null","null","arrowup","[0.675,0.325,0.85,0.15]","","",""
"sailing-trial","189","874274","0.0-11.0-154.0","","","","false","","","","","","","","","","644.3000001907349","","412.69999980926514","","2","0","arrowright","1","arrowleft","[0.675,0.325,0.85,0.15]","","",""
"sailing-trial","190","876377","0.0-11.0-155.0","","","","false","","","","","","","","","","null","","776","","3","0","null","null","arrowup","[0.675,0.325,0.85,0.15]","","",""
"sailing-trial","191","880306","0.0-11.0-156.0","","","","false","","","","","","","","","","624.9000000953674","","410","","1","0","arrowleft","0","arrowright","[0.675,0.325,0.85,0.15]","","",""
"sailing-trial","192","882553","0.0-11.0-157.0","","","","false","","","","","","","","","","null","","880.4000000953674","","3","0","null","null","arrowup","[0.675,0.325,0.85,0.15]","","",""
"sailing-trial","193","886315","0.0-11.0-158.0","","","","false","","","","","","","","","","553.2000002861023","","347.90000009536743","","1","1","arrowleft","0","arrowright","[0.675,0.325,0.85,0.15]","","",""
"sailing-trial","194","888714","0.0-11.0-159.0","","","","false","","","","","","","","","","null","","910.9000000953674","","1","0","null","null","arrowup","[0.675,0.325,0.85,0.15]","","",""
"sailing-trial","195","892913","0.0-11.0-160.0","","","","false","","","","","","","","","","1423.8999996185303","","247.2000002861023","","0","0","arrowleft","0","arrowleft","[0.85,0.15,0.675,0.325]","","",""
"sailing-trial","196","895201","0.0-11.0-161.0","","","","false","","","","","","","","","","null","","930.2000002861023","","2","0","null","null","arrowup","[0.85,0.15,0.675,0.325]","","",""
"sailing-trial","197","899970","0.0-11.0-162.0","","","","false","","","","","","","","","","656.9000000953674","","384.80000019073486","","1","0","arrowleft","0","arrowright","[0.85,0.15,0.675,0.325]","","",""
"sailing-trial","198","902972","0.0-11.0-163.0","","","","false","","","","","","","","","","null","","1016.7000002861023","","1","1","null","null","arrowup","[0.85,0.15,0.675,0.325]","","",""
"sailing-trial","199","906658","0.0-11.0-164.0","","","","false","","","","","","","","","","751.2000002861023","","419.7000002861023","","1","0","arrowleft","0","arrowright","[0.85,0.15,0.675,0.325]","","",""
"sailing-trial","200","908873","0.0-11.0-165.0","","","","false","","","","","","","","","","null","","895.8000001907349","","3","0","null","null","arrowup","[0.85,0.15,0.675,0.325]","","",""
"sailing-trial","201","912843","0.0-11.0-166.0","","","","false","","","","","","","","","","664.8999996185303","","400.69999980926514","","0","1","arrowleft","0","arrowleft","[0.85,0.15,0.675,0.325]","","",""
"sailing-trial","202","915593","0.0-11.0-167.0","","","","false","","","","","","","","","","null","","918.5999999046326","","2","1","null","null","arrowup","[0.85,0.15,0.675,0.325]","","",""
"sailing-trial","203","919378","0.0-11.0-168.0","","","","false","","","","","","","","","","672.5","","241.5","","0","1","arrowleft","0","arrowleft","[0.85,0.15,0.675,0.325]","","",""
"sailing-trial","204","921689","0.0-11.0-169.0","","","","false","","","","","","","","","","null","","848.7000002861023","","0","0","null","null","arrowup","[0.85,0.15,0.675,0.325]","","",""
"sailing-trial","205","925098","0.0-11.0-170.0","","","","false","","","","","","","","","","523","","7.699999809265137","","0","1","arrowleft","0","arrowleft","[0.85,0.15,0.675,0.325]","","",""
"sailing-trial","206","927698","0.0-11.0-171.0","","","","false","","","","","","","","","","null","","913.3000001907349","","3","0","null","null","arrowup","[0.85,0.15,0.675,0.325]","","",""
"sailing-trial","207","931290","0.0-11.0-172.0","","","","false","","","","","","","","","","576.5999999046326","","412.69999980926514","","0","0","arrowleft","0","arrowleft","[0.85,0.15,0.675,0.325]","","",""
"sailing-trial","208","933530","0.0-11.0-173.0","","","","false","","","","","","","","","","null","","938","","1","0","null","null","arrowup","[0.85,0.15,0.675,0.325]","","",""
"sailing-trial","209","937202","0.0-11.0-174.0","","","","false","","","","","","","","","","721.5999999046326","","104.5","","2","1","arrowright","1","arrowleft","[0.85,0.15,0.675,0.325]","","",""
"sailing-trial","210","939836","0.0-11.0-175.0","","","","false","","","","","","","","","","null","","808.5","","0","1","null","null","arrowup","[0.85,0.15,0.675,0.325]","","",""
"sailing-trial","211","943027","0.0-11.0-176.0","","","","false","","","","","","","","","","813.8999996185303","","40.700000286102295","","2","0","arrowright","1","arrowleft","[0.675,0.325,0.85,0.15]","","",""
"sailing-trial","212","945604","0.0-11.0-177.0","","","","false","","","","","","","","","","null","","799.5","","2","1","null","null","arrowup","[0.675,0.325,0.85,0.15]","","",""
"sailing-trial","213","949639","0.0-11.0-178.0","","","","false","","","","","","","","","","590.2000002861023","","464.19999980926514","","2","1","arrowright","1","arrowleft","[0.675,0.325,0.85,0.15]","","",""
"sailing-trial","214","952274","0.0-11.0-179.0","","","","false","","","","","","","","","","null","","835.4000000953674","","1","1","null","null","arrowup","[0.675,0.325,0.85,0.15]","","",""
"sailing-trial","215","956226","0.0-11.0-180.0","","","","false","","","","","","","","","","655.8000001907349","","464.80000019073486","","2","1","arrowright","1","arrowleft","[0.675,0.325,0.85,0.15]","","",""
"sailing-trial","216","958482","0.0-11.0-181.0","","","","false","","","","","","","","","","null","","895.7999997138977","","3","0","null","null","arrowup","[0.675,0.325,0.85,0.15]","","",""
"sailing-trial","217","962846","0.0-11.0-182.0","","","","false","","","","","","","","","","1032.8000001907349","","383","","2","1","arrowright","1","arrowleft","[0.675,0.325,0.85,0.15]","","",""
"sailing-trial","218","965413","0.0-11.0-183.0","","","","false","","","","","","","","","","null","","828.2999997138977","","2","1","null","null","arrowup","[0.675,0.325,0.85,0.15]","","",""
"sailing-trial","219","969246","0.0-11.0-184.0","","","","false","","","","","","","","","","686.1999998092651","","404.5","","2","1","arrowright","1","arrowleft","[0.675,0.325,0.85,0.15]","","",""
"sailing-trial","220","971362","0.0-11.0-185.0","","","","false","","","","","","","","","","null","","803.1000003814697","","3","0","null","null","arrowup","[0.675,0.325,0.85,0.15]","","",""
"sailing-trial","221","975085","0.0-11.0-186.0","","","","false","","","","","","","","","","577.4000000953674","","345.7000002861023","","2","1","arrowright","1","arrowleft","[0.675,0.325,0.85,0.15]","","",""
"sailing-trial","222","977354","0.0-11.0-187.0","","","","false","","","","","","","","","","null","","940.9000000953674","","1","0","null","null","arrowup","[0.675,0.325,0.85,0.15]","","",""
"sailing-trial","223","980535","0.0-11.0-188.0","","","","false","","","","","","","","","","648.7000002861023","","12.800000190734863","","2","1","arrowright","1","arrowleft","[0.675,0.325,0.85,0.15]","","",""
"sailing-trial","224","983153","0.0-11.0-189.0","","","","false","","","","","","","","","","null","","819","","1","1","null","null","arrowup","[0.675,0.325,0.85,0.15]","","",""
"sailing-trial","225","987239","0.0-11.0-190.0","","","","false","","","","","","","","","","602","","708.7000002861023","","2","1","arrowright","1","arrowleft","[0.675,0.325,0.85,0.15]","","",""
"sailing-trial","226","989873","0.0-11.0-191.0","","","","false","","","","","","","","","","null","","850.6999998092651","","3","0","null","null","arrowup","[0.675,0.325,0.85,0.15]","","",""
"sailing-trial","227","993909","0.0-11.0-192.0","","","","false","","","","","","","","","","745.5","","485.5","","2","1","arrowright","1","arrowleft","[0.675,0.325,0.85,0.15]","","",""
"sailing-trial","228","996250","0.0-11.0-193.0","","","","false","","","","","","","","","","null","","1005.0999999046326","","1","0","null","null","arrowup","[0.675,0.325,0.85,0.15]","","",""
"sailing-trial","229","999794","0.0-11.0-194.0","","","","false","","","","","","","","","","752.3000001907349","","2.700000286102295","","2","1","arrowright","1","arrowleft","[0.15,0.85,0.325,0.675]","","",""
"sailing-trial","230","1002727","0.0-11.0-195.0","","","","false","","","","","","","","","","null","","1232.5","","3","1","null","null","arrowup","[0.15,0.85,0.325,0.675]","","",""
"sailing-trial","231","1006729","0.0-11.0-196.0","","","","false","","","","","","","","","","724.1999998092651","","425.5","","2","1","arrowright","1","arrowleft","[0.15,0.85,0.325,0.675]","","",""
"sailing-trial","232","1009380","0.0-11.0-197.0","","","","false","","","","","","","","","","null","","874","","1","1","null","null","arrowup","[0.15,0.85,0.325,0.675]","","",""
"sailing-trial","233","1012387","0.0-11.0-198.0","","","","false","","","","","","","","","","494","","389.90000009536743","","2","0","arrowright","1","arrowleft","[0.15,0.85,0.325,0.675]","","",""
"sailing-trial","234","1015507","0.0-11.0-199.0","","","","false","","","","","","","","","","null","","1705.4000000953674","","2","0","null","null","arrowup","[0.15,0.85,0.325,0.675]","","",""
"sailing-trial","235","1019350","0.0-11.0-200.0","","","","false","","","","","","","","","","792.5","","26","","2","1","arrowright","1","arrowleft","[0.15,0.85,0.325,0.675]","","",""
"sailing-trial","236","1022035","0.0-11.0-201.0","","","","false","","","","","","","","","","null","","900.5","","3","1","null","null","arrowup","[0.15,0.85,0.325,0.675]","","",""
"sailing-trial","237","1025458","0.0-11.0-202.0","","","","false","","","","","","","","","","608","","330.6000003814697","","2","0","arrowright","1","arrowleft","[0.15,0.85,0.325,0.675]","","",""
"sailing-trial","238","1028291","0.0-11.0-203.0","","","","false","","","","","","","","","","null","","1008.2999997138977","","2","0","null","null","arrowup","[0.15,0.85,0.325,0.675]","","",""
"sailing-trial","239","1032488","0.0-11.0-204.0","","","","false","","","","","","","","","","904.7999997138977","","385.90000009536743","","3","1","arrowright","1","arrowright","[0.15,0.85,0.325,0.675]","","",""
"sailing-trial","240","1035256","0.0-11.0-205.0","","","","false","","","","","","","","","","null","","953.8999996185303","","1","1","null","null","arrowup","[0.15,0.85,0.325,0.675]","","",""
"sailing-trial","241","1038885","0.0-11.0-206.0","","","","false","","","","","","","","","","635","","483.90000009536743","","3","0","arrowright","1","arrowright","[0.15,0.85,0.325,0.675]","","",""
"sailing-trial","242","1041250","0.0-11.0-207.0","","","","false","","","","","","","","","","null","","1045.4000000953674","","2","0","null","null","arrowup","[0.15,0.85,0.325,0.675]","","",""
"sailing-trial","243","1045159","0.0-11.0-208.0","","","","false","","","","","","","","","","689","","325.5","","1","1","arrowleft","0","arrowright","[0.15,0.85,0.325,0.675]","","",""
"sailing-trial","244","1047587","0.0-11.0-209.0","","","","false","","","","","","","","","","null","","955.2000002861023","","1","0","null","null","arrowup","[0.15,0.85,0.325,0.675]","","",""
"sailing-trial","245","1051562","0.0-11.0-210.0","","","","false","","","","","","","","","","751.9000000953674","","388.09999990463257","","1","1","arrowleft","0","arrowright","[0.15,0.85,0.325,0.675]","","",""
"sailing-trial","246","1053826","0.0-11.0-211.0","","","","false","","","","","","","","","","null","","928","","0","0","null","null","arrowup","[0.15,0.85,0.325,0.675]","","",""
"sailing-trial","247","1058115","0.0-11.0-212.0","","","","false","","","","","","","","","","1063.5999999046326","","357","","1","1","arrowleft","0","arrowright","[0.325,0.675,0.15,0.85]","","",""
"sailing-trial","248","1061922","0.0-11.0-213.0","","","","false","","","","","","","","","","null","","1431.9000000953674","","2","0","null","null","arrowup","[0.325,0.675,0.15,0.85]","","",""
"sailing-trial","249","1066067","0.0-11.0-214.0","","","","false","","","","","","","","","","792.5","","489.59999990463257","","1","1","arrowleft","0","arrowright","[0.325,0.675,0.15,0.85]","","",""
"sailing-trial","250","1068322","0.0-11.0-215.0","","","","false","","","","","","","","","","null","","918.8000001907349","","0","0","null","null","arrowup","[0.325,0.675,0.15,0.85]","","",""
"sailing-trial","251","1071898","0.0-11.0-216.0","","","","false","","","","","","","","","","687.5999999046326","","307.09999990463257","","1","0","arrowleft","0","arrowright","[0.325,0.675,0.15,0.85]","","",""
"sailing-trial","252","1074605","0.0-11.0-217.0","","","","false","","","","","","","","","","null","","800.3000001907349","","2","1","null","null","arrowup","[0.325,0.675,0.15,0.85]","","",""
"sailing-trial","253","1078306","0.0-11.0-218.0","","","","false","","","","","","","","","","524.2999997138977","","420.40000009536743","","1","1","arrowleft","0","arrowright","[0.325,0.675,0.15,0.85]","","",""
"sailing-trial","254","1080990","0.0-11.0-219.0","","","","false","","","","","","","","","","null","","808.0999999046326","","1","1","null","null","arrowup","[0.325,0.675,0.15,0.85]","","",""
"sailing-trial","255","1084825","0.0-11.0-220.0","","","","false","","","","","","","","","","700.3000001907349","","177.89999961853027","","1","1","arrowleft","0","arrowright","[0.325,0.675,0.15,0.85]","","",""
"sailing-trial","256","1087986","0.0-11.0-221.0","","","","false","","","","","","","","","","null","","1800.5","","1","0","null","null","arrowup","[0.325,0.675,0.15,0.85]","","",""
"sailing-trial","257","1092211","0.0-11.0-222.0","","","","false","","","","","","","","","","959.3000001907349","","423.09999990463257","","1","1","arrowleft","0","arrowright","[0.325,0.675,0.15,0.85]","","",""
"sailing-trial","258","1095030","0.0-11.0-223.0","","","","false","","","","","","","","","","null","","1079.5","","1","1","null","null","arrowup","[0.325,0.675,0.15,0.85]","","",""
"sailing-trial","259","1098914","0.0-11.0-224.0","","","","false","","","","","","","","","","612.4000000953674","","360.2000002861023","","1","1","arrowleft","0","arrowright","[0.325,0.675,0.15,0.85]","","",""
"sailing-trial","260","1101330","0.0-11.0-225.0","","","","false","","","","","","","","","","null","","840.5","","2","1","null","null","arrowup","[0.325,0.675,0.15,0.85]","","",""
"sailing-trial","261","1104570","0.0-11.0-226.0","","","","false","","","","","","","","","","536.4000000953674","","372.5","","1","0","arrowleft","0","arrowright","[0.325,0.675,0.15,0.85]","","",""
"sailing-trial","262","1106434","0.0-11.0-227.0","","","","false","","","","","","","","","","null","","760.3999996185303","","2","0","null","null","arrowup","[0.325,0.675,0.15,0.85]","","",""
"sailing-trial","263","1110270","0.0-11.0-228.0","","","","false","","","","","","","","","","577","","397.30000019073486","","1","1","arrowleft","0","arrowright","[0.325,0.675,0.15,0.85]","","",""
"sailing-trial","264","1112986","0.0-11.0-229.0","","","","false","","","","","","","","","","null","","876.1999998092651","","1","1","null","null","arrowup","[0.325,0.675,0.15,0.85]","","",""
"sailing-trial","265","1115435","0.0-11.0-230.0","","","","false","","","","","","","","","","279.90000009536743","","0.5999999046325684","","1","0","arrowleft","0","arrowright","[0.325,0.675,0.15,0.85]","","",""
"sailing-trial","266","1117637","0.0-11.0-231.0","","","","false","","","","","","","","","","null","","688.1999998092651","","1","1","null","null","arrowup","[0.325,0.675,0.15,0.85]","","",""
"sailing-trial","267","1120905","0.0-11.0-232.0","","","","false","","","","","","","","","","325.19999980926514","","170.90000009536743","","1","1","arrowleft","0","arrowright","[0.325,0.675,0.15,0.85]","","",""
"sailing-trial","268","1123010","0.0-11.0-233.0","","","","false","","","","","","","","","","null","","897.0999999046326","","1","0","null","null","arrowup","[0.325,0.675,0.15,0.85]","","",""
"sailing-trial","269","1126347","0.0-11.0-234.0","","","","false","","","","","","","","","","360.59999990463257","","424.09999990463257","","0","0","arrowleft","0","arrowleft","[0.15,0.85,0.325,0.675]","","",""
"sailing-trial","270","1129042","0.0-11.0-235.0","","","","false","","","","","","","","","","null","","960.1999998092651","","1","1","null","null","arrowup","[0.15,0.85,0.325,0.675]","","",""
"sailing-trial","271","1132145","0.0-11.0-236.0","","","","false","","","","","","","","","","272.69999980926514","","39.90000009536743","","1","1","arrowleft","0","arrowright","[0.15,0.85,0.325,0.675]","","",""
"sailing-trial","272","1134426","0.0-11.0-237.0","","","","false","","","","","","","","","","null","","1048.8000001907349","","0","0","null","null","arrowup","[0.15,0.85,0.325,0.675]","","",""
"sailing-trial","273","1137979","0.0-11.0-238.0","","","","false","","","","","","","","","","784.9000000953674","","91.19999980926514","","1","1","arrowleft","0","arrowright","[0.15,0.85,0.325,0.675]","","",""
"sailing-trial","274","1140131","0.0-11.0-239.0","","","","false","","","","","","","","","","null","","919.7000002861023","","0","0","null","null","arrowup","[0.15,0.85,0.325,0.675]","","",""
"sailing-trial","275","1143731","0.0-11.0-240.0","","","","false","","","","","","","","","","600","","450.90000009536743","","1","1","arrowleft","0","arrowright","[0.15,0.85,0.325,0.675]","","",""
"sailing-trial","276","1145634","0.0-11.0-241.0","","","","false","","","","","","","","","","null","","832.0999999046326","","1","0","null","null","arrowup","[0.15,0.85,0.325,0.675]","","",""
"sailing-trial","277","1149166","0.0-11.0-242.0","","","","false","","","","","","","","","","551.3999996185303","","327.59999990463257","","1","1","arrowleft","0","arrowright","[0.15,0.85,0.325,0.675]","","",""
"sailing-trial","278","1153167","0.0-11.0-243.0","","","","false","","","","","","","","","","null","","787.9000000953674","","1","1","null","null","arrowup","[0.15,0.85,0.325,0.675]","","",""
"sailing-trial","279","1156953","0.0-11.0-244.0","","","","false","","","","","","","","","","556.1999998092651","","263.40000009536743","","1","1","arrowleft","0","arrowright","[0.15,0.85,0.325,0.675]","","",""
"sailing-trial","280","1159887","0.0-11.0-245.0","","","","false","","","","","","","","","","null","","912.5999999046326","","1","1","null","null","arrowup","[0.15,0.85,0.325,0.675]","","",""
"sailing-trial","281","1163389","0.0-11.0-246.0","","","","false","","","","","","","","","","611.5999999046326","","221.5","","1","1","arrowleft","0","arrowright","[0.15,0.85,0.325,0.675]","","",""
"sailing-trial","282","1165322","0.0-11.0-247.0","","","","false","","","","","","","","","","null","","910.7000002861023","","2","0","null","null","arrowup","[0.15,0.85,0.325,0.675]","","",""
"sailing-trial","283","1168674","0.0-11.0-248.0","","","","false","","","","","","","","","","471.8999996185303","","95.90000009536743","","1","1","arrowleft","0","arrowright","[0.15,0.85,0.325,0.675]","","",""
"sailing-trial","284","1171308","0.0-11.0-249.0","","","","false","","","","","","","","","","null","","864.7000002861023","","3","1","null","null","arrowup","[0.15,0.85,0.325,0.675]","","",""
"sailing-trial","285","1174943","0.0-11.0-250.0","","","","false","","","","","","","","","","728","","211.90000009536743","","1","1","arrowleft","0","arrowright","[0.15,0.85,0.325,0.675]","","",""
"sailing-trial","286","1178896","0.0-11.0-251.0","","","","false","","","","","","","","","","null","","955.6999998092651","","3","0","null","null","arrowup","[0.15,0.85,0.325,0.675]","","",""
"sailing-trial","287","1181729","0.0-11.0-252.0","","","","false","","","","","","","","","","2.0999999046325684","","214.90000009536743","","1","1","arrowleft","0","arrowright","[0.15,0.85,0.325,0.675]","","",""
"sailing-trial","288","1184246","0.0-11.0-253.0","","","","false","","","","","","","","","","null","","985.5","","3","1","null","null","arrowup","[0.15,0.85,0.325,0.675]","","",""
"sailing-trial","289","1186835","0.0-11.0-254.0","","","","false","","","","","","","","","","212.80000019073486","","119.19999980926514","","1","0","arrowleft","0","arrowright","[0.325,0.675,0.15,0.85]","","",""
"sailing-trial","290","1188938","0.0-11.0-255.0","","","","false","","","","","","","","","","null","","831.9000000953674","","0","0","null","null","arrowup","[0.325,0.675,0.15,0.85]","","",""
"sailing-trial","291","1192100","0.0-11.0-256.0","","","","false","","","","","","","","","","569","","20","","1","1","arrowleft","0","arrowright","[0.325,0.675,0.15,0.85]","","",""
"sailing-trial","292","1196053","0.0-11.0-257.0","","","","false","","","","","","","","","","null","","927.0999999046326","","0","0","null","null","arrowup","[0.325,0.675,0.15,0.85]","","",""
"sailing-trial","293","1198371","0.0-11.0-258.0","","","","false","","","","","","","","","","54","","96.09999990463257","","1","0","arrowleft","0","arrowright","[0.325,0.675,0.15,0.85]","","",""
"sailing-trial","294","1200499","0.0-11.0-259.0","","","","false","","","","","","","","","","null","","871.5999999046326","","0","0","null","null","arrowup","[0.325,0.675,0.15,0.85]","","",""
"sailing-trial","295","1204888","0.0-11.0-260.0","","","","false","","","","","","","","","","224.5","","157.80000019073486","","1","0","arrowleft","0","arrowright","[0.325,0.675,0.15,0.85]","","",""
"sailing-trial","296","1207026","0.0-11.0-261.0","","","","false","","","","","","","","","","null","","930.4000000953674","","2","0","null","null","arrowup","[0.325,0.675,0.15,0.85]","","",""
"sailing-trial","297","1210206","0.0-11.0-262.0","","","","false","","","","","","","","","","153.40000009536743","","233.59999990463257","","3","1","arrowright","1","arrowright","[0.325,0.675,0.15,0.85]","","",""
"sailing-trial","298","1212741","0.0-11.0-263.0","","","","false","","","","","","","","","","null","","941.4000000953674","","0","1","null","null","arrowup","[0.325,0.675,0.15,0.85]","","",""
"sailing-trial","299","1215374","0.0-11.0-264.0","","","","false","","","","","","","","","","30.09999990463257","","46.799999713897705","","3","1","arrowright","1","arrowright","[0.325,0.675,0.15,0.85]","","",""
"sailing-trial","300","1219228","0.0-11.0-265.0","","","","false","","","","","","","","","","null","","853.7999997138977","","0","0","null","null","arrowup","[0.325,0.675,0.15,0.85]","","",""
"sailing-trial","301","1221947","0.0-11.0-266.0","","","","false","","","","","","","","","","142.90000009536743","","13.099999904632568","","3","1","arrowright","1","arrowright","[0.325,0.675,0.15,0.85]","","",""
"sailing-trial","302","1224980","0.0-11.0-267.0","","","","false","","","","","","","","","","null","","1047.4000000953674","","0","1","null","null","arrowup","[0.325,0.675,0.15,0.85]","","",""
"sailing-trial","303","1227515","0.0-11.0-268.0","","","","false","","","","","","","","","","205.90000009536743","","178.40000009536743","","3","0","arrowright","1","arrowright","[0.325,0.675,0.15,0.85]","","",""
"sailing-trial","304","1230881","0.0-11.0-269.0","","","","false","","","","","","","","","","null","","1167.3000001907349","","3","1","null","null","arrowup","[0.325,0.675,0.15,0.85]","","",""
"sailing-trial","305","1234466","0.0-11.0-270.0","","","","false","","","","","","","","","","218.2000002861023","","52.299999713897705","","3","1","arrowright","1","arrowright","[0.15,0.85,0.325,0.675]","","",""
"sailing-trial","306","1237251","0.0-11.0-271.0","","","","false","","","","","","","","","","null","","1104.7000002861023","","1","1","null","null","arrowup","[0.15,0.85,0.325,0.675]","","",""
"sailing-trial","307","1240251","0.0-11.0-272.0","","","","false","","","","","","","","","","238.80000019073486","","65.90000009536743","","3","1","arrowright","1","arrowright","[0.15,0.85,0.325,0.675]","","",""
"sailing-trial","308","1243252","0.0-11.0-273.0","","","","false","","","","","","","","","","null","","1102.6000003814697","","3","1","null","null","arrowup","[0.15,0.85,0.325,0.675]","","",""
"sailing-trial","309","1246320","0.0-11.0-274.0","","","","false","","","","","","","","","","237.59999990463257","","215.2999997138977","","3","1","arrowright","1","arrowright","[0.15,0.85,0.325,0.675]","","",""
"sailing-trial","310","1248905","0.0-11.0-275.0","","","","false","","","","","","","","","","null","","1032.5999999046326","","2","1","null","null","arrowup","[0.15,0.85,0.325,0.675]","","",""
"sailing-trial","311","1252391","0.0-11.0-276.0","","","","false","","","","","","","","","","497.69999980926514","","393.40000009536743","","3","1","arrowright","1","arrowright","[0.15,0.85,0.325,0.675]","","",""
"sailing-trial","312","1254418","0.0-11.0-277.0","","","","false","","","","","","","","","","null","","939.9000000953674","","2","0","null","null","arrowup","[0.15,0.85,0.325,0.675]","","",""
"sailing-trial","313","1257559","0.0-11.0-278.0","","","","false","","","","","","","","","","368.5","","152.59999990463257","","3","1","arrowright","1","arrowright","[0.15,0.85,0.325,0.675]","","",""
"sailing-trial","314","1259388","0.0-11.0-279.0","","","","false","","","","","","","","","","null","","764","","2","0","null","null","arrowup","[0.15,0.85,0.325,0.675]","","",""
"sailing-trial","315","1262211","0.0-11.0-280.0","","","","false","","","","","","","","","","758.2999997138977","","39","","3","0","arrowright","1","arrowright","[0.15,0.85,0.325,0.675]","","",""
"sailing-trial","316","1264195","0.0-11.0-281.0","","","","false","","","","","","","","","","null","","919.9000000953674","","2","0","null","null","arrowup","[0.15,0.85,0.325,0.675]","","",""
"sailing-trial","317","1266875","0.0-11.0-282.0","","","","false","","","","","","","","","","464.5","","209.5","","3","0","arrowright","1","arrowright","[0.15,0.85,0.325,0.675]","","",""
"sailing-trial","318","1269479","0.0-11.0-283.0","","","","false","","","","","","","","","","null","","912.0999999046326","","2","1","null","null","arrowup","[0.15,0.85,0.325,0.675]","","",""
"sailing-trial","319","1272362","0.0-11.0-284.0","","","","false","","","","","","","","","","531.5","","176.30000019073486","","2","0","arrowright","1","arrowleft","[0.15,0.85,0.325,0.675]","","",""
"sailing-trial","320","1275586","0.0-11.0-285.0","","","","false","","","","","","","","","","null","","809","","0","0","null","null","arrowup","[0.15,0.85,0.325,0.675]","","",""
"sailing-trial","321","1279130","0.0-11.0-286.0","","","","false","","","","","","","","","","545.1999998092651","","505.69999980926514","","2","0","arrowright","1","arrowleft","[0.15,0.85,0.325,0.675]","","",""
"sailing-trial","322","1281500","0.0-11.0-287.0","","","","false","","","","","","","","","","null","","815.0999999046326","","3","1","null","null","arrowup","[0.15,0.85,0.325,0.675]","","",""
"sailing-trial","323","1284555","0.0-11.0-288.0","","","","false","","","","","","","","","","895.4000000953674","","124.40000009536743","","3","0","arrowright","1","arrowright","[0.15,0.85,0.325,0.675]","","",""
"sailing-trial","324","1287352","0.0-11.0-289.0","","","","false","","","","","","","","","","null","","1143.7999997138977","","3","1","null","null","arrowup","[0.15,0.85,0.325,0.675]","","",""
"sailing-trial","325","1290018","0.0-11.0-290.0","","","","false","","","","","","","","","","234.89999961853027","","122.7000002861023","","3","0","arrowright","1","arrowright","[0.15,0.85,0.325,0.675]","","",""
"sailing-trial","326","1291411","0.0-11.0-291.0","","","","false","","","","","","","","","","null","","208.60000038146973","","2","0","null","null","arrowup","[0.15,0.85,0.325,0.675]","","",""
"sailing-trial","327","1295908","0.0-11.0-292.0","","","","false","","","","","","","","","","168.2000002861023","","289.7000002861023","","0","0","arrowleft","0","arrowleft","[0.15,0.85,0.325,0.675]","","",""
"sailing-trial","328","1299170","0.0-11.0-293.0","","","","false","","","","","","","","","","null","","2054","","3","0","null","null","arrowup","[0.15,0.85,0.325,0.675]","","",""
"sailing-trial","329","1303211","0.0-11.0-294.0","","","","false","","","","","","","","","","769.3999996185303","","193.09999990463257","","2","0","arrowright","1","arrowleft","[0.325,0.675,0.15,0.85]","","",""
"sailing-trial","330","1305744","0.0-11.0-295.0","","","","false","","","","","","","","","","null","","927.8000001907349","","1","1","null","null","arrowup","[0.325,0.675,0.15,0.85]","","",""
"sailing-trial","331","1309260","0.0-11.0-296.0","","","","false","","","","","","","","","","538.4000000953674","","343.69999980926514","","1","1","arrowleft","0","arrowright","[0.325,0.675,0.15,0.85]","","",""
"sailing-trial","332","1311418","0.0-11.0-297.0","","","","false","","","","","","","","","","null","","807.2999997138977","","1","0","null","null","arrowup","[0.325,0.675,0.15,0.85]","","",""
"sailing-trial","333","1316415","0.0-11.0-298.0","","","","false","","","","","","","","","","688.5999999046326","","310","","1","0","arrowleft","0","arrowright","[0.325,0.675,0.15,0.85]","","",""
"sailing-trial","334","1318280","0.0-11.0-299.0","","","","false","","","","","","","","","","null","","796.5","","2","0","null","null","arrowup","[0.325,0.675,0.15,0.85]","","",""
"sailing-trial","335","1322182","0.0-11.0-300.0","","","","false","","","","","","","","","","666.5","","337.2000002861023","","0","1","arrowleft","0","arrowleft","[0.325,0.675,0.15,0.85]","","",""
"sailing-trial","336","1324901","0.0-11.0-301.0","","","","false","","","","","","","","","","null","","1083.8999996185303","","3","1","null","null","arrowup","[0.325,0.675,0.15,0.85]","","",""
"sailing-trial","337","1327378","0.0-11.0-302.0","","","","false","","","","","","","","","","125","","123.7999997138977","","0","0","arrowleft","0","arrowleft","[0.325,0.675,0.15,0.85]","","",""
"sailing-trial","338","1329102","0.0-11.0-303.0","","","","false","","","","","","","","","","null","","176.80000019073486","","3","1","null","null","arrowup","[0.325,0.675,0.15,0.85]","","",""
"sailing-trial","339","1331555","0.0-11.0-304.0","","","","false","","","","","","","","","","164.69999980926514","","217.69999980926514","","0","0","arrowleft","0","arrowleft","[0.325,0.675,0.15,0.85]","","",""
"sailing-trial","340","1333354","0.0-11.0-305.0","","","","false","","","","","","","","","","null","","129.59999990463257","","3","1","null","null","arrowup","[0.325,0.675,0.15,0.85]","","",""
"sailing-trial","341","1335674","0.0-11.0-306.0","","","","false","","","","","","","","","","121.40000009536743","","174.40000009536743","","0","0","arrowleft","0","arrowleft","[0.325,0.675,0.15,0.85]","","",""
"sailing-trial","342","1337922","0.0-11.0-307.0","","","","false","","","","","","","","","","null","","728.8000001907349","","3","1","null","null","arrowup","[0.325,0.675,0.15,0.85]","","",""
"sailing-trial","343","1340823","0.0-11.0-308.0","","","","false","","","","","","","","","","42.40000009536743","","147.59999990463257","","3","1","arrowright","1","arrowright","[0.325,0.675,0.15,0.85]","","",""
"sailing-trial","344","1342194","0.0-11.0-309.0","","","","false","","","","","","","","","","null","","107.80000019073486","","3","0","null","null","arrowup","[0.325,0.675,0.15,0.85]","","",""
"sailing-trial","345","1345192","0.0-11.0-310.0","","","","false","","","","","","","","","","208.30000019073486","","238.90000009536743","","3","1","arrowright","1","arrowright","[0.325,0.675,0.15,0.85]","","",""
"sailing-trial","346","1347177","0.0-11.0-311.0","","","","false","","","","","","","","","","null","","218.7999997138977","","3","1","null","null","arrowup","[0.325,0.675,0.15,0.85]","","",""
"sailing-trial","347","1349674","0.0-11.0-312.0","","","","false","","","","","","","","","","201.59999990463257","","207","","3","0","arrowright","1","arrowright","[0.85,0.15,0.675,0.325]","","",""
"sailing-trial","348","1351427","0.0-11.0-313.0","","","","false","","","","","","","","","","null","","203.19999980926514","","0","1","null","null","arrowup","[0.85,0.15,0.675,0.325]","","",""
"sailing-trial","349","1354834","0.0-11.0-314.0","","","","false","","","","","","","","","","927.7000002861023","","197.2000002861023","","3","0","arrowright","1","arrowright","[0.85,0.15,0.675,0.325]","","",""
"sailing-trial","350","1357762","0.0-11.0-315.0","","","","false","","","","","","","","","","null","","1072.4000000953674","","0","1","null","null","arrowup","[0.85,0.15,0.675,0.325]","","",""
"sailing-trial","351","1360722","0.0-11.0-316.0","","","","false","","","","","","","","","","664.2000002861023","","231.5","","0","0","arrowleft","0","arrowleft","[0.85,0.15,0.675,0.325]","","",""
"sailing-trial","352","1361978","0.0-11.0-317.0","","","","false","","","","","","","","","","null","","178.7000002861023","","1","0","null","null","arrowup","[0.85,0.15,0.675,0.325]","","",""
"sailing-trial","353","1364619","0.0-11.0-318.0","","","","false","","","","","","","","","","0.7000002861022949","","81.10000038146973","","0","1","arrowleft","0","arrowleft","[0.85,0.15,0.675,0.325]","","",""
"sailing-trial","354","1366382","0.0-11.0-319.0","","","","false","","","","","","","","","","null","","0.10000038146972656","","2","1","null","null","arrowup","[0.85,0.15,0.675,0.325]","","",""
"sailing-trial","355","1369382","0.0-11.0-320.0","","","","false","","","","","","","","","","211.2000002861023","","238.90000009536743","","0","1","arrowleft","0","arrowleft","[0.85,0.15,0.675,0.325]","","",""
"sailing-trial","356","1371634","0.0-11.0-321.0","","","","false","","","","","","","","","","null","","684.6999998092651","","2","1","null","null","arrowup","[0.85,0.15,0.675,0.325]","","",""
"sailing-trial","357","1374319","0.0-11.0-322.0","","","","false","","","","","","","","","","8","","11.900000095367432","","0","1","arrowleft","0","arrowleft","[0.85,0.15,0.675,0.325]","","",""
"sailing-trial","358","1375903","0.0-11.0-323.0","","","","false","","","","","","","","","","null","","34.799999713897705","","0","1","null","null","arrowup","[0.85,0.15,0.675,0.325]","","",""
"sailing-trial","359","1378787","0.0-11.0-324.0","","","","false","","","","","","","","","","218.30000019073486","","81.2999997138977","","0","1","arrowleft","0","arrowleft","[0.85,0.15,0.675,0.325]","","",""
"sailing-trial","360","1380571","0.0-11.0-325.0","","","","false","","","","","","","","","","null","","208.09999990463257","","0","1","null","null","arrowup","[0.85,0.15,0.675,0.325]","","",""
"sailing-trial","361","1383443","0.0-11.0-326.0","","","","false","","","","","","","","","","23.200000286102295","","2.5999999046325684","","0","0","arrowleft","0","arrowleft","[0.85,0.15,0.675,0.325]","","",""
"sailing-trial","362","1385673","0.0-11.0-327.0","","","","false","","","","","","","","","","null","","1158.6999998092651","","1","0","null","null","arrowup","[0.85,0.15,0.675,0.325]","","",""
"sailing-trial","363","1387969","0.0-11.0-328.0","","","","false","","","","","","","","","","10.700000286102295","","236","","0","0","arrowleft","0","arrowleft","[0.675,0.325,0.85,0.15]","","",""
"sailing-trial","364","1389363","0.0-11.0-329.0","","","","false","","","","","","","","","","null","","216.7999997138977","","0","0","null","null","arrowup","[0.675,0.325,0.85,0.15]","","",""
"sailing-trial","365","1392509","0.0-11.0-330.0","","","","false","","","","","","","","","","304.19999980926514","","258.59999990463257","","0","1","arrowleft","0","arrowleft","[0.675,0.325,0.85,0.15]","","",""
"sailing-trial","366","1393610","0.0-11.0-331.0","","","","false","","","","","","","","","","null","","44.5","","1","0","null","null","arrowup","[0.675,0.325,0.85,0.15]","","",""
"sailing-trial","367","1396018","0.0-11.0-332.0","","","","false","","","","","","","","","","8.300000190734863","","180.40000009536743","","0","0","arrowleft","0","arrowleft","[0.675,0.325,0.85,0.15]","","",""
"sailing-trial","368","1400111","0.0-11.0-333.0","","","","false","","","","","","","","","","null","","1089","","2","0","null","null","arrowup","[0.675,0.325,0.85,0.15]","","",""
"sailing-trial","369","1403730","0.0-11.0-334.0","","","","false","","","","","","","","","","795.3000001907349","","92.80000019073486","","0","1","arrowleft","0","arrowleft","[0.675,0.325,0.85,0.15]","","",""
"sailing-trial","370","1405398","0.0-11.0-335.0","","","","false","","","","","","","","","","null","","129.2000002861023","","0","1","null","null","arrowup","[0.675,0.325,0.85,0.15]","","",""
"sailing-trial","371","1407999","0.0-11.0-336.0","","","","false","","","","","","","","","","3.799999713897705","","31.5","","0","1","arrowleft","0","arrowleft","[0.675,0.325,0.85,0.15]","","",""
"sailing-trial","372","1409252","0.0-11.0-337.0","","","","false","","","","","","","","","","null","","211.80000019073486","","0","0","null","null","arrowup","[0.675,0.325,0.85,0.15]","","",""
"sailing-trial","373","1411930","0.0-11.0-338.0","","","","false","","","","","","","","","","231.90000009536743","","249.90000009536743","","0","0","arrowleft","0","arrowleft","[0.675,0.325,0.85,0.15]","","",""
"sailing-trial","374","1415058","0.0-11.0-339.0","","","","false","","","","","","","","","","null","","1416.5","","3","0","null","null","arrowup","[0.675,0.325,0.85,0.15]","","",""
"sailing-trial","375","1417785","0.0-11.0-340.0","","","","false","","","","","","","","","","8","","106.59999990463257","","0","1","arrowleft","0","arrowleft","[0.675,0.325,0.85,0.15]","","",""
"sailing-trial","376","1419234","0.0-11.0-341.0","","","","false","","","","","","","","","","null","","290.80000019073486","","0","0","null","null","arrowup","[0.675,0.325,0.85,0.15]","","",""
"sailing-trial","377","1421725","0.0-11.0-342.0","","","","false","","","","","","","","","","272.7000002861023","","133.80000019073486","","0","0","arrowleft","0","arrowleft","[0.675,0.325,0.85,0.15]","","",""
"sailing-trial","378","1424388","0.0-11.0-343.0","","","","false","","","","","","","","","","null","","990.7999997138977","","0","1","null","null","arrowup","[0.675,0.325,0.85,0.15]","","",""
"sailing-trial","379","1428190","0.0-11.0-344.0","","","","false","","","","","","","","","","758.1999998092651","","466.90000009536743","","0","1","arrowleft","0","arrowleft","[0.85,0.15,0.675,0.325]","","",""
"sailing-trial","380","1429354","0.0-11.0-345.0","","","","false","","","","","","","","","","null","","60.700000286102295","","2","0","null","null","arrowup","[0.85,0.15,0.675,0.325]","","",""
"sailing-trial","381","1432441","0.0-11.0-346.0","","","","false","","","","","","","","","","208.7999997138977","","192.40000009536743","","0","1","arrowleft","0","arrowleft","[0.85,0.15,0.675,0.325]","","",""
"sailing-trial","382","1433666","0.0-11.0-347.0","","","","false","","","","","","","","","","null","","20.300000190734863","","1","0","null","null","arrowup","[0.85,0.15,0.675,0.325]","","",""
"sailing-trial","383","1437143","0.0-11.0-348.0","","","","false","","","","","","","","","","0","","458.5","","0","1","arrowleft","0","arrowleft","[0.85,0.15,0.675,0.325]","","",""
"sailing-trial","384","1440194","0.0-11.0-349.0","","","","false","","","","","","","","","","null","","1147.9000000953674","","1","1","null","null","arrowup","[0.85,0.15,0.675,0.325]","","",""
"sailing-trial","385","1443962","0.0-11.0-350.0","","","","false","","","","","","","","","","783.5999999046326","","11.699999809265137","","0","1","arrowleft","0","arrowleft","[0.85,0.15,0.675,0.325]","","",""
"sailing-trial","386","1446713","0.0-11.0-351.0","","","","false","","","","","","","","","","null","","1071.2999997138977","","2","1","null","null","arrowup","[0.85,0.15,0.675,0.325]","","",""
"sailing-trial","387","1450633","0.0-11.0-352.0","","","","false","","","","","","","","","","1137.4000000953674","","198.40000009536743","","0","1","arrowleft","0","arrowleft","[0.85,0.15,0.675,0.325]","","",""
"sailing-trial","388","1451914","0.0-11.0-353.0","","","","false","","","","","","","","","","null","","233.7000002861023","","2","0","null","null","arrowup","[0.85,0.15,0.675,0.325]","","",""
"sailing-trial","389","1454717","0.0-11.0-354.0","","","","false","","","","","","","","","","24.40000009536743","","80.5","","0","1","arrowleft","0","arrowleft","[0.85,0.15,0.675,0.325]","","",""
"sailing-trial","390","1455964","0.0-11.0-355.0","","","","false","","","","","","","","","","null","","205.2000002861023","","0","0","null","null","arrowup","[0.85,0.15,0.675,0.325]","","",""
"sailing-trial","391","1458490","0.0-11.0-356.0","","","","false","","","","","","","","","","191.09999990463257","","247","","0","0","arrowleft","0","arrowleft","[0.85,0.15,0.675,0.325]","","",""
"sailing-trial","392","1460400","0.0-11.0-357.0","","","","false","","","","","","","","","","null","","168.2999997138977","","0","1","null","null","arrowup","[0.85,0.15,0.675,0.325]","","",""
"sailing-trial","393","1465522","0.0-11.0-358.0","","","","false","","","","","","","","","","1122","","413.5","","0","1","arrowleft","0","arrowleft","[0.85,0.15,0.675,0.325]","","",""
"sailing-trial","394","1467138","0.0-11.0-359.0","","","","false","","","","","","","","","","null","","48.700000286102295","","0","1","null","null","arrowup","[0.85,0.15,0.675,0.325]","","",""
"sailing-trial","395","1469586","0.0-11.0-360.0","","","","false","","","","","","","","","","233.5","","65.2999997138977","","0","0","arrowleft","0","arrowleft","[0.675,0.325,0.85,0.15]","","",""
"sailing-trial","396","1470888","0.0-11.0-361.0","","","","false","","","","","","","","","","null","","223.80000019073486","","0","0","null","null","arrowup","[0.675,0.325,0.85,0.15]","","",""
"sailing-trial","397","1473211","0.0-11.0-362.0","","","","false","","","","","","","","","","276.09999990463257","","1","","0","0","arrowleft","0","arrowleft","[0.675,0.325,0.85,0.15]","","",""
"sailing-trial","398","1474602","0.0-11.0-363.0","","","","false","","","","","","","","","","null","","223.2000002861023","","2","0","null","null","arrowup","[0.675,0.325,0.85,0.15]","","",""
"sailing-trial","399","1477825","0.0-11.0-364.0","","","","false","","","","","","","","","","545.5","","112.59999990463257","","0","1","arrowleft","0","arrowleft","[0.675,0.325,0.85,0.15]","","",""
"sailing-trial","400","1479625","0.0-11.0-365.0","","","","false","","","","","","","","","","null","","210.09999990463257","","0","1","null","null","arrowup","[0.675,0.325,0.85,0.15]","","",""
"sailing-trial","401","1482694","0.0-11.0-366.0","","","","false","","","","","","","","","","249.7000002861023","","232.7000002861023","","0","1","arrowleft","0","arrowleft","[0.675,0.325,0.85,0.15]","","",""
"sailing-trial","402","1484294","0.0-11.0-367.0","","","","false","","","","","","","","","","null","","12.400000095367432","","2","1","null","null","arrowup","[0.675,0.325,0.85,0.15]","","",""
"sailing-trial","403","1486611","0.0-11.0-368.0","","","","false","","","","","","","","","","4","","254.39999961853027","","0","0","arrowleft","0","arrowleft","[0.675,0.325,0.85,0.15]","","",""
"sailing-trial","404","1489030","0.0-11.0-369.0","","","","false","","","","","","","","","","null","","687.8000001907349","","2","1","null","null","arrowup","[0.675,0.325,0.85,0.15]","","",""
"sailing-trial","405","1493691","0.0-11.0-370.0","","","","false","","","","","","","","","","999.5","","87","","0","0","arrowleft","0","arrowleft","[0.675,0.325,0.85,0.15]","","",""
"sailing-trial","406","1496382","0.0-11.0-371.0","","","","false","","","","","","","","","","null","","935.9000000953674","","2","1","null","null","arrowup","[0.675,0.325,0.85,0.15]","","",""
"sailing-trial","407","1500134","0.0-11.0-372.0","","","","false","","","","","","","","","","668.1999998092651","","90.7999997138977","","2","1","arrowright","1","arrowleft","[0.675,0.325,0.85,0.15]","","",""
"sailing-trial","408","1502901","0.0-11.0-373.0","","","","false","","","","","","","","","","null","","932.3000001907349","","2","1","null","null","arrowup","[0.675,0.325,0.85,0.15]","","",""
"sailing-trial","409","1506637","0.0-11.0-374.0","","","","false","","","","","","","","","","847.2000002861023","","13","","2","1","arrowright","1","arrowleft","[0.675,0.325,0.85,0.15]","","",""
"sailing-trial","410","1509071","0.0-11.0-375.0","","","","false","","","","","","","","","","null","","646.1999998092651","","2","1","null","null","arrowup","[0.675,0.325,0.85,0.15]","","",""
"sailing-trial","411","1512255","0.0-11.0-376.0","","","","false","","","","","","","","","","490.90000009536743","","139.60000038146973","","2","1","arrowright","1","arrowleft","[0.675,0.325,0.85,0.15]","","",""
"sailing-trial","412","1514554","0.0-11.0-377.0","","","","false","","","","","","","","","","null","","978.9000000953674","","1","0","null","null","arrowup","[0.675,0.325,0.85,0.15]","","",""
"sailing-trial","413","1519294","0.0-11.0-378.0","","","","false","","","","","","","","","","516.3999996185303","","220.90000009536743","","2","0","arrowright","1","arrowleft","[0.325,0.675,0.15,0.85]","","",""
"sailing-trial","414","1522276","0.0-11.0-379.0","","","","false","","","","","","","","","","null","","1100.5","","1","1","null","null","arrowup","[0.325,0.675,0.15,0.85]","","",""
"sailing-trial","415","1525811","0.0-11.0-380.0","","","","false","","","","","","","","","","1366.4000000953674","","83.09999990463257","","2","0","arrowright","1","arrowleft","[0.325,0.675,0.15,0.85]","","",""
"sailing-trial","416","1528645","0.0-11.0-381.0","","","","false","","","","","","","","","","null","","1008.4000000953674","","0","1","null","null","arrowup","[0.325,0.675,0.15,0.85]","","",""
"sailing-trial","417","1531795","0.0-11.0-382.0","","","","false","","","","","","","","","","950","","186.2000002861023","","0","0","arrowleft","0","arrowleft","[0.325,0.675,0.15,0.85]","","",""
"sailing-trial","418","1533699","0.0-11.0-383.0","","","","false","","","","","","","","","","null","","184.2000002861023","","1","1","null","null","arrowup","[0.325,0.675,0.15,0.85]","","",""
"sailing-trial","419","1537365","0.0-11.0-384.0","","","","false","","","","","","","","","","199.80000019073486","","587.8000001907349","","1","1","arrowleft","0","arrowright","[0.325,0.675,0.15,0.85]","","",""
"sailing-trial","420","1540133","0.0-11.0-385.0","","","","false","","","","","","","","","","null","","846.7000002861023","","3","1","null","null","arrowup","[0.325,0.675,0.15,0.85]","","",""
"sailing-trial","421","1543987","0.0-11.0-386.0","","","","false","","","","","","","","","","678","","309.19999980926514","","1","1","arrowleft","0","arrowright","[0.325,0.675,0.15,0.85]","","",""
"sailing-trial","422","1545922","0.0-11.0-387.0","","","","false","","","","","","","","","","null","","768.3000001907349","","2","0","null","null","arrowup","[0.325,0.675,0.15,0.85]","","",""
"sailing-trial","423","1549736","0.0-11.0-388.0","","","","false","","","","","","","","","","624.6999998092651","","269.80000019073486","","1","1","arrowleft","0","arrowright","[0.325,0.675,0.15,0.85]","","",""
"sailing-trial","424","1552979","0.0-11.0-389.0","","","","false","","","","","","","","","","null","","746.6999998092651","","1","0","null","null","arrowup","[0.325,0.675,0.15,0.85]","","",""
"sailing-trial","425","1556306","0.0-11.0-390.0","","","","false","","","","","","","","","","576","","43.60000038146973","","1","1","arrowleft","0","arrowright","[0.325,0.675,0.15,0.85]","","",""
"sailing-trial","426","1560073","0.0-11.0-391.0","","","","false","","","","","","","","","","null","","769","","0","0","null","null","arrowup","[0.325,0.675,0.15,0.85]","","",""
"sailing-trial","427","1564803","0.0-11.0-392.0","","","","false","","","","","","","","","","569.3000001907349","","373","","1","0","arrowleft","0","arrowright","[0.325,0.675,0.15,0.85]","","",""
"sailing-trial","428","1566899","0.0-11.0-393.0","","","","false","","","","","","","","","","null","","792.3000001907349","","2","0","null","null","arrowup","[0.325,0.675,0.15,0.85]","","",""
"sailing-trial","429","1571050","0.0-11.0-394.0","","","","false","","","","","","","","","","1496.4000000953674","","362.69999980926514","","1","0","arrowleft","0","arrowright","[0.325,0.675,0.15,0.85]","","",""
"sailing-trial","430","1573946","0.0-11.0-395.0","","","","false","","","","","","","","","","null","","938.2000002861023","","3","1","null","null","arrowup","[0.325,0.675,0.15,0.85]","","",""
"sailing-trial","431","1577001","0.0-11.0-396.0","","","","false","","","","","","","","","","545.4000000953674","","393.40000009536743","","1","0","arrowleft","0","arrowright","[0.325,0.675,0.15,0.85]","","",""
"sailing-trial","432","1579075","0.0-11.0-397.0","","","","false","","","","","","","","","","null","","1042.0999999046326","","1","0","null","null","arrowup","[0.325,0.675,0.15,0.85]","","",""
"sailing-trial","433","1583399","0.0-11.0-398.0","","","","false","","","","","","","","","","520.3000001907349","","416.09999990463257","","3","1","arrowright","1","arrowright","[0.325,0.675,0.15,0.85]","","",""
"sailing-trial","434","1585216","0.0-11.0-399.0","","","","false","","","","","","","","","","null","","154.40000009536743","","3","1","null","null","arrowup","[0.325,0.675,0.15,0.85]","","",""
"instructions","435","1585270","0.0-12.0","","","","","","","","","","53.40000009536743","","","","","","","","","","","","","","","","[{""page_index"":0,""viewing_time"":53.30000019073486}]"
"survey-debrief","436","1608022","0.0-13.0","","","","","","","","","","22749","","","","","","","","","","","","","","{""difficulty"":""4"",""fun"":""1"",""clarity"":""5"",""strategy"":""no"",""feedback"":""""}","",""
