"trial_type","trial_index","time_elapsed","internal_node_id","value","metadata","success","timeout","failed_images","failed_audio","failed_video","browser_interaction","low_quality","rt","stimulus","response","button_pressed","island_rt","island_response","boat_rt","boat_response","boat","reward","island_key","island","boat_key","reward_probabilities","responses","num_errors","view_history"
"pavlovia","0","2","0.0-0.0","","","","","","","","","","","","","","","","","","","","","","","","","",""
"call-function","1","2","0.0-1.0","","{""task_version"":""sailing_part1_v1"",""task_condition"":""good"",""boats"":[""B"",""C"",""A"",""D""],""boats_demo"":[""E"",""H"",""G"",""F""],""islands"":[""A"",""B""],""subject_id"":""14574"",""age"":""21"",""gender"":""Male""}","","","","","","","","","","","","","","","","","","","","","","","",""
"preload","2","4961","0.0-2.0","","","true","false","[]","[]","[]","[{""event"":""fullscreenenter"",""trial"":3,""time"":17164}]","false","","","","","","","","","","","","","","","","",""
"fullscreen","3","18141","0.0-3.0","","","true","","","","","","","","","","","","","","","","","","","","","","",""
"audio-keyboard-response","4","21034","0.0-4.0-0.0","","","","","","","","","","2880","audio/beep_loop.wav"," ","","","","","","","","","","","","","",""
"audio-test","5","22805","0.0-4.0-1.0","","","","","","","","","","null","audio/turtle.mp3","","3","","","","","","","","","","","","",""
"audio-test","6","24877","0.0-4.0-2.0","","","","","","","","[{""event"":""fullscreenenter"",""trial"":3,""time"":17164},{""event"":""blur"",""trial"":7,""time"":29482},{""event"":""focus"",""trial"":7,""time"":33770}]","false","null","audio/shark.mp3","","2","","","","","","","","","","","","",""
"sailing-instructions","7","65931","0.0-5.0-0.0-0.0","","","","","","","","","","","","","","null","null","null","null","null","null","","","","","","",""
"sailing-trial","8","70557","0.0-5.0-0.0-1.0-0.0","","","","false","","","","","","","","","","3525.2999999998137","","null","","null","null","arrowleft","0","null","null","","",""
"sailing-trial","9","74144","0.0-5.0-0.0-1.0-1.0","","","","false","","","","","","","","","","2486.2000000001863","","null","","null","null","arrowright","1","null","null","","",""
"sailing-trial","10","80882","0.0-5.0-0.0-1.0-2.0","","","","false","","","","","","","","","","5649.399999999907","","null","","null","null","arrowright","1","null","null","","",""
"sailing-instructions","11","142064","0.0-5.0-0.0-2.0","","","","","","","","","","","","","","null","null","null","null","0","null","","","","","","",""
"sailing-trial","12","148237","0.0-5.0-0.0-3.0-0.0","","","","false","","","","","","","","","","null","","2323","","2","1","null","null","arrowleft","[1,1,1,1]","","",""
"sailing-trial","13","152023","0.0-5.0-0.0-3.0-1.0","","","","false","","","","","","","","","","null","","1193.1000000000931","","3","1","null","null","arrowright","[1,1,1,1]","","",""
"sailing-trial","14","156844","0.0-5.0-0.0-3.0-2.0","","","","false","","","","","","","","","","null","","1302.1000000000931","","3","0","null","null","arrowright","[0,0,0,0]","","",""
"sailing-instructions","15","164272","0.0-5.0-0.0-4.0","","","","","","","","","","","","","","null","null","null","null","null","null","","","","","","",""
"sailing-comprehension","16","187940","0.0-5.0-0.0-5.0","","","","","","","","","","18753.899999999907","","","","","","","","","","","","","","[""true"",""false"",""false"",""true""]","1",""
"sailing-instructions","17","223557","0.0-5.0-0.1-0.1","","","","","","","","","","","","","","null","null","null","null","null","null","","","","","","",""
"sailing-trial","18","225652","0.0-5.0-0.1-1.1-0.1","","","","false","","","","","","","","","","1006","","null","","null","null","arrowleft","0","null","null","","",""
"sailing-trial","19","227486","0.0-5.0-0.1-1.1-1.1","","","","false","","","","","","","","","","745.7999999998137","","null","","null","null","arrowright","1","null","null","","",""
"sailing-trial","20","229386","0.0-5.0-0.1-1.1-2.1","","","","false","","","","","","","","","","799.3999999999069","","null","","null","null","arrowleft","0","null","null","","",""
"sailing-instructions","21","272051","0.0-5.0-0.1-2.1","","","","","","","","","","","","","","null","null","null","null","0","null","","","","","","",""
"sailing-trial","22","281029","0.0-5.0-0.1-3.1-0.1","","","","false","","","","","","","","","","null","","4648","","2","1","null","null","arrowleft","[1,1,1,1]","","",""
"sailing-trial","23","283214","0.0-5.0-0.1-3.1-1.1","","","","false","","","","","","","","","","null","","43.6999999997206","","3","1","null","null","arrowright","[1,1,1,1]","","",""
"sailing-trial","24","285976","0.0-5.0-0.1-3.1-2.1","","","","false","","","","","","","","","","null","","52.5","","3","0","null","null","arrowright","[0,0,0,0]","","",""
"sailing-instructions","25","293645","0.0-5.0-0.1-4.1","","","","","","","","","","","","","","null","null","null","null","null","null","","","","","","",""
"sailing-comprehension","26","301976","0.0-5.0-0.1-5.1","","","","","","","","","","6995.899999999907","","","","","","","","","","","","","","[""true"",""true"",""false"",""true""]","0",""
"sailing-instructions","27","386884","0.0-6.0-0.0-0.0","","","","","","","","","","","","","","null","null","null","null","null","null","","","","","","",""
"sailing-comprehension","28","398972","0.0-6.0-0.0-1.0","","","","","","","","","","10413.100000000093","","","","","","","","","","","","","","[""true"",""false"",""true""]","0",""
"sailing-instructions","29","415146","0.0-7.0-0.0-0.0","","","","","","","","","","","","","","null","null","null","null","null","null","","","","","","",""
"sailing-trial","30","419593","0.0-7.0-0.0-1.0-0.0","","","","false","","","","","","","","","","null","","1872.2999999998137","","0","0","null","null","arrowup","[0.2,0.8,0.2,0.8]","","",""
"sailing-trial","31","422644","0.0-7.0-0.0-1.0-1.0","","","","false","","","","","","","","","","null","","1264.7999999998137","","1","1","null","null","arrowup","[0.2,0.8,0.2,0.8]","","",""
"sailing-trial","32","425096","0.0-7.0-0.0-1.0-2.0","","","","false","","","","","","","","","","null","","685.7000000001863","","2","1","null","null","arrowup","[0.2,0.8,0.2,0.8]","","",""
"sailing-trial","33","427298","0.0-7.0-0.0-1.0-3.0","","","","false","","","","","","","","","","null","","426.90000000037253","","3","1","null","null","arrowup","[0.2,0.8,0.2,0.8]","","",""
"sailing-comprehension","34","453072","0.0-7.0-0.0-2.0","","","","","","","","","","24487.899999999907","","","","","","","","","","","","","","[""false""]","0",""
"sailing-instructions","35","464525","0.0-8.0-0.0-0.0","","","","","","","","","","","","","","null","null","null","null","null","null","","","","","","",""
"sailing-comprehension","36","467245","0.0-8.0-0.0-1.0","","","","","","","","[{""event"":""fullscreenenter"",""trial"":3,""time"":17164},{""event"":""blur"",""trial"":7,""time"":29482},{""event"":""focus"",""trial"":7,""time"":33770},{""event"":""blur"",""trial"":37,""time"":469462},{""event"":""fullscreenexit"",""trial"":37,""time"":469762},{""event"":""focus"",""trial"":37,""time"":474949},{""event"":""blur"",""trial"":37,""time"":477234},{""event"":""focus"",""trial"":37,""time"":477785}]","false","2198.600000000093","","","","","","","","","","","","","","[""true""]","0",""
"sailing-instructions","37","505390","0.0-9.0-0.0-0.0","","","","","","","","","","","","","","null","null","null","null","null","null","","","","","","",""
"sailing-trial","38","512034","0.0-9.0-0.0-1.0-0.0","","","","false","","","","","","","","","","872.3999999999069","","2451.899999999907","","1","1","arrowleft","0","arrowright","[0.2,0.8,0.2,0.8]","","",""
"sailing-trial","39","516388","0.0-9.0-0.0-1.0-1.0","","","","false","","","","","","","","","","543.1999999997206","","642.7999999998137","","2","1","arrowright","1","arrowleft","[0.2,0.8,0.2,0.8]","","",""
"sailing-trial","40","519507","0.0-9.0-0.0-1.0-2.0","","","","false","","","","","","","","","","null","","1245.6999999997206","","0","1","null","null","arrowup","[0.2,0.8,0.2,0.8]","","",""
"sailing-trial","41","522676","0.0-9.0-0.0-1.0-3.0","","","","false","","","","","","","","","","224.5","","73.29999999981374","","3","1","arrowright","1","arrowright","[0.2,0.8,0.2,0.8]","","",""
"sailing-trial","42","528431","0.0-9.0-0.0-1.0-4.0","","","","false","","","","","","","","","","null","","1193.2999999998137","","3","1","null","null","arrowup","[0.2,0.8,0.2,0.8]","","",""
"sailing-trial","43","533709","0.0-9.0-0.0-1.0-5.0","","","","false","","","","","","","","","","721.3999999999069","","1756.7999999998137","","1","0","arrowleft","0","arrowright","[0.2,0.8,0.2,0.8]","","",""
"sailing-instructions","44","563913","0.0-10.0","","","","","","","","","","","","","","null","null","null","null","null","null","","","","","","",""
"sailing-trial","45","569164","0.0-11.0-0.0","","","","false","","","","","","","","","","996.0999999996275","","203.10000000009313","","2","0","arrowright","1","arrowleft","[0.85,0.15,0.675,0.325]","","",""
"sailing-trial","46","573369","0.0-11.0-1.0","","","","false","","","","","","","","","","null","","1201.2000000001863","","1","0","null","null","arrowup","[0.85,0.15,0.675,0.325]","","",""
"sailing-trial","47","577438","0.0-11.0-2.0","","","","false","","","","","","","","","","616.8000000002794","","289","","0","1","arrowleft","0","arrowleft","[0.85,0.15,0.675,0.325]","","",""
"sailing-trial","48","581460","0.0-11.0-3.0","","","","false","","","","","","","","","","null","","1022","","1","0","null","null","arrowup","[0.85,0.15,0.675,0.325]","","",""
"sailing-trial","49","585110","0.0-11.0-4.0","","","","false","","","","","","","","","","200.79999999981374","","309.6999999997206","","0","1","arrowleft","0","arrowleft","[0.85,0.15,0.675,0.325]","","",""
"sailing-trial","50","588880","0.0-11.0-5.0","","","","false","","","","","","","","","","null","","1290.7999999998137","","2","1","null","null","arrowup","[0.85,0.15,0.675,0.325]","","",""
"sailing-trial","51","593168","0.0-11.0-6.0","","","","false","","","","","","","","","","1053.5","","30.199999999720603","","0","1","arrowleft","0","arrowleft","[0.85,0.15,0.675,0.325]","","",""
"sailing-trial","52","595436","0.0-11.0-7.0","","","","false","","","","","","","","","","null","","441.89999999990687","","2","1","null","null","arrowup","[0.85,0.15,0.675,0.325]","","",""
"sailing-trial","53","599873","0.0-11.0-8.0","","","","false","","","","","","","","","","756.1999999997206","","748.1000000000931","","0","1","arrowleft","0","arrowleft","[0.85,0.15,0.675,0.325]","","",""
"sailing-trial","54","603743","0.0-11.0-9.0","","","","false","","","","","","","","","","null","","879.2999999998137","","3","0","null","null","arrowup","[0.85,0.15,0.675,0.325]","","",""
"sailing-trial","55","606894","0.0-11.0-10.0","","","","false","","","","","","","","","","574.1999999997206","","18.799999999813735","","0","1","arrowleft","0","arrowleft","[0.85,0.15,0.675,0.325]","","",""
"sailing-trial","56","610599","0.0-11.0-11.0","","","","false","","","","","","","","","","null","","712.6000000000931","","2","0","null","null","arrowup","[0.85,0.15,0.675,0.325]","","",""
"sailing-trial","57","614000","0.0-11.0-12.0","","","","false","","","","","","","","","","452.20000000018626","","149","","0","1","arrowleft","0","arrowleft","[0.85,0.15,0.675,0.325]","","",""
"sailing-trial","58","616452","0.0-11.0-13.0","","","","false","","","","","","","","","","null","","133.5","","0","1","null","null","arrowup","[0.85,0.15,0.675,0.325]","","",""
"sailing-trial","59","620511","0.0-11.0-14.0","","","","false","","","","","","","","","","371.39999999990687","","150.1999999997206","","0","0","arrowleft","0","arrowleft","[0.85,0.15,0.675,0.325]","","",""
"sailing-trial","60","623008","0.0-11.0-15.0","","","","false","","","","","","","","","","null","","636.6000000000931","","0","1","null","null","arrowup","[0.85,0.15,0.675,0.325]","","",""
"sailing-trial","61","626774","0.0-11.0-16.0","","","","false","","","","","","","","","","466","","125.3000000002794","","0","0","arrowleft","0","arrowleft","[0.675,0.325,0.85,0.15]","","",""
"sailing-trial","62","629646","0.0-11.0-17.0","","","","false","","","","","","","","","","null","","371.89999999990687","","2","1","null","null","arrowup","[0.675,0.325,0.85,0.15]","","",""
"sailing-trial","63","635401","0.0-11.0-18.0","","","","false","","","","","","","","","","1725.2000000001863","","39.60000000009313","","1","0","arrowleft","0","arrowright","[0.675,0.325,0.85,0.15]","","",""
"sailing-trial","64","638031","0.0-11.0-19.0","","","","false","","","","","","","","","","null","","1218.6000000000931","","1","0","null","null","arrowup","[0.675,0.325,0.85,0.15]","","",""
"sailing-trial","65","641687","0.0-11.0-20.0","","","","false","","","","","","","","","","416.8000000002794","","172.20000000018626","","2","0","arrowright","1","arrowleft","[0.675,0.325,0.85,0.15]","","",""
"sailing-trial","66","644108","0.0-11.0-21.0","","","","false","","","","","","","","","","null","","418.8000000002794","","2","1","null","null","arrowup","[0.675,0.325,0.85,0.15]","","",""
"sailing-trial","67","647513","0.0-11.0-22.0","","","","false","","","","","","","","","","539.5","","100.5","","3","0","arrowright","1","arrowright","[0.675,0.325,0.85,0.15]","","",""
"sailing-trial","68","649829","0.0-11.0-23.0","","","","false","","","","","","","","","","null","","481.20000000018626","","2","1","null","null","arrowup","[0.675,0.325,0.85,0.15]","","",""
"sailing-trial","69","653365","0.0-11.0-24.0","","","","false","","","","","","","","","","410.3000000002794","","168.40000000037253","","2","1","arrowright","1","arrowleft","[0.675,0.325,0.85,0.15]","","",""
"sailing-trial","70","656651","0.0-11.0-25.0","","","","false","","","","","","","","","","null","","268.1999999997206","","1","0","null","null","arrowup","[0.675,0.325,0.85,0.15]","","",""
"sailing-trial","71","659944","0.0-11.0-26.0","","","","false","","","","","","","","","","584.5","","81.90000000037253","","2","0","arrowright","1","arrowleft","[0.675,0.325,0.85,0.15]","","",""
"sailing-trial","72","661989","0.0-11.0-27.0","","","","false","","","","","","","","","","null","","7.5","","0","1","null","null","arrowup","[0.675,0.325,0.85,0.15]","","",""
"sailing-trial","73","665942","0.0-11.0-28.0","","","","false","","","","","","","","","","435.59999999962747","","384","","0","1","arrowleft","0","arrowleft","[0.675,0.325,0.85,0.15]","","",""
"sailing-trial","74","668236","0.0-11.0-29.0","","","","false","","","","","","","","","","null","","165.70000000018626","","3","0","null","null","arrowup","[0.675,0.325,0.85,0.15]","","",""
"sailing-trial","75","671480","0.0-11.0-30.0","","","","false","","","","","","","","","","557.3999999999069","","113.29999999981374","","0","1","arrowleft","0","arrowleft","[0.675,0.325,0.85,0.15]","","",""
"sailing-trial","76","674518","0.0-11.0-31.0","","","","false","","","","","","","","","","null","","20.399999999906868","","3","0","null","null","arrowup","[0.675,0.325,0.85,0.15]","","",""
"sailing-trial","77","678694","0.0-11.0-32.0","","","","false","","","","","","","","","","156","","916.2999999998137","","0","0","arrowleft","0","arrowleft","[0.675,0.325,0.85,0.15]","","",""
"sailing-trial","78","682039","0.0-11.0-33.0","","","","false","","","","","","","","","","null","","334.5","","1","0","null","null","arrowup","[0.675,0.325,0.85,0.15]","","",""
"sailing-trial","79","685759","0.0-11.0-34.0","","","","false","","","","","","","","","","591.5","","460.5","","2","1","arrowright","1","arrowleft","[0.675,0.325,0.85,0.15]","","",""
"sailing-trial","80","688777","0.0-11.0-35.0","","","","false","","","","","","","","","","null","","11.199999999720603","","2","0","null","null","arrowup","[0.675,0.325,0.85,0.15]","","",""
"sailing-trial","81","691880","0.0-11.0-36.0","","","","false","","","","","","","","","","166.89999999990687","","109.39999999990687","","2","1","arrowright","1","arrowleft","[0.675,0.325,0.85,0.15]","","",""
"sailing-trial","82","693843","0.0-11.0-37.0","","","","false","","","","","","","","","","null","","122.79999999981374","","1","0","null","null","arrowup","[0.675,0.325,0.85,0.15]","","",""
"sailing-trial","83","696787","0.0-11.0-38.0","","","","false","","","","","","","","","","652","","89.89999999990687","","2","0","arrowright","1","arrowleft","[0.325,0.675,0.15,0.85]","","",""
"sailing-trial","84","699392","0.0-11.0-39.0","","","","false","","","","","","","","","","null","","280","","0","0","null","null","arrowup","[0.325,0.675,0.15,0.85]","","",""
"sailing-trial","85","702589","0.0-11.0-40.0","","","","false","","","","","","","","","","378.5","","73.20000000018626","","3","1","arrowright","1","arrowright","[0.325,0.675,0.15,0.85]","","",""
"sailing-trial","86","704991","0.0-11.0-41.0","","","","false","","","","","","","","","","null","","200.59999999962747","","0","1","null","null","arrowup","[0.325,0.675,0.15,0.85]","","",""
"sailing-trial","87","707968","0.0-11.0-42.0","","","","false","","","","","","","","","","376","","131.60000000009313","","3","0","arrowright","1","arrowright","[0.325,0.675,0.15,0.85]","","",""
"sailing-trial","88","709365","0.0-11.0-43.0","","","","false","","","","","","","","","","null","","278.89999999990687","","2","0","null","null","arrowup","[0.325,0.675,0.15,0.85]","","",""
"sailing-trial","89","712981","0.0-11.0-44.0","","","","false","","","","","","","","","","527.2999999998137","","73.39999999990687","","0","1","arrowleft","0","arrowleft","[0.325,0.675,0.15,0.85]","","",""
"sailing-trial","90","715083","0.0-11.0-45.0","","","","false","","","","","","","","","","null","","89.89999999990687","","0","1","null","null","arrowup","[0.325,0.675,0.15,0.85]","","",""
"sailing-trial","91","717473","0.0-11.0-46.0","","","","false","","","","","","","","","","121.40000000037253","","189.5","","0","0","arrowleft","0","arrowleft","[0.325,0.675,0.15,0.85]","","",""
"sailing-trial","92","721121","0.0-11.0-47.0","","","","false","","","","","","","","","","null","","649.8000000002794","","2","0","null","null","arrowup","[0.325,0.675,0.15,0.85]","","",""
"sailing-trial","93","724374","0.0-11.0-48.0","","","","false","","","","","","","","","","593.5","","76.8000000002794","","1","1","arrowleft","0","arrowright","[0.325,0.675,0.15,0.85]","","",""
"sailing-trial","94","726242","0.0-11.0-49.0","","","","false","","","","","","","","","","null","","94.90000000037253","","1","1","null","null","arrowup","[0.325,0.675,0.15,0.85]","","",""
"sailing-trial","95","729461","0.0-11.0-50.0","","","","false","","","","","","","","","","505.60000000009313","","119.3000000002794","","1","1","arrowleft","0","arrowright","[0.325,0.675,0.15,0.85]","","",""
"sailing-trial","96","731430","0.0-11.0-51.0","","","","false","","","","","","","","","","null","","66.3000000002794","","3","1","null","null","arrowup","[0.325,0.675,0.15,0.85]","","",""
"sailing-trial","97","735783","0.0-11.0-52.0","","","","false","","","","","","","","","","1253.9000000003725","","10.299999999813735","","1","1","arrowleft","0","arrowright","[0.325,0.675,0.15,0.85]","","",""
"sailing-trial","98","737852","0.0-11.0-53.0","","","","false","","","","","","","","","","null","","100.40000000037253","","3","1","null","null","arrowup","[0.325,0.675,0.15,0.85]","","",""
"sailing-trial","99","741788","0.0-11.0-54.0","","","","false","","","","","","","","","","1023.0999999996275","","35","","1","1","arrowleft","0","arrowright","[0.325,0.675,0.15,0.85]","","",""
"sailing-trial","100","746100","0.0-11.0-55.0","","","","false","","","","","","","","","","null","","2883.1999999997206","","2","0","null","null","arrowup","[0.325,0.675,0.15,0.85]","","",""
"sailing-trial","101","749428","0.0-11.0-56.0","","","","false","","","","","","","","","","519.6999999997206","","93.39999999990687","","1","1","arrowleft","0","arrowright","[0.325,0.675,0.15,0.85]","","",""
"sailing-trial","102","752597","0.0-11.0-57.0","","","","false","","","","","","","","","","null","","159.79999999981374","","0","0","null","null","arrowup","[0.325,0.675,0.15,0.85]","","",""
"sailing-trial","103","755850","0.0-11.0-58.0","","","","false","","","","","","","","","","50.1999999997206","","164.39999999990687","","1","1","arrowleft","0","arrowright","[0.325,0.675,0.15,0.85]","","",""
"sailing-trial","104","757127","0.0-11.0-59.0","","","","false","","","","","","","","","","null","","130.1999999997206","","0","0","null","null","arrowup","[0.325,0.675,0.15,0.85]","","",""
"sailing-trial","105","760287","0.0-11.0-60.0","","","","false","","","","","","","","","","399","","34.60000000009313","","1","1","arrowleft","0","arrowright","[0.15,0.85,0.325,0.675]","","",""
"sailing-trial","106","761567","0.0-11.0-61.0","","","","false","","","","","","","","","","null","","160.39999999990687","","0","0","null","null","arrowup","[0.15,0.85,0.325,0.675]","","",""
"sailing-trial","107","764008","0.0-11.0-62.0","","","","false","","","","","","","","","","382.5","","32.299999999813735","","1","0","arrowleft","0","arrowright","[0.15,0.85,0.325,0.675]","","",""
"sailing-trial","108","767042","0.0-11.0-63.0","","","","false","","","","","","","","","","null","","30.299999999813735","","2","0","null","null","arrowup","[0.15,0.85,0.325,0.675]","","",""
"sailing-trial","109","769429","0.0-11.0-64.0","","","","false","","","","","","","","","","144.1999999997206","","15.299999999813735","","0","0","arrowleft","0","arrowleft","[0.15,0.85,0.325,0.675]","","",""
"sailing-trial","110","771990","0.0-11.0-65.0","","","","false","","","","","","","","","","null","","990.7000000001863","","3","0","null","null","arrowup","[0.15,0.85,0.325,0.675]","","",""
"sailing-trial","111","775934","0.0-11.0-66.0","","","","false","","","","","","","","","","649.3999999999069","","791.8999999999069","","3","1","arrowright","1","arrowright","[0.15,0.85,0.325,0.675]","","",""
"sailing-trial","112","779170","0.0-11.0-67.0","","","","false","","","","","","","","","","null","","219.20000000018626","","0","0","null","null","arrowup","[0.15,0.85,0.325,0.675]","","",""
"sailing-trial","113","781938","0.0-11.0-68.0","","","","false","","","","","","","","","","10.899999999906868","","22.100000000093132","","3","1","arrowright","1","arrowright","[0.15,0.85,0.325,0.675]","","",""
"sailing-trial","114","784189","0.0-11.0-69.0","","","","false","","","","","","","","","","null","","156.5","","3","1","null","null","arrowup","[0.15,0.85,0.325,0.675]","","",""
"sailing-trial","115","787622","0.0-11.0-70.0","","","","false","","","","","","","","","","101.70000000018626","","170.3000000002794","","3","0","arrowright","1","arrowright","[0.15,0.85,0.325,0.675]","","",""
"sailing-trial","116","789444","0.0-11.0-71.0","","","","false","","","","","","","","","","null","","78.89999999990687","","2","1","null","null","arrowup","[0.15,0.85,0.325,0.675]","","",""
"sailing-trial","117","791920","0.0-11.0-72.0","","","","false","","","","","","","","","","258.5","","59.60000000009313","","2","0","arrowright","1","arrowleft","[0.15,0.85,0.325,0.675]","","",""
"sailing-trial","118","793914","0.0-11.0-73.0","","","","false","","","","","","","","","","null","","196.20000000018626","","3","1","null","null","arrowup","[0.15,0.85,0.325,0.675]","","",""
"sailing-trial","119","796249","0.0-11.0-74.0","","","","false","","","","","","","","","","121.90000000037253","","163.09999999962747","","3","0","arrowright","1","arrowright","[0.15,0.85,0.325,0.675]","","",""
"sailing-trial","120","798085","0.0-11.0-75.0","","","","false","","","","","","","","","","null","","246","","1","1","null","null","arrowup","[0.15,0.85,0.325,0.675]","","",""
"sailing-trial","121","800853","0.0-11.0-76.0","","","","false","","","","","","","","","","151.5","","19.300000000279397","","1","1","arrowleft","0","arrowright","[0.15,0.85,0.325,0.675]","","",""
"sailing-trial","122","803955","0.0-11.0-77.0","","","","false","","","","","","","","","","null","","94.29999999981374","","3","0","null","null","arrowup","[0.15,0.85,0.325,0.675]","","",""
"sailing-trial","123","806435","0.0-11.0-78.0","","","","false","","","","","","","","","","82.1999999997206","","106.79999999981374","","1","0","arrowleft","0","arrowright","[0.325,0.675,0.15,0.85]","","",""
"sailing-trial","124","807959","0.0-11.0-79.0","","","","false","","","","","","","","","","null","","4.800000000279397","","1","1","null","null","arrowup","[0.325,0.675,0.15,0.85]","","",""
"sailing-trial","125","811412","0.0-11.0-80.0","","","","false","","","","","","","","","","603.5","","148.59999999962747","","1","1","arrowleft","0","arrowright","[0.325,0.675,0.15,0.85]","","",""
"sailing-trial","126","813038","0.0-11.0-81.0","","","","false","","","","","","","","","","null","","46.6999999997206","","0","0","null","null","arrowup","[0.325,0.675,0.15,0.85]","","",""
"sailing-trial","127","816099","0.0-11.0-82.0","","","","false","","","","","","","","","","260.5","","156.40000000037253","","1","1","arrowleft","0","arrowright","[0.325,0.675,0.15,0.85]","","",""
"sailing-trial","128","817339","0.0-11.0-83.0","","","","false","","","","","","","","","","null","","126.39999999990687","","0","0","null","null","arrowup","[0.325,0.675,0.15,0.85]","","",""
"sailing-trial","129","820853","0.0-11.0-84.0","","","","false","","","","","","","","","","723.5","","125.29999999981374","","1","1","arrowleft","0","arrowright","[0.325,0.675,0.15,0.85]","","",""
"sailing-trial","130","823071","0.0-11.0-85.0","","","","false","","","","","","","","","","null","","275.79999999981374","","2","1","null","null","arrowup","[0.325,0.675,0.15,0.85]","","",""
"sailing-trial","131","826357","0.0-11.0-86.0","","","","false","","","","","","","","","","324.1999999997206","","185.89999999990687","","1","1","arrowleft","0","arrowright","[0.325,0.675,0.15,0.85]","","",""
"sailing-trial","132","828009","0.0-11.0-87.0","","","","false","","","","","","","","","","null","","96.1999999997206","","3","1","null","null","arrowup","[0.325,0.675,0.15,0.85]","","",""
"sailing-trial","133","830737","0.0-11.0-88.0","","","","false","","","","","","","","","","580","","67.1999999997206","","1","0","arrowleft","0","arrowright","[0.325,0.675,0.15,0.85]","","",""
"sailing-trial","134","832781","0.0-11.0-89.0","","","","false","","","","","","","","","","null","","446.60000000009313","","0","1","null","null","arrowup","[0.325,0.675,0.15,0.85]","","",""
"sailing-trial","135","836583","0.0-11.0-90.0","","","","false","","","","","","","","","","876.8999999999069","","220.29999999981374","","0","1","arrowleft","0","arrowleft","[0.325,0.675,0.15,0.85]","","",""
"sailing-trial","136","838435","0.0-11.0-91.0","","","","false","","","","","","","","","","null","","201.79999999981374","","2","1","null","null","arrowup","[0.325,0.675,0.15,0.85]","","",""
"sailing-trial","137","841004","0.0-11.0-92.0","","","","false","","","","","","","","","","242.70000000018626","","61.799999999813735","","0","0","arrowleft","0","arrowleft","[0.325,0.675,0.15,0.85]","","",""
"sailing-trial","138","844204","0.0-11.0-93.0","","","","false","","","","","","","","","","null","","190.79999999981374","","0","0","null","null","arrowup","[0.325,0.675,0.15,0.85]","","",""
"sailing-trial","139","846811","0.0-11.0-94.0","","","","false","","","","","","","","","","378.39999999990687","","95.39999999990687","","2","0","arrowright","1","arrowleft","[0.325,0.675,0.15,0.85]","","",""
"sailing-trial","140","848450","0.0-11.0-95.0","","","","false","","","","","","","","","","null","","108.40000000037253","","1","0","null","null","arrowup","[0.325,0.675,0.15,0.85]","","",""
"sailing-trial","141","851268","0.0-11.0-96.0","","","","false","","","","","","","","","","369.89999999990687","","183.39999999990687","","0","0","arrowleft","0","arrowleft","[0.15,0.85,0.325,0.675]","","",""
"sailing-trial","142","852601","0.0-11.0-97.0","","","","false","","","","","","","","","","null","","196","","3","0","null","null","arrowup","[0.15,0.85,0.325,0.675]","","",""
"sailing-trial","143","855299","0.0-11.0-98.0","","","","false","","","","","","","","","","260.70000000018626","","277.40000000037253","","2","0","arrowright","1","arrowleft","[0.15,0.85,0.325,0.675]","","",""
"sailing-trial","144","857088","0.0-11.0-99.0","","","","false","","","","","","","","","","null","","219.60000000009313","","2","0","null","null","arrowup","[0.15,0.85,0.325,0.675]","","",""
"sailing-trial","145","860351","0.0-11.0-100.0","","","","false","","","","","","","","","","550.7000000001863","","146.3000000002794","","1","1","arrowleft","0","arrowright","[0.15,0.85,0.325,0.675]","","",""
"sailing-trial","146","861573","0.0-11.0-101.0","","","","false","","","","","","","","","","null","","178","","3","0","null","null","arrowup","[0.15,0.85,0.325,0.675]","","",""
"sailing-trial","147","865238","0.0-11.0-102.0","","","","false","","","","","","","","","","1111","","20.200000000186265","","1","1","arrowleft","0","arrowright","[0.15,0.85,0.325,0.675]","","",""
"sailing-trial","148","867173","0.0-11.0-103.0","","","","false","","","","","","","","","","null","","134.60000000009313","","1","1","null","null","arrowup","[0.15,0.85,0.325,0.675]","","",""
"sailing-trial","149","870276","0.0-11.0-104.0","","","","false","","","","","","","","","","395.70000000018626","","166.70000000018626","","1","1","arrowleft","0","arrowright","[0.15,0.85,0.325,0.675]","","",""
"sailing-trial","150","871603","0.0-11.0-105.0","","","","false","","","","","","","","","","null","","135.3000000002794","","2","0","null","null","arrowup","[0.15,0.85,0.325,0.675]","","",""
"sailing-trial","151","874729","0.0-11.0-106.0","","","","false","","","","","","","","","","306","","153.5","","1","1","arrowleft","0","arrowright","[0.15,0.85,0.325,0.675]","","",""
"sailing-trial","152","876836","0.0-11.0-107.0","","","","false","","","","","","","","","","null","","471.59999999962747","","0","0","null","null","arrowup","[0.15,0.85,0.325,0.675]","","",""
"sailing-trial","153","879867","0.0-11.0-108.0","","","","false","","","","","","","","","","231.79999999981374","","167.29999999981374","","1","1","arrowleft","0","arrowright","[0.15,0.85,0.325,0.675]","","",""
"sailing-trial","154","881768","0.0-11.0-109.0","","","","false","","","","","","","","","","null","","208.60000000009313","","1","1","null","null","arrowup","[0.15,0.85,0.325,0.675]","","",""
"sailing-trial","155","884299","0.0-11.0-110.0","","","","false","","","","","","","","","","352.6999999997206","","9.700000000186265","","1","0","arrowleft","0","arrowright","[0.15,0.85,0.325,0.675]","","",""
"sailing-trial","156","886072","0.0-11.0-111.0","","","","false","","","","","","","","","","null","","187.20000000018626","","2","1","null","null","arrowup","[0.15,0.85,0.325,0.675]","","",""
"sailing-trial","157","888957","0.0-11.0-112.0","","","","false","","","","","","","","","","809","","64.89999999990687","","2","0","arrowright","1","arrowleft","[0.325,0.675,0.15,0.85]","","",""
"sailing-trial","158","890959","0.0-11.0-113.0","","","","false","","","","","","","","","","null","","356","","1","1","null","null","arrowup","[0.325,0.675,0.15,0.85]","","",""
"sailing-trial","159","894429","0.0-11.0-114.0","","","","false","","","","","","","","","","808","","35.60000000009313","","1","1","arrowleft","0","arrowright","[0.325,0.675,0.15,0.85]","","",""
"sailing-trial","160","895520","0.0-11.0-115.0","","","","false","","","","","","","","","","null","","24.199999999720603","","2","0","null","null","arrowup","[0.325,0.675,0.15,0.85]","","",""
"sailing-trial","161","899116","0.0-11.0-116.0","","","","false","","","","","","","","","","804.3999999999069","","126.10000000009313","","1","1","arrowleft","0","arrowright","[0.325,0.675,0.15,0.85]","","",""
"sailing-trial","162","900817","0.0-11.0-117.0","","","","false","","","","","","","","","","null","","86.39999999990687","","0","1","null","null","arrowup","[0.325,0.675,0.15,0.85]","","",""
"sailing-trial","163","903415","0.0-11.0-118.0","","","","false","","","","","","","","","","420.89999999990687","","65.29999999981374","","0","0","arrowleft","0","arrowleft","[0.325,0.675,0.15,0.85]","","",""
"sailing-trial","164","904582","0.0-11.0-119.0","","","","false","","","","","","","","","","null","","115.39999999990687","","1","0","null","null","arrowup","[0.325,0.675,0.15,0.85]","","",""
"sailing-trial","165","907773","0.0-11.0-120.0","","","","false","","","","","","","","","","544.7999999998137","","82.89999999990687","","0","1","arrowleft","0","arrowleft","[0.325,0.675,0.15,0.85]","","",""
"sailing-trial","166","908926","0.0-11.0-121.0","","","","false","","","","","","","","","","null","","69.1999999997206","","2","0","null","null","arrowup","[0.325,0.675,0.15,0.85]","","",""
"sailing-trial","167","911367","0.0-11.0-122.0","","","","false","","","","","","","","","","282.79999999981374","","9.399999999906868","","0","0","arrowleft","0","arrowleft","[0.325,0.675,0.15,0.85]","","",""
"sailing-trial","168","913061","0.0-11.0-123.0","","","","false","","","","","","","","","","null","","158.5","","1","1","null","null","arrowup","[0.325,0.675,0.15,0.85]","","",""
"sailing-trial","169","916914","0.0-11.0-124.0","","","","false","","","","","","","","","","529.7999999998137","","138.60000000009313","","1","1","arrowleft","0","arrowright","[0.325,0.675,0.15,0.85]","","",""
"sailing-trial","170","918188","0.0-11.0-125.0","","","","false","","","","","","","","","","null","","102.5","","0","0","null","null","arrowup","[0.325,0.675,0.15,0.85]","","",""
"sailing-trial","171","921117","0.0-11.0-126.0","","","","false","","","","","","","","","","164.89999999990687","","137.89999999990687","","1","1","arrowleft","0","arrowright","[0.325,0.675,0.15,0.85]","","",""
"sailing-trial","172","922985","0.0-11.0-127.0","","","","false","","","","","","","","","","null","","133.10000000009313","","1","1","null","null","arrowup","[0.325,0.675,0.15,0.85]","","",""
"sailing-trial","173","925756","0.0-11.0-128.0","","","","false","","","","","","","","","","31","","195.3000000002794","","1","1","arrowleft","0","arrowright","[0.325,0.675,0.15,0.85]","","",""
"sailing-trial","174","927522","0.0-11.0-129.0","","","","false","","","","","","","","","","null","","61.60000000009313","","0","1","null","null","arrowup","[0.325,0.675,0.15,0.85]","","",""
"sailing-trial","175","930541","0.0-11.0-130.0","","","","false","","","","","","","","","","288.10000000009313","","73.20000000018626","","1","1","arrowleft","0","arrowright","[0.15,0.85,0.325,0.675]","","",""
"sailing-trial","176","932360","0.0-11.0-131.0","","","","false","","","","","","","","","","null","","102.1999999997206","","3","1","null","null","arrowup","[0.15,0.85,0.325,0.675]","","",""
"sailing-trial","177","935029","0.0-11.0-132.0","","","","false","","","","","","","","","","14.700000000186265","","95.5","","1","1","arrowleft","0","arrowright","[0.15,0.85,0.325,0.675]","","",""
"sailing-trial","178","936293","0.0-11.0-133.0","","","","false","","","","","","","","","","null","","65.59999999962747","","3","0","null","null","arrowup","[0.15,0.85,0.325,0.675]","","",""
"sailing-trial","179","938906","0.0-11.0-134.0","","","","false","","","","","","","","","","216.70000000018626","","95.70000000018626","","1","0","arrowleft","0","arrowright","[0.15,0.85,0.325,0.675]","","",""
"sailing-trial","180","940516","0.0-11.0-135.0","","","","false","","","","","","","","","","null","","32.3000000002794","","3","1","null","null","arrowup","[0.15,0.85,0.325,0.675]","","",""
"sailing-trial","181","943586","0.0-11.0-136.0","","","","false","","","","","","","","","","342","","121.3000000002794","","3","1","arrowright","1","arrowright","[0.15,0.85,0.325,0.675]","","",""
"sailing-trial","182","945487","0.0-11.0-137.0","","","","false","","","","","","","","","","null","","7.7999999998137355","","1","1","null","null","arrowup","[0.15,0.85,0.325,0.675]","","",""
"sailing-trial","183","948690","0.0-11.0-138.0","","","","false","","","","","","","","","","553.2000000001863","","32.40000000037253","","3","1","arrowright","1","arrowright","[0.15,0.85,0.325,0.675]","","",""
"sailing-trial","184","949797","0.0-11.0-139.0","","","","false","","","","","","","","","","null","","29.09999999962747","","3","0","null","null","arrowup","[0.15,0.85,0.325,0.675]","","",""
"sailing-trial","185","952894","0.0-11.0-140.0","","","","false","","","","","","","","","","429.70000000018626","","18.700000000186265","","3","1","arrowright","1","arrowright","[0.15,0.85,0.325,0.675]","","",""
"sailing-trial","186","954844","0.0-11.0-141.0","","","","false","","","","","","","","","","null","","271.40000000037253","","3","1","null","null","arrowup","[0.15,0.85,0.325,0.675]","","",""
"sailing-trial","187","958081","0.0-11.0-142.0","","","","false","","","","","","","","","","78.40000000037253","","194.10000000009313","","3","1","arrowright","1","arrowright","[0.15,0.85,0.325,0.675]","","",""
"sailing-trial","188","960799","0.0-11.0-143.0","","","","false","","","","","","","","","","null","","1046.1999999997206","","1","1","null","null","arrowup","[0.15,0.85,0.325,0.675]","","",""
"sailing-trial","189","963426","0.0-11.0-144.0","","","","false","","","","","","","","","","196.09999999962747","","43.5","","3","0","arrowright","1","arrowright","[0.15,0.85,0.325,0.675]","","",""
"sailing-trial","190","964753","0.0-11.0-145.0","","","","false","","","","","","","","","","null","","190.29999999981374","","0","0","null","null","arrowup","[0.15,0.85,0.325,0.675]","","",""
"sailing-trial","191","967181","0.0-11.0-146.0","","","","false","","","","","","","","","","140.20000000018626","","104.09999999962747","","1","0","arrowleft","0","arrowright","[0.85,0.15,0.675,0.325]","","",""
"sailing-trial","192","970359","0.0-11.0-147.0","","","","false","","","","","","","","","","null","","172.6999999997206","","1","0","null","null","arrowup","[0.85,0.15,0.675,0.325]","","",""
"sailing-trial","193","972463","0.0-11.0-148.0","","","","false","","","","","","","","","","48.1999999997206","","28.09999999962747","","3","0","arrowright","1","arrowright","[0.85,0.15,0.675,0.325]","","",""
"sailing-trial","194","974427","0.0-11.0-149.0","","","","false","","","","","","","","","","null","","707.1999999997206","","1","0","null","null","arrowup","[0.85,0.15,0.675,0.325]","","",""
"sailing-trial","195","977931","0.0-11.0-150.0","","","","false","","","","","","","","","","83.79999999981374","","804.7999999998137","","0","1","arrowleft","0","arrowleft","[0.85,0.15,0.675,0.325]","","",""
"sailing-trial","196","979320","0.0-11.0-151.0","","","","false","","","","","","","","","","null","","208.6999999997206","","1","0","null","null","arrowup","[0.85,0.15,0.675,0.325]","","",""
"sailing-trial","197","982284","0.0-11.0-152.0","","","","false","","","","","","","","","","95.1999999997206","","124.79999999981374","","0","1","arrowleft","0","arrowleft","[0.85,0.15,0.675,0.325]","","",""
"sailing-trial","198","984053","0.0-11.0-153.0","","","","false","","","","","","","","","","null","","123.8000000002794","","1","1","null","null","arrowup","[0.85,0.15,0.675,0.325]","","",""
"sailing-trial","199","986721","0.0-11.0-154.0","","","","false","","","","","","","","","","11.699999999720603","","143.79999999981374","","0","1","arrowleft","0","arrowleft","[0.85,0.15,0.675,0.325]","","",""
"sailing-trial","200","988389","0.0-11.0-155.0","","","","false","","","","","","","","","","null","","47.10000000009313","","2","1","null","null","arrowup","[0.85,0.15,0.675,0.325]","","",""
"sailing-trial","201","991025","0.0-11.0-156.0","","","","false","","","","","","","","","","4.2000000001862645","","60.6999999997206","","0","1","arrowleft","0","arrowleft","[0.85,0.15,0.675,0.325]","","",""
"sailing-trial","202","993862","0.0-11.0-157.0","","","","false","","","","","","","","","","null","","1164","","2","1","null","null","arrowup","[0.85,0.15,0.675,0.325]","","",""
"sailing-trial","203","996282","0.0-11.0-158.0","","","","false","","","","","","","","","","152","","159.89999999990687","","0","0","arrowleft","0","arrowleft","[0.85,0.15,0.675,0.325]","","",""
"sailing-trial","204","1000360","0.0-11.0-159.0","","","","false","","","","","","","","","","null","","1660.6000000000931","","2","0","null","null","arrowup","[0.85,0.15,0.675,0.325]","","",""
"sailing-trial","205","1002599","0.0-11.0-160.0","","","","false","","","","","","","","","","26.399999999906868","","142","","2","0","arrowright","1","arrowleft","[0.85,0.15,0.675,0.325]","","",""
"sailing-trial","206","1004719","0.0-11.0-161.0","","","","false","","","","","","","","","","null","","201.10000000009313","","3","1","null","null","arrowup","[0.85,0.15,0.675,0.325]","","",""
"sailing-trial","207","1008956","0.0-11.0-162.0","","","","false","","","","","","","","","","65.20000000018626","","151.1999999997206","","3","0","arrowright","1","arrowright","[0.675,0.325,0.85,0.15]","","",""
"sailing-trial","208","1011558","0.0-11.0-163.0","","","","false","","","","","","","","","","null","","946.8999999999069","","0","1","null","null","arrowup","[0.675,0.325,0.85,0.15]","","",""
"sailing-trial","209","1014460","0.0-11.0-164.0","","","","false","","","","","","","","","","205.5","","9.100000000093132","","0","1","arrowleft","0","arrowleft","[0.675,0.325,0.85,0.15]","","",""
"sailing-trial","210","1015547","0.0-11.0-165.0","","","","false","","","","","","","","","","null","","60.3000000002794","","0","0","null","null","arrowup","[0.675,0.325,0.85,0.15]","","",""
"sailing-trial","211","1018814","0.0-11.0-166.0","","","","false","","","","","","","","","","260.60000000009313","","203.39999999990687","","0","1","arrowleft","0","arrowleft","[0.675,0.325,0.85,0.15]","","",""
"sailing-trial","212","1020632","0.0-11.0-167.0","","","","false","","","","","","","","","","null","","67.79999999981374","","0","1","null","null","arrowup","[0.675,0.325,0.85,0.15]","","",""
"sailing-trial","213","1023239","0.0-11.0-168.0","","","","false","","","","","","","","","","343.20000000018626","","44.60000000009313","","0","0","arrowleft","0","arrowleft","[0.675,0.325,0.85,0.15]","","",""
"sailing-trial","214","1025435","0.0-11.0-169.0","","","","false","","","","","","","","","","null","","237.90000000037253","","0","1","null","null","arrowup","[0.675,0.325,0.85,0.15]","","",""
"sailing-trial","215","1027922","0.0-11.0-170.0","","","","false","","","","","","","","","","344.70000000018626","","77.29999999981374","","0","0","arrowleft","0","arrowleft","[0.675,0.325,0.85,0.15]","","",""
"sailing-trial","216","1030590","0.0-11.0-171.0","","","","false","","","","","","","","","","null","","245.90000000037253","","0","1","null","null","arrowup","[0.675,0.325,0.85,0.15]","","",""
"sailing-trial","217","1033292","0.0-11.0-172.0","","","","false","","","","","","","","","","100.90000000037253","","78.8000000002794","","0","1","arrowleft","0","arrowleft","[0.675,0.325,0.85,0.15]","","",""
"sailing-trial","218","1035327","0.0-11.0-173.0","","","","false","","","","","","","","","","null","","132.5","","0","1","null","null","arrowup","[0.675,0.325,0.85,0.15]","","",""
"sailing-trial","219","1038429","0.0-11.0-174.0","","","","false","","","","","","","","","","560.5","","20.09999999962747","","2","1","arrowright","1","arrowleft","[0.675,0.325,0.85,0.15]","","",""
"sailing-trial","220","1040064","0.0-11.0-175.0","","","","false","","","","","","","","","","null","","108.6999999997206","","2","1","null","null","arrowup","[0.675,0.325,0.85,0.15]","","",""
"sailing-trial","221","1043183","0.0-11.0-176.0","","","","false","","","","","","","","","","397.10000000009313","","91.79999999981374","","2","1","arrowright","1","arrowleft","[0.675,0.325,0.85,0.15]","","",""
"sailing-trial","222","1044886","0.0-11.0-177.0","","","","false","","","","","","","","","","null","","95.79999999981374","","2","1","null","null","arrowup","[0.675,0.325,0.85,0.15]","","",""
"sailing-trial","223","1047654","0.0-11.0-178.0","","","","false","","","","","","","","","","128.1999999997206","","117.39999999990687","","2","1","arrowright","1","arrowleft","[0.675,0.325,0.85,0.15]","","",""
"sailing-trial","224","1049422","0.0-11.0-179.0","","","","false","","","","","","","","","","null","","132.60000000009313","","1","1","null","null","arrowup","[0.675,0.325,0.85,0.15]","","",""
"sailing-trial","225","1052541","0.0-11.0-180.0","","","","false","","","","","","","","","","207.5","","218","","1","1","arrowleft","0","arrowright","[0.325,0.675,0.15,0.85]","","",""
"sailing-trial","226","1054609","0.0-11.0-181.0","","","","false","","","","","","","","","","null","","175.20000000018626","","0","1","null","null","arrowup","[0.325,0.675,0.15,0.85]","","",""
"sailing-trial","227","1057171","0.0-11.0-182.0","","","","false","","","","","","","","","","341","","186.89999999990687","","2","0","arrowright","1","arrowleft","[0.325,0.675,0.15,0.85]","","",""
"sailing-trial","228","1058355","0.0-11.0-183.0","","","","false","","","","","","","","","","null","","100.29999999981374","","1","0","null","null","arrowup","[0.325,0.675,0.15,0.85]","","",""
"sailing-trial","229","1061125","0.0-11.0-184.0","","","","false","","","","","","","","","","304","","191.10000000009313","","0","0","arrowleft","0","arrowleft","[0.325,0.675,0.15,0.85]","","",""
"sailing-trial","230","1062784","0.0-11.0-185.0","","","","false","","","","","","","","","","null","","100.5","","3","1","null","null","arrowup","[0.325,0.675,0.15,0.85]","","",""
"sailing-trial","231","1065301","0.0-11.0-186.0","","","","false","","","","","","","","","","196.10000000009313","","18.799999999813735","","3","0","arrowright","1","arrowright","[0.325,0.675,0.15,0.85]","","",""
"sailing-trial","232","1067086","0.0-11.0-187.0","","","","false","","","","","","","","","","null","","53.8000000002794","","3","1","null","null","arrowup","[0.325,0.675,0.15,0.85]","","",""
"sailing-trial","233","1070572","0.0-11.0-188.0","","","","false","","","","","","","","","","91.89999999990687","","3.5","","3","1","arrowright","1","arrowright","[0.325,0.675,0.15,0.85]","","",""
"sailing-trial","234","1076310","0.0-11.0-189.0","","","","false","","","","","","","","","","null","","872.7999999998137","","2","1","null","null","arrowup","[0.325,0.675,0.15,0.85]","","",""
"sailing-trial","235","1079396","0.0-11.0-190.0","","","","false","","","","","","","","","","52","","39.60000000009313","","3","1","arrowright","1","arrowright","[0.325,0.675,0.15,0.85]","","",""
"sailing-trial","236","1080595","0.0-11.0-191.0","","","","false","","","","","","","","","","null","","9.300000000279397","","1","0","null","null","arrowup","[0.325,0.675,0.15,0.85]","","",""
"sailing-trial","237","1083967","0.0-11.0-192.0","","","","false","","","","","","","","","","271.10000000009313","","70.10000000009313","","3","1","arrowright","1","arrowright","[0.325,0.675,0.15,0.85]","","",""
"sailing-trial","238","1085721","0.0-11.0-193.0","","","","false","","","","","","","","","","null","","194.39999999990687","","3","1","null","null","arrowup","[0.325,0.675,0.15,0.85]","","",""
"sailing-trial","239","1088537","0.0-11.0-194.0","","","","false","","","","","","","","","","50.5","","182.10000000009313","","3","1","arrowright","1","arrowright","[0.325,0.675,0.15,0.85]","","",""
"sailing-trial","240","1090057","0.0-11.0-195.0","","","","false","","","","","","","","","","null","","343.39999999990687","","3","0","null","null","arrowup","[0.325,0.675,0.15,0.85]","","",""
"sailing-trial","241","1093875","0.0-11.0-196.0","","","","false","","","","","","","","","","1158.6000000000931","","66.10000000009313","","3","1","arrowright","1","arrowright","[0.325,0.675,0.15,0.85]","","",""
"sailing-trial","242","1096544","0.0-11.0-197.0","","","","false","","","","","","","","","","null","","973.7000000001863","","1","1","null","null","arrowup","[0.325,0.675,0.15,0.85]","","",""
"sailing-trial","243","1099313","0.0-11.0-198.0","","","","false","","","","","","","","","","138","","59.200000000186265","","3","1","arrowright","1","arrowright","[0.325,0.675,0.15,0.85]","","",""
"sailing-trial","244","1101164","0.0-11.0-199.0","","","","false","","","","","","","","","","null","","80.3000000002794","","3","1","null","null","arrowup","[0.325,0.675,0.15,0.85]","","",""
"sailing-trial","245","1104417","0.0-11.0-200.0","","","","false","","","","","","","","","","407.79999999981374","","193.60000000009313","","3","0","arrowright","1","arrowright","[0.85,0.15,0.675,0.325]","","",""
"sailing-trial","246","1106485","0.0-11.0-201.0","","","","false","","","","","","","","","","null","","923.6000000000931","","3","0","null","null","arrowup","[0.85,0.15,0.675,0.325]","","",""
"sailing-trial","247","1108898","0.0-11.0-202.0","","","","false","","","","","","","","","","231.5","","77.8000000002794","","1","0","arrowleft","0","arrowright","[0.85,0.15,0.675,0.325]","","",""
"sailing-trial","248","1110430","0.0-11.0-203.0","","","","false","","","","","","","","","","null","","98.90000000037253","","2","0","null","null","arrowup","[0.85,0.15,0.675,0.325]","","",""
"sailing-trial","249","1113091","0.0-11.0-204.0","","","","false","","","","","","","","","","57.299999999813735","","7.2999999998137355","","0","1","arrowleft","0","arrowleft","[0.85,0.15,0.675,0.325]","","",""
"sailing-trial","250","1115878","0.0-11.0-205.0","","","","false","","","","","","","","","","null","","1186.3000000002794","","0","1","null","null","arrowup","[0.85,0.15,0.675,0.325]","","",""
"sailing-trial","251","1121147","0.0-11.0-206.0","","","","false","","","","","","","","","","157.39999999990687","","170.3000000002794","","0","1","arrowleft","0","arrowleft","[0.85,0.15,0.675,0.325]","","",""
"sailing-trial","252","1122749","0.0-11.0-207.0","","","","false","","","","","","","","","","null","","13.799999999813735","","3","1","null","null","arrowup","[0.85,0.15,0.675,0.325]","","",""
"sailing-trial","253","1125769","0.0-11.0-208.0","","","","false","","","","","","","","","","304.39999999990687","","186","","0","1","arrowleft","0","arrowleft","[0.85,0.15,0.675,0.325]","","",""
"sailing-trial","254","1128403","0.0-11.0-209.0","","","","false","","","","","","","","","","null","","487.10000000009313","","2","1","null","null","arrowup","[0.85,0.15,0.675,0.325]","","",""
"sailing-trial","255","1132607","0.0-11.0-210.0","","","","false","","","","","","","","","","97.79999999981374","","21.200000000186265","","0","1","arrowleft","0","arrowleft","[0.85,0.15,0.675,0.325]","","",""
"sailing-trial","256","1134658","0.0-11.0-211.0","","","","false","","","","","","","","","","null","","181.39999999990687","","2","1","null","null","arrowup","[0.85,0.15,0.675,0.325]","","",""
"sailing-trial","257","1137527","0.0-11.0-212.0","","","","false","","","","","","","","","","234.89999999990687","","82.20000000018626","","0","1","arrowleft","0","arrowleft","[0.85,0.15,0.675,0.325]","","",""
"sailing-trial","258","1139160","0.0-11.0-213.0","","","","false","","","","","","","","","","null","","129","","1","0","null","null","arrowup","[0.85,0.15,0.675,0.325]","","",""
"sailing-trial","259","1142248","0.0-11.0-214.0","","","","false","","","","","","","","","","12.399999999906868","","113.20000000018626","","0","1","arrowleft","0","arrowleft","[0.85,0.15,0.675,0.325]","","",""
"sailing-trial","260","1143863","0.0-11.0-215.0","","","","false","","","","","","","","","","null","","113.70000000018626","","1","0","null","null","arrowup","[0.85,0.15,0.675,0.325]","","",""
"sailing-trial","261","1146951","0.0-11.0-216.0","","","","false","","","","","","","","","","447.6999999997206","","15.200000000186265","","0","1","arrowleft","0","arrowleft","[0.85,0.15,0.675,0.325]","","",""
"sailing-trial","262","1148206","0.0-11.0-217.0","","","","false","","","","","","","","","","null","","57.8000000002794","","1","0","null","null","arrowup","[0.85,0.15,0.675,0.325]","","",""
"sailing-trial","263","1150989","0.0-11.0-218.0","","","","false","","","","","","","","","","87","","62.10000000009313","","0","1","arrowleft","0","arrowleft","[0.85,0.15,0.675,0.325]","","",""
"sailing-trial","264","1153006","0.0-11.0-219.0","","","","false","","","","","","","","","","null","","33.10000000009313","","2","1","null","null","arrowup","[0.85,0.15,0.675,0.325]","","",""
"sailing-trial","265","1155825","0.0-11.0-220.0","","","","false","","","","","","","","","","41.89999999990687","","171.10000000009313","","0","1","arrowleft","0","arrowleft","[0.675,0.325,0.85,0.15]","","",""
"sailing-trial","266","1157427","0.0-11.0-221.0","","","","false","","","","","","","","","","null","","12.700000000186265","","0","1","null","null","arrowup","[0.675,0.325,0.85,0.15]","","",""
"sailing-trial","267","1160246","0.0-11.0-222.0","","","","false","","","","","","","","","","43.5","","138.89999999990687","","0","1","arrowleft","0","arrowleft","[0.675,0.325,0.85,0.15]","","",""
"sailing-trial","268","1161725","0.0-11.0-223.0","","","","false","","","","","","","","","","null","","50.5","","1","0","null","null","arrowup","[0.675,0.325,0.85,0.15]","","",""
"sailing-trial","269","1164549","0.0-11.0-224.0","","","","false","","","","","","","","","","0.8999999999068677","","153.5","","0","1","arrowleft","0","arrowleft","[0.675,0.325,0.85,0.15]","","",""
"sailing-trial","270","1166250","0.0-11.0-225.0","","","","false","","","","","","","","","","null","","260.89999999990687","","3","0","null","null","arrowup","[0.675,0.325,0.85,0.15]","","",""
"sailing-trial","271","1169186","0.0-11.0-226.0","","","","false","","","","","","","","","","297.10000000009313","","17.800000000279397","","0","1","arrowleft","0","arrowleft","[0.675,0.325,0.85,0.15]","","",""
"sailing-trial","272","1172172","0.0-11.0-227.0","","","","false","","","","","","","","","","null","","192.1999999997206","","1","1","null","null","arrowup","[0.675,0.325,0.85,0.15]","","",""
"sailing-trial","273","1174857","0.0-11.0-228.0","","","","false","","","","","","","","","","19.300000000279397","","146.10000000009313","","0","1","arrowleft","0","arrowleft","[0.675,0.325,0.85,0.15]","","",""
"sailing-trial","274","1176078","0.0-11.0-229.0","","","","false","","","","","","","","","","null","","199.70000000018626","","3","0","null","null","arrowup","[0.675,0.325,0.85,0.15]","","",""
"sailing-trial","275","1178610","0.0-11.0-230.0","","","","false","","","","","","","","","","252.79999999981374","","130.89999999990687","","0","0","arrowleft","0","arrowleft","[0.675,0.325,0.85,0.15]","","",""
"sailing-trial","276","1180379","0.0-11.0-231.0","","","","false","","","","","","","","","","null","","165.09999999962747","","2","1","null","null","arrowup","[0.675,0.325,0.85,0.15]","","",""
"sailing-trial","277","1182736","0.0-11.0-232.0","","","","false","","","","","","","","","","141.59999999962747","","103.89999999990687","","3","0","arrowright","1","arrowright","[0.675,0.325,0.85,0.15]","","",""
"sailing-trial","278","1185383","0.0-11.0-233.0","","","","false","","","","","","","","","","null","","1154.6000000000931","","2","1","null","null","arrowup","[0.675,0.325,0.85,0.15]","","",""
"sailing-trial","279","1188168","0.0-11.0-234.0","","","","false","","","","","","","","","","117.79999999981374","","3.5","","2","1","arrowright","1","arrowleft","[0.675,0.325,0.85,0.15]","","",""
"sailing-trial","280","1189426","0.0-11.0-235.0","","","","false","","","","","","","","","","null","","213.10000000009313","","1","0","null","null","arrowup","[0.675,0.325,0.85,0.15]","","",""
"sailing-trial","281","1191924","0.0-11.0-236.0","","","","false","","","","","","","","","","290.39999999990687","","80.09999999962747","","2","0","arrowright","1","arrowleft","[0.85,0.15,0.675,0.325]","","",""
"sailing-trial","282","1193549","0.0-11.0-237.0","","","","false","","","","","","","","","","null","","42.09999999962747","","3","0","null","null","arrowup","[0.85,0.15,0.675,0.325]","","",""
"sailing-trial","283","1195816","0.0-11.0-238.0","","","","false","","","","","","","","","","127.5","","1.1999999997206032","","1","0","arrowleft","0","arrowright","[0.85,0.15,0.675,0.325]","","",""
"sailing-trial","284","1197275","0.0-11.0-239.0","","","","false","","","","","","","","","","null","","2.5","","1","0","null","null","arrowup","[0.85,0.15,0.675,0.325]","","",""
"sailing-trial","285","1200178","0.0-11.0-240.0","","","","false","","","","","","","","","","177.10000000009313","","145.60000000009313","","0","1","arrowleft","0","arrowleft","[0.85,0.15,0.675,0.325]","","",""
"sailing-trial","286","1201396","0.0-11.0-241.0","","","","false","","","","","","","","","","null","","54.299999999813735","","1","0","null","null","arrowup","[0.85,0.15,0.675,0.325]","","",""
"sailing-trial","287","1204965","0.0-11.0-242.0","","","","false","","","","","","","","","","401.89999999990687","","131.70000000018626","","0","1","arrowleft","0","arrowleft","[0.85,0.15,0.675,0.325]","","",""
"sailing-trial","288","1206340","0.0-11.0-243.0","","","","false","","","","","","","","","","null","","171","","3","0","null","null","arrowup","[0.85,0.15,0.675,0.325]","","",""
"sailing-trial","289","1209953","0.0-11.0-244.0","","","","false","","","","","","","","","","430.39999999990687","","76.89999999990687","","0","1","arrowleft","0","arrowleft","[0.85,0.15,0.675,0.325]","","",""
"sailing-trial","290","1212171","0.0-11.0-245.0","","","","false","","","","","","","","","","null","","506.5","","0","1","null","null","arrowup","[0.85,0.15,0.675,0.325]","","",""
"sailing-trial","291","1214940","0.0-11.0-246.0","","","","false","","","","","","","","","","89.10000000009313","","44.60000000009313","","0","1","arrowleft","0","arrowleft","[0.85,0.15,0.675,0.325]","","",""
"sailing-trial","292","1216556","0.0-11.0-247.0","","","","false","","","","","","","","","","null","","161.8000000002794","","1","0","null","null","arrowup","[0.85,0.15,0.675,0.325]","","",""
"sailing-trial","293","1219611","0.0-11.0-248.0","","","","false","","","","","","","","","","146.20000000018626","","3","","0","1","arrowleft","0","arrowleft","[0.85,0.15,0.675,0.325]","","",""
"sailing-trial","294","1221345","0.0-11.0-249.0","","","","false","","","","","","","","","","null","","114.79999999981374","","0","1","null","null","arrowup","[0.85,0.15,0.675,0.325]","","",""
"sailing-trial","295","1224064","0.0-11.0-250.0","","","","false","","","","","","","","","","169","","14.899999999906868","","0","1","arrowleft","0","arrowleft","[0.85,0.15,0.675,0.325]","","",""
"sailing-trial","296","1225899","0.0-11.0-251.0","","","","false","","","","","","","","","","null","","157.20000000018626","","0","1","null","null","arrowup","[0.85,0.15,0.675,0.325]","","",""
"sailing-trial","297","1228768","0.0-11.0-252.0","","","","false","","","","","","","","","","50.5","","147.20000000018626","","0","1","arrowleft","0","arrowleft","[0.675,0.325,0.85,0.15]","","",""
"sailing-trial","298","1229942","0.0-11.0-253.0","","","","false","","","","","","","","","","null","","94","","0","0","null","null","arrowup","[0.675,0.325,0.85,0.15]","","",""
"sailing-trial","299","1233243","0.0-11.0-254.0","","","","false","","","","","","","","","","214.70000000018626","","151.8000000002794","","0","0","arrowleft","0","arrowleft","[0.675,0.325,0.85,0.15]","","",""
"sailing-trial","300","1234939","0.0-11.0-255.0","","","","false","","","","","","","","","","null","","54.8000000002794","","1","1","null","null","arrowup","[0.675,0.325,0.85,0.15]","","",""
"sailing-trial","301","1238499","0.0-11.0-256.0","","","","false","","","","","","","","","","1257","","177.39999999990687","","1","0","arrowleft","0","arrowright","[0.675,0.325,0.85,0.15]","","",""
"sailing-trial","302","1241762","0.0-11.0-257.0","","","","false","","","","","","","","","","null","","388.5","","1","0","null","null","arrowup","[0.675,0.325,0.85,0.15]","","",""
"sailing-trial","303","1244547","0.0-11.0-258.0","","","","false","","","","","","","","","","121.60000000009313","","113.60000000009313","","0","1","arrowleft","0","arrowleft","[0.675,0.325,0.85,0.15]","","",""
"sailing-trial","304","1246104","0.0-11.0-259.0","","","","false","","","","","","","","","","null","","358.10000000009313","","0","0","null","null","arrowup","[0.675,0.325,0.85,0.15]","","",""
"sailing-trial","305","1248852","0.0-11.0-260.0","","","","false","","","","","","","","","","203.70000000018626","","13.5","","0","1","arrowleft","0","arrowleft","[0.675,0.325,0.85,0.15]","","",""
"sailing-trial","306","1250499","0.0-11.0-261.0","","","","false","","","","","","","","","","null","","85.5","","3","0","null","null","arrowup","[0.675,0.325,0.85,0.15]","","",""
"sailing-trial","307","1253588","0.0-11.0-262.0","","","","false","","","","","","","","","","232.89999999990687","","103.29999999981374","","0","1","arrowleft","0","arrowleft","[0.675,0.325,0.85,0.15]","","",""
"sailing-trial","308","1255302","0.0-11.0-263.0","","","","false","","","","","","","","","","null","","215.60000000009313","","3","0","null","null","arrowup","[0.675,0.325,0.85,0.15]","","",""
"sailing-trial","309","1258125","0.0-11.0-264.0","","","","false","","","","","","","","","","182","","125.3000000002794","","0","1","arrowleft","0","arrowleft","[0.675,0.325,0.85,0.15]","","",""
"sailing-trial","310","1260127","0.0-11.0-265.0","","","","false","","","","","","","","","","null","","273.40000000037253","","1","1","null","null","arrowup","[0.675,0.325,0.85,0.15]","","",""
"sailing-trial","311","1262671","0.0-11.0-266.0","","","","false","","","","","","","","","","329.59999999962747","","165.5","","0","0","arrowleft","0","arrowleft","[0.675,0.325,0.85,0.15]","","",""
"sailing-trial","312","1263867","0.0-11.0-267.0","","","","false","","","","","","","","","","null","","179.39999999990687","","0","0","null","null","arrowup","[0.675,0.325,0.85,0.15]","","",""
"sailing-trial","313","1266883","0.0-11.0-268.0","","","","false","","","","","","","","","","420.39999999990687","","78.1999999997206","","2","1","arrowright","1","arrowleft","[0.675,0.325,0.85,0.15]","","",""
"sailing-trial","314","1268567","0.0-11.0-269.0","","","","false","","","","","","","","","","null","","111.29999999981374","","2","1","null","null","arrowup","[0.675,0.325,0.85,0.15]","","",""
"sailing-trial","315","1271770","0.0-11.0-270.0","","","","false","","","","","","","","","","65.79999999981374","","40.39999999990687","","2","1","arrowright","1","arrowleft","[0.675,0.325,0.85,0.15]","","",""
"sailing-trial","316","1273010","0.0-11.0-271.0","","","","false","","","","","","","","","","null","","94","","1","0","null","null","arrowup","[0.675,0.325,0.85,0.15]","","",""
"sailing-trial","317","1275697","0.0-11.0-272.0","","","","false","","","","","","","","","","60.8000000002794","","583.8000000002794","","1","0","arrowleft","0","arrowright","[0.85,0.15,0.675,0.325]","","",""
"sailing-trial","318","1277626","0.0-11.0-273.0","","","","false","","","","","","","","","","null","","175.79999999981374","","3","1","null","null","arrowup","[0.85,0.15,0.675,0.325]","","",""
"sailing-trial","319","1280846","0.0-11.0-274.0","","","","false","","","","","","","","","","526.1000000000931","","49.299999999813735","","2","1","arrowright","1","arrowleft","[0.85,0.15,0.675,0.325]","","",""
"sailing-trial","320","1283213","0.0-11.0-275.0","","","","false","","","","","","","","","","null","","788.5","","2","1","null","null","arrowup","[0.85,0.15,0.675,0.325]","","",""
"sailing-trial","321","1286449","0.0-11.0-276.0","","","","false","","","","","","","","","","599.7000000001863","","11.299999999813735","","2","1","arrowright","1","arrowleft","[0.85,0.15,0.675,0.325]","","",""
"sailing-trial","322","1288000","0.0-11.0-277.0","","","","false","","","","","","","","","","null","","104.20000000018626","","3","0","null","null","arrowup","[0.85,0.15,0.675,0.325]","","",""
"sailing-trial","323","1291136","0.0-11.0-278.0","","","","false","","","","","","","","","","430.70000000018626","","139.60000000009313","","2","1","arrowright","1","arrowleft","[0.85,0.15,0.675,0.325]","","",""
"sailing-trial","324","1293074","0.0-11.0-279.0","","","","false","","","","","","","","","","null","","838.3000000002794","","3","0","null","null","arrowup","[0.85,0.15,0.675,0.325]","","",""
"sailing-trial","325","1296073","0.0-11.0-280.0","","","","false","","","","","","","","","","325.40000000037253","","163.20000000018626","","2","1","arrowright","1","arrowleft","[0.85,0.15,0.675,0.325]","","",""
"sailing-trial","326","1297858","0.0-11.0-281.0","","","","false","","","","","","","","","","null","","161.89999999990687","","0","1","null","null","arrowup","[0.85,0.15,0.675,0.325]","","",""
"sailing-trial","327","1300794","0.0-11.0-282.0","","","","false","","","","","","","","","","248.5","","49.8000000002794","","2","1","arrowright","1","arrowleft","[0.85,0.15,0.675,0.325]","","",""
"sailing-trial","328","1301919","0.0-11.0-283.0","","","","false","","","","","","","","","","null","","13.5","","1","0","null","null","arrowup","[0.85,0.15,0.675,0.325]","","",""
"sailing-trial","329","1304797","0.0-11.0-284.0","","","","false","","","","","","","","","","285","","37.1999999997206","","2","1","arrowright","1","arrowleft","[0.85,0.15,0.675,0.325]","","",""
"sailing-trial","330","1306036","0.0-11.0-285.0","","","","false","","","","","","","","","","null","","106.39999999990687","","3","0","null","null","arrowup","[0.85,0.15,0.675,0.325]","","",""
"sailing-trial","331","1308779","0.0-11.0-286.0","","","","false","","","","","","","","","","19.800000000279397","","571.2000000001863","","1","0","arrowleft","0","arrowright","[0.85,0.15,0.675,0.325]","","",""
"sailing-trial","332","1311270","0.0-11.0-287.0","","","","false","","","","","","","","","","null","","944.8999999999069","","2","1","null","null","arrowup","[0.85,0.15,0.675,0.325]","","",""
"sailing-trial","333","1314188","0.0-11.0-288.0","","","","false","","","","","","","","","","165.3000000002794","","18.300000000279397","","2","1","arrowright","1","arrowleft","[0.675,0.325,0.85,0.15]","","",""
"sailing-trial","334","1316164","0.0-11.0-289.0","","","","false","","","","","","","","","","null","","842.5","","3","0","null","null","arrowup","[0.675,0.325,0.85,0.15]","","",""
"sailing-trial","335","1319392","0.0-11.0-290.0","","","","false","","","","","","","","","","562.6000000000931","","164.3000000002794","","2","1","arrowright","1","arrowleft","[0.675,0.325,0.85,0.15]","","",""
"sailing-trial","336","1320593","0.0-11.0-291.0","","","","false","","","","","","","","","","null","","179.59999999962747","","1","0","null","null","arrowup","[0.675,0.325,0.85,0.15]","","",""
"sailing-trial","337","1323512","0.0-11.0-292.0","","","","false","","","","","","","","","","332.6999999997206","","43.1999999997206","","2","1","arrowright","1","arrowleft","[0.675,0.325,0.85,0.15]","","",""
"sailing-trial","338","1325163","0.0-11.0-293.0","","","","false","","","","","","","","","","null","","37","","3","1","null","null","arrowup","[0.675,0.325,0.85,0.15]","","",""
"sailing-trial","339","1327928","0.0-11.0-294.0","","","","false","","","","","","","","","","554.8999999999069","","7.7000000001862645","","2","0","arrowright","1","arrowleft","[0.675,0.325,0.85,0.15]","","",""
"sailing-trial","340","1329583","0.0-11.0-295.0","","","","false","","","","","","","","","","null","","6","","0","1","null","null","arrowup","[0.675,0.325,0.85,0.15]","","",""
"sailing-trial","341","1332269","0.0-11.0-296.0","","","","false","","","","","","","","","","103.59999999962747","","4.100000000093132","","0","1","arrowleft","0","arrowleft","[0.675,0.325,0.85,0.15]","","",""
"sailing-trial","342","1334622","0.0-11.0-297.0","","","","false","","","","","","","","","","null","","1053.8999999999069","","3","0","null","null","arrowup","[0.675,0.325,0.85,0.15]","","",""
"sailing-trial","343","1337940","0.0-11.0-298.0","","","","false","","","","","","","","","","145.89999999990687","","60.59999999962747","","0","1","arrowleft","0","arrowleft","[0.675,0.325,0.85,0.15]","","",""
"sailing-trial","344","1339842","0.0-11.0-299.0","","","","false","","","","","","","","","","null","","249","","0","1","null","null","arrowup","[0.675,0.325,0.85,0.15]","","",""
"sailing-trial","345","1342098","0.0-11.0-300.0","","","","false","","","","","","","","","","77.39999999990687","","143.1999999997206","","0","0","arrowleft","0","arrowleft","[0.675,0.325,0.85,0.15]","","",""
"sailing-trial","346","1343728","0.0-11.0-301.0","","","","false","","","","","","","","","","null","","610.3999999999069","","3","0","null","null","arrowup","[0.675,0.325,0.85,0.15]","","",""
"sailing-trial","347","1346344","0.0-11.0-302.0","","","","false","","","","","","","","","","407.1999999997206","","57","","0","0","arrowleft","0","arrowleft","[0.675,0.325,0.85,0.15]","","",""
"sailing-trial","348","1348365","0.0-11.0-303.0","","","","false","","","","","","","","","","null","","207.79999999981374","","2","1","null","null","arrowup","[0.675,0.325,0.85,0.15]","","",""
"sailing-trial","349","1351268","0.0-11.0-304.0","","","","false","","","","","","","","","","170.79999999981374","","157.1999999997206","","2","1","arrowright","1","arrowleft","[0.675,0.325,0.85,0.15]","","",""
"sailing-trial","350","1354254","0.0-11.0-305.0","","","","false","","","","","","","","","","null","","765.3999999999069","","0","1","null","null","arrowup","[0.675,0.325,0.85,0.15]","","",""
"sailing-trial","351","1357023","0.0-11.0-306.0","","","","false","","","","","","","","","","66.79999999981374","","57.799999999813735","","2","1","arrowright","1","arrowleft","[0.15,0.85,0.325,0.675]","","",""
"sailing-trial","352","1358130","0.0-11.0-307.0","","","","false","","","","","","","","","","null","","58.5","","0","0","null","null","arrowup","[0.15,0.85,0.325,0.675]","","",""
"sailing-trial","353","1360631","0.0-11.0-308.0","","","","false","","","","","","","","","","223.10000000009313","","182.6999999997206","","2","0","arrowright","1","arrowleft","[0.15,0.85,0.325,0.675]","","",""
"sailing-trial","354","1361729","0.0-11.0-309.0","","","","false","","","","","","","","","","null","","60.60000000009313","","0","0","null","null","arrowup","[0.15,0.85,0.325,0.675]","","",""
"sailing-trial","355","1364190","0.0-11.0-310.0","","","","false","","","","","","","","","","104.5","","280.70000000018626","","0","0","arrowleft","0","arrowleft","[0.15,0.85,0.325,0.675]","","",""
"sailing-trial","356","1365507","0.0-11.0-311.0","","","","false","","","","","","","","","","null","","189.79999999981374","","3","0","null","null","arrowup","[0.15,0.85,0.325,0.675]","","",""
"sailing-trial","357","1368043","0.0-11.0-312.0","","","","false","","","","","","","","","","149.5","","188.79999999981374","","2","0","arrowright","1","arrowleft","[0.15,0.85,0.325,0.675]","","",""
"sailing-trial","358","1369783","0.0-11.0-313.0","","","","false","","","","","","","","","","null","","96.89999999990687","","1","1","null","null","arrowup","[0.15,0.85,0.325,0.675]","","",""
"sailing-trial","359","1372618","0.0-11.0-314.0","","","","false","","","","","","","","","","122.5","","113.5","","1","1","arrowleft","0","arrowright","[0.15,0.85,0.325,0.675]","","",""
"sailing-trial","360","1375337","0.0-11.0-315.0","","","","false","","","","","","","","","","null","","1135.1000000000931","","1","1","null","null","arrowup","[0.15,0.85,0.325,0.675]","","",""
"sailing-trial","361","1378723","0.0-11.0-316.0","","","","false","","","","","","","","","","658.2000000001863","","94.70000000018626","","1","1","arrowleft","0","arrowright","[0.15,0.85,0.325,0.675]","","",""
"sailing-trial","362","1381676","0.0-11.0-317.0","","","","false","","","","","","","","","","null","","803.8000000002794","","3","1","null","null","arrowup","[0.15,0.85,0.325,0.675]","","",""
"sailing-trial","363","1384796","0.0-11.0-318.0","","","","false","","","","","","","","","","87.60000000009313","","218.5","","1","1","arrowleft","0","arrowright","[0.15,0.85,0.325,0.675]","","",""
"sailing-trial","364","1385906","0.0-11.0-319.0","","","","false","","","","","","","","","","null","","61.3000000002794","","0","0","null","null","arrowup","[0.15,0.85,0.325,0.675]","","",""
"sailing-trial","365","1388699","0.0-11.0-320.0","","","","false","","","","","","","","","","147.60000000009313","","2","","2","1","arrowright","1","arrowleft","[0.15,0.85,0.325,0.675]","","",""
"sailing-trial","366","1391167","0.0-11.0-321.0","","","","false","","","","","","","","","","null","","771.1000000000931","","1","1","null","null","arrowup","[0.15,0.85,0.325,0.675]","","",""
"sailing-trial","367","1394387","0.0-11.0-322.0","","","","false","","","","","","","","","","626.5999999996275","","23.700000000186265","","1","1","arrowleft","0","arrowright","[0.325,0.675,0.15,0.85]","","",""
"sailing-trial","368","1395754","0.0-11.0-323.0","","","","false","","","","","","","","","","null","","121.10000000009313","","0","0","null","null","arrowup","[0.325,0.675,0.15,0.85]","","",""
"sailing-trial","369","1398303","0.0-11.0-324.0","","","","false","","","","","","","","","","42.39999999990687","","279.70000000018626","","2","0","arrowright","1","arrowleft","[0.325,0.675,0.15,0.85]","","",""
"sailing-trial","370","1400241","0.0-11.0-325.0","","","","false","","","","","","","","","","null","","106.89999999990687","","3","1","null","null","arrowup","[0.325,0.675,0.15,0.85]","","",""
"sailing-trial","371","1403177","0.0-11.0-326.0","","","","false","","","","","","","","","","200.79999999981374","","172","","1","1","arrowleft","0","arrowright","[0.325,0.675,0.15,0.85]","","",""
"sailing-trial","372","1405130","0.0-11.0-327.0","","","","false","","","","","","","","","","null","","743.2000000001863","","2","0","null","null","arrowup","[0.325,0.675,0.15,0.85]","","",""
"sailing-trial","373","1408115","0.0-11.0-328.0","","","","false","","","","","","","","","","676.8000000002794","","197.3000000002794","","1","0","arrowleft","0","arrowright","[0.325,0.675,0.15,0.85]","","",""
"sailing-trial","374","1409799","0.0-11.0-329.0","","","","false","","","","","","","","","","null","","115.40000000037253","","1","1","null","null","arrowup","[0.325,0.675,0.15,0.85]","","",""
"sailing-trial","375","1413169","0.0-11.0-330.0","","","","false","","","","","","","","","","698.3999999999069","","15.700000000186265","","1","1","arrowleft","0","arrowright","[0.325,0.675,0.15,0.85]","","",""
"sailing-trial","376","1414870","0.0-11.0-331.0","","","","false","","","","","","","","","","null","","142.09999999962747","","3","1","null","null","arrowup","[0.325,0.675,0.15,0.85]","","",""
"sailing-trial","377","1417807","0.0-11.0-332.0","","","","false","","","","","","","","","","253.90000000037253","","38.700000000186265","","1","1","arrowleft","0","arrowright","[0.325,0.675,0.15,0.85]","","",""
"sailing-trial","378","1419424","0.0-11.0-333.0","","","","false","","","","","","","","","","null","","3.1000000000931323","","3","1","null","null","arrowup","[0.325,0.675,0.15,0.85]","","",""
"sailing-trial","379","1424344","0.0-11.0-334.0","","","","false","","","","","","","","","","116.20000000018626","","236","","1","1","arrowleft","0","arrowright","[0.325,0.675,0.15,0.85]","","",""
"sailing-trial","380","1426191","0.0-11.0-335.0","","","","false","","","","","","","","","","null","","819.5999999996275","","0","0","null","null","arrowup","[0.325,0.675,0.15,0.85]","","",""
"sailing-trial","381","1428921","0.0-11.0-336.0","","","","false","","","","","","","","","","10.299999999813735","","194.79999999981374","","1","0","arrowleft","0","arrowright","[0.325,0.675,0.15,0.85]","","",""
"sailing-trial","382","1430165","0.0-11.0-337.0","","","","false","","","","","","","","","","null","","89.10000000009313","","2","0","null","null","arrowup","[0.325,0.675,0.15,0.85]","","",""
"sailing-trial","383","1432830","0.0-11.0-338.0","","","","false","","","","","","","","","","163.40000000037253","","193.79999999981374","","0","0","arrowleft","0","arrowleft","[0.325,0.675,0.15,0.85]","","",""
"sailing-trial","384","1434876","0.0-11.0-339.0","","","","false","","","","","","","","","","null","","824.3999999999069","","2","0","null","null","arrowup","[0.325,0.675,0.15,0.85]","","",""
"sailing-trial","385","1437425","0.0-11.0-340.0","","","","false","","","","","","","","","","114.79999999981374","","150.39999999990687","","0","0","arrowleft","0","arrowleft","[0.325,0.675,0.15,0.85]","","",""
"sailing-trial","386","1442242","0.0-11.0-341.0","","","","false","","","","","","","","","","null","","1288.7000000001863","","2","1","null","null","arrowup","[0.325,0.675,0.15,0.85]","","",""
"sailing-trial","387","1445378","0.0-11.0-342.0","","","","false","","","","","","","","","","134.20000000018626","","156","","2","1","arrowright","1","arrowleft","[0.325,0.675,0.15,0.85]","","",""
"sailing-trial","388","1447880","0.0-11.0-343.0","","","","false","","","","","","","","","","null","","754.8999999999069","","3","1","null","null","arrowup","[0.325,0.675,0.15,0.85]","","",""
"sailing-trial","389","1450474","0.0-11.0-344.0","","","","false","","","","","","","","","","432.89999999990687","","94.70000000018626","","2","0","arrowright","1","arrowleft","[0.325,0.675,0.15,0.85]","","",""
"sailing-trial","390","1452667","0.0-11.0-345.0","","","","false","","","","","","","","","","null","","81.10000000009313","","3","1","null","null","arrowup","[0.325,0.675,0.15,0.85]","","",""
"sailing-trial","391","1456020","0.0-11.0-346.0","","","","false","","","","","","","","","","130.89999999990687","","306.5","","3","1","arrowright","1","arrowright","[0.85,0.15,0.675,0.325]","","",""
"sailing-trial","392","1457253","0.0-11.0-347.0","","","","false","","","","","","","","","","null","","159.10000000009313","","2","0","null","null","arrowup","[0.85,0.15,0.675,0.325]","","",""
"sailing-trial","393","1460607","0.0-11.0-348.0","","","","false","","","","","","","","","","99.20000000018626","","298.10000000009313","","3","1","arrowright","1","arrowright","[0.85,0.15,0.675,0.325]","","",""
"sailing-trial","394","1461722","0.0-11.0-349.0","","","","false","","","","","","","","","","null","","67.40000000037253","","2","0","null","null","arrowup","[0.85,0.15,0.675,0.325]","","",""
"sailing-trial","395","1464444","0.0-11.0-350.0","","","","false","","","","","","","","","","19.5","","40.299999999813735","","3","1","arrowright","1","arrowright","[0.85,0.15,0.675,0.325]","","",""
"sailing-trial","396","1465745","0.0-11.0-351.0","","","","false","","","","","","","","","","null","","151.60000000009313","","1","0","null","null","arrowup","[0.85,0.15,0.675,0.325]","","",""
"sailing-trial","397","1468547","0.0-11.0-352.0","","","","false","","","","[{""event"":""fullscreenenter"",""trial"":3,""time"":17164},{""event"":""blur"",""trial"":7,""time"":29482},{""event"":""focus"",""trial"":7,""time"":33770},{""event"":""blur"",""trial"":37,""time"":469462},{""event"":""fullscreenexit"",""trial"":37,""time"":469762},{""event"":""focus"",""trial"":37,""time"":474949},{""event"":""blur"",""trial"":37,""time"":477234},{""event"":""focus"",""trial"":37,""time"":477785},{""event"":""blur"",""trial"":398,""time"":1470142},{""event"":""focus"",""trial"":398,""time"":1471013}]","false","","","","","8.300000000279397","","121.3000000002794","","3","1","arrowright","1","arrowright","[0.85,0.15,0.675,0.325]","","",""
"sailing-trial","398","1471650","0.0-11.0-353.0","","","","false","","","","","","","","","","null","","83.5","","3","0","null","null","arrowup","[0.85,0.15,0.675,0.325]","","",""
"sailing-trial","399","1475719","0.0-11.0-354.0","","","","false","","","","","","","","","","25.600000000093132","","48","","3","0","arrowright","1","arrowright","[0.85,0.15,0.675,0.325]","","",""
"sailing-trial","400","1479456","0.0-11.0-355.0","","","","false","","","","","","","","","","null","","121","","2","1","null","null","arrowup","[0.85,0.15,0.675,0.325]","","",""
"sailing-trial","401","1482975","0.0-11.0-356.0","","","","false","","","","","","","","","","659.7999999998137","","25.5","","0","1","arrowleft","0","arrowleft","[0.85,0.15,0.675,0.325]","","",""
"sailing-trial","402","1484760","0.0-11.0-357.0","","","","false","","","","","","","","","","null","","176.09999999962747","","2","1","null","null","arrowup","[0.85,0.15,0.675,0.325]","","",""
"sailing-trial","403","1489464","0.0-11.0-358.0","","","","false","","","","","","","","","","476.39999999990687","","232.39999999990687","","2","0","arrowright","1","arrowleft","[0.85,0.15,0.675,0.325]","","",""
"sailing-trial","404","1491082","0.0-11.0-359.0","","","","false","","","","","","","","","","null","","90.60000000009313","","0","1","null","null","arrowup","[0.85,0.15,0.675,0.325]","","",""
"sailing-trial","405","1494626","0.0-11.0-360.0","","","","false","","","","","","","","","","485.5","","142.39999999990687","","0","0","arrowleft","0","arrowleft","[0.85,0.15,0.675,0.325]","","",""
"sailing-trial","406","1497004","0.0-11.0-361.0","","","","false","","","","","","","","","","null","","542.6000000000931","","2","1","null","null","arrowup","[0.85,0.15,0.675,0.325]","","",""
"sailing-trial","407","1500123","0.0-11.0-362.0","","","","false","","","","","","","","","","52.700000000186265","","26.5","","2","1","arrowright","1","arrowleft","[0.85,0.15,0.675,0.325]","","",""
"sailing-trial","408","1502708","0.0-11.0-363.0","","","","false","","","","","","","","","","null","","1007.7000000001863","","0","1","null","null","arrowup","[0.85,0.15,0.675,0.325]","","",""
"sailing-trial","409","1505461","0.0-11.0-364.0","","","","false","","","","","","","","","","137.29999999981374","","35.700000000186265","","2","1","arrowright","1","arrowleft","[0.85,0.15,0.675,0.325]","","",""
"sailing-trial","410","1507312","0.0-11.0-365.0","","","","false","","","","","","","","","","null","","104.10000000009313","","2","1","null","null","arrowup","[0.85,0.15,0.675,0.325]","","",""
"sailing-trial","411","1510915","0.0-11.0-366.0","","","","false","","","","","","","","","","950.5","","133.20000000018626","","2","1","arrowright","1","arrowleft","[0.675,0.325,0.85,0.15]","","",""
"sailing-trial","412","1513234","0.0-11.0-367.0","","","","false","","","","","","","","","","null","","774.3999999999069","","0","1","null","null","arrowup","[0.675,0.325,0.85,0.15]","","",""
"sailing-trial","413","1516203","0.0-11.0-368.0","","","","false","","","","","","","","","","158.20000000018626","","139.79999999981374","","2","1","arrowright","1","arrowleft","[0.675,0.325,0.85,0.15]","","",""
"sailing-trial","414","1517938","0.0-11.0-369.0","","","","false","","","","","","","","","","null","","167.89999999990687","","2","1","null","null","arrowup","[0.675,0.325,0.85,0.15]","","",""
"sailing-trial","415","1521040","0.0-11.0-370.0","","","","false","","","","","","","","","","39.200000000186265","","34.8000000002794","","1","1","arrowleft","0","arrowright","[0.675,0.325,0.85,0.15]","","",""
"sailing-trial","416","1524844","0.0-11.0-371.0","","","","false","","","","","","","","","","null","","804.6999999997206","","0","0","null","null","arrowup","[0.675,0.325,0.85,0.15]","","",""
"sailing-trial","417","1531832","0.0-11.0-372.0","","","","false","","","","","","","","","","3702.5","","48.10000000009313","","2","1","arrowright","1","arrowleft","[0.675,0.325,0.85,0.15]","","",""
"sailing-trial","418","1534368","0.0-11.0-373.0","","","","false","","","","","","","","","","null","","997.8000000002794","","1","1","null","null","arrowup","[0.675,0.325,0.85,0.15]","","",""
"sailing-trial","419","1536736","0.0-11.0-374.0","","","","false","","","","","","","","","","97.5","","188.8000000002794","","2","0","arrowright","1","arrowleft","[0.675,0.325,0.85,0.15]","","",""
"sailing-trial","420","1539705","0.0-11.0-375.0","","","","false","","","","","","","","","","null","","1324.1000000000931","","1","1","null","null","arrowup","[0.675,0.325,0.85,0.15]","","",""
"sailing-trial","421","1542975","0.0-11.0-376.0","","","","false","","","","","","","","","","192.8000000002794","","381.90000000037253","","2","1","arrowright","1","arrowleft","[0.675,0.325,0.85,0.15]","","",""
"sailing-trial","422","1544397","0.0-11.0-377.0","","","","false","","","","","","","","","","null","","83.5","","3","0","null","null","arrowup","[0.675,0.325,0.85,0.15]","","",""
"sailing-trial","423","1548096","0.0-11.0-378.0","","","","false","","","","","","","","","","143.89999999990687","","982.3000000002794","","2","1","arrowright","1","arrowleft","[0.675,0.325,0.85,0.15]","","",""
"sailing-trial","424","1551081","0.0-11.0-379.0","","","","false","","","","","","","","","","null","","1138.2999999998137","","2","1","null","null","arrowup","[0.675,0.325,0.85,0.15]","","",""
"sailing-trial","425","1554084","0.0-11.0-380.0","","","","false","","","","","","","","","","145.89999999990687","","201.10000000009313","","0","1","arrowleft","0","arrowleft","[0.675,0.325,0.85,0.15]","","",""
"sailing-trial","426","1555301","0.0-11.0-381.0","","","","false","","","","","","","","","","null","","65.60000000009313","","0","0","null","null","arrowup","[0.675,0.325,0.85,0.15]","","",""
"sailing-trial","427","1559004","0.0-11.0-382.0","","","","false","","","","","","","","","","413.79999999981374","","278.60000000009313","","2","1","arrowright","1","arrowleft","[0.675,0.325,0.85,0.15]","","",""
"sailing-trial","428","1560210","0.0-11.0-383.0","","","","false","","","","","","","","","","null","","178.6999999997206","","3","0","null","null","arrowup","[0.675,0.325,0.85,0.15]","","",""
"sailing-trial","429","1563191","0.0-11.0-384.0","","","","false","","","","","","","","","","23.399999999906868","","170.89999999990687","","0","1","arrowleft","0","arrowleft","[0.85,0.15,0.675,0.325]","","",""
"sailing-trial","430","1565433","0.0-11.0-385.0","","","","false","","","","","","","","","","null","","868","","1","0","null","null","arrowup","[0.85,0.15,0.675,0.325]","","",""
"sailing-trial","431","1570062","0.0-11.0-386.0","","","","false","","","","","","","","","","781.1999999997206","","95.70000000018626","","2","1","arrowright","1","arrowleft","[0.85,0.15,0.675,0.325]","","",""
"sailing-trial","432","1571313","0.0-11.0-387.0","","","","false","","","","","","","","","","null","","223","","2","0","null","null","arrowup","[0.85,0.15,0.675,0.325]","","",""
"sailing-trial","433","1574766","0.0-11.0-388.0","","","","false","","","","","","","","","","824.2999999998137","","43","","2","1","arrowright","1","arrowleft","[0.85,0.15,0.675,0.325]","","",""
"sailing-trial","434","1576685","0.0-11.0-389.0","","","","false","","","","","","","","","","null","","109.20000000018626","","2","1","null","null","arrowup","[0.85,0.15,0.675,0.325]","","",""
"sailing-trial","435","1580071","0.0-11.0-390.0","","","","false","","","","","","","","","","483.89999999990687","","92.70000000018626","","2","1","arrowright","1","arrowleft","[0.85,0.15,0.675,0.325]","","",""
"sailing-trial","436","1582206","0.0-11.0-391.0","","","","false","","","","","","","","","","null","","395.89999999990687","","3","1","null","null","arrowup","[0.85,0.15,0.675,0.325]","","",""
"sailing-trial","437","1584797","0.0-11.0-392.0","","","","false","","","","","","","","","","130.79999999981374","","316.8000000002794","","1","0","arrowleft","0","arrowright","[0.85,0.15,0.675,0.325]","","",""
"sailing-trial","438","1586459","0.0-11.0-393.0","","","","false","","","","","","","","","","null","","100","","0","1","null","null","arrowup","[0.85,0.15,0.675,0.325]","","",""
"sailing-trial","439","1589069","0.0-11.0-394.0","","","","false","","","","","","","","","","219.29999999981374","","168.89999999990687","","2","0","arrowright","1","arrowleft","[0.85,0.15,0.675,0.325]","","",""
"sailing-trial","440","1590319","0.0-11.0-395.0","","","","false","","","","","","","","","","null","","150.60000000009313","","2","0","null","null","arrowup","[0.85,0.15,0.675,0.325]","","",""
"sailing-trial","441","1592435","0.0-11.0-396.0","","","","false","","","","","","","","","","39.200000000186265","","79.60000000009313","","3","0","arrowright","1","arrowright","[0.85,0.15,0.675,0.325]","","",""
"sailing-trial","442","1594883","0.0-11.0-397.0","","","","false","","","","","","","","","","null","","744","","0","1","null","null","arrowup","[0.85,0.15,0.675,0.325]","","",""
"sailing-trial","443","1597902","0.0-11.0-398.0","","","","false","","","","","","","","","","188.8000000002794","","94","","0","1","arrowleft","0","arrowleft","[0.85,0.15,0.675,0.325]","","",""
"sailing-trial","444","1598946","0.0-11.0-399.0","","","","false","","","","","","","","","","null","","29.800000000279397","","1","0","null","null","arrowup","[0.85,0.15,0.675,0.325]","","",""
"instructions","445","1602573","0.0-12.0","","","","","","","","","","3626.899999999907","","","","","","","","","","","","","","","","[{""page_index"":0,""viewing_time"":3626.6999999997206}]"
"survey-debrief","446","1626554","0.0-13.0","","","","","","","","","","23979.399999999907","","","","","","","","","","","","","","{""difficulty"":""2"",""fun"":""3"",""clarity"":""5"",""strategy"":""No"",""feedback"":""Very tiring""}","",""
